#time,accel_x,accel_y,accel_z
774.355270,383.047749,-0.000000,9474.636058
774.355585,229.828649,-74.020594,9622.677246
774.355901,306.438199,-222.061783,9548.656652
774.356216,229.828649,-74.020594,9474.636058
774.356532,612.876398,148.041188,9548.656652
774.356847,229.828649,-222.061783,9252.574275
774.357163,153.219100,-444.123565,9548.656652
774.357479,612.876398,-148.041188,9326.594869
774.357794,459.657299,-0.000000,9548.656652
774.358110,383.047749,-296.082377,9400.615463
774.358425,229.828649,-222.061783,9474.636058
774.358741,536.266849,-370.102971,9474.636058
774.359056,306.438199,-148.041188,9400.615463
774.359372,459.657299,222.061783,10214.842000
774.359687,229.828649,-0.000000,9474.636058
774.360003,383.047749,-148.041188,9326.594869
774.360318,306.438199,148.041188,9326.594869
774.360634,459.657299,222.061783,9104.533087
774.360949,383.047749,222.061783,9326.594869
774.361265,153.219100,-0.000000,9474.636058
774.361581,76.609550,-74.020594,9326.594869
774.361896,153.219100,-0.000000,9622.677246
774.362212,76.609550,-148.041188,9622.677246
774.362527,153.219100,-740.205942,9992.780217
774.362843,0.000000,-148.041188,9622.677246
774.363158,76.609550,-148.041188,9696.697840
774.363474,306.438199,-0.000000,9548.656652
774.363789,459.657299,740.205942,9252.574275
774.364105,766.095498,666.185348,8956.491898
774.364420,689.485948,814.226536,9178.553681
774.364736,612.876398,740.205942,9252.574275
774.365051,459.657299,740.205942,9178.553681
774.365367,689.485948,592.164754,9326.594869
774.365682,689.485948,370.102971,9548.656652
774.365998,689.485948,222.061783,9622.677246
774.366314,612.876398,444.123565,9770.718434
774.366629,766.095498,666.185348,9770.718434
774.366945,612.876398,666.185348,9844.739029
774.367260,766.095498,592.164754,9474.636058
774.367576,1455.581446,962.267725,9548.656652
774.367891,1455.581446,1258.350101,9400.615463
774.368207,1915.238745,1554.432478,9252.574275
774.368522,1532.190996,1554.432478,9030.512492
774.368838,2145.067394,1554.432478,9030.512492
774.369153,2298.286494,1702.473667,9104.533087
774.369469,2298.286494,1850.514855,9030.512492
774.369784,2757.943793,1776.494261,9474.636058
774.370100,2757.943793,1702.473667,9474.636058
774.370415,2757.943793,2072.576638,9474.636058
774.370731,2528.115143,1850.514855,9474.636058
774.371047,2528.115143,1998.556043,9474.636058
774.371362,2681.334243,2294.638420,9622.677246
774.371678,3064.381992,2220.617826,9474.636058
774.371993,3064.381992,2368.659014,9474.636058
774.372309,2987.772442,2664.741391,9548.656652
774.372624,3217.601092,2442.679609,9400.615463
774.372940,3753.867940,2590.720797,9252.574275
774.373255,3140.991542,2516.700203,9178.553681
774.373571,3217.601092,2368.659014,9326.594869
774.373886,3140.991542,2590.720797,9326.594869
774.374202,3140.991542,2812.782580,9474.636058
774.374517,3064.381992,2738.761985,9548.656652
774.374833,3064.381992,2442.679609,9770.718434
774.375148,2834.553343,2664.741391,9844.739029
774.375464,2681.334243,2368.659014,9770.718434
774.375780,2604.724693,2368.659014,9844.739029
774.376095,2604.724693,1776.494261,9992.780217
774.376411,2604.724693,2146.597232,10362.883188
774.376726,2834.553343,2072.576638,9992.780217
774.377042,2451.505594,2368.659014,9918.759623
774.377357,2451.505594,2368.659014,9770.718434
774.377673,2987.772442,2368.659014,10140.821405
774.377988,2757.943793,2220.617826,9992.780217
774.378304,2528.115143,2146.597232,9770.718434
774.378619,2757.943793,2220.617826,9474.636058
774.378935,2681.334243,1850.514855,9400.615463
774.379250,2451.505594,1924.535449,9622.677246
774.379566,2374.896044,2294.638420,9252.574275
774.379882,1915.238745,1998.556043,9474.636058
774.380197,1608.800546,1554.432478,9622.677246
774.380513,1302.362347,1036.288319,9844.739029
774.380828,766.095498,444.123565,9992.780217
774.381144,536.266849,-0.000000,10436.903782
774.381459,383.047749,-444.123565,10955.047942
774.381775,842.705048,-518.144159,10955.047942
774.382090,1378.971896,-518.144159,10955.047942
774.382406,1532.190996,222.061783,10362.883188
774.382721,1991.848295,814.226536,9622.677246
774.383037,2834.553343,1702.473667,9252.574275
774.383352,3294.210641,2442.679609,8142.265362
774.383668,3830.477490,2886.803174,7254.018232
774.383983,4366.744339,2960.823768,7328.038826
774.384299,4596.572988,2590.720797,7179.997637
774.384615,4443.353888,2368.659014,7402.059420
774.384930,3983.696590,1628.453072,7698.141797
774.385246,2911.162892,1258.350101,8290.306550
774.385561,2068.457845,962.267725,8734.430116
774.385877,1149.143247,666.185348,9474.636058
774.386192,153.219100,-0.000000,10066.800811
774.386508,-383.047749,-296.082377,10288.862594
774.386823,-536.266849,-740.205942,11029.068536
774.387139,-689.485948,-1332.370696,11103.089130
774.387454,-612.876398,-888.247130,11547.212695
774.387770,0.000000,-444.123565,10955.047942
774.388085,919.314598,-148.041188,11029.068536
774.388401,1608.800546,814.226536,9770.718434
774.388716,2987.772442,2294.638420,9178.553681
774.389032,3983.696590,2738.761985,8068.244768
774.389348,5362.668486,3034.844362,7624.121203
774.389663,6128.763984,3404.947333,7550.100608
774.389979,6741.640382,4219.173869,6661.853478
774.390294,6665.030833,4589.276840,6587.832884
774.390610,6588.421283,4367.215058,6883.915261
774.390925,5822.325785,3923.091493,7402.059420
774.391241,5056.230287,2960.823768,8364.327145
774.391556,3140.991542,1554.432478,9548.656652
774.391872,1762.019645,370.102971,10732.986159
774.392187,306.438199,-666.185348,11917.315666
774.392503,0.000000,-814.226536,13027.624579
774.392818,-919.314598,-444.123565,13323.706956
774.393134,-1072.533697,518.144159,12805.562797
774.393449,-459.657299,1406.391290,11843.295072
774.393765,383.047749,2442.679609,10807.006753
774.394081,1072.533697,3182.885551,9622.677246
774.394396,2834.553343,3775.050304,8364.327145
774.394712,4213.525239,3923.091493,7846.182985
774.395027,5132.839837,3627.009116,7550.100608
774.395343,5745.716235,3108.864956,7772.162391
774.395658,5898.935335,2590.720797,7772.162391
774.395974,5592.497135,2886.803174,8216.285956
774.396289,5209.449386,2886.803174,9622.677246
774.396605,4519.963438,2664.741391,10288.862594
774.396920,3830.477490,2590.720797,11103.089130
774.397236,2528.115143,2960.823768,10881.027347
774.397551,1838.629195,3701.029710,10288.862594
774.397867,2068.457845,3627.009116,10436.903782
774.398182,2298.286494,3256.906145,10066.800811
774.398498,2221.676944,2886.803174,9548.656652
774.398814,1532.190996,2368.659014,9770.718434
774.399129,1072.533697,1702.473667,9474.636058
774.399445,1225.752797,1110.308913,9918.759623
774.399760,1378.971896,1480.411884,9844.739029
774.400076,1608.800546,1924.535449,9770.718434
774.400391,383.047749,2146.597232,9548.656652
774.400707,383.047749,1776.494261,10140.821405
774.401022,766.095498,1036.288319,10436.903782
774.401338,1608.800546,666.185348,10362.883188
774.401653,1838.629195,370.102971,10140.821405
774.401969,1532.190996,1110.308913,10732.986159
774.402284,2221.676944,2072.576638,10510.924376
774.402600,3294.210641,2294.638420,9770.718434
774.402916,4060.306139,3775.050304,8808.450710
774.403231,4060.306139,4737.318029,7402.059420
774.403547,4366.744339,4663.297435,6661.853478
774.403862,5286.058936,2960.823768,7105.977043
774.404178,5132.839837,2516.700203,6809.894666
774.404493,4213.525239,2738.761985,7254.018232
774.404809,3370.820191,1036.288319,7624.121203
774.405124,2374.896044,-370.102971,9770.718434
774.405440,1378.971896,-592.164754,10584.944971
774.405755,-995.924147,-0.000000,11325.150913
774.406071,-995.924147,148.041188,11843.295072
774.406386,-995.924147,-74.020594,12139.377449
774.406702,-153.219100,222.061783,11325.150913
774.407017,153.219100,592.164754,10955.047942
774.407333,1225.752797,1332.370696,10140.821405
774.407649,2681.334243,1332.370696,9918.759623
774.407964,3753.867940,1554.432478,9030.512492
774.408280,4903.011187,3404.947333,7402.059420
774.408595,5898.935335,3775.050304,6883.915261
774.408911,6281.983084,3478.967927,7105.977043
774.409226,5898.935335,2812.782580,7550.100608
774.409542,5745.716235,2738.761985,7328.038826
774.409857,5056.230287,2516.700203,8216.285956
774.410173,4136.915689,2294.638420,8882.471304
774.410488,2374.896044,2664.741391,9252.574275
774.410804,1302.362347,2072.576638,9474.636058
774.411119,842.705048,1110.308913,10658.965565
774.411435,-383.047749,-0.000000,11843.295072
774.411750,-1685.410096,-1036.288319,12509.480420
774.412066,-1991.848295,-2294.638420,12805.562797
774.412382,-1838.629195,-2072.576638,12509.480420
774.412704,-1072.533697,-518.144159,11325.150913
774.413020,842.705048,296.082377,11103.089130
774.413336,2451.505594,1110.308913,10732.986159
774.413651,3524.039291,2516.700203,8438.347739
774.413967,4366.744339,3108.864956,6143.709319
774.414283,5515.887586,2590.720797,7772.162391
774.414599,5362.668486,3108.864956,7624.121203
774.414915,5745.716235,4959.379811,6809.894666
774.415230,6128.763984,2294.638420,7328.038826
774.415546,4826.401637,2146.597232,8586.388927
774.415862,2757.943793,1924.535449,9622.677246
774.416178,1915.238745,-518.144159,10807.006753
774.416494,842.705048,-74.020594,11695.253884
774.416809,-995.924147,592.164754,11251.130318
774.417125,0.000000,148.041188,11991.336260
774.417441,766.095498,-222.061783,11991.336260
774.417757,459.657299,444.123565,10955.047942
774.418072,689.485948,518.144159,10807.006753
774.418388,919.314598,-0.000000,9400.615463
774.418704,1532.190996,1480.411884,9326.594869
774.419020,3140.991542,1406.391290,8512.368333
774.419336,3677.258390,962.267725,8068.244768
774.419651,3447.429741,1184.329507,8808.450710
774.419967,3217.601092,1332.370696,8364.327145
774.420283,3524.039291,1258.350101,7846.182985
774.420599,3140.991542,2368.659014,8290.306550
774.420915,2834.553343,2220.617826,9030.512492
774.421230,3370.820191,1554.432478,8734.430116
774.421546,2221.676944,1628.453072,8956.491898
774.421862,1685.410096,1110.308913,9622.677246
774.422178,689.485948,814.226536,8734.430116
774.422493,383.047749,1332.370696,9104.533087
774.422809,383.047749,444.123565,10436.903782
774.423125,0.000000,-666.185348,9252.574275
774.423441,-689.485948,-370.102971,9770.718434
774.423757,-1149.143247,-592.164754,9918.759623
774.424072,-1455.581446,-370.102971,9696.697840
774.424388,-1072.533697,-222.061783,10140.821405
774.424704,-689.485948,-518.144159,10288.862594
774.425020,-612.876398,-148.041188,9696.697840
774.425336,-689.485948,-0.000000,9696.697840
774.425651,0.000000,296.082377,9844.739029
774.425967,153.219100,1776.494261,8290.306550
774.426283,1455.581446,1702.473667,8882.471304
774.426599,1838.629195,1480.411884,8808.450710
774.426915,1991.848295,1850.514855,8882.471304
774.427230,2374.896044,888.247130,8290.306550
774.427546,1991.848295,1258.350101,8216.285956
774.427862,2528.115143,1332.370696,8512.368333
774.428178,2374.896044,-0.000000,10066.800811
774.428493,1149.143247,370.102971,9770.718434
774.428809,0.000000,-148.041188,9474.636058
774.429125,0.000000,-666.185348,11547.212695
774.429441,-1149.143247,370.102971,9844.739029
774.429757,-1149.143247,222.061783,10436.903782
774.430072,0.000000,-592.164754,11029.068536
774.430388,-919.314598,-1258.350101,10658.965565
774.430704,-612.876398,-0.000000,10288.862594
774.431020,0.000000,-74.020594,9770.718434
774.431336,612.876398,666.185348,8364.327145
774.431651,1991.848295,740.205942,9178.553681
774.431967,1685.410096,592.164754,8956.491898
774.432283,1072.533697,518.144159,9252.574275
774.432599,919.314598,148.041188,9030.512492
774.432914,919.314598,518.144159,9030.512492
774.433230,1149.143247,888.247130,8956.491898
774.433546,536.266849,-148.041188,9844.739029
774.433862,-229.828649,-666.185348,9474.636058
774.434178,-689.485948,-888.247130,10881.027347
774.434493,-995.924147,-1702.473667,11695.253884
774.434809,-1149.143247,-592.164754,9992.780217
774.435125,-766.095498,-666.185348,10658.965565
774.435441,0.000000,-1184.329507,10436.903782
774.435757,-536.266849,-0.000000,9474.636058
774.436072,-383.047749,-518.144159,9918.759623
774.436388,459.657299,-0.000000,9178.553681
774.436704,1455.581446,74.020594,8068.244768
774.437020,2068.457845,-148.041188,8512.368333
774.437336,2298.286494,-296.082377,8512.368333
774.437651,1455.581446,-444.123565,8734.430116
774.437967,1762.019645,-148.041188,9030.512492
774.438283,1225.752797,370.102971,8142.265362
774.438599,1302.362347,-74.020594,9326.594869
774.438914,1072.533697,-296.082377,9622.677246
774.439230,-536.266849,-962.267725,9400.615463
774.439546,-536.266849,-1480.411884,10066.800811
774.439862,-306.438199,-1258.350101,10066.800811
774.440178,-229.828649,-666.185348,8734.430116
774.440493,153.219100,-1480.411884,9918.759623
774.440809,76.609550,-1924.535449,10214.842000
774.441125,-229.828649,-1628.453072,9992.780217
774.441441,153.219100,-444.123565,9326.594869
774.441757,612.876398,740.205942,8512.368333
774.442072,1455.581446,518.144159,8512.368333
774.442388,1762.019645,-222.061783,8438.347739
774.442704,1302.362347,-0.000000,8438.347739
774.443020,689.485948,-592.164754,9252.574275
774.443336,1455.581446,-0.000000,9178.553681
774.443651,1149.143247,592.164754,8068.244768
774.443967,995.924147,-0.000000,9326.594869
774.444283,766.095498,148.041188,9622.677246
774.444599,-306.438199,-370.102971,9400.615463
774.444914,-153.219100,-222.061783,9992.780217
774.445230,0.000000,666.185348,9400.615463
774.445546,229.828649,370.102971,9622.677246
774.445862,0.000000,296.082377,9474.636058
774.446178,-842.705048,-74.020594,8956.491898
774.446493,-536.266849,-148.041188,10436.903782
774.446809,-459.657299,222.061783,9622.677246
774.447125,-229.828649,-0.000000,8364.327145
774.447441,153.219100,-296.082377,10510.924376
774.447757,0.000000,-666.185348,10658.965565
774.448072,-766.095498,-444.123565,10288.862594
774.448388,229.828649,444.123565,10510.924376
774.448704,536.266849,1702.473667,9474.636058
774.449020,995.924147,1924.535449,8882.471304
774.449335,1608.800546,1998.556043,9178.553681
774.449651,766.095498,888.247130,9104.533087
774.449967,842.705048,-222.061783,9992.780217
774.450283,1378.971896,222.061783,9696.697840
774.450599,995.924147,148.041188,8882.471304
774.450914,1838.629195,-148.041188,10214.842000
774.451230,1302.362347,-296.082377,9696.697840
774.451546,-153.219100,-1258.350101,9918.759623
774.451862,0.000000,-222.061783,10807.006753
774.452178,0.000000,444.123565,9474.636058
774.452493,459.657299,-0.000000,9696.697840
774.452809,766.095498,-0.000000,10807.006753
774.453125,-306.438199,-814.226536,9918.759623
774.453441,-459.657299,-370.102971,10066.800811
774.453757,153.219100,666.185348,9104.533087
774.454072,459.657299,-444.123565,8956.491898
774.454388,1302.362347,-518.144159,10584.944971
774.454704,689.485948,-888.247130,9918.759623
774.455020,459.657299,-1406.391290,10140.821405
774.455335,459.657299,-592.164754,9844.739029
774.455651,1455.581446,962.267725,8808.450710
774.455967,2068.457845,592.164754,8882.471304
774.456283,1915.238745,666.185348,8290.306550
774.456599,306.438199,-0.000000,8586.388927
774.456914,0.000000,-444.123565,9844.739029
774.457230,0.000000,-296.082377,9104.533087
774.457546,459.657299,-370.102971,9178.553681
774.457862,766.095498,-1332.370696,9474.636058
774.458178,-842.705048,-1110.308913,9178.553681
774.458493,-1225.752797,-2294.638420,10288.862594
774.458809,-612.876398,-1036.288319,9992.780217
774.459125,0.000000,222.061783,8882.471304
774.459441,229.828649,-148.041188,9474.636058
774.459756,689.485948,-0.000000,9104.533087
774.460072,0.000000,-666.185348,8734.430116
774.460388,612.876398,-740.205942,9252.574275
774.460704,536.266849,444.123565,8956.491898
774.461020,919.314598,370.102971,8512.368333
774.461335,1991.848295,-148.041188,8882.471304
774.461651,842.705048,-370.102971,8438.347739
774.461967,0.000000,-1258.350101,9696.697840
774.462283,536.266849,-444.123565,10140.821405
774.462599,536.266849,-0.000000,8586.388927
774.462914,842.705048,296.082377,9622.677246
774.463230,536.266849,222.061783,9326.594869
774.463546,-153.219100,-1332.370696,9030.512492
774.463862,0.000000,-148.041188,10436.903782
774.464178,76.609550,518.144159,8660.409521
774.464493,306.438199,222.061783,9178.553681
774.464809,1225.752797,-0.000000,9992.780217
774.465125,-459.657299,-740.205942,9844.739029
774.465441,0.000000,-1036.288319,9992.780217
774.465756,306.438199,-148.041188,10140.821405
774.466072,766.095498,296.082377,9696.697840
774.466388,1608.800546,444.123565,9474.636058
774.466704,995.924147,-222.061783,9400.615463
774.467020,306.438199,-740.205942,9770.718434
774.467335,689.485948,-148.041188,10584.944971
774.467651,1072.533697,888.247130,8734.430116
774.467967,689.485948,370.102971,9326.594869
774.468283,1072.533697,-148.041188,9770.718434
774.468599,536.266849,-592.164754,9918.759623
774.468914,-306.438199,-1036.288319,9844.739029
774.469230,383.047749,-0.000000,10510.924376
774.469546,689.485948,296.082377,9474.636058
774.469862,1225.752797,-740.205942,9548.656652
774.470178,919.314598,-0.000000,10066.800811
774.470493,-229.828649,-1036.288319,9918.759623
774.470809,229.828649,370.102971,10362.883188
774.471125,459.657299,962.267725,8882.471304
774.471441,1225.752797,-148.041188,9474.636058
774.471756,1072.533697,-74.020594,10362.883188
774.472072,0.000000,-1110.308913,9548.656652
774.472388,-842.705048,-370.102971,10436.903782
774.472704,459.657299,-1184.329507,10362.883188
774.473020,1072.533697,-148.041188,9400.615463
774.473335,383.047749,888.247130,9474.636058
774.473651,0.000000,-814.226536,9326.594869
774.473967,-153.219100,-444.123565,9696.697840
774.474283,-689.485948,-0.000000,9104.533087
774.474599,0.000000,-0.000000,8956.491898
774.474914,995.924147,-74.020594,9548.656652
774.475230,459.657299,-444.123565,8364.327145
774.475546,76.609550,-1332.370696,8956.491898
774.475862,-153.219100,-1480.411884,9474.636058
774.476177,612.876398,-444.123565,9326.594869
774.476493,995.924147,-592.164754,8734.430116
774.476809,1302.362347,-444.123565,8734.430116
774.477125,383.047749,-74.020594,8808.450710
774.477441,0.000000,-148.041188,8660.409521
774.477756,229.828649,-0.000000,9252.574275
774.478072,766.095498,148.041188,8142.265362
774.478388,919.314598,-370.102971,8660.409521
774.478704,612.876398,-370.102971,9252.574275
774.479020,-383.047749,-1702.473667,9474.636058
774.479335,306.438199,-1480.411884,10436.903782
774.479651,153.219100,296.082377,8734.430116
774.479967,536.266849,296.082377,8956.491898
774.480283,1302.362347,-74.020594,10140.821405
774.480599,459.657299,444.123565,8808.450710
774.480914,-229.828649,-518.144159,9178.553681
774.481230,536.266849,296.082377,9548.656652
774.481546,1072.533697,1036.288319,8290.306550
774.481862,1762.019645,444.123565,9326.594869
774.482177,919.314598,-592.164754,10362.883188
774.482493,383.047749,-1184.329507,9918.759623
774.482809,383.047749,-148.041188,10362.883188
774.483125,536.266849,518.144159,9474.636058
774.483441,1302.362347,592.164754,10066.800811
774.483756,1608.800546,296.082377,10140.821405
774.484072,1302.362347,888.247130,9474.636058
774.484388,459.657299,-74.020594,10140.821405
774.484704,919.314598,888.247130,9548.656652
774.485020,1532.190996,1036.288319,8808.450710
774.485335,2221.676944,-0.000000,9474.636058
774.485651,1762.019645,-148.041188,9252.574275
774.485967,459.657299,-1628.453072,10066.800811
774.486283,919.314598,-1110.308913,11103.089130
774.486599,1072.533697,-74.020594,9844.739029
774.486914,1225.752797,-0.000000,9918.759623
774.487230,1532.190996,296.082377,9918.759623
774.487546,306.438199,296.082377,8808.450710
774.487862,-229.828649,296.082377,9844.739029
774.488177,0.000000,592.164754,10214.842000
774.488493,306.438199,444.123565,9178.553681
774.488809,536.266849,-148.041188,10066.800811
774.489125,76.609550,-370.102971,9844.739029
774.489441,-612.876398,-1628.453072,10362.883188
774.489756,-306.438199,-1258.350101,10732.986159
774.490072,383.047749,-74.020594,9474.636058
774.490388,459.657299,444.123565,9548.656652
774.490704,842.705048,1332.370696,9030.512492
774.491020,-153.219100,740.205942,8290.306550
774.491335,-229.828649,-0.000000,9548.656652
774.491651,0.000000,-0.000000,9104.533087
774.491967,76.609550,148.041188,8290.306550
774.492283,306.438199,-740.205942,9696.697840
774.492598,-383.047749,-1480.411884,9770.718434
774.492914,-1685.410096,-2220.617826,9548.656652
774.493230,-612.876398,-1480.411884,9474.636058
774.493546,-689.485948,-370.102971,8734.430116
774.493862,0.000000,-444.123565,9474.636058
774.494177,306.438199,370.102971,9252.574275
774.494493,0.000000,-444.123565,8068.244768
774.494809,-306.438199,-1110.308913,9104.533087
774.495125,76.609550,-0.000000,8660.409521
774.495441,919.314598,-148.041188,8364.327145
774.495756,1072.533697,-148.041188,8438.347739
774.496072,536.266849,-370.102971,8660.409521
774.496388,-153.219100,-1184.329507,9770.718434
774.496704,383.047749,-296.082377,9918.759623
774.497020,536.266849,444.123565,8660.409521
774.497335,1225.752797,666.185348,8808.450710
774.497651,153.219100,518.144159,8882.471304
774.497967,76.609550,-0.000000,9178.553681
774.498283,0.000000,-296.082377,9844.739029
774.498598,153.219100,740.205942,8956.491898
774.498914,536.266849,222.061783,9104.533087
774.499230,842.705048,-0.000000,9770.718434
774.499546,-229.828649,-444.123565,9844.739029
774.499862,-612.876398,-1554.432478,10584.944971
774.500177,153.219100,-740.205942,10436.903782
774.500493,612.876398,518.144159,9252.574275
774.500809,1455.581446,444.123565,9696.697840
774.501125,1225.752797,666.185348,9178.553681
774.501441,612.876398,-222.061783,9400.615463
774.501756,842.705048,-444.123565,9992.780217
774.502072,1455.581446,-148.041188,8734.430116
774.502388,1608.800546,-0.000000,9844.739029
774.502704,2374.896044,-0.000000,9548.656652
774.503019,1225.752797,-296.082377,9178.553681
774.503335,383.047749,-1184.329507,10288.862594
774.503651,1302.362347,-518.144159,10881.027347
774.503967,1532.190996,444.123565,9178.553681
774.504283,1532.190996,370.102971,9992.780217
774.504598,1302.362347,-148.041188,10214.842000
774.504914,383.047749,-666.185348,9474.636058
774.505230,306.438199,148.041188,10362.883188
774.505546,306.438199,518.144159,9252.574275
774.505862,459.657299,-222.061783,9770.718434
774.506177,995.924147,-74.020594,9918.759623
774.506493,-306.438199,-592.164754,9548.656652
774.506809,-689.485948,-1332.370696,10362.883188
774.507125,-306.438199,-1184.329507,10807.006753
774.507441,0.000000,-296.082377,9400.615463
774.507756,153.219100,-148.041188,10140.821405
774.508072,306.438199,370.102971,9326.594869
774.508388,-766.095498,-1036.288319,9178.553681
774.508704,-612.876398,-370.102971,10140.821405
774.509019,-459.657299,-0.000000,9178.553681
774.509335,536.266849,-444.123565,9178.553681
774.509651,689.485948,-296.082377,9400.615463
774.509967,0.000000,-1110.308913,8438.347739
774.510283,0.000000,-1480.411884,9474.636058
774.510598,306.438199,-962.267725,9400.615463
774.510914,153.219100,-518.144159,8808.450710
774.511230,1072.533697,-666.185348,9770.718434
774.511546,536.266849,444.123565,8512.368333
774.511862,-229.828649,-814.226536,8660.409521
774.512177,459.657299,-666.185348,9326.594869
774.512493,536.266849,370.102971,8216.285956
774.512809,612.876398,-0.000000,8660.409521
774.513125,995.924147,-592.164754,9104.533087
774.513441,0.000000,-1184.329507,8882.471304
774.513756,-229.828649,-1850.514855,9696.697840
774.514072,-689.485948,-0.000000,9474.636058
774.514387,229.828649,222.061783,8512.368333
774.514703,1149.143247,296.082377,9474.636058
774.515019,766.095498,592.164754,8364.327145
774.515334,-76.609550,-0.000000,8660.409521
774.515650,689.485948,-0.000000,9770.718434
774.515966,689.485948,666.185348,7846.182985
774.516281,766.095498,370.102971,8586.388927
774.516597,1149.143247,-222.061783,9622.677246
774.516913,-153.219100,-1332.370696,9030.512492
774.517228,0.000000,-1480.411884,10807.006753
774.517544,459.657299,370.102971,9696.697840
774.517860,842.705048,1036.288319,9104.533087
774.518175,1378.971896,740.205942,9918.759623
774.518491,919.314598,444.123565,9474.636058
774.518807,0.000000,-148.041188,9696.697840
774.519122,459.657299,444.123565,10214.842000
774.519438,1302.362347,1258.350101,9104.533087
774.519754,1608.800546,592.164754,9770.718434
774.520069,1685.410096,-222.061783,10362.883188
774.520385,536.266849,-296.082377,9474.636058
774.520700,536.266849,-814.226536,10881.027347
774.521016,842.705048,148.041188,9696.697840
774.521332,1455.581446,222.061783,10140.821405
774.521647,2068.457845,-0.000000,11325.150913
774.521963,766.095498,592.164754,9326.594869
774.522279,306.438199,222.061783,9918.759623
774.522594,1149.143247,370.102971,10658.965565
774.522910,1378.971896,1332.370696,8956.491898
774.523226,919.314598,222.061783,9844.739029
774.523541,919.314598,-666.185348,10510.924376
774.523857,-459.657299,-1924.535449,10732.986159
774.524173,0.000000,-1628.453072,10955.047942
774.524488,229.828649,-666.185348,10288.862594
774.524804,459.657299,-370.102971,9992.780217
774.525120,689.485948,-74.020594,9770.718434
774.525435,-306.438199,-74.020594,9474.636058
774.525751,-766.095498,-962.267725,9992.780217
774.526067,0.000000,-222.061783,10066.800811
774.526382,383.047749,-0.000000,8290.306550
774.526698,383.047749,-370.102971,9400.615463
774.527013,459.657299,-1110.308913,10436.903782
774.527329,0.000000,-1554.432478,9326.594869
774.527645,-459.657299,-1554.432478,9326.594869
774.527960,-612.876398,-666.185348,9474.636058
774.528276,383.047749,-296.082377,9400.615463
774.528592,766.095498,148.041188,8512.368333
774.528907,-153.219100,518.144159,8216.285956
774.529223,-536.266849,-814.226536,9622.677246
774.529539,383.047749,-0.000000,8882.471304
774.529854,383.047749,666.185348,7476.080014
774.530170,153.219100,-222.061783,9030.512492
774.530486,536.266849,-962.267725,9252.574275
774.530801,-306.438199,-1554.432478,8586.388927
774.531117,0.000000,-888.247130,9844.739029
774.531433,306.438199,-222.061783,8808.450710
774.531748,536.266849,296.082377,8734.430116
774.532064,612.876398,666.185348,9030.512492
774.532380,76.609550,-444.123565,8660.409521
774.532695,-153.219100,-148.041188,9104.533087
774.533011,0.000000,962.267725,8438.347739
774.533326,153.219100,444.123565,8068.244768
774.533642,995.924147,-222.061783,8808.450710
774.533958,612.876398,-1110.308913,9252.574275
774.534273,-689.485948,-2146.597232,9844.739029
774.534589,-229.828649,-1184.329507,11029.068536
774.534905,153.219100,444.123565,9030.512492
774.535220,842.705048,814.226536,9400.615463
774.535536,1455.581446,740.205942,9178.553681
774.535852,536.266849,222.061783,9548.656652
774.536167,459.657299,-370.102971,9770.718434
774.536483,689.485948,-74.020594,9474.636058
774.536799,1149.143247,-74.020594,9622.677246
774.537114,1608.800546,-518.144159,9474.636058
774.537430,1455.581446,148.041188,9474.636058
774.537746,689.485948,-148.041188,10066.800811
774.538061,919.314598,-0.000000,11103.089130
774.538377,1149.143247,518.144159,9696.697840
774.538693,1532.190996,740.205942,10066.800811
774.539008,1685.410096,1110.308913,10066.800811
774.539324,612.876398,-0.000000,9918.759623
774.539639,383.047749,-0.000000,10288.862594
774.539955,383.047749,740.205942,10214.842000
774.540271,1072.533697,740.205942,9770.718434
774.540586,1378.971896,222.061783,10214.842000
774.540902,0.000000,-518.144159,9918.759623
774.541218,-536.266849,-1406.391290,10584.944971
774.541533,-76.609550,-814.226536,11843.295072
774.541849,536.266849,444.123565,10140.821405
774.542165,689.485948,1110.308913,9918.759623
774.542480,536.266849,1184.329507,9104.533087
774.542796,0.000000,-0.000000,9252.574275
774.543112,0.000000,-148.041188,9770.718434
774.543427,0.000000,-0.000000,10140.821405
774.543743,766.095498,-148.041188,9770.718434
774.544059,383.047749,-888.247130,9918.759623
774.544374,0.000000,-740.205942,9104.533087
774.544690,-383.047749,-1850.514855,9918.759623
774.545006,0.000000,-814.226536,10288.862594
774.545321,0.000000,370.102971,8956.491898
774.545637,766.095498,518.144159,9104.533087
774.545952,612.876398,-0.000000,9178.553681
774.546268,-612.876398,-1332.370696,8364.327145
774.546584,-536.266849,-1036.288319,9400.615463
774.546899,229.828649,-370.102971,9178.553681
774.547215,229.828649,-148.041188,7624.121203
774.547531,1072.533697,-518.144159,8882.471304
774.547846,0.000000,-1702.473667,9030.512492
774.548162,-612.876398,-2146.597232,9548.656652
774.548478,0.000000,-666.185348,9548.656652
774.548793,459.657299,-296.082377,7772.162391
774.549109,1072.533697,-148.041188,8808.450710
774.549425,1072.533697,-74.020594,8512.368333
774.549740,0.000000,222.061783,7624.121203
774.550056,153.219100,-592.164754,8734.430116
774.550372,459.657299,222.061783,7920.203579
774.550687,919.314598,-74.020594,7846.182985
774.551003,383.047749,-1110.308913,9252.574275
774.551319,229.828649,-1406.391290,9474.636058
774.551634,-842.705048,-1924.535449,9474.636058
774.551950,-153.219100,-962.267725,10140.821405
774.552265,0.000000,-74.020594,9548.656652
774.552581,459.657299,-0.000000,9474.636058
774.552897,306.438199,222.061783,8882.471304
774.553212,0.000000,-444.123565,9548.656652
774.553528,-153.219100,-444.123565,10807.006753
774.553844,612.876398,370.102971,8660.409521
774.554159,919.314598,296.082377,8956.491898
774.554475,1302.362347,518.144159,9474.636058
774.554791,612.876398,-666.185348,9474.636058
774.555106,459.657299,-1184.329507,10436.903782
774.555422,383.047749,444.123565,10066.800811
774.555738,766.095498,666.185348,9918.759623
774.556053,1685.410096,222.061783,9844.739029
774.556369,1072.533697,148.041188,9696.697840
774.556685,153.219100,-1258.350101,10288.862594
774.557000,383.047749,-888.247130,10807.006753
774.557316,383.047749,-148.041188,10362.883188
774.557632,842.705048,370.102971,9622.677246
774.557947,919.314598,444.123565,10214.842000
774.558263,76.609550,-444.123565,9622.677246
774.558578,-459.657299,-1480.411884,10807.006753
774.558894,-153.219100,-666.185348,10881.027347
774.559210,76.609550,-0.000000,9622.677246
774.559525,1072.533697,-592.164754,10436.903782
774.559841,689.485948,-666.185348,10436.903782
774.560157,-306.438199,-1258.350101,10362.883188
774.560472,459.657299,148.041188,9622.677246
774.560788,842.705048,888.247130,8068.244768
774.561104,1072.533697,-0.000000,9400.615463
774.561419,1302.362347,-814.226536,10436.903782
774.561735,0.000000,-1332.370696,9030.512492
774.562051,-306.438199,-1110.308913,9918.759623
774.562366,459.657299,-444.123565,9696.697840
774.562682,1072.533697,-444.123565,9030.512492
774.562998,1685.410096,370.102971,9474.636058
774.563313,689.485948,814.226536,8068.244768
774.563629,0.000000,-222.061783,8660.409521
774.563945,306.438199,-666.185348,9548.656652
774.564260,459.657299,-148.041188,9104.533087
774.564576,536.266849,444.123565,8660.409521
774.564892,459.657299,-222.061783,8808.450710
774.565207,-536.266849,-666.185348,9326.594869
774.565523,-459.657299,-740.205942,9770.718434
774.565838,229.828649,740.205942,9252.574275
774.566154,0.000000,1036.288319,7920.203579
774.566470,766.095498,444.123565,8364.327145
774.566785,229.828649,-0.000000,8956.491898
774.567101,0.000000,-0.000000,9326.594869
774.567417,383.047749,148.041188,8956.491898
774.567732,842.705048,962.267725,8068.244768
774.568048,536.266849,-0.000000,8956.491898
774.568364,995.924147,148.041188,9030.512492
774.568679,0.000000,-0.000000,9104.533087
774.568995,229.828649,-592.164754,9770.718434
774.569311,995.924147,518.144159,9252.574275
774.569626,1302.362347,592.164754,8660.409521
774.569942,1225.752797,370.102971,9474.636058
774.570258,612.876398,222.061783,8956.491898
774.570573,689.485948,-592.164754,9474.636058
774.570889,229.828649,296.082377,9474.636058
774.571205,383.047749,370.102971,8512.368333
774.571520,1225.752797,-148.041188,9474.636058
774.571836,919.314598,-296.082377,9770.718434
774.572151,-919.314598,-1480.411884,10066.800811
774.572467,459.657299,-1332.370696,10436.903782
774.572783,383.047749,74.020594,9622.677246
774.573098,689.485948,740.205942,9548.656652
774.573414,1378.971896,-222.061783,10584.944971
774.573730,919.314598,-148.041188,10140.821405
774.574045,0.000000,-0.000000,9474.636058
774.574361,536.266849,1036.288319,9918.759623
774.574677,919.314598,592.164754,9252.574275
774.574992,1149.143247,296.082377,9474.636058
774.575308,842.705048,-296.082377,10140.821405
774.575624,-229.828649,-1184.329507,9548.656652
774.575939,0.000000,-1110.308913,11399.171507
774.576255,76.609550,-0.000000,10362.883188
774.576571,536.266849,222.061783,9992.780217
774.576886,842.705048,1036.288319,9696.697840
774.577202,-383.047749,-0.000000,9474.636058
774.577518,-459.657299,-888.247130,10362.883188
774.577833,-306.438199,-666.185348,10881.027347
774.578149,-306.438199,-0.000000,9252.574275
774.578464,229.828649,-1036.288319,10140.821405
774.578780,383.047749,-1184.329507,9844.739029
774.579096,-383.047749,-740.205942,9252.574275
774.579411,-306.438199,-1110.308913,10436.903782
774.579727,459.657299,-148.041188,9178.553681
774.580043,1072.533697,-592.164754,9252.574275
774.580358,1302.362347,-444.123565,8956.491898
774.580674,383.047749,-592.164754,8660.409521
774.580990,0.000000,-1184.329507,9474.636058
774.581305,612.876398,-0.000000,9030.512492
774.581621,1072.533697,370.102971,8142.265362
774.581937,1378.971896,-0.000000,9252.574275
774.582252,919.314598,-814.226536,8808.450710
774.582568,153.219100,-1924.535449,9104.533087
774.582884,153.219100,-1110.308913,9918.759623
774.583199,766.095498,-74.020594,9178.553681
774.583515,1072.533697,296.082377,8882.471304
774.583831,995.924147,518.144159,8734.430116
774.584146,153.219100,370.102971,7772.162391
774.584462,459.657299,-74.020594,8660.409521
774.584777,536.266849,-0.000000,9178.553681
774.585093,306.438199,-222.061783,8660.409521
774.585409,689.485948,-666.185348,8734.430116
774.585724,459.657299,-888.247130,9474.636058
774.586040,-536.266849,-1332.370696,9918.759623
774.586356,229.828649,-740.205942,9474.636058
774.586671,229.828649,1332.370696,9030.512492
774.586987,689.485948,370.102971,9030.512492
774.587303,842.705048,-222.061783,9326.594869
774.587618,-229.828649,-296.082377,9030.512492
774.587934,0.000000,-814.226536,9992.780217
774.588250,612.876398,148.041188,9474.636058
774.588565,689.485948,296.082377,8216.285956
774.588881,1149.143247,-296.082377,9696.697840
774.589197,536.266849,-592.164754,10140.821405
774.589512,-229.828649,-1036.288319,9548.656652
774.589828,383.047749,-148.041188,9992.780217
774.590144,919.314598,148.041188,10140.821405
774.590459,995.924147,-0.000000,9696.697840
774.590775,1072.533697,666.185348,9474.636058
774.591090,153.219100,-592.164754,9770.718434
774.591406,0.000000,-740.205942,9992.780217
774.591722,459.657299,296.082377,10140.821405
774.592037,459.657299,296.082377,9104.533087
774.592353,1302.362347,-0.000000,9696.697840
774.592669,383.047749,-592.164754,9844.739029
774.592984,-229.828649,-1184.329507,10214.842000
774.593300,306.438199,-518.144159,10881.027347
774.593616,306.438199,-0.000000,9474.636058
774.593931,766.095498,518.144159,10066.800811
774.594247,536.266849,370.102971,9474.636058
774.594563,-383.047749,-222.061783,8882.471304
774.594878,-536.266849,222.061783,10584.944971
774.595194,76.609550,296.082377,9844.739029
774.595510,383.047749,740.205942,8882.471304
774.595825,536.266849,-296.082377,9844.739029
774.596141,-153.219100,-888.247130,9844.739029
774.596457,-229.828649,-1702.473667,10288.862594
774.596772,229.828649,-0.000000,10214.842000
774.597088,229.828649,148.041188,9474.636058
774.597403,766.095498,296.082377,10140.821405
774.597719,919.314598,444.123565,9252.574275
774.598035,-153.219100,-296.082377,8512.368333
774.598350,0.000000,-222.061783,10288.862594
774.598666,536.266849,296.082377,8956.491898
774.598982,689.485948,592.164754,8512.368333
774.599297,1378.971896,370.102971,9696.697840
774.599613,383.047749,-740.205942,8734.430116
774.599929,-306.438199,-888.247130,9770.718434
774.600244,383.047749,-74.020594,10362.883188
774.600560,689.485948,370.102971,8956.491898
774.600876,842.705048,666.185348,9400.615463
774.601191,689.485948,370.102971,9030.512492
774.601507,-306.438199,-518.144159,9252.574275
774.601823,0.000000,-592.164754,9178.553681
774.602138,76.609550,-0.000000,8438.347739
774.602454,536.266849,-444.123565,9400.615463
774.602770,842.705048,-444.123565,10066.800811
774.603085,612.876398,-888.247130,8808.450710
774.603401,-229.828649,-888.247130,8956.491898
774.603716,536.266849,-740.205942,10214.842000
774.604032,383.047749,370.102971,8808.450710
774.604348,1072.533697,74.020594,8882.471304
774.604663,995.924147,-222.061783,9326.594869
774.604979,459.657299,-740.205942,9030.512492
774.605295,536.266849,-222.061783,9104.533087
774.605610,1072.533697,-0.000000,8216.285956
774.605926,1149.143247,-444.123565,9178.553681
774.606242,1532.190996,-148.041188,9400.615463
774.606557,76.609550,-518.144159,9178.553681
774.606873,-153.219100,-1628.453072,10584.944971
774.607189,536.266849,-222.061783,9844.739029
774.607504,612.876398,-0.000000,9622.677246
774.607820,1455.581446,518.144159,9696.697840
774.608136,766.095498,518.144159,8882.471304
774.608451,153.219100,-518.144159,9696.697840
774.608767,0.000000,-0.000000,10510.924376
774.609083,383.047749,444.123565,9178.553681
774.609398,1149.143247,592.164754,9178.553681
774.609714,842.705048,296.082377,9178.553681
774.610029,-229.828649,-740.205942,9548.656652
774.610345,0.000000,-1480.411884,10807.006753
774.610661,0.000000,-296.082377,10066.800811
774.610976,306.438199,-0.000000,9770.718434
774.611292,766.095498,-148.041188,9844.739029
774.611608,-383.047749,-222.061783,9696.697840
774.611923,-842.705048,-1258.350101,10140.821405
774.612239,-383.047749,-518.144159,10658.965565
774.612555,0.000000,222.061783,9030.512492
774.612870,459.657299,-592.164754,9770.718434
774.613186,842.705048,-814.226536,10288.862594
774.613502,-689.485948,-2072.576638,9992.780217
774.613817,-689.485948,-2072.576638,10362.883188
774.614133,383.047749,-592.164754,10584.944971
774.614449,919.314598,-74.020594,8956.491898
774.614764,1838.629195,518.144159,9104.533087
774.615080,842.705048,592.164754,8882.471304
774.615396,76.609550,-1110.308913,8734.430116
774.615712,612.876398,-74.020594,9474.636058
774.616028,766.095498,-222.061783,8364.327145
774.616343,1225.752797,-888.247130,8882.471304
774.616659,1532.190996,-444.123565,9474.636058
774.616975,-229.828649,-1406.391290,9252.574275
774.617291,229.828649,-1036.288319,10510.924376
774.617607,459.657299,740.205942,8882.471304
774.617922,689.485948,962.267725,8660.409521
774.618238,766.095498,592.164754,9252.574275
774.618554,383.047749,-74.020594,9104.533087
774.618870,-153.219100,-592.164754,9030.512492
774.619186,0.000000,296.082377,9696.697840
774.619501,1072.533697,222.061783,8216.285956
774.619817,995.924147,296.082377,8882.471304
774.620133,689.485948,296.082377,9326.594869
774.620449,0.000000,-518.144159,9104.533087
774.620765,153.219100,-0.000000,9770.718434
774.621080,689.485948,740.205942,8438.347739
774.621396,1072.533697,518.144159,9030.512492
774.621712,1608.800546,-0.000000,9696.697840
774.622028,383.047749,-518.144159,9400.615463
774.622344,229.828649,-814.226536,10140.821405
774.622659,689.485948,222.061783,9992.780217
774.622975,1149.143247,444.123565,8142.265362
774.623291,1378.971896,814.226536,9104.533087
774.623607,1072.533697,-0.000000,9622.677246
774.623923,153.219100,-1406.391290,9474.636058
774.624238,153.219100,-666.185348,10807.006753
774.624554,459.657299,-0.000000,9622.677246
774.624870,1225.752797,-0.000000,9030.512492
774.625186,1378.971896,-0.000000,9474.636058
774.625501,383.047749,-222.061783,9252.574275
774.625817,306.438199,-740.205942,9622.677246
774.626133,153.219100,-370.102971,9770.718434
774.626449,306.438199,444.123565,8882.471304
774.626765,1225.752797,-0.000000,9770.718434
774.627080,1455.581446,-592.164754,9178.553681
774.627396,-536.266849,-1184.329507,9474.636058
774.627712,-306.438199,-666.185348,11547.212695
774.628028,306.438199,-0.000000,9548.656652
774.628344,612.876398,740.205942,9178.553681
774.628659,842.705048,444.123565,9622.677246
774.628975,0.000000,-370.102971,9474.636058
774.629291,-766.095498,-666.185348,9770.718434
774.629607,0.000000,-0.000000,9918.759623
774.629923,76.609550,-222.061783,9474.636058
774.630238,383.047749,-0.000000,9622.677246
774.630554,-229.828649,-296.082377,9474.636058
774.630870,-842.705048,-1184.329507,10140.821405
774.631186,-459.657299,-666.185348,10584.944971
774.631502,-536.266849,296.082377,9104.533087
774.631817,919.314598,296.082377,9622.677246
774.632133,842.705048,-0.000000,9400.615463
774.632449,0.000000,-666.185348,9400.615463
774.632765,-229.828649,-518.144159,9770.718434
774.633081,306.438199,-0.000000,8882.471304
774.633396,919.314598,518.144159,8512.368333
774.633712,1455.581446,-0.000000,9474.636058
774.634028,306.438199,-518.144159,9474.636058
774.634344,0.000000,-1480.411884,10140.821405
774.634660,-153.219100,-740.205942,9844.739029
774.634975,612.876398,370.102971,8882.471304
774.635291,1225.752797,518.144159,9474.636058
774.635607,1149.143247,148.041188,9104.533087
774.635923,-153.219100,-74.020594,9178.553681
774.636239,76.609550,-444.123565,10362.883188
774.636554,306.438199,-444.123565,8438.347739
774.636870,229.828649,-0.000000,8142.265362
774.637186,919.314598,-740.205942,10732.986159
774.637502,459.657299,-888.247130,9474.636058
774.637818,-306.438199,-1998.556043,9844.739029
774.638133,-229.828649,-740.205942,10066.800811
774.638449,1149.143247,222.061783,8586.388927
774.638765,2068.457845,-74.020594,8734.430116
774.639081,1608.800546,148.041188,9252.574275
774.639397,612.876398,-222.061783,9252.574275
774.639712,766.095498,-370.102971,9622.677246
774.640028,1149.143247,1036.288319,8142.265362
774.640344,1302.362347,888.247130,8364.327145
774.640660,2068.457845,-148.041188,8586.388927
774.640976,766.095498,-222.061783,8956.491898
774.641291,0.000000,-1628.453072,9844.739029
774.641607,689.485948,-1258.350101,10807.006753
774.641923,1149.143247,-74.020594,9548.656652
774.642239,1532.190996,814.226536,9474.636058
774.642555,995.924147,370.102971,9474.636058
774.642870,229.828649,-370.102971,9696.697840
774.643186,229.828649,370.102971,9992.780217
774.643502,383.047749,740.205942,9474.636058
774.643818,842.705048,740.205942,8808.450710
774.644134,1072.533697,444.123565,9548.656652
774.644449,995.924147,-666.185348,9696.697840
774.644765,0.000000,-1406.391290,11029.068536
774.645081,689.485948,-74.020594,10362.883188
774.645397,536.266849,666.185348,9474.636058
774.645713,1378.971896,1110.308913,9844.739029
774.646028,536.266849,814.226536,9326.594869
774.646344,0.000000,-222.061783,9844.739029
774.646660,-153.219100,-74.020594,10214.842000
774.646976,229.828649,148.041188,9178.553681
774.647291,383.047749,222.061783,9326.594869
774.647607,612.876398,-0.000000,10066.800811
774.647923,0.000000,-1406.391290,9622.677246
774.648239,-1149.143247,-1776.494261,10066.800811
774.648555,-383.047749,-222.061783,10066.800811
774.648870,229.828649,-222.061783,9622.677246
774.649186,766.095498,-222.061783,9548.656652
774.649502,459.657299,-0.000000,9474.636058
774.649818,-459.657299,-962.267725,9548.656652
774.650134,-153.219100,-592.164754,9918.759623
774.650449,-383.047749,222.061783,9252.574275
774.650765,76.609550,518.144159,8734.430116
774.651081,689.485948,-444.123565,9696.697840
774.651397,-459.657299,-1184.329507,9474.636058
774.651713,-842.705048,-1184.329507,10362.883188
774.652028,0.000000,-296.082377,10066.800811
774.652344,383.047749,296.082377,8734.430116
774.652660,1225.752797,444.123565,9400.615463
774.652976,536.266849,-0.000000,8438.347739
774.653292,-383.047749,-592.164754,9400.615463
774.653607,0.000000,-0.000000,9770.718434
774.653923,76.609550,296.082377,8586.388927
774.654239,919.314598,-296.082377,9030.512492
774.654555,1225.752797,-0.000000,9252.574275
774.654871,-229.828649,-296.082377,8956.491898
774.655186,-229.828649,-518.144159,9770.718434
774.655502,229.828649,148.041188,9622.677246
774.655818,995.924147,-0.000000,8290.306550
774.656134,1532.190996,444.123565,9548.656652
774.656450,459.657299,-370.102971,8882.471304
774.656765,0.000000,-1184.329507,9696.697840
774.657081,229.828649,-370.102971,10214.842000
774.657397,612.876398,740.205942,8734.430116
774.657713,1608.800546,1184.329507,8660.409521
774.658029,1685.410096,592.164754,8586.388927
774.658344,689.485948,-1258.350101,9622.677246
774.658660,689.485948,-1480.411884,10658.965565
774.658976,1149.143247,-888.247130,9178.553681
774.659292,1225.752797,-74.020594,9178.553681
774.659608,1838.629195,-0.000000,9696.697840
774.659923,919.314598,-222.061783,9326.594869
774.660239,383.047749,-962.267725,9696.697840
774.660555,766.095498,518.144159,9622.677246
774.660871,612.876398,296.082377,8142.265362
774.661187,995.924147,296.082377,9400.615463
774.661502,919.314598,-814.226536,9622.677246
774.661818,229.828649,-1702.473667,9992.780217
774.662134,0.000000,-1184.329507,11029.068536
774.662450,0.000000,-148.041188,8882.471304
774.662766,76.609550,-222.061783,9400.615463
774.663081,842.705048,-296.082377,9844.739029
774.663397,0.000000,-518.144159,9400.615463
774.663713,-1302.362347,-1332.370696,10658.965565
774.664029,-306.438199,-888.247130,10288.862594
774.664345,0.000000,-222.061783,8882.471304
774.664660,689.485948,-148.041188,9474.636058
774.664976,383.047749,-0.000000,9548.656652
774.665292,-383.047749,-592.164754,9400.615463
774.665608,0.000000,-148.041188,9918.759623
774.665924,153.219100,592.164754,9104.533087
774.666239,689.485948,444.123565,9474.636058
774.666555,1608.800546,-0.000000,9474.636058
774.666871,536.266849,-148.041188,8586.388927
774.667187,459.657299,-518.144159,9918.759623
774.667503,766.095498,-0.000000,9696.697840
774.667818,995.924147,666.185348,8512.368333
774.668134,1455.581446,888.247130,9252.574275
774.668450,1225.752797,444.123565,9400.615463
774.668766,76.609550,-74.020594,9030.512492
774.669081,0.000000,-0.000000,10214.842000
774.669397,0.000000,370.102971,9474.636058
774.669713,459.657299,222.061783,9696.697840
774.670029,459.657299,296.082377,9992.780217
774.670345,-306.438199,-444.123565,9696.697840
774.670660,-612.876398,-740.205942,10436.903782
774.670976,-306.438199,-0.000000,9770.718434
774.671292,0.000000,444.123565,8660.409521
774.671608,919.314598,222.061783,9696.697840
774.671924,689.485948,370.102971,8882.471304
774.672239,-153.219100,-222.061783,9252.574275
774.672555,459.657299,-370.102971,10436.903782
774.672871,536.266849,-592.164754,8882.471304
774.673187,919.314598,-0.000000,9474.636058
774.673503,1225.752797,814.226536,8882.471304
774.673818,612.876398,-370.102971,8734.430116
774.674134,76.609550,-814.226536,10436.903782
774.674450,153.219100,296.082377,9474.636058
774.674766,383.047749,592.164754,8364.327145
774.675082,766.095498,-0.000000,9622.677246
774.675397,383.047749,-592.164754,9844.739029
774.675713,-229.828649,-1184.329507,9844.739029
774.676029,536.266849,-296.082377,9992.780217
774.676345,0.000000,-0.000000,8734.430116
774.676661,1149.143247,-518.144159,9770.718434
774.676976,1149.143247,-148.041188,9400.615463
774.677292,0.000000,-148.041188,9178.553681
774.677608,76.609550,-666.185348,10584.944971
774.677924,459.657299,370.102971,9252.574275
774.678240,612.876398,962.267725,8512.368333
774.678555,1685.410096,592.164754,9030.512492
774.678871,995.924147,-444.123565,9252.574275
774.679187,-153.219100,-1554.432478,10214.842000
774.679503,-383.047749,-1258.350101,10658.965565
774.679819,229.828649,222.061783,9326.594869
774.680134,459.657299,-0.000000,9548.656652
774.680450,842.705048,-222.061783,9770.718434
774.680766,-229.828649,-592.164754,9770.718434
774.681082,-612.876398,-518.144159,9918.759623
774.681398,-306.438199,-0.000000,9030.512492
774.681713,153.219100,-592.164754,9474.636058
774.682029,1378.971896,-1036.288319,10140.821405
774.682345,383.047749,-1036.288319,8956.491898
774.682661,-842.705048,-1628.453072,9326.594869
774.682977,306.438199,-1110.308913,10881.027347
774.683292,766.095498,-814.226536,9326.594869
774.683608,1302.362347,-0.000000,9104.533087
774.683924,1072.533697,-0.000000,8956.491898
774.684240,383.047749,-1258.350101,9030.512492
774.684556,766.095498,-518.144159,9844.739029
774.684871,612.876398,444.123565,8512.368333
774.685187,919.314598,296.082377,8290.306550
774.685503,1991.848295,-74.020594,9622.677246
774.685819,536.266849,-666.185348,8734.430116
774.686135,-229.828649,-1628.453072,9770.718434
774.686450,306.438199,-370.102971,10881.027347
774.686766,383.047749,-148.041188,8734.430116
774.687082,766.095498,444.123565,9326.594869
774.687398,689.485948,592.164754,9326.594869
774.687714,0.000000,-444.123565,8882.471304
774.688029,-229.828649,-0.000000,10140.821405
774.688345,383.047749,888.247130,8808.450710
774.688661,383.047749,666.185348,8956.491898
774.688977,612.876398,444.123565,9548.656652
774.689293,-153.219100,-962.267725,9104.533087
774.689608,-306.438199,-1702.473667,10881.027347
774.689924,0.000000,-444.123565,10881.027347
774.690240,76.609550,370.102971,8586.388927
774.690556,1225.752797,888.247130,10140.821405
774.690871,995.924147,592.164754,9400.615463
774.691187,76.609550,296.082377,9252.574275
774.691503,306.438199,592.164754,10066.800811
774.691819,1072.533697,962.267725,8808.450710
774.692135,995.924147,370.102971,8660.409521
774.692450,1378.971896,444.123565,10288.862594
774.692766,995.924147,-1554.432478,9844.739029
774.693082,306.438199,-1332.370696,10584.944971
774.693398,229.828649,-148.041188,10288.862594
774.693714,536.266849,-74.020594,9252.574275
774.694029,1149.143247,-0.000000,10658.965565
774.694345,689.485948,370.102971,9474.636058
774.694661,0.000000,-222.061783,9622.677246
774.694977,153.219100,-148.041188,10732.986159
774.695293,229.828649,-0.000000,9252.574275
774.695608,1378.971896,-0.000000,8734.430116
774.695924,1455.581446,-740.205942,9548.656652
774.696240,229.828649,-1628.453072,9548.656652
774.696556,-306.438199,-1554.432478,9992.780217
774.696872,153.219100,-740.205942,10510.924376
774.697187,612.876398,-518.144159,8586.388927
774.697503,842.705048,222.061783,8882.471304
774.697819,153.219100,-148.041188,9030.512492
774.698135,-153.219100,-1406.391290,9918.759623
774.698451,-306.438199,-1036.288319,9918.759623
774.698766,-383.047749,-666.185348,9178.553681
774.699082,153.219100,-518.144159,9178.553681
774.699398,689.485948,-1184.329507,9474.636058
774.699714,-536.266849,-1110.308913,8660.409521
774.700030,-612.876398,-2220.617826,10658.965565
774.700345,-536.266849,-1184.329507,10658.965565
774.700661,0.000000,-0.000000,8808.450710
774.700977,612.876398,1184.329507,8512.368333
774.701293,612.876398,592.164754,9030.512492
774.701609,459.657299,-0.000000,8808.450710
774.701924,536.266849,1184.329507,9252.574275
774.702240,536.266849,1184.329507,7920.203579
774.702556,1149.143247,370.102971,8660.409521
774.702872,1225.752797,-444.123565,9400.615463
774.703188,0.000000,-962.267725,9400.615463
774.703503,-306.438199,-1110.308913,10955.047942
774.703819,76.609550,-222.061783,9696.697840
774.704135,0.000000,888.247130,8808.450710
774.704451,536.266849,1258.350101,9696.697840
774.704767,153.219100,370.102971,9548.656652
774.705082,0.000000,-0.000000,9104.533087
774.705398,-383.047749,666.185348,9178.553681
774.705714,536.266849,-74.020594,8586.388927
774.706030,1455.581446,-962.267725,9474.636058
774.706346,995.924147,-222.061783,9548.656652
774.706661,306.438199,-1554.432478,9622.677246
774.706977,0.000000,-888.247130,9770.718434
774.707293,76.609550,222.061783,9696.697840
774.707609,689.485948,518.144159,9252.574275
774.707925,1532.190996,518.144159,9622.677246
774.708240,612.876398,-0.000000,8882.471304
774.708556,-229.828649,-1110.308913,10066.800811
774.708872,536.266849,-518.144159,11103.089130
774.709188,689.485948,-0.000000,8660.409521
774.709504,1149.143247,296.082377,9326.594869
774.709819,1072.533697,-222.061783,10214.842000
774.710135,306.438199,-888.247130,10066.800811
774.710451,536.266849,-222.061783,11177.109724
774.710767,383.047749,1036.288319,9030.512492
774.711083,919.314598,1480.411884,9622.677246
774.711398,1608.800546,814.226536,9992.780217
774.711714,612.876398,1110.308913,9104.533087
774.712030,459.657299,518.144159,9548.656652
774.712346,766.095498,740.205942,9770.718434
774.712661,689.485948,814.226536,9178.553681
774.712977,919.314598,666.185348,9474.636058
774.713293,842.705048,148.041188,9844.739029
774.713609,-383.047749,-74.020594,9474.636058
774.713925,76.609550,-0.000000,11251.130318
774.714240,306.438199,666.185348,10066.800811
774.714556,229.828649,1184.329507,9622.677246
774.714872,459.657299,1406.391290,9252.574275
774.715188,153.219100,222.061783,9252.574275
774.715504,-459.657299,-814.226536,9622.677246
774.715819,76.609550,-0.000000,10362.883188
774.716135,0.000000,-148.041188,8660.409521
774.716451,383.047749,-74.020594,9696.697840
774.716766,76.609550,-962.267725,9844.739029
774.717082,-766.095498,-1332.370696,9178.553681
774.717398,-153.219100,-1184.329507,10214.842000
774.717714,-229.828649,-518.144159,8956.491898
774.718029,612.876398,-888.247130,9474.636058
774.718345,1149.143247,-296.082377,9474.636058
774.718661,153.219100,-1036.288319,8216.285956
774.718976,306.438199,-1702.473667,9030.512492
774.719292,459.657299,-1184.329507,9474.636058
774.719608,612.876398,-1184.329507,7698.141797
774.719924,1302.362347,-1184.329507,9400.615463
774.720239,1378.971896,-1924.535449,9770.718434
774.720555,0.000000,-1998.556043,8808.450710
774.720871,-306.438199,-1184.329507,9400.615463
774.721186,459.657299,-592.164754,9178.553681
774.721502,1149.143247,-518.144159,8660.409521
774.721818,919.314598,-74.020594,8882.471304
774.722133,-383.047749,-1036.288319,9326.594869
774.722449,0.000000,-1628.453072,9844.739029
774.722765,0.000000,-222.061783,8956.491898
774.723081,76.609550,-296.082377,8438.347739
774.723396,1072.533697,-444.123565,9918.759623
774.723712,0.000000,-518.144159,9622.677246
774.724028,-766.095498,-1036.288319,10288.862594
774.724343,459.657299,-518.144159,10436.903782
774.724659,842.705048,-370.102971,9252.574275
774.724975,1378.971896,888.247130,9326.594869
774.725290,1608.800546,1036.288319,8956.491898
774.725606,919.314598,370.102971,9104.533087
774.725922,842.705048,-0.000000,9918.759623
774.726238,766.095498,592.164754,9326.594869
774.726553,1072.533697,814.226536,8512.368333
774.726869,1762.019645,666.185348,9252.574275
774.727185,919.314598,-0.000000,9030.512492
774.727500,0.000000,-1406.391290,10510.924376
774.727816,459.657299,-518.144159,10658.965565
774.728132,153.219100,-0.000000,9178.553681
774.728447,689.485948,148.041188,10066.800811
774.728763,612.876398,-1036.288319,10436.903782
774.729079,0.000000,-1776.494261,9844.739029
774.729395,0.000000,-888.247130,10732.986159
774.729710,153.219100,-370.102971,9770.718434
774.730026,306.438199,-148.041188,9622.677246
774.730342,919.314598,222.061783,9252.574275
774.730657,-229.828649,-740.205942,9104.533087
774.730973,-689.485948,-2294.638420,9918.759623
774.731289,-383.047749,-2072.576638,10955.047942
774.731605,0.000000,-1480.411884,9548.656652
774.731920,842.705048,-1776.494261,9918.759623
774.732236,1149.143247,-962.267725,9326.594869
774.732552,76.609550,-962.267725,9104.533087
774.732867,153.219100,-296.082377,9104.533087
774.733183,383.047749,222.061783,8216.285956
774.733499,76.609550,-222.061783,7698.141797
774.733814,842.705048,-814.226536,9992.780217
774.734130,-459.657299,-1850.514855,9178.553681
774.734446,-995.924147,-2368.659014,9474.636058
774.734762,-459.657299,-1110.308913,10436.903782
774.735077,-306.438199,-222.061783,8586.388927
774.735393,306.438199,-74.020594,9548.656652
774.735709,76.609550,962.267725,9030.512492
774.736024,-459.657299,666.185348,8808.450710
774.736340,229.828649,592.164754,9252.574275
774.736656,0.000000,1184.329507,8438.347739
774.736971,612.876398,1480.411884,8956.491898
774.737287,1608.800546,1480.411884,9400.615463
774.737603,536.266849,1850.514855,8586.388927
774.737919,689.485948,1480.411884,9178.553681
774.738234,1302.362347,1850.514855,8956.491898
774.738550,1378.971896,2368.659014,8512.368333
774.738866,1302.362347,2368.659014,9474.636058
774.739181,1455.581446,1702.473667,9474.636058
774.739497,459.657299,1554.432478,9474.636058
774.739813,76.609550,1850.514855,10140.821405
774.740129,612.876398,2294.638420,9104.533087
774.740444,153.219100,2368.659014,9030.512492
774.740760,612.876398,1258.350101,10658.965565
774.741076,0.000000,-0.000000,9918.759623
774.741391,-76.609550,-814.226536,10881.027347
774.741707,0.000000,222.061783,10732.986159
774.742023,459.657299,444.123565,9918.759623
774.742338,1378.971896,370.102971,10288.862594
774.742654,1149.143247,444.123565,9474.636058
774.742970,229.828649,-370.102971,9696.697840
774.743286,689.485948,-74.020594,9918.759623
774.743601,1225.752797,592.164754,8216.285956
774.743917,1455.581446,-370.102971,9474.636058
774.744233,2221.676944,-592.164754,9474.636058
774.744548,1302.362347,-1258.350101,9104.533087
774.744864,383.047749,-1628.453072,10288.862594
774.745180,306.438199,-1184.329507,10658.965565
774.745495,612.876398,-1480.411884,9474.636058
774.745811,689.485948,-666.185348,10066.800811
774.746127,306.438199,-296.082377,9770.718434
774.746443,76.609550,-1258.350101,9548.656652
774.746758,306.438199,-518.144159,10510.924376
774.747074,-153.219100,-74.020594,9400.615463
774.747390,153.219100,-740.205942,9622.677246
774.747705,689.485948,-518.144159,9696.697840
774.748021,-306.438199,-814.226536,9326.594869
774.748337,-229.828649,-518.144159,10214.842000
774.748653,76.609550,148.041188,9770.718434
774.748968,612.876398,-222.061783,9696.697840
774.749284,1072.533697,296.082377,10436.903782
774.749600,766.095498,-0.000000,9030.512492
774.749915,-229.828649,-222.061783,9474.636058
774.750231,229.828649,444.123565,9770.718434
774.750547,995.924147,-74.020594,8586.388927
774.750862,1455.581446,-0.000000,9326.594869
774.751178,919.314598,-296.082377,9252.574275
774.751494,0.000000,-1554.432478,9178.553681
774.751810,-229.828649,-1776.494261,9474.636058
774.752125,0.000000,-962.267725,9474.636058
774.752441,842.705048,-814.226536,8438.347739
774.752757,1762.019645,-222.061783,8660.409521
774.753072,536.266849,-518.144159,8216.285956
774.753388,76.609550,-1776.494261,8808.450710
774.753704,0.000000,-1332.370696,9104.533087
774.754019,306.438199,-1332.370696,7920.203579
774.754335,689.485948,-1332.370696,8808.450710
774.754651,459.657299,-2146.597232,9400.615463
774.754967,-995.924147,-2886.803174,8438.347739
774.755282,-689.485948,-2516.700203,9548.656652
774.755598,0.000000,-1776.494261,9548.656652
774.755914,153.219100,-518.144159,8660.409521
774.756229,689.485948,-814.226536,9178.553681
774.756545,-306.438199,-222.061783,8438.347739
774.756861,0.000000,-1332.370696,9696.697840
774.757177,-383.047749,-222.061783,8734.430116
774.757492,0.000000,-0.000000,8142.265362
774.757808,689.485948,-888.247130,9474.636058
774.758124,306.438199,-814.226536,9474.636058
774.758439,-766.095498,-1036.288319,9400.615463
774.758755,-842.705048,-814.226536,10288.862594
774.759071,-229.828649,592.164754,10066.800811
774.759386,76.609550,666.185348,9474.636058
774.759702,842.705048,814.226536,9548.656652
774.760018,76.609550,148.041188,10362.883188
774.760334,-229.828649,-0.000000,9622.677246
774.760649,153.219100,1332.370696,9696.697840
774.760965,842.705048,962.267725,9474.636058
774.761281,1915.238745,1036.288319,10140.821405
774.761596,919.314598,1554.432478,10140.821405
774.761912,153.219100,296.082377,9548.656652
774.762228,766.095498,444.123565,10362.883188
774.762543,1072.533697,814.226536,10362.883188
774.762859,1762.019645,740.205942,9992.780217
774.763175,1838.629195,1258.350101,9844.739029
774.763491,1302.362347,1184.329507,10214.842000
774.763806,919.314598,1110.308913,9918.759623
774.764122,1762.019645,1776.494261,9548.656652
774.764438,1838.629195,1850.514855,9326.594869
774.764753,1991.848295,222.061783,10362.883188
774.765069,1072.533697,148.041188,10584.944971
774.765385,459.657299,-1480.411884,10140.821405
774.765700,76.609550,-666.185348,11103.089130
774.766016,1072.533697,296.082377,9622.677246
774.766332,995.924147,-222.061783,9844.739029
774.766648,1302.362347,370.102971,9696.697840
774.766963,-153.219100,-518.144159,9178.553681
774.767279,-383.047749,-1480.411884,10436.903782
774.767595,0.000000,-444.123565,10288.862594
774.767910,153.219100,-814.226536,8290.306550
774.768226,766.095498,-1184.329507,9548.656652
774.768542,0.000000,-1258.350101,10214.842000
774.768858,-995.924147,-2442.679609,10066.800811
774.769173,-153.219100,-1332.370696,10140.821405
774.769489,-153.219100,-222.061783,8956.491898
774.769805,689.485948,-592.164754,8734.430116
774.770120,689.485948,148.041188,8586.388927
774.770436,229.828649,-148.041188,8586.388927
774.770752,-383.047749,-444.123565,9104.533087
774.771067,842.705048,296.082377,8734.430116
774.771383,689.485948,518.144159,7254.018232
774.771699,766.095498,-0.000000,8808.450710
774.772015,383.047749,-370.102971,8882.471304
774.772330,-919.314598,-1332.370696,9326.594869
774.772646,-306.438199,-148.041188,10066.800811
774.772962,229.828649,814.226536,8660.409521
774.773277,459.657299,1258.350101,8216.285956
774.773593,766.095498,1036.288319,9400.615463
774.773909,0.000000,296.082377,8882.471304
774.774224,-229.828649,592.164754,9104.533087
774.774540,0.000000,1406.391290,9400.615463
774.774856,842.705048,666.185348,8660.409521
774.775172,1608.800546,962.267725,9104.533087
774.775487,306.438199,518.144159,8512.368333
774.775803,-229.828649,-1036.288319,9474.636058
774.776119,0.000000,-518.144159,10807.006753
774.776434,919.314598,296.082377,9844.739029
774.776750,995.924147,666.185348,9104.533087
774.777066,1225.752797,1184.329507,8438.347739
774.777382,842.705048,-74.020594,9178.553681
774.777697,306.438199,-962.267725,10510.924376
774.778013,1072.533697,222.061783,9178.553681
774.778329,919.314598,-0.000000,8216.285956
774.778644,1378.971896,-518.144159,9548.656652
774.778960,383.047749,-1406.391290,10288.862594
774.779276,-229.828649,-2294.638420,10066.800811
774.779591,306.438199,-370.102971,10584.944971
774.779907,459.657299,-444.123565,9400.615463
774.780223,459.657299,-666.185348,10288.862594
774.780539,0.000000,-740.205942,10362.883188
774.780854,-459.657299,-1480.411884,10362.883188
774.781170,76.609550,-370.102971,10214.842000
774.781486,-306.438199,518.144159,9178.553681
774.781801,153.219100,-148.041188,9844.739029
774.782117,1378.971896,-0.000000,10584.944971
774.782433,-383.047749,-740.205942,9326.594869
774.782748,-842.705048,-1628.453072,10658.965565
774.783064,-306.438199,-814.226536,11399.171507
774.783380,0.000000,-0.000000,10140.821405
774.783696,842.705048,592.164754,10066.800811
774.784011,383.047749,444.123565,9400.615463
774.784327,0.000000,-592.164754,10066.800811
774.784643,0.000000,-148.041188,10584.944971
774.784958,689.485948,888.247130,8512.368333
774.785274,995.924147,-0.000000,8660.409521
774.785590,1149.143247,-148.041188,10658.965565
774.785906,153.219100,-1184.329507,9326.594869
774.786221,229.828649,-740.205942,9030.512492
774.786537,919.314598,-0.000000,9770.718434
774.786853,1225.752797,74.020594,8808.450710
774.787168,1685.410096,370.102971,9400.615463
774.787484,1608.800546,666.185348,8068.244768
774.787800,919.314598,-74.020594,8586.388927
774.788115,1378.971896,-0.000000,8808.450710
774.788431,1378.971896,-148.041188,8290.306550
774.788747,1378.971896,-0.000000,8438.347739
774.789063,1762.019645,-296.082377,8882.471304
774.789378,766.095498,-1332.370696,8438.347739
774.789694,76.609550,-1850.514855,9992.780217
774.790010,76.609550,-1480.411884,9474.636058
774.790325,612.876398,-74.020594,8734.430116
774.790641,766.095498,-74.020594,9252.574275
774.790957,229.828649,-148.041188,8734.430116
774.791272,0.000000,-592.164754,9474.636058
774.791588,0.000000,-444.123565,9178.553681
774.791904,229.828649,370.102971,8512.368333
774.792220,383.047749,-296.082377,8808.450710
774.792535,383.047749,-888.247130,9252.574275
774.792851,-536.266849,-666.185348,8882.471304
774.793167,-612.876398,-1480.411884,10436.903782
774.793482,-383.047749,-370.102971,9844.739029
774.793798,0.000000,-222.061783,9400.615463
774.794114,689.485948,-0.000000,9844.739029
774.794430,0.000000,148.041188,8808.450710
774.794745,-229.828649,-296.082377,9548.656652
774.795061,383.047749,370.102971,10140.821405
774.795377,536.266849,962.267725,8438.347739
774.795692,995.924147,666.185348,9030.512492
774.796008,383.047749,-0.000000,9326.594869
774.796324,0.000000,-1184.329507,9622.677246
774.796639,0.000000,-962.267725,10881.027347
774.796955,306.438199,444.123565,10436.903782
774.797271,919.314598,1332.370696,9178.553681
774.797587,1455.581446,1258.350101,10214.842000
774.797902,306.438199,962.267725,9474.636058
774.798218,0.000000,296.082377,9696.697840
774.798534,459.657299,1036.288319,9992.780217
774.798849,153.219100,814.226536,8808.450710
774.799165,766.095498,148.041188,10436.903782
774.799481,612.876398,-0.000000,10288.862594
774.799796,-383.047749,-666.185348,9844.739029
774.800112,-459.657299,-592.164754,11177.109724
774.800428,0.000000,-0.000000,10362.883188
774.800744,766.095498,-0.000000,9474.636058
774.801059,1072.533697,-0.000000,9770.718434
774.801375,76.609550,-222.061783,9030.512492
774.801691,0.000000,-1406.391290,10066.800811
774.802006,153.219100,-592.164754,10214.842000
774.802322,766.095498,148.041188,8216.285956
774.802638,1149.143247,-0.000000,8956.491898
774.802953,612.876398,-444.123565,9474.636058
774.803269,-306.438199,-1480.411884,9400.615463
774.803585,-306.438199,-2072.576638,10214.842000
774.803901,153.219100,-1110.308913,9622.677246
774.804216,612.876398,-592.164754,9252.574275
774.804532,1072.533697,-370.102971,9252.574275
774.804848,383.047749,-518.144159,8956.491898
774.805163,76.609550,-1258.350101,9178.553681
774.805479,0.000000,-74.020594,9178.553681
774.805795,0.000000,-592.164754,8512.368333
774.806111,536.266849,-222.061783,9030.512492
774.806426,153.219100,-1110.308913,9474.636058
774.806742,-842.705048,-1776.494261,9104.533087
774.807058,-459.657299,-1702.473667,10658.965565
774.807373,-306.438199,-444.123565,9770.718434
774.807689,0.000000,-0.000000,9400.615463
774.808005,536.266849,592.164754,9178.553681
774.808320,-229.828649,-0.000000,9178.553681
774.808636,76.609550,148.041188,9548.656652
774.808952,919.314598,962.267725,9474.636058
774.809268,1378.971896,1036.288319,6883.915261
774.809583,1302.362347,222.061783,8808.450710
774.809899,1225.752797,-444.123565,9918.759623
774.810215,536.266849,-592.164754,8438.347739
774.810530,536.266849,-0.000000,9992.780217
774.810846,612.876398,-0.000000,9326.594869
774.811162,1455.581446,-0.000000,8808.450710
774.811477,1762.019645,222.061783,9770.718434
774.811793,919.314598,-74.020594,9030.512492
774.812109,536.266849,-740.205942,9696.697840
774.812425,919.314598,-74.020594,9696.697840
774.812740,1225.752797,-0.000000,8290.306550
774.813056,1532.190996,-0.000000,9622.677246
774.813372,1072.533697,-0.000000,9252.574275
774.813687,383.047749,-1184.329507,9104.533087
774.814003,919.314598,-962.267725,10288.862594
774.814319,1225.752797,-0.000000,9178.553681
774.814635,1149.143247,-74.020594,9104.533087
774.814950,1685.410096,-0.000000,10140.821405
774.815266,766.095498,-370.102971,8956.491898
774.815582,536.266849,-296.082377,10214.842000
774.815897,995.924147,518.144159,10214.842000
774.816213,766.095498,962.267725,8142.265362
774.816529,1455.581446,666.185348,9474.636058
774.816844,383.047749,-518.144159,9548.656652
774.817160,-536.266849,-962.267725,10510.924376
774.817476,-153.219100,-370.102971,10436.903782
774.817792,-459.657299,-296.082377,9918.759623
774.818107,-229.828649,-370.102971,10362.883188
774.818423,76.609550,-370.102971,11103.089130
774.818739,-919.314598,-148.041188,9178.553681
774.819054,-689.485948,-222.061783,10214.842000
774.819370,-689.485948,-0.000000,9696.697840
774.819686,76.609550,518.144159,8364.327145
774.820002,-229.828649,518.144159,9474.636058
774.820317,-229.828649,-666.185348,10584.944971
774.820633,-689.485948,-1184.329507,9992.780217
774.820949,0.000000,-370.102971,10214.842000
774.821264,-229.828649,-0.000000,9178.553681
774.821580,689.485948,-444.123565,9178.553681
774.821896,383.047749,222.061783,9178.553681
774.822212,-306.438199,-0.000000,8956.491898
774.822527,0.000000,-370.102971,9326.594869
774.822843,306.438199,518.144159,8734.430116
774.823159,76.609550,370.102971,8364.327145
774.823474,1149.143247,-0.000000,9548.656652
774.823790,383.047749,-592.164754,9178.553681
774.824106,-229.828649,-1406.391290,10214.842000
774.824421,76.609550,-148.041188,9474.636058
774.824737,229.828649,592.164754,8290.306550
774.825053,995.924147,370.102971,8586.388927
774.825369,766.095498,-0.000000,8882.471304
774.825684,-153.219100,-1184.329507,9400.615463
774.826000,153.219100,-370.102971,9770.718434
774.826316,76.609550,370.102971,8956.491898
774.826631,842.705048,-74.020594,9104.533087
774.826947,1378.971896,-148.041188,9622.677246
774.827263,383.047749,-592.164754,9030.512492
774.827579,229.828649,-1184.329507,9770.718434
774.827894,919.314598,-814.226536,10214.842000
774.828210,1072.533697,148.041188,9104.533087
774.828526,1532.190996,962.267725,8364.327145
774.828841,1072.533697,-0.000000,9326.594869
774.829157,1072.533697,-1036.288319,9474.636058
774.829473,995.924147,-0.000000,9844.739029
774.829789,1149.143247,962.267725,8586.388927
774.830104,1455.581446,-0.000000,8734.430116
774.830420,1915.238745,-444.123565,9992.780217
774.830736,1225.752797,-1258.350101,9474.636058
774.831051,689.485948,-1332.370696,9844.739029
774.831367,383.047749,-222.061783,10288.862594
774.831683,1225.752797,-0.000000,9918.759623
774.831998,1455.581446,444.123565,9252.574275
774.832314,1072.533697,592.164754,9622.677246
774.832630,383.047749,-518.144159,9622.677246
774.832946,612.876398,-370.102971,10584.944971
774.833261,612.876398,370.102971,9104.533087
774.833577,1225.752797,370.102971,8660.409521
774.833893,1991.848295,-0.000000,10214.842000
774.834208,306.438199,-296.082377,9326.594869
774.834524,612.876398,-370.102971,10510.924376
774.834840,76.609550,-0.000000,9918.759623
774.835156,612.876398,592.164754,8956.491898
774.835471,766.095498,296.082377,9770.718434
774.835787,306.438199,148.041188,9844.739029
774.836103,-383.047749,-962.267725,9474.636058
774.836418,-306.438199,-222.061783,10732.986159
774.836734,-306.438199,222.061783,8882.471304
774.837050,76.609550,-0.000000,9104.533087
774.837366,766.095498,-296.082377,9844.739029
774.837681,-306.438199,-1406.391290,9400.615463
774.837997,-459.657299,-1924.535449,11325.150913
774.838313,0.000000,-518.144159,10066.800811
774.838628,229.828649,148.041188,8364.327145
774.838944,1532.190996,222.061783,8586.388927
774.839260,766.095498,-0.000000,9104.533087
774.839576,0.000000,-444.123565,8734.430116
774.839891,153.219100,296.082377,9474.636058
774.840207,0.000000,-148.041188,8438.347739
774.840523,0.000000,-296.082377,8660.409521
774.840838,766.095498,-666.185348,9918.759623
774.841154,-229.828649,-1554.432478,9474.636058
774.841470,-919.314598,-1258.350101,10436.903782
774.841785,-229.828649,-444.123565,10066.800811
774.842101,0.000000,148.041188,9030.512492
774.842417,0.000000,888.247130,9474.636058
774.842733,0.000000,296.082377,9030.512492
774.843048,-229.828649,-74.020594,9030.512492
774.843364,-229.828649,296.082377,9548.656652
774.843680,0.000000,-296.082377,8956.491898
774.843995,766.095498,-222.061783,9178.553681
774.844311,689.485948,-518.144159,9178.553681
774.844627,-612.876398,-1258.350101,9104.533087
774.844943,-689.485948,-1406.391290,10584.944971
774.845258,-383.047749,-370.102971,9844.739029
774.845574,459.657299,666.185348,9030.512492
774.845890,766.095498,888.247130,9622.677246
774.846205,0.000000,370.102971,8956.491898
774.846521,0.000000,-296.082377,9548.656652
774.846837,459.657299,-0.000000,9992.780217
774.847153,842.705048,370.102971,8734.430116
774.847468,1455.581446,370.102971,9104.533087
774.847784,1378.971896,-0.000000,8956.491898
774.848100,612.876398,-1036.288319,9400.615463
774.848415,612.876398,-962.267725,11177.109724
774.848731,842.705048,-296.082377,9918.759623
774.849047,842.705048,222.061783,9696.697840
774.849362,1455.581446,518.144159,10362.883188
774.849678,919.314598,444.123565,9548.656652
774.849994,689.485948,-222.061783,9622.677246
774.850310,689.485948,-0.000000,10140.821405
774.850625,995.924147,296.082377,8808.450710
774.850941,1838.629195,370.102971,9030.512492
774.851257,1072.533697,-1184.329507,10214.842000
774.851572,0.000000,-1258.350101,9622.677246
774.851888,0.000000,-1184.329507,10584.944971
774.852204,536.266849,-740.205942,9992.780217
774.852520,536.266849,-592.164754,10214.842000
774.852835,919.314598,-148.041188,9696.697840
774.853151,689.485948,-518.144159,9696.697840
774.853467,0.000000,-1036.288319,9770.718434
774.853782,383.047749,-0.000000,9918.759623
774.854098,459.657299,-148.041188,8438.347739
774.854414,995.924147,-518.144159,9474.636058
774.854730,459.657299,-518.144159,9400.615463
774.855045,-229.828649,-1702.473667,9030.512492
774.855361,-459.657299,-1554.432478,10732.986159
774.855677,153.219100,-888.247130,9918.759623
774.855992,842.705048,-0.000000,9474.636058
774.856308,1302.362347,740.205942,9400.615463
774.856624,766.095498,-0.000000,7920.203579
774.856939,383.047749,-148.041188,9252.574275
774.857255,689.485948,444.123565,9326.594869
774.857571,689.485948,148.041188,8068.244768
774.857887,1149.143247,518.144159,9104.533087
774.858202,76.609550,-0.000000,9030.512492
774.858518,-229.828649,-888.247130,9474.636058
774.858834,0.000000,-148.041188,10658.965565
774.859149,-229.828649,-0.000000,8956.491898
774.859465,-153.219100,592.164754,8956.491898
774.859781,0.000000,444.123565,9474.636058
774.860097,-383.047749,-370.102971,9326.594869
774.860412,-306.438199,-222.061783,10658.965565
774.860728,-306.438199,370.102971,9622.677246
774.861044,383.047749,444.123565,8734.430116
774.861359,536.266849,666.185348,9548.656652
774.861675,76.609550,-0.000000,9178.553681
774.861991,0.000000,-1406.391290,9844.739029
774.862307,153.219100,-74.020594,9918.759623
774.862622,459.657299,666.185348,9104.533087
774.862938,1608.800546,740.205942,9474.636058
774.863254,1762.019645,666.185348,9104.533087
774.863569,689.485948,222.061783,8512.368333
774.863885,995.924147,-222.061783,9918.759623
774.864201,1302.362347,222.061783,9548.656652
774.864517,995.924147,-0.000000,9178.553681
774.864832,1762.019645,-370.102971,9474.636058
774.865148,536.266849,-592.164754,9622.677246
774.865464,76.609550,-1184.329507,9992.780217
774.865779,383.047749,-1036.288319,10510.924376
774.866095,229.828649,-814.226536,10066.800811
774.866411,612.876398,-296.082377,10288.862594
774.866726,612.876398,296.082377,9178.553681
774.867042,383.047749,-666.185348,8882.471304
774.867358,536.266849,-962.267725,10510.924376
774.867674,536.266849,148.041188,9696.697840
774.867989,842.705048,-222.061783,8586.388927
774.868305,1149.143247,-0.000000,9400.615463
774.868621,612.876398,-814.226536,10140.821405
774.868936,-153.219100,-888.247130,9474.636058
774.869252,0.000000,-74.020594,10066.800811
774.869568,0.000000,-0.000000,9400.615463
774.869884,536.266849,-74.020594,9622.677246
774.870199,842.705048,148.041188,9918.759623
774.870515,-459.657299,-222.061783,9326.594869
774.870831,-459.657299,-0.000000,9770.718434
774.871146,76.609550,592.164754,9178.553681
774.871462,0.000000,-0.000000,8216.285956
774.871778,536.266849,-0.000000,9770.718434
774.872094,0.000000,-962.267725,9326.594869
774.872409,-459.657299,-1554.432478,10288.862594
774.872725,0.000000,-592.164754,10436.903782
774.873041,919.314598,296.082377,8882.471304
774.873356,1072.533697,222.061783,8882.471304
774.873672,1225.752797,370.102971,9030.512492
774.873988,459.657299,-740.205942,9178.553681
774.874303,383.047749,-222.061783,9992.780217
774.874619,383.047749,-74.020594,8734.430116
774.874935,1072.533697,-74.020594,8512.368333
774.875251,1378.971896,-222.061783,9844.739029
774.875566,459.657299,-888.247130,8734.430116
774.875882,306.438199,-962.267725,9548.656652
774.876198,459.657299,-370.102971,9696.697840
774.876513,383.047749,-0.000000,9178.553681
774.876829,1149.143247,222.061783,9400.615463
774.877145,919.314598,-0.000000,8734.430116
774.877461,0.000000,-592.164754,9104.533087
774.877776,0.000000,-592.164754,10436.903782
774.878092,0.000000,444.123565,8586.388927
774.878408,536.266849,74.020594,8808.450710
774.878723,842.705048,-0.000000,9992.780217
774.879039,-383.047749,-592.164754,9548.656652
774.879355,-306.438199,-666.185348,10140.821405
774.879671,76.609550,-148.041188,10066.800811
774.879986,76.609550,148.041188,9474.636058
774.880302,1149.143247,444.123565,8808.450710
774.880618,612.876398,666.185348,9474.636058
774.880933,0.000000,-296.082377,9548.656652
774.881249,459.657299,148.041188,9918.759623
774.881565,766.095498,-0.000000,8882.471304
774.881881,459.657299,-0.000000,9252.574275
774.882196,766.095498,222.061783,9770.718434
774.882512,229.828649,-888.247130,9252.574275
774.882828,0.000000,-444.123565,10955.047942
774.883143,153.219100,-296.082377,9992.780217
774.883459,383.047749,296.082377,8660.409521
774.883775,995.924147,370.102971,9548.656652
774.884090,229.828649,-444.123565,9696.697840
774.884406,0.000000,-444.123565,9844.739029
774.884722,383.047749,-222.061783,10066.800811
774.885038,459.657299,-222.061783,8586.388927
774.885353,306.438199,-0.000000,9104.533087
774.885669,689.485948,-370.102971,10140.821405
774.885985,229.828649,-814.226536,9400.615463
774.886300,0.000000,-592.164754,10140.821405
774.886616,306.438199,-222.061783,9844.739029
774.886932,536.266849,-148.041188,9178.553681
774.887248,842.705048,-148.041188,9992.780217
774.887563,229.828649,-592.164754,9844.739029
774.887879,-995.924147,-1184.329507,10140.821405
774.888195,-459.657299,-740.205942,10214.842000
774.888510,0.000000,-0.000000,9104.533087
774.888826,459.657299,-148.041188,9178.553681
774.889142,383.047749,-518.144159,9474.636058
774.889458,-153.219100,-1776.494261,9400.615463
774.889773,-229.828649,-1332.370696,9992.780217
774.890089,153.219100,-518.144159,9178.553681
774.890405,459.657299,-0.000000,8734.430116
774.890720,919.314598,-518.144159,9326.594869
774.891036,153.219100,-666.185348,8660.409521
774.891352,0.000000,-740.205942,8586.388927
774.891667,-153.219100,-592.164754,9844.739029
774.891983,459.657299,-370.102971,8438.347739
774.892299,689.485948,-370.102971,8734.430116
774.892615,612.876398,-444.123565,9474.636058
774.892930,0.000000,-888.247130,9474.636058
774.893246,229.828649,-814.226536,9548.656652
774.893562,0.000000,-74.020594,9252.574275
774.893877,459.657299,148.041188,9104.533087
774.894193,1072.533697,444.123565,9326.594869
774.894509,1378.971896,518.144159,8290.306550
774.894825,306.438199,370.102971,8438.347739
774.895140,459.657299,1110.308913,9474.636058
774.895456,1225.752797,-666.185348,8660.409521
774.895772,1685.410096,888.247130,9104.533087
774.896087,612.876398,962.267725,8882.471304
774.896403,229.828649,-888.247130,9548.656652
774.896719,612.876398,222.061783,10658.965565
774.897035,766.095498,296.082377,9030.512492
774.897350,919.314598,518.144159,9474.636058
774.897666,1225.752797,222.061783,10658.965565
774.897982,153.219100,-518.144159,9030.512492
774.898297,995.924147,-148.041188,9696.697840
774.898613,229.828649,296.082377,9770.718434
774.898929,842.705048,592.164754,9400.615463
774.899245,1762.019645,814.226536,9844.739029
774.899560,766.095498,-0.000000,9622.677246
774.899876,306.438199,-1036.288319,10066.800811
774.900192,689.485948,-962.267725,10807.006753
774.900507,612.876398,-888.247130,9770.718434
774.900823,1378.971896,74.020594,10510.924376
774.901139,1532.190996,444.123565,9548.656652
774.901454,612.876398,888.247130,9474.636058
774.901770,689.485948,444.123565,10066.800811
774.902086,459.657299,740.205942,10066.800811
774.902402,536.266849,962.267725,8882.471304
774.902717,995.924147,814.226536,9622.677246
774.903033,229.828649,-296.082377,9844.739029
774.903349,0.000000,-1110.308913,10066.800811
774.903664,-306.438199,-592.164754,10807.006753
774.903980,-153.219100,-592.164754,9474.636058
774.904296,153.219100,-0.000000,9326.594869
774.904612,0.000000,222.061783,9696.697840
774.904927,-612.876398,-518.144159,9474.636058
774.905243,-459.657299,-666.185348,9770.718434
774.905559,-383.047749,-0.000000,9474.636058
774.905874,229.828649,-444.123565,8512.368333
774.906190,306.438199,-962.267725,9326.594869
774.906506,0.000000,-1036.288319,9474.636058
774.906822,-459.657299,-2072.576638,9696.697840
774.907137,0.000000,-1628.453072,9844.739029
774.907453,76.609550,-592.164754,9622.677246
774.907769,995.924147,-0.000000,8290.306550
774.908084,842.705048,518.144159,8216.285956
774.908400,0.000000,-518.144159,8734.430116
774.908716,0.000000,-740.205942,9474.636058
774.909031,383.047749,592.164754,8512.368333
774.909347,766.095498,-444.123565,7698.141797
774.909663,1455.581446,-370.102971,9474.636058
774.909979,306.438199,-814.226536,8438.347739
774.910294,0.000000,-1702.473667,8660.409521
774.910610,0.000000,-740.205942,10288.862594
774.910926,-229.828649,-444.123565,9548.656652
774.911241,536.266849,-222.061783,9474.636058
774.911557,689.485948,296.082377,9474.636058
774.911873,-459.657299,-666.185348,9178.553681
774.912189,0.000000,-74.020594,9770.718434
774.912504,229.828649,962.267725,9104.533087
774.912820,919.314598,-0.000000,8142.265362
774.913136,1608.800546,-370.102971,9992.780217
774.913451,766.095498,-962.267725,9474.636058
774.913767,459.657299,-1258.350101,9474.636058
774.914083,766.095498,-296.082377,10288.862594
774.914399,536.266849,-0.000000,9104.533087
774.914714,1455.581446,222.061783,9326.594869
774.915030,1378.971896,370.102971,9474.636058
774.915346,459.657299,-444.123565,9252.574275
774.915661,689.485948,-444.123565,10140.821405
774.915977,842.705048,-148.041188,8882.471304
774.916293,1149.143247,-148.041188,8512.368333
774.916608,1532.190996,-444.123565,10436.903782
774.916924,766.095498,-1258.350101,9844.739029
774.917240,76.609550,-1110.308913,10140.821405
774.917556,459.657299,-444.123565,10362.883188
774.917871,842.705048,-444.123565,9622.677246
774.918187,1378.971896,-0.000000,9696.697840
774.918503,1302.362347,296.082377,9844.739029
774.918819,536.266849,-296.082377,9696.697840
774.919134,995.924147,518.144159,10140.821405
774.919450,995.924147,370.102971,9104.533087
774.919766,919.314598,814.226536,8660.409521
774.920082,1149.143247,740.205942,10066.800811
774.920398,229.828649,-0.000000,9548.656652
774.920713,76.609550,-74.020594,9844.739029
774.921029,229.828649,-148.041188,10658.965565
774.921345,0.000000,148.041188,9400.615463
774.921661,689.485948,592.164754,9992.780217
774.921976,689.485948,370.102971,10362.883188
774.922292,-306.438199,-444.123565,9178.553681
774.922608,0.000000,-0.000000,10584.944971
774.922924,-153.219100,-0.000000,8882.471304
774.923239,766.095498,740.205942,8512.368333
774.923555,612.876398,-0.000000,10066.800811
774.923871,-306.438199,-2368.659014,9696.697840
774.924187,-383.047749,-1850.514855,9770.718434
774.924503,-383.047749,-148.041188,9918.759623
774.924818,-229.828649,-0.000000,8364.327145
774.925134,766.095498,592.164754,9178.553681
774.925450,612.876398,444.123565,8882.471304
774.925766,0.000000,-370.102971,8586.388927
774.926081,229.828649,-74.020594,9474.636058
774.926397,306.438199,-888.247130,8068.244768
774.926713,459.657299,-74.020594,8512.368333
774.927029,383.047749,-296.082377,9844.739029
774.927344,-229.828649,-1110.308913,8808.450710
774.927660,0.000000,-814.226536,9918.759623
774.927976,-229.828649,222.061783,10140.821405
774.928292,153.219100,666.185348,8586.388927
774.928607,612.876398,962.267725,9400.615463
774.928923,153.219100,-296.082377,9252.574275
774.929239,0.000000,-1332.370696,9844.739029
774.929555,-153.219100,-0.000000,9918.759623
774.929871,76.609550,222.061783,9030.512492
774.930186,229.828649,444.123565,8734.430116
774.930502,612.876398,370.102971,10362.883188
774.930818,-766.095498,-370.102971,8808.450710
774.931134,-689.485948,-370.102971,9178.553681
774.931449,229.828649,-518.144159,11029.068536
774.931765,612.876398,-222.061783,9474.636058
774.932081,1608.800546,148.041188,8808.450710
774.932397,919.314598,-0.000000,8290.306550
774.932712,459.657299,-814.226536,9844.739029
774.933028,1378.971896,-296.082377,10362.883188
774.933344,1072.533697,962.267725,8068.244768
774.933660,1225.752797,1036.288319,8586.388927
774.933976,1685.410096,-296.082377,9696.697840
774.934291,689.485948,-1184.329507,9844.739029
774.934607,766.095498,-962.267725,10510.924376
774.934923,842.705048,-592.164754,9992.780217
774.935239,1149.143247,-74.020594,9622.677246
774.935554,995.924147,370.102971,9474.636058
774.935870,536.266849,-0.000000,9548.656652
774.936186,76.609550,-962.267725,9918.759623
774.936502,76.609550,-148.041188,10510.924376
774.936817,459.657299,444.123565,9474.636058
774.937133,995.924147,296.082377,8882.471304
774.937449,766.095498,-518.144159,9622.677246
774.937765,229.828649,-1406.391290,9696.697840
774.938081,-229.828649,-1258.350101,10066.800811
774.938396,0.000000,-444.123565,10214.842000
774.938712,153.219100,-222.061783,9400.615463
774.939028,842.705048,-370.102971,10214.842000
774.939344,76.609550,-444.123565,9252.574275
774.939659,-459.657299,-592.164754,9918.759623
774.939975,-459.657299,-518.144159,10140.821405
774.940291,-76.609550,-1036.288319,8734.430116
774.940607,229.828649,-370.102971,9548.656652
774.940922,153.219100,-814.226536,9548.656652
774.941238,-536.266849,-1702.473667,9474.636058
774.941554,-459.657299,-1628.453072,10584.944971
774.941870,383.047749,-592.164754,9474.636058
774.942186,0.000000,-74.020594,9030.512492
774.942501,919.314598,-0.000000,9178.553681
774.942817,229.828649,-370.102971,8216.285956
774.943133,-153.219100,-888.247130,9252.574275
774.943449,689.485948,-518.144159,9770.718434
774.943764,842.705048,-222.061783,8660.409521
774.944080,1072.533697,-74.020594,8808.450710
774.944396,766.095498,-0.000000,9030.512492
774.944712,306.438199,-740.205942,9326.594869
774.945027,689.485948,-518.144159,9474.636058
774.945343,612.876398,592.164754,8808.450710
774.945659,689.485948,666.185348,9030.512492
774.945975,995.924147,222.061783,9474.636058
774.946290,459.657299,-444.123565,9178.553681
774.946606,383.047749,-296.082377,9992.780217
774.946922,536.266849,666.185348,9178.553681
774.947238,612.876398,814.226536,7698.141797
774.947554,1072.533697,592.164754,9696.697840
774.947869,689.485948,148.041188,9474.636058
774.948185,-229.828649,-222.061783,9474.636058
774.948501,76.609550,-0.000000,10584.944971
774.948817,612.876398,518.144159,8882.471304
774.949132,1455.581446,962.267725,8512.368333
774.949448,1149.143247,666.185348,9400.615463
774.949764,612.876398,-370.102971,9400.615463
774.950080,842.705048,-444.123565,9696.697840
774.950395,919.314598,518.144159,9400.615463
774.950711,919.314598,444.123565,8734.430116
774.951027,1608.800546,370.102971,9622.677246
774.951343,1378.971896,-148.041188,9622.677246
774.951659,229.828649,-666.185348,9474.636058
774.951974,76.609550,-444.123565,10955.047942
774.952290,459.657299,-370.102971,9992.780217
774.952606,919.314598,592.164754,9770.718434
774.952922,919.314598,148.041188,9992.780217
774.953237,383.047749,-740.205942,9696.697840
774.953553,0.000000,-814.226536,10436.903782
774.953869,0.000000,-148.041188,10436.903782
774.954185,229.828649,-74.020594,8808.450710
774.954500,919.314598,-148.041188,9622.677246
774.954816,459.657299,-518.144159,10140.821405
774.955132,383.047749,-740.205942,9474.636058
774.955448,459.657299,-0.000000,10140.821405
774.955764,842.705048,-296.082377,9104.533087
774.956079,919.314598,-370.102971,8882.471304
774.956395,995.924147,-222.061783,9696.697840
774.956711,0.000000,-666.185348,9548.656652
774.957027,-229.828649,-666.185348,10288.862594
774.957342,-306.438199,-148.041188,9622.677246
774.957658,153.219100,-518.144159,9030.512492
774.957974,689.485948,222.061783,9696.697840
774.958290,-229.828649,-1110.308913,9030.512492
774.958605,-306.438199,-1406.391290,9696.697840
774.958921,229.828649,-1184.329507,10658.965565
774.959237,0.000000,-74.020594,9178.553681
774.959553,766.095498,666.185348,8808.450710
774.959869,459.657299,370.102971,8734.430116
774.960184,0.000000,-666.185348,9178.553681
774.960500,0.000000,-1036.288319,9622.677246
774.960816,306.438199,-74.020594,8882.471304
774.961132,306.438199,-740.205942,8512.368333
774.961447,766.095498,-518.144159,9474.636058
774.961763,459.657299,-666.185348,9474.636058
774.962079,76.609550,-592.164754,9030.512492
774.962395,306.438199,222.061783,9474.636058
774.962710,0.000000,148.041188,9030.512492
774.963026,842.705048,222.061783,9252.574275
774.963342,612.876398,296.082377,8512.368333
774.963658,-766.095498,-1258.350101,8882.471304
774.963973,0.000000,-1036.288319,10807.006753
774.964289,306.438199,-0.000000,9178.553681
774.964605,919.314598,296.082377,7994.224174
774.964921,919.314598,444.123565,9474.636058
774.965237,-612.876398,-1184.329507,9252.574275
774.965552,-153.219100,-1628.453072,9844.739029
774.965868,-229.828649,-666.185348,10955.047942
774.966184,0.000000,-370.102971,9474.636058
774.966500,1225.752797,-148.041188,9696.697840
774.966815,689.485948,-148.041188,9104.533087
774.967131,0.000000,-666.185348,9252.574275
774.967447,612.876398,-74.020594,9992.780217
774.967763,919.314598,-0.000000,8808.450710
774.968078,766.095498,444.123565,8290.306550
774.968394,1225.752797,-148.041188,9918.759623
774.968710,766.095498,-1184.329507,9252.574275
774.969026,383.047749,-1332.370696,10140.821405
774.969342,689.485948,-962.267725,10732.986159
774.969657,459.657299,-370.102971,9548.656652
774.969973,766.095498,-0.000000,9622.677246
774.970289,612.876398,-518.144159,9696.697840
774.970605,153.219100,-1850.514855,10584.944971
774.970920,689.485948,-1110.308913,11251.130318
774.971236,689.485948,-0.000000,9252.574275
774.971552,1532.190996,-222.061783,8512.368333
774.971868,1685.410096,-444.123565,10658.965565
774.972183,1608.800546,-814.226536,8956.491898
774.972499,1302.362347,-222.061783,9104.533087
774.972815,1685.410096,148.041188,9770.718434
774.973131,1455.581446,-74.020594,8660.409521
774.973447,1838.629195,-74.020594,9178.553681
774.973762,1072.533697,-518.144159,9400.615463
774.974078,383.047749,-1406.391290,9252.574275
774.974394,-76.609550,-1184.329507,10436.903782
774.974710,-536.266849,-962.267725,8068.244768
774.975025,-995.924147,-1480.411884,9474.636058
774.975341,-919.314598,-2220.617826,10881.027347
774.975657,-2451.505594,-2368.659014,9474.636058
774.975973,-2145.067394,-3034.844362,10436.903782
774.976288,-2221.676944,-3923.091493,11621.233289
774.976604,-2757.943793,-1554.432478,9548.656652
774.976920,-1608.800546,-1036.288319,9400.615463
774.977236,-842.705048,-1554.432478,9178.553681
774.977552,-1838.629195,-1332.370696,8956.491898
774.977867,-1149.143247,-962.267725,9326.594869
774.978183,-1072.533697,-1110.308913,7402.059420
774.978499,-1302.362347,-1036.288319,8068.244768
774.978815,-689.485948,-888.247130,9326.594869
774.979130,0.000000,-1702.473667,8660.409521
774.979446,-1608.800546,-1776.494261,8734.430116
774.979762,-2068.457845,-1110.308913,9918.759623
774.980078,-2298.286494,-1036.288319,8364.327145
774.980393,-1762.019645,-888.247130,8808.450710
774.980709,-1838.629195,-888.247130,9548.656652
774.981025,-2451.505594,-2442.679609,9622.677246
774.981341,-2757.943793,-2812.782580,10955.047942
774.981656,-3294.210641,-2738.761985,10436.903782
774.981972,-2911.162892,-1998.556043,9030.512492
774.982288,-2451.505594,-1406.391290,9918.759623
774.982604,-2451.505594,-1258.350101,9104.533087
774.982920,-1608.800546,-2220.617826,9696.697840
774.983235,-1762.019645,-2442.679609,10584.944971
774.983551,-612.876398,-2146.597232,8956.491898
774.983867,-383.047749,-1850.514855,8142.265362
774.984183,-536.266849,-1184.329507,9178.553681
774.984498,-383.047749,-1110.308913,8438.347739
774.984814,459.657299,-2072.576638,8956.491898
774.985130,0.000000,-1924.535449,9400.615463
774.985446,-689.485948,-1702.473667,8142.265362
774.985761,-919.314598,-2146.597232,8882.471304
774.986077,-689.485948,-1998.556043,9104.533087
774.986393,-1685.410096,-2146.597232,9252.574275
774.986709,-1225.752797,-2368.659014,10214.842000
774.987025,-1762.019645,-2812.782580,9992.780217
774.987340,-2834.553343,-2368.659014,9844.739029
774.987656,-2681.334243,-3182.885551,10436.903782
774.987972,-2834.553343,-3552.988522,10955.047942
774.988288,-3983.696590,-1924.535449,10584.944971
774.988603,-2911.162892,-2220.617826,10658.965565
774.988919,-2145.067394,-3108.864956,10436.903782
774.989235,-2221.676944,-2294.638420,10288.862594
774.989551,-2451.505594,-2886.803174,9918.759623
774.989866,-919.314598,-2590.720797,9770.718434
774.990182,-919.314598,-1184.329507,9030.512492
774.990498,-919.314598,-74.020594,8216.285956
774.990814,306.438199,-518.144159,7846.182985
774.991130,536.266849,-1258.350101,7772.162391
774.991445,-306.438199,-1776.494261,8956.491898
774.991761,-766.095498,-2886.803174,9326.594869
774.992077,-1225.752797,-2812.782580,9548.656652
774.992393,-1685.410096,-2368.659014,10140.821405
774.992708,-2221.676944,-2072.576638,9992.780217
774.993024,-2068.457845,-2368.659014,9252.574275
774.993340,-2145.067394,-2442.679609,9770.718434
774.993656,-2681.334243,-3108.864956,9992.780217
774.993971,-2374.896044,-3478.967927,10214.842000
774.994287,-2374.896044,-2664.741391,8956.491898
774.994603,-2145.067394,-2738.761985,9030.512492
774.994919,-1838.629195,-2886.803174,9326.594869
774.995235,-1838.629195,-2516.700203,8660.409521
774.995550,-2221.676944,-1998.556043,8216.285956
774.995866,-1838.629195,-2146.597232,8660.409521
774.996182,-1225.752797,-2812.782580,9252.574275
774.996498,-1915.238745,-2960.823768,9178.553681
774.996813,-1685.410096,-3256.906145,9622.677246
774.997129,-1608.800546,-3849.070898,10288.862594
774.997445,-1532.190996,-3404.947333,10066.800811
774.997761,-1915.238745,-2368.659014,10436.903782
774.998076,-1838.629195,-740.205942,9474.636058
774.998392,-1072.533697,-444.123565,8808.450710
774.998708,-842.705048,-1036.288319,8364.327145
774.999024,-536.266849,-1406.391290,8290.306550
774.999339,-536.266849,-1036.288319,7402.059420
774.999655,-536.266849,-1480.411884,7698.141797
774.999971,-612.876398,-2072.576638,8512.368333
775.000287,-689.485948,-2368.659014,9178.553681
775.000603,-1608.800546,-1850.514855,9474.636058
775.000918,-2604.724693,-1184.329507,9474.636058
775.001234,-2987.772442,-1998.556043,9622.677246
775.001550,-2681.334243,-3034.844362,10362.883188
775.001866,-2834.553343,-2812.782580,10436.903782
775.002181,-2911.162892,-3108.864956,10807.006753
775.002497,-2987.772442,-3701.029710,11325.150913
775.002813,-2834.553343,-3034.844362,11177.109724
775.003129,-2221.676944,-2220.617826,10510.924376
775.003444,-1532.190996,-1258.350101,9622.677246
775.003760,-1608.800546,-74.020594,9104.533087
775.004076,-1225.752797,370.102971,8512.368333
775.004392,76.609550,-0.000000,7476.080014
775.004708,995.924147,-370.102971,7698.141797
775.005023,1225.752797,-666.185348,7772.162391
775.005339,383.047749,-2294.638420,8290.306550
775.005655,0.000000,-3404.947333,9326.594869
775.005971,-1302.362347,-3256.906145,9992.780217
775.006286,-1608.800546,-2886.803174,11103.089130
775.006602,-2221.676944,-2368.659014,11621.233289
775.006918,-3064.381992,-2146.597232,11473.192101
775.007234,-3140.991542,-2220.617826,10881.027347
775.007549,-2757.943793,-1998.556043,10288.862594
775.007865,-2604.724693,-1776.494261,9400.615463
775.008181,-1991.848295,-1480.411884,9030.512492
775.008497,-1378.971896,-2072.576638,8512.368333
775.008813,-1532.190996,-3330.926739,8882.471304
775.009128,-1532.190996,-3923.091493,9400.615463
775.009444,-1991.848295,-4219.173869,10066.800811
775.009760,-1915.238745,-3849.070898,10362.883188
775.010076,-1762.019645,-3701.029710,10584.944971
775.010391,-1608.800546,-3108.864956,10362.883188
775.010707,-1149.143247,-2368.659014,9918.759623
775.011023,-689.485948,-1702.473667,9326.594869
775.011339,-459.657299,-1332.370696,8734.430116
775.011654,-153.219100,-962.267725,8216.285956
775.011970,-229.828649,-814.226536,7846.182985
775.012286,0.000000,-1332.370696,7772.162391
775.012602,-995.924147,-1998.556043,8068.244768
775.012918,-1149.143247,-3034.844362,8290.306550
775.013233,-1762.019645,-4367.215058,8956.491898
775.013549,-2451.505594,-4589.276840,9548.656652
775.013865,-2528.115143,-4589.276840,10436.903782
775.014181,-3217.601092,-4293.194464,10658.965565
775.014496,-3907.087040,-4145.153275,11177.109724
775.014812,-4060.306139,-3775.050304,11251.130318
775.015128,-3600.648841,-3256.906145,10881.027347
775.015444,-3370.820191,-2368.659014,10066.800811
775.015759,-2681.334243,-1480.411884,9696.697840
775.016075,-1685.410096,-1554.432478,9030.512492
775.016391,-842.705048,-1184.329507,7846.182985
775.016707,229.828649,-740.205942,7254.018232
775.017022,919.314598,-518.144159,6365.771101
775.017338,766.095498,-740.205942,6513.812290
775.017654,229.828649,-1036.288319,6883.915261
775.017970,0.000000,-1406.391290,7105.977043
775.018286,-766.095498,-2368.659014,8512.368333
775.018601,-2451.505594,-3552.988522,9992.780217
775.018917,-3677.258390,-4737.318029,11251.130318
775.019233,-4673.182538,-5625.565159,12213.398043
775.019549,-5132.839837,-5477.523971,12879.583391
775.019865,-4979.620737,-4589.276840,13027.624579
775.020180,-4596.572988,-3330.926739,12583.501014
775.020496,-3370.820191,-1702.473667,11251.130318
775.020812,-1915.238745,-518.144159,9474.636058
775.021128,0.000000,296.082377,8290.306550
775.021444,1378.971896,666.185348,7624.121203
775.021760,2451.505594,370.102971,6365.771101
775.022076,3830.477490,-0.000000,5699.585753
775.022391,3830.477490,-0.000000,5847.626942
775.022707,3753.867940,-592.164754,6661.853478
775.023023,2298.286494,-1258.350101,7994.224174
775.023339,919.314598,-2368.659014,9252.574275
775.023655,-842.705048,-2812.782580,10288.862594
775.023971,-2528.115143,-3182.885551,11547.212695
775.024286,-3294.210641,-3256.906145,12065.356855
775.024602,-4366.744339,-2812.782580,12657.521608
775.024918,-4519.963438,-2368.659014,12731.542202
775.025234,-4673.182538,-2220.617826,11991.336260
775.025550,-4213.525239,-2146.597232,11177.109724
775.025866,-3524.039291,-2368.659014,9992.780217
775.026181,-3140.991542,-2664.741391,9548.656652
775.026497,-1915.238745,-2368.659014,9030.512492
775.026813,-1378.971896,-1924.535449,8586.388927
775.027129,-612.876398,-1480.411884,8216.285956
775.027445,-306.438199,-1406.391290,8364.327145
775.027761,-383.047749,-1998.556043,8660.409521
775.028076,-612.876398,-1850.514855,9252.574275
775.028392,-919.314598,-2220.617826,9770.718434
775.028708,-1455.581446,-1998.556043,9918.759623
775.029024,-1762.019645,-1184.329507,10362.883188
775.029340,-1991.848295,-1332.370696,10288.862594
775.029656,-1915.238745,-1628.453072,10436.903782
775.029971,-2298.286494,-2146.597232,10140.821405
775.030287,-2298.286494,-1924.535449,9548.656652
775.030603,-1991.848295,-2590.720797,9548.656652
775.030919,-1991.848295,-3034.844362,9548.656652
775.031235,-1532.190996,-3256.906145,9400.615463
775.031551,-1149.143247,-3552.988522,9030.512492
775.031866,-1225.752797,-3034.844362,9104.533087
775.032182,-1378.971896,-3478.967927,9104.533087
775.032498,-1225.752797,-3552.988522,9548.656652
775.032814,-1149.143247,-2812.782580,9622.677246
775.033130,-1302.362347,-2368.659014,9474.636058
775.033446,-689.485948,-1850.514855,9400.615463
775.033761,-229.828649,-1036.288319,9030.512492
775.034077,76.609550,-740.205942,8438.347739
775.034393,612.876398,-592.164754,8068.244768
775.034709,1608.800546,-740.205942,8216.285956
775.035025,1378.971896,-1406.391290,7550.100608
775.035341,1072.533697,-1554.432478,7550.100608
775.035656,612.876398,-2072.576638,7772.162391
775.035972,0.000000,-2220.617826,8290.306550
775.036288,-536.266849,-2590.720797,9104.533087
775.036604,-1378.971896,-2738.761985,9770.718434
775.036920,-2757.943793,-2738.761985,10140.821405
775.037236,-3524.039291,-2368.659014,10436.903782
775.037551,-3753.867940,-1924.535449,10584.944971
775.037867,-2834.553343,-962.267725,10436.903782
775.038183,-2757.943793,-370.102971,10066.800811
775.038499,-2451.505594,-444.123565,9548.656652
775.038815,-1915.238745,-962.267725,9252.574275
775.039131,-919.314598,-1406.391290,9178.553681
775.039446,76.609550,-1554.432478,8734.430116
775.039762,-153.219100,-1184.329507,8734.430116
775.040078,-229.828649,-1258.350101,8290.306550
775.040394,-306.438199,-1480.411884,9030.512492
775.040710,-842.705048,-1554.432478,9104.533087
775.041026,-1455.581446,-2220.617826,9770.718434
775.041341,-2221.676944,-2368.659014,10066.800811
775.041657,-2911.162892,-2664.741391,10288.862594
775.041973,-3447.429741,-2516.700203,10955.047942
775.042289,-4366.744339,-2960.823768,11399.171507
775.042605,-4903.011187,-2738.761985,11325.150913
775.042921,-4903.011187,-2738.761985,11177.109724
775.043236,-4443.353888,-3256.906145,10955.047942
775.043552,-4213.525239,-3701.029710,10732.986159
775.043868,-3524.039291,-3404.947333,10214.842000
775.044184,-3064.381992,-3701.029710,9992.780217
775.044500,-2221.676944,-3478.967927,9696.697840
775.044816,-1838.629195,-3478.967927,9104.533087
775.045131,-1225.752797,-3404.947333,8956.491898
775.045447,-1072.533697,-3404.947333,9178.553681
775.045763,-1455.581446,-3404.947333,9178.553681
775.046079,-1378.971896,-3256.906145,9400.615463
775.046395,-1685.410096,-3330.926739,9548.656652
775.046711,-1685.410096,-3182.885551,9696.697840
775.047026,-1455.581446,-3182.885551,10140.821405
775.047342,-1685.410096,-3182.885551,9622.677246
775.047658,-1915.238745,-2886.803174,9696.697840
775.047974,-1685.410096,-3256.906145,9474.636058
775.048290,-995.924147,-2738.761985,9400.615463
775.048606,-919.314598,-2368.659014,8808.450710
775.048921,-459.657299,-2294.638420,7994.224174
775.049237,-383.047749,-2368.659014,7772.162391
775.049553,-383.047749,-2072.576638,7476.080014
775.049869,-536.266849,-2516.700203,7698.141797
775.050185,-919.314598,-2590.720797,7994.224174
775.050501,-1608.800546,-3108.864956,8512.368333
775.050816,-2068.457845,-3330.926739,9326.594869
775.051132,-2681.334243,-3552.988522,9548.656652
775.051448,-2757.943793,-3552.988522,9770.718434
775.051764,-3217.601092,-3182.885551,9918.759623
775.052080,-3294.210641,-3552.988522,10288.862594
775.052396,-2604.724693,-3182.885551,10362.883188
775.052711,-2451.505594,-3330.926739,10066.800811
775.053027,-919.314598,-2886.803174,9474.636058
775.053343,-612.876398,-1702.473667,8956.491898
775.053659,0.000000,-888.247130,8068.244768
775.053975,536.266849,-0.000000,7476.080014
775.054291,1072.533697,222.061783,6809.894666
775.054606,1378.971896,222.061783,6587.832884
775.054922,1225.752797,-74.020594,6735.874072
775.055238,766.095498,-888.247130,7402.059420
775.055554,-153.219100,-1554.432478,8142.265362
775.055870,-1225.752797,-2664.741391,9400.615463
775.056186,-2221.676944,-3552.988522,11103.089130
775.056501,-2987.772442,-4293.194464,12065.356855
775.056817,-3983.696590,-4589.276840,12879.583391
775.057133,-4136.915689,-4367.215058,13471.748144
775.057449,-4596.572988,-3552.988522,12879.583391
775.057765,-2987.772442,-1998.556043,11843.295072
775.058081,-1991.848295,-74.020594,9918.759623
775.058396,-306.438199,888.247130,8734.430116
775.058712,919.314598,1554.432478,7254.018232
775.059028,1762.019645,1554.432478,6291.750507
775.059344,1608.800546,1110.308913,5847.626942
775.059660,1378.971896,370.102971,6439.791695
775.059976,536.266849,-666.185348,7624.121203
775.060291,-383.047749,-2072.576638,8882.471304
775.060607,-1685.410096,-3330.926739,11103.089130
775.060923,-3447.429741,-3849.070898,12287.418637
775.061239,-4673.182538,-4071.132681,13101.645173
775.061555,-4826.401637,-3923.091493,13767.830521
775.061871,-4443.353888,-2146.597232,13101.645173
775.062186,-4596.572988,-1628.453072,11843.295072
775.062502,-4136.915689,-666.185348,11177.109724
775.062818,-3447.429741,-74.020594,9548.656652
775.063134,-2374.896044,-148.041188,8660.409521
775.063450,-1072.533697,-962.267725,8216.285956
775.063766,-459.657299,-1554.432478,7994.224174
775.064081,-689.485948,-1998.556043,7846.182985
775.064397,-689.485948,-2072.576638,7920.203579
775.064713,-842.705048,-2368.659014,8364.327145
775.065029,-995.924147,-2220.617826,9474.636058
775.065345,-2221.676944,-2368.659014,9178.553681
775.065661,-2374.896044,-2368.659014,9696.697840
775.065976,-2604.724693,-2664.741391,10214.842000
775.066292,-2451.505594,-3182.885551,10436.903782
775.066608,-3217.601092,-3923.091493,11473.192101
775.066924,-3830.477490,-3849.070898,11473.192101
775.067240,-3907.087040,-3552.988522,10510.924376
775.067556,-3217.601092,-3256.906145,10436.903782
775.067871,-1915.238745,-3330.926739,9548.656652
775.068187,-1608.800546,-2738.761985,8438.347739
775.068503,-995.924147,-2590.720797,7402.059420
775.068819,0.000000,-2812.782580,6883.915261
775.069135,612.876398,-3775.050304,7179.997637
775.069451,383.047749,-3997.112087,8290.306550
775.069767,-766.095498,-3627.009116,8808.450710
775.070082,-995.924147,-4071.132681,9104.533087
775.070398,-1455.581446,-3849.070898,9622.677246
775.070714,-2068.457845,-2960.823768,9844.739029
775.071030,-2145.067394,-1924.535449,9400.615463
775.071346,-919.314598,-1776.494261,9252.574275
775.071662,-383.047749,-2072.576638,9474.636058
775.071977,0.000000,-2516.700203,8734.430116
775.072293,153.219100,-2072.576638,7624.121203
775.072609,459.657299,-1776.494261,8216.285956
775.072925,229.828649,-2516.700203,7846.182985
775.073241,-306.438199,-2812.782580,8142.265362
775.073557,-689.485948,-3034.844362,8734.430116
775.073872,-1149.143247,-3849.070898,8734.430116
775.074188,-1685.410096,-4515.256246,9992.780217
775.074504,-2911.162892,-3923.091493,10510.924376
775.074820,-2834.553343,-3108.864956,10436.903782
775.075136,-2604.724693,-2220.617826,10436.903782
775.075452,-2221.676944,-1036.288319,10140.821405
775.075767,-1685.410096,-296.082377,9400.615463
775.076083,-1149.143247,-888.247130,9104.533087
775.076399,-536.266849,-962.267725,8956.491898
775.076715,-306.438199,-518.144159,8142.265362
775.077031,689.485948,-888.247130,7920.203579
775.077347,766.095498,-888.247130,7105.977043
775.077662,229.828649,-814.226536,7402.059420
775.077978,0.000000,-2368.659014,8512.368333
775.078294,-842.705048,-2738.761985,9326.594869
775.078610,-1838.629195,-3182.885551,10584.944971
775.078926,-3983.696590,-3330.926739,11547.212695
775.079242,-4213.525239,-2442.679609,11251.130318
775.079557,-4519.963438,-1776.494261,11695.253884
775.079873,-4443.353888,-1628.453072,12509.480420
775.080189,-4366.744339,-1554.432478,12213.398043
775.080505,-4213.525239,-444.123565,10658.965565
775.080821,-3370.820191,-0.000000,9918.759623
775.081137,-1762.019645,-0.000000,9178.553681
775.081452,0.000000,666.185348,8068.244768
775.081768,153.219100,592.164754,7402.059420
775.082084,919.314598,-296.082377,7920.203579
775.082400,1532.190996,-1406.391290,8142.265362
775.082716,689.485948,-740.205942,7698.141797
775.083032,306.438199,-888.247130,9696.697840
775.083347,-306.438199,-1258.350101,9474.636058
775.083663,-1225.752797,-1036.288319,9992.780217
775.083979,-1991.848295,-1332.370696,11177.109724
775.084295,-3140.991542,-1258.350101,11695.253884
775.084611,-4136.915689,148.041188,11695.253884
775.084927,-4366.744339,-0.000000,11177.109724
775.085242,-3370.820191,-296.082377,11029.068536
775.085558,-2681.334243,-296.082377,10288.862594
775.085874,-1991.848295,-1258.350101,10214.842000
775.086190,-1072.533697,-2220.617826,10066.800811
775.086506,0.000000,-2368.659014,9918.759623
775.086822,995.924147,-888.247130,7846.182985
775.087137,1915.238745,-0.000000,8068.244768
775.087453,2451.505594,444.123565,8956.491898
775.087769,1991.848295,592.164754,8142.265362
775.088085,1532.190996,-0.000000,7920.203579
775.088401,1378.971896,-666.185348,9474.636058
775.088717,1302.362347,-0.000000,9104.533087
775.089032,1072.533697,148.041188,9104.533087
775.089348,459.657299,-222.061783,9696.697840
775.089664,383.047749,-1110.308913,10436.903782
775.089980,0.000000,-1480.411884,9918.759623
775.090296,-153.219100,-1628.453072,9844.739029
775.090612,-842.705048,-1702.473667,10140.821405
775.090927,0.000000,-1850.514855,9622.677246
775.091243,919.314598,-1924.535449,9548.656652
775.091559,766.095498,-814.226536,8956.491898
775.091875,383.047749,-1110.308913,8808.450710
775.092191,612.876398,-962.267725,8882.471304
775.092507,1225.752797,-148.041188,7254.018232
775.092822,1149.143247,-444.123565,8512.368333
775.093138,612.876398,-1258.350101,9622.677246
775.093454,383.047749,-814.226536,9326.594869
775.093770,0.000000,-1850.514855,9696.697840
775.094086,76.609550,-1554.432478,10066.800811
775.094402,229.828649,-518.144159,9992.780217
775.094717,536.266849,-1258.350101,9696.697840
775.095033,306.438199,-1258.350101,9770.718434
775.095349,383.047749,-592.164754,9030.512492
775.095665,842.705048,-370.102971,8956.491898
775.095981,1072.533697,148.041188,7994.224174
775.096297,995.924147,222.061783,7846.182985
775.096612,1608.800546,-1332.370696,9548.656652
775.096928,536.266849,-814.226536,8956.491898
775.097244,0.000000,-592.164754,9252.574275
775.097560,0.000000,-518.144159,10362.883188
775.097876,-306.438199,-74.020594,9548.656652
775.098192,0.000000,-0.000000,9992.780217
775.098507,76.609550,-222.061783,10658.965565
775.098823,-459.657299,-148.041188,9622.677246
775.099139,0.000000,-444.123565,9844.739029
775.099455,766.095498,370.102971,9474.636058
775.099771,1302.362347,444.123565,8660.409521
775.100087,1149.143247,-518.144159,8882.471304
775.100402,689.485948,-888.247130,9696.697840
775.100718,0.000000,-740.205942,9104.533087
775.101034,306.438199,-666.185348,9770.718434
775.101350,306.438199,-814.226536,9252.574275
775.101666,0.000000,-1184.329507,9770.718434
775.101982,0.000000,-740.205942,11177.109724
775.102297,-766.095498,-592.164754,9918.759623
775.102613,-689.485948,-592.164754,9400.615463
775.102929,-612.876398,-0.000000,10066.800811
775.103245,-306.438199,-740.205942,9178.553681
775.103561,-383.047749,-962.267725,10584.944971
775.103877,-459.657299,-1258.350101,11103.089130
775.104192,-842.705048,-1184.329507,9400.615463
775.104508,76.609550,-444.123565,9696.697840
775.104824,689.485948,518.144159,9326.594869
775.105140,919.314598,-296.082377,9548.656652
775.105456,1072.533697,-0.000000,9844.739029
775.105772,1149.143247,-0.000000,9474.636058
775.106087,459.657299,222.061783,9030.512492
775.106403,1378.971896,740.205942,9474.636058
775.106719,766.095498,-370.102971,9030.512492
775.107035,842.705048,-444.123565,10214.842000
775.107351,383.047749,-518.144159,10955.047942
775.107667,-153.219100,-962.267725,10214.842000
775.107982,612.876398,444.123565,10288.862594
775.108298,1225.752797,888.247130,9178.553681
775.108614,1225.752797,962.267725,8956.491898
775.108930,1455.581446,888.247130,9548.656652
775.109246,1378.971896,370.102971,8956.491898
775.109562,1685.410096,814.226536,8586.388927
775.109877,1991.848295,1628.453072,7698.141797
775.110193,2451.505594,666.185348,7772.162391
775.110509,1915.238745,-444.123565,8808.450710
775.110825,995.924147,-444.123565,9030.512492
775.111141,153.219100,-962.267725,9474.636058
775.111457,612.876398,-222.061783,9844.739029
775.111772,536.266849,518.144159,9178.553681
775.112088,306.438199,740.205942,9326.594869
775.112404,0.000000,518.144159,9770.718434
775.112720,-306.438199,-222.061783,9474.636058
775.113036,-459.657299,-370.102971,9770.718434
775.113352,-229.828649,814.226536,8808.450710
775.113667,0.000000,148.041188,9104.533087
775.113983,689.485948,-888.247130,9474.636058
775.114299,383.047749,-0.000000,9696.697840
775.114615,0.000000,-74.020594,8586.388927
775.114931,842.705048,444.123565,9326.594869
775.115247,766.095498,1480.411884,9178.553681
775.115563,766.095498,888.247130,8586.388927
775.115878,459.657299,-74.020594,9400.615463
775.116194,0.000000,-296.082377,9918.759623
775.116510,0.000000,-518.144159,9918.759623
775.116826,76.609550,444.123565,9252.574275
775.117142,0.000000,-444.123565,9696.697840
775.117457,-536.266849,-1036.288319,10510.924376
775.117773,-995.924147,-814.226536,10436.903782
775.118089,-919.314598,-1332.370696,10436.903782
775.118405,0.000000,-74.020594,9918.759623
775.118720,459.657299,666.185348,9178.553681
775.119036,536.266849,-296.082377,8734.430116
775.119352,612.876398,-444.123565,10140.821405
775.119668,0.000000,-1184.329507,9474.636058
775.119983,383.047749,-148.041188,9548.656652
775.120299,1762.019645,148.041188,9696.697840
775.120615,919.314598,-0.000000,8660.409521
775.120931,383.047749,-444.123565,9696.697840
775.121247,-612.876398,-1702.473667,10584.944971
775.121562,-612.876398,-1628.453072,10732.986159
775.121878,842.705048,-0.000000,10658.965565
775.122194,536.266849,-0.000000,9918.759623
775.122510,612.876398,-74.020594,9918.759623
775.122825,995.924147,-74.020594,10140.821405
775.123141,459.657299,-0.000000,8660.409521
775.123457,842.705048,-0.000000,9548.656652
775.123773,1455.581446,296.082377,8660.409521
775.124088,1838.629195,-370.102971,9326.594869
775.124404,919.314598,-1628.453072,9696.697840
775.124720,612.876398,-2146.597232,10510.924376
775.125036,-383.047749,-1628.453072,9622.677246
775.125352,842.705048,-148.041188,9474.636058
775.125667,1762.019645,-814.226536,9400.615463
775.125983,1455.581446,222.061783,9326.594869
775.126299,1302.362347,-666.185348,8956.491898
775.126615,306.438199,-518.144159,8438.347739
775.126930,1072.533697,-592.164754,9474.636058
775.127246,1072.533697,-444.123565,8808.450710
775.127562,1455.581446,-0.000000,8142.265362
775.127878,1302.362347,-814.226536,9326.594869
775.128193,0.000000,-1332.370696,8808.450710
775.128509,0.000000,-1628.453072,8660.409521
775.128825,612.876398,-1110.308913,8956.491898
775.129141,536.266849,-592.164754,9252.574275
775.129456,536.266849,-1036.288319,9104.533087
775.129772,-229.828649,-518.144159,9400.615463
775.130088,-689.485948,-296.082377,8882.471304
775.130404,0.000000,-222.061783,9474.636058
775.130720,536.266849,1258.350101,8734.430116
775.131035,0.000000,518.144159,7698.141797
775.131351,-229.828649,-666.185348,9696.697840
775.131667,-842.705048,-1628.453072,10214.842000
775.131983,-1072.533697,-666.185348,9844.739029
775.132298,-229.828649,814.226536,9918.759623
775.132614,76.609550,740.205942,9104.533087
775.132930,306.438199,370.102971,9400.615463
775.133246,76.609550,740.205942,10140.821405
775.133561,-842.705048,370.102971,9622.677246
775.133877,383.047749,888.247130,9844.739029
775.134193,842.705048,1850.514855,8660.409521
775.134509,842.705048,888.247130,8734.430116
775.134825,76.609550,296.082377,9992.780217
775.135140,-536.266849,-444.123565,9992.780217
775.135456,-229.828649,-592.164754,10807.006753
775.135772,229.828649,1036.288319,10510.924376
775.136088,766.095498,1998.556043,9178.553681
775.136403,153.219100,888.247130,8734.430116
775.136719,766.095498,444.123565,10140.821405
775.137035,0.000000,-444.123565,10436.903782
775.137351,536.266849,740.205942,9918.759623
775.137666,1455.581446,962.267725,9400.615463
775.137982,459.657299,-148.041188,9770.718434
775.138298,383.047749,-222.061783,10955.047942
775.138614,-383.047749,-740.205942,10140.821405
775.138930,-306.438199,-370.102971,10214.842000
775.139245,459.657299,-0.000000,10881.027347
775.139561,766.095498,-0.000000,9548.656652
775.139877,766.095498,-0.000000,9326.594869
775.140193,383.047749,222.061783,9548.656652
775.140508,153.219100,-962.267725,10214.842000
775.140824,919.314598,-222.061783,9844.739029
775.141140,842.705048,370.102971,8808.450710
775.141456,1378.971896,-666.185348,9474.636058
775.141771,689.485948,-1554.432478,10362.883188
775.142087,76.609550,-1332.370696,9548.656652
775.142403,459.657299,-1184.329507,10140.821405
775.142719,1072.533697,-296.082377,9548.656652
775.143035,1378.971896,-518.144159,9178.553681
775.143350,1302.362347,-370.102971,9696.697840
775.143666,919.314598,-444.123565,8882.471304
775.143982,536.266849,-666.185348,9400.615463
775.144298,1378.971896,296.082377,8882.471304
775.144613,1149.143247,518.144159,7624.121203
775.144929,612.876398,-814.226536,9178.553681
775.145245,842.705048,-1332.370696,8956.491898
775.145561,383.047749,-1850.514855,8882.471304
775.145876,76.609550,-592.164754,9548.656652
775.146192,689.485948,-222.061783,9178.553681
775.146508,919.314598,-148.041188,8364.327145
775.146824,1302.362347,-296.082377,8956.491898
775.147140,0.000000,-148.041188,8660.409521
775.147455,0.000000,-370.102971,9252.574275
775.147771,689.485948,148.041188,8882.471304
775.148087,153.219100,444.123565,7994.224174
775.148403,766.095498,-518.144159,9104.533087
775.148718,0.000000,-296.082377,9326.594869
775.149034,-689.485948,-296.082377,8808.450710
775.149350,0.000000,-148.041188,9474.636058
775.149666,229.828649,370.102971,8808.450710
775.149981,0.000000,222.061783,8734.430116
775.150297,0.000000,-296.082377,10214.842000
775.150613,-383.047749,-222.061783,9992.780217
775.150929,-995.924147,-592.164754,9326.594869
775.151244,0.000000,518.144159,9548.656652
775.151560,229.828649,370.102971,9104.533087
775.151876,229.828649,-444.123565,9622.677246
775.152192,-306.438199,-518.144159,9622.677246
775.152508,-1072.533697,-1110.308913,9992.780217
775.152823,-229.828649,-444.123565,10066.800811
775.153139,1149.143247,740.205942,9252.574275
775.153455,383.047749,-0.000000,8956.491898
775.153771,689.485948,-0.000000,10955.047942
775.154086,229.828649,-592.164754,9696.697840
775.154402,76.609550,-296.082377,9474.636058
775.154718,536.266849,592.164754,9992.780217
775.155034,612.876398,-0.000000,9104.533087
775.155349,766.095498,-592.164754,10066.800811
775.155665,0.000000,-0.000000,10510.924376
775.155981,-766.095498,-888.247130,10732.986159
775.156297,306.438199,-296.082377,11547.212695
775.156613,612.876398,666.185348,9178.553681
775.156928,766.095498,-0.000000,9474.636058
775.157244,1072.533697,-148.041188,11325.150913
775.157560,536.266849,-0.000000,9770.718434
775.157876,689.485948,-0.000000,9770.718434
775.158191,1532.190996,1184.329507,9770.718434
775.158507,1378.971896,296.082377,8882.471304
775.158823,1072.533697,-444.123565,9992.780217
775.159139,689.485948,-370.102971,10436.903782
775.159454,459.657299,-296.082377,9548.656652
775.159770,1455.581446,370.102971,10066.800811
775.160086,1838.629195,592.164754,8956.491898
775.160402,1455.581446,-74.020594,9548.656652
775.160718,1915.238745,-296.082377,10362.883188
775.161033,919.314598,-296.082377,9104.533087
775.161349,995.924147,370.102971,9326.594869
775.161665,2374.896044,1184.329507,9104.533087
775.161981,1685.410096,222.061783,8142.265362
775.162296,1455.581446,-370.102971,9104.533087
775.162612,842.705048,-1628.453072,8882.471304
775.162928,0.000000,-1480.411884,9474.636058
775.163244,383.047749,-592.164754,9326.594869
775.163559,612.876398,-0.000000,8290.306550
775.163875,536.266849,-370.102971,9030.512492
775.164191,0.000000,-370.102971,9326.594869
775.164507,-842.705048,-444.123565,8364.327145
775.164823,-536.266849,-518.144159,8956.491898
775.165138,459.657299,296.082377,8882.471304
775.165454,229.828649,-0.000000,7920.203579
775.165770,-153.219100,-1332.370696,9252.574275
775.166086,-919.314598,-1776.494261,9696.697840
775.166401,-919.314598,-1702.473667,9548.656652
775.166717,0.000000,-962.267725,8956.491898
775.167033,0.000000,-296.082377,8586.388927
775.167349,76.609550,-444.123565,9104.533087
775.167664,229.828649,-0.000000,9696.697840
775.167980,-689.485948,444.123565,8438.347739
775.168296,0.000000,-0.000000,9400.615463
775.168612,76.609550,814.226536,8956.491898
775.168927,229.828649,370.102971,7920.203579
775.169243,229.828649,-518.144159,9104.533087
775.169559,-306.438199,-1332.370696,9992.780217
775.169875,-229.828649,-1776.494261,10658.965565
775.170191,-153.219100,-148.041188,9992.780217
775.170506,76.609550,444.123565,9400.615463
775.170822,153.219100,-444.123565,9992.780217
775.171138,-153.219100,-0.000000,10066.800811
775.171454,-919.314598,-296.082377,9770.718434
775.171769,-229.828649,-74.020594,11029.068536
775.172085,919.314598,1184.329507,9474.636058
775.172401,1225.752797,666.185348,8734.430116
775.172717,842.705048,-0.000000,9844.739029
