#time,accel_x,accel_y,accel_z
767.059626,153.219100,-222.061783,9474.636058
767.059941,766.095498,-0.000000,9400.615463
767.060257,229.828649,-74.020594,9474.636058
767.060573,383.047749,-148.041188,9326.594869
767.060889,459.657299,-222.061783,9326.594869
767.061205,229.828649,-148.041188,9622.677246
767.061520,536.266849,-222.061783,9548.656652
767.061836,229.828649,-148.041188,9400.615463
767.062152,306.438199,-148.041188,9474.636058
767.062468,306.438199,-148.041188,9326.594869
767.062784,383.047749,-222.061783,9326.594869
767.063099,383.047749,-74.020594,9400.615463
767.063415,383.047749,-148.041188,9400.615463
767.063731,383.047749,-148.041188,9696.697840
767.064047,459.657299,-296.082377,9548.656652
767.064363,229.828649,-296.082377,9548.656652
767.064678,383.047749,296.082377,9252.574275
767.064994,229.828649,-0.000000,9400.615463
767.065310,459.657299,148.041188,9474.636058
767.065626,306.438199,222.061783,9326.594869
767.065942,536.266849,222.061783,9252.574275
767.066258,0.000000,-74.020594,9326.594869
767.066573,153.219100,222.061783,9252.574275
767.066889,153.219100,-0.000000,9474.636058
767.067205,383.047749,-0.000000,9696.697840
767.067521,76.609550,-74.020594,9548.656652
767.067837,306.438199,-592.164754,9844.739029
767.068152,76.609550,-148.041188,9696.697840
767.068468,76.609550,-0.000000,9548.656652
767.068784,689.485948,444.123565,9474.636058
767.069100,766.095498,814.226536,9030.512492
767.069416,459.657299,296.082377,8808.450710
767.069731,1072.533697,666.185348,9104.533087
767.070047,919.314598,1110.308913,9104.533087
767.070363,612.876398,592.164754,8956.491898
767.070679,459.657299,444.123565,9326.594869
767.070995,76.609550,296.082377,9548.656652
767.071310,536.266849,370.102971,9622.677246
767.071626,612.876398,296.082377,9696.697840
767.071942,689.485948,444.123565,9622.677246
767.072258,612.876398,518.144159,9622.677246
767.072574,1072.533697,1184.329507,9696.697840
767.072889,1685.410096,962.267725,9474.636058
767.073205,1378.971896,1406.391290,9548.656652
767.073521,1762.019645,1628.453072,9252.574275
767.073837,1991.848295,1702.473667,9178.553681
767.074153,2374.896044,1480.411884,9178.553681
767.074468,2221.676944,1628.453072,9178.553681
767.074784,2374.896044,1628.453072,9400.615463
767.075100,2451.505594,1702.473667,9178.553681
767.075416,2451.505594,1850.514855,9326.594869
767.075732,2681.334243,1702.473667,9474.636058
767.076048,2757.943793,2146.597232,9474.636058
767.076363,2681.334243,2146.597232,9252.574275
767.076679,2911.162892,2146.597232,9622.677246
767.076995,2834.553343,2294.638420,9326.594869
767.077311,3064.381992,2442.679609,9474.636058
767.077627,3217.601092,2368.659014,9252.574275
767.077942,3294.210641,2442.679609,9326.594869
767.078258,3140.991542,2516.700203,9400.615463
767.078574,3524.039291,2442.679609,9178.553681
767.078890,3447.429741,2294.638420,9622.677246
767.079206,3294.210641,2442.679609,9696.697840
767.079521,3140.991542,2664.741391,9844.739029
767.079837,2757.943793,2516.700203,9696.697840
767.080153,2681.334243,2590.720797,9770.718434
767.080469,2757.943793,2368.659014,10066.800811
767.080785,2757.943793,2368.659014,9696.697840
767.081100,2604.724693,2220.617826,9918.759623
767.081416,2604.724693,2072.576638,10066.800811
767.081732,2834.553343,1998.556043,9992.780217
767.082048,2681.334243,1628.453072,10066.800811
767.082364,2604.724693,2516.700203,10066.800811
767.082679,2834.553343,2368.659014,9696.697840
767.082995,2987.772442,2294.638420,9844.739029
767.083311,2834.553343,2072.576638,9696.697840
767.083627,2911.162892,2368.659014,9770.718434
767.083943,2681.334243,2368.659014,9474.636058
767.084258,2604.724693,1998.556043,9622.677246
767.084574,2528.115143,1998.556043,9474.636058
767.084890,2298.286494,1702.473667,9400.615463
767.085206,2068.457845,1702.473667,9178.553681
767.085522,1532.190996,1332.370696,9992.780217
767.085837,1072.533697,740.205942,10066.800811
767.086153,689.485948,296.082377,10066.800811
767.086469,1149.143247,-148.041188,10584.944971
767.086785,766.095498,-518.144159,10807.006753
767.087101,612.876398,-740.205942,10732.986159
767.087417,995.924147,-370.102971,10881.027347
767.087732,1378.971896,-0.000000,10288.862594
767.088048,2221.676944,814.226536,9474.636058
767.088364,2681.334243,1998.556043,8808.450710
767.088680,3524.039291,2738.761985,8142.265362
767.088996,3907.087040,3182.885551,7550.100608
767.089311,4290.134789,2960.823768,7105.977043
767.089627,4596.572988,2220.617826,7105.977043
767.089943,3983.696590,1998.556043,7402.059420
767.090259,3370.820191,1554.432478,7994.224174
767.090575,2604.724693,1036.288319,8808.450710
767.090890,1532.190996,592.164754,9104.533087
767.091206,1455.581446,666.185348,9844.739029
767.091522,-229.828649,-0.000000,9918.759623
767.091838,-766.095498,-148.041188,10584.944971
767.092154,-612.876398,-370.102971,10807.006753
767.092469,-306.438199,-814.226536,10732.986159
767.092785,76.609550,-518.144159,11103.089130
767.093101,306.438199,-370.102971,10732.986159
767.093417,1149.143247,370.102971,10436.903782
767.093733,2374.896044,1332.370696,9770.718434
767.094048,3370.820191,2368.659014,8808.450710
767.094364,4366.744339,3256.906145,8142.265362
767.094680,5362.668486,3552.988522,7698.141797
767.094996,5898.935335,3849.070898,6883.915261
767.095312,6435.202183,4293.194464,6883.915261
767.095627,6588.421283,4367.215058,6809.894666
767.095943,6281.983084,3997.112087,7105.977043
767.096259,5439.278036,3552.988522,7698.141797
767.096575,4060.306139,2146.597232,8808.450710
767.096891,2834.553343,962.267725,10066.800811
767.097207,1149.143247,-74.020594,11325.150913
767.097522,0.000000,-740.205942,12731.542202
767.097838,-689.485948,-962.267725,13175.665768
767.098154,-995.924147,-222.061783,13175.665768
767.098470,-459.657299,370.102971,12583.501014
767.098786,536.266849,1332.370696,11695.253884
767.099101,1149.143247,2738.761985,10066.800811
767.099417,2145.067394,3627.009116,8882.471304
767.099733,3753.867940,3923.091493,8290.306550
767.100049,5132.839837,3775.050304,7476.080014
767.100365,6205.373534,3627.009116,7254.018232
767.100680,5898.935335,3034.844362,7846.182985
767.100996,6052.154434,2738.761985,8068.244768
767.101312,5286.058936,2516.700203,8882.471304
767.101628,4673.182538,2368.659014,9696.697840
767.101944,4136.915689,2220.617826,10732.986159
767.102259,2834.553343,1924.535449,11399.171507
767.102575,2298.286494,2442.679609,10955.047942
767.102891,1608.800546,3182.885551,10066.800811
767.103207,2298.286494,3034.844362,10140.821405
767.103523,1838.629195,2738.761985,10658.965565
767.103838,2068.457845,2738.761985,9548.656652
767.104154,1991.848295,2146.597232,9326.594869
767.104470,1378.971896,1332.370696,8956.491898
767.104786,1915.238745,962.267725,9918.759623
767.105102,2221.676944,1554.432478,9548.656652
767.105417,1608.800546,2516.700203,8956.491898
767.105733,919.314598,2442.679609,9326.594869
767.106049,459.657299,1850.514855,9844.739029
767.106365,1149.143247,962.267725,9844.739029
767.106681,1378.971896,888.247130,10288.862594
767.106997,1225.752797,592.164754,10807.006753
767.107312,1302.362347,1184.329507,10732.986159
767.107628,2068.457845,1776.494261,10510.924376
767.107944,2528.115143,2738.761985,10658.965565
767.108260,3217.601092,3330.926739,9104.533087
767.108576,3447.429741,4737.318029,7476.080014
767.108891,4136.915689,4293.194464,6957.935855
767.109207,4979.620737,3775.050304,6661.853478
767.109523,4979.620737,2812.782580,6883.915261
767.109839,3983.696590,2590.720797,7179.997637
767.110155,3294.210641,1036.288319,8290.306550
767.110470,2451.505594,-222.061783,9696.697840
767.110786,919.314598,-592.164754,10288.862594
767.111102,-612.876398,222.061783,11547.212695
767.111418,-919.314598,296.082377,12065.356855
767.111734,-842.705048,222.061783,11695.253884
767.112049,0.000000,592.164754,10658.965565
767.112365,383.047749,1036.288319,11029.068536
767.112681,1608.800546,1036.288319,9992.780217
767.112997,2911.162892,814.226536,9992.780217
767.113313,3600.648841,1184.329507,9104.533087
767.113628,4903.011187,2516.700203,7624.121203
767.113944,5745.716235,3627.009116,7254.018232
767.114260,6205.373534,3627.009116,6957.935855
767.114576,6205.373534,3182.885551,7105.977043
767.114892,5592.497135,2442.679609,7402.059420
767.115207,4903.011187,2220.617826,7772.162391
767.115523,3677.258390,1850.514855,9474.636058
767.115839,2145.067394,1924.535449,9474.636058
767.116155,1072.533697,1702.473667,9918.759623
767.116471,459.657299,592.164754,11029.068536
767.116786,-383.047749,370.102971,11547.212695
767.117102,-1762.019645,-1036.288319,12583.501014
767.117418,-1915.238745,-2220.617826,13027.624579
767.117734,-1149.143247,-1702.473667,12139.377449
767.118050,-383.047749,-518.144159,11473.192101
767.118366,1838.629195,-0.000000,11177.109724
767.118682,3294.210641,1110.308913,9918.759623
767.118997,4136.915689,3034.844362,7846.182985
767.119313,5132.839837,3108.864956,6957.935855
767.119629,5669.106685,2960.823768,7624.121203
767.119945,5898.935335,3849.070898,7402.059420
767.120261,6052.154434,3627.009116,7105.977043
767.120577,5592.497135,2368.659014,7698.141797
767.120893,4443.353888,1406.391290,8364.327145
767.121208,2911.162892,1036.288319,9548.656652
767.121524,1991.848295,-74.020594,10955.047942
767.121840,383.047749,-518.144159,11843.295072
767.122156,-689.485948,666.185348,11473.192101
767.122472,-383.047749,-0.000000,11843.295072
767.122788,76.609550,-740.205942,12139.377449
767.123104,459.657299,-370.102971,11103.089130
767.123420,229.828649,-518.144159,9992.780217
767.123735,919.314598,-666.185348,9770.718434
767.124051,2145.067394,666.185348,9326.594869
767.124367,3064.381992,1480.411884,8660.409521
767.124683,3447.429741,1702.473667,8142.265362
767.124999,3447.429741,1924.535449,7402.059420
767.125315,3600.648841,2220.617826,8142.265362
767.125631,3064.381992,2368.659014,7179.997637
767.125946,1685.410096,2516.700203,8438.347739
767.126262,2298.286494,1110.308913,9622.677246
767.126578,2145.067394,370.102971,9474.636058
767.126894,459.657299,518.144159,9474.636058
767.127210,-459.657299,-0.000000,10436.903782
767.127526,-689.485948,-592.164754,8882.471304
767.127842,-995.924147,-0.000000,10732.986159
767.128158,-919.314598,-370.102971,11325.150913
767.128473,-1072.533697,-1258.350101,9770.718434
767.128789,-1378.971896,-296.082377,9030.512492
767.129105,-1225.752797,-888.247130,9770.718434
767.129421,-1302.362347,-666.185348,9474.636058
767.129737,-612.876398,888.247130,9030.512492
767.130053,153.219100,666.185348,9178.553681
767.130369,536.266849,-148.041188,8660.409521
767.130684,0.000000,-222.061783,9548.656652
767.131000,383.047749,-222.061783,9474.636058
767.131316,689.485948,444.123565,8956.491898
767.131632,1685.410096,1554.432478,9400.615463
767.131948,2068.457845,1554.432478,9178.553681
767.132264,2068.457845,1850.514855,8512.368333
767.132580,2298.286494,2072.576638,7994.224174
767.132896,2221.676944,1554.432478,8216.285956
767.133211,1685.410096,2368.659014,8068.244768
767.133527,2068.457845,370.102971,9178.553681
767.133843,1072.533697,-74.020594,9918.759623
767.134159,-459.657299,-148.041188,9770.718434
767.134475,-995.924147,-740.205942,10658.965565
767.134791,-1685.410096,-888.247130,10510.924376
767.135107,-2451.505594,-370.102971,10881.027347
767.135422,-2068.457845,-1332.370696,11473.192101
767.135738,-1455.581446,-1036.288319,11769.274478
767.136054,-1378.971896,-814.226536,11177.109724
767.136370,-689.485948,-370.102971,10140.821405
767.136686,842.705048,740.205942,9178.553681
767.137002,1532.190996,1480.411884,8142.265362
767.137318,2604.724693,1110.308913,9030.512492
767.137634,2911.162892,962.267725,9030.512492
767.137949,2834.553343,1332.370696,8364.327145
767.138265,2145.067394,1110.308913,7624.121203
767.138581,2145.067394,2368.659014,7476.080014
767.138897,2451.505594,-296.082377,9104.533087
767.139213,2374.896044,-592.164754,10214.842000
767.139529,-229.828649,296.082377,10066.800811
767.139845,-383.047749,-2072.576638,11399.171507
767.140160,-1149.143247,-1776.494261,11103.089130
767.140476,-2221.676944,-888.247130,10658.965565
767.140792,-1915.238745,-1184.329507,11843.295072
767.141108,-1762.019645,-1628.453072,11621.233289
767.141424,-2068.457845,-1184.329507,10732.986159
767.141740,-1378.971896,-666.185348,10658.965565
767.142056,-459.657299,-0.000000,8512.368333
767.142372,1149.143247,444.123565,8068.244768
767.142687,2757.943793,-296.082377,8956.491898
767.143003,2757.943793,-222.061783,7920.203579
767.143319,2681.334243,-296.082377,8438.347739
767.143635,2528.115143,-148.041188,8290.306550
767.143951,2298.286494,444.123565,7105.977043
767.144267,2298.286494,-0.000000,8512.368333
767.144583,1685.410096,-370.102971,9252.574275
767.144898,612.876398,-296.082377,9696.697840
767.145214,-306.438199,-740.205942,10436.903782
767.145530,-842.705048,-370.102971,9474.636058
767.145846,-1302.362347,-222.061783,9178.553681
767.146162,-536.266849,-1554.432478,10140.821405
767.146478,-995.924147,-2294.638420,10214.842000
767.146794,-1302.362347,-1998.556043,10584.944971
767.147110,0.000000,-2442.679609,10436.903782
767.147425,-459.657299,-1776.494261,9104.533087
767.147741,0.000000,-0.000000,8956.491898
767.148057,919.314598,-370.102971,8734.430116
767.148373,766.095498,592.164754,7772.162391
767.148689,1378.971896,666.185348,8142.265362
767.149005,2298.286494,444.123565,7698.141797
767.149321,1838.629195,1554.432478,6809.894666
767.149636,2221.676944,-0.000000,8660.409521
767.149952,2221.676944,-888.247130,9474.636058
767.150268,919.314598,-0.000000,8734.430116
767.150584,536.266849,444.123565,9918.759623
767.150900,689.485948,666.185348,9030.512492
767.151216,-306.438199,962.267725,9400.615463
767.151532,383.047749,-148.041188,10807.006753
767.151848,0.000000,-74.020594,9844.739029
767.152163,-1225.752797,-74.020594,9770.718434
767.152479,-612.876398,-222.061783,10066.800811
767.152795,-919.314598,222.061783,9252.574275
767.153111,0.000000,370.102971,9622.677246
767.153427,-229.828649,-518.144159,10214.842000
767.153743,-1225.752797,-148.041188,9474.636058
767.154059,-1149.143247,-444.123565,10584.944971
767.154374,0.000000,296.082377,9696.697840
767.154690,0.000000,1702.473667,9548.656652
767.155006,1225.752797,1110.308913,10214.842000
767.155322,1608.800546,592.164754,9696.697840
767.155638,995.924147,444.123565,9400.615463
767.155954,1608.800546,592.164754,9770.718434
767.156270,2145.067394,1184.329507,8438.347739
767.156586,2068.457845,1184.329507,8660.409521
767.156901,2451.505594,-0.000000,10584.944971
767.157217,1532.190996,-222.061783,9400.615463
767.157533,536.266849,-296.082377,10214.842000
767.157849,306.438199,-148.041188,10362.883188
767.158165,-229.828649,-0.000000,9474.636058
767.158481,0.000000,-74.020594,10732.986159
767.158797,-306.438199,-1184.329507,11399.171507
767.159112,-1685.410096,-814.226536,10436.903782
767.159428,-766.095498,-814.226536,11473.192101
767.159744,-383.047749,-666.185348,9400.615463
767.160060,0.000000,-0.000000,9770.718434
767.160376,1302.362347,-518.144159,10658.965565
767.160692,1378.971896,-148.041188,8734.430116
767.161008,612.876398,-0.000000,9474.636058
767.161324,1608.800546,-296.082377,9252.574275
767.161639,1685.410096,888.247130,7550.100608
767.161955,2145.067394,740.205942,8216.285956
767.162271,1915.238745,-740.205942,9770.718434
767.162587,459.657299,-1184.329507,9178.553681
767.162903,0.000000,-962.267725,9918.759623
767.163219,-383.047749,-370.102971,9104.533087
767.163535,-459.657299,666.185348,8808.450710
767.163850,0.000000,-222.061783,9400.615463
767.164166,-995.924147,-666.185348,9548.656652
767.164482,-1762.019645,-888.247130,9992.780217
767.164798,-689.485948,-1628.453072,10140.821405
767.165114,-919.314598,-740.205942,8808.450710
767.165430,459.657299,-740.205942,8956.491898
767.165746,766.095498,-1184.329507,9992.780217
767.166062,459.657299,-370.102971,8068.244768
767.166377,536.266849,-444.123565,8660.409521
767.166693,1149.143247,-74.020594,8586.388927
767.167009,1072.533697,888.247130,7550.100608
767.167325,1455.581446,888.247130,8364.327145
767.167641,1378.971896,-0.000000,8808.450710
767.167957,383.047749,-518.144159,9104.533087
767.168273,0.000000,-962.267725,9474.636058
767.168589,76.609550,-518.144159,9992.780217
767.168904,76.609550,-74.020594,9326.594869
767.169220,459.657299,-370.102971,10140.821405
767.169536,0.000000,-444.123565,9696.697840
767.169852,-766.095498,-814.226536,10214.842000
767.170168,153.219100,-148.041188,10732.986159
767.170484,459.657299,888.247130,8438.347739
767.170800,383.047749,592.164754,8956.491898
767.171115,842.705048,-148.041188,9696.697840
767.171431,766.095498,-1036.288319,9622.677246
767.171747,766.095498,-1036.288319,10732.986159
767.172063,1378.971896,-518.144159,9622.677246
767.172379,1072.533697,370.102971,8660.409521
767.172695,1532.190996,-0.000000,9992.780217
767.173011,1149.143247,-148.041188,9770.718434
767.173327,689.485948,-370.102971,10066.800811
767.173642,229.828649,-148.041188,10584.944971
767.173958,536.266849,888.247130,9252.574275
767.174274,459.657299,444.123565,8956.491898
767.174590,1225.752797,-148.041188,10807.006753
767.174906,536.266849,-888.247130,9918.759623
767.175222,0.000000,-1184.329507,10362.883188
767.175538,306.438199,-444.123565,9918.759623
767.175853,0.000000,296.082377,8882.471304
767.176169,689.485948,-444.123565,9844.739029
767.176485,842.705048,-888.247130,10510.924376
767.176801,-229.828649,-148.041188,9474.636058
767.177117,306.438199,148.041188,10584.944971
767.177433,229.828649,1036.288319,9548.656652
767.177749,306.438199,2072.576638,8956.491898
767.178065,1072.533697,444.123565,9770.718434
767.178380,383.047749,-0.000000,8882.471304
767.178696,229.828649,-814.226536,10362.883188
767.179012,76.609550,-888.247130,10584.944971
767.179328,-229.828649,296.082377,8882.471304
767.179644,536.266849,740.205942,9104.533087
767.179960,1072.533697,-0.000000,9178.553681
767.180276,-459.657299,-0.000000,9178.553681
767.180591,0.000000,-518.144159,10140.821405
767.180907,-536.266849,-1332.370696,9400.615463
767.181223,-459.657299,592.164754,8808.450710
767.181539,0.000000,-1480.411884,9474.636058
767.181855,153.219100,-1776.494261,10140.821405
767.182171,-383.047749,-1258.350101,9622.677246
767.182487,-153.219100,-1332.370696,10214.842000
767.182803,76.609550,-0.000000,8512.368333
767.183118,689.485948,-296.082377,8364.327145
767.183434,1455.581446,-518.144159,8808.450710
767.183750,1225.752797,-888.247130,8956.491898
767.184066,766.095498,-888.247130,9474.636058
767.184382,995.924147,296.082377,8290.306550
767.184698,919.314598,888.247130,7476.080014
767.185014,1915.238745,222.061783,8216.285956
767.185329,1455.581446,-222.061783,8734.430116
767.185645,229.828649,-962.267725,8808.450710
767.185961,0.000000,-1332.370696,10807.006753
767.186277,153.219100,-222.061783,8808.450710
767.186593,76.609550,888.247130,8808.450710
767.186909,842.705048,518.144159,9178.553681
767.187225,76.609550,-0.000000,9104.533087
767.187541,-229.828649,-148.041188,9844.739029
767.187856,-153.219100,-0.000000,10362.883188
767.188172,689.485948,740.205942,8512.368333
767.188488,383.047749,296.082377,9178.553681
767.188804,1225.752797,-222.061783,9992.780217
767.189120,919.314598,-296.082377,9030.512492
767.189436,536.266849,-296.082377,9992.780217
767.189752,919.314598,148.041188,9918.759623
767.190067,842.705048,888.247130,8882.471304
767.190383,1532.190996,888.247130,9400.615463
767.190699,1455.581446,370.102971,9104.533087
767.191015,1225.752797,-370.102971,9548.656652
767.191331,1378.971896,-148.041188,10881.027347
767.191647,536.266849,592.164754,8808.450710
767.191963,1532.190996,592.164754,9548.656652
767.192279,1762.019645,-296.082377,10066.800811
767.192594,536.266849,-592.164754,9770.718434
767.192910,0.000000,-740.205942,10732.986159
767.193226,459.657299,-962.267725,10658.965565
767.193542,306.438199,-0.000000,10214.842000
767.193858,1149.143247,-0.000000,10955.047942
767.194174,689.485948,-296.082377,9770.718434
767.194490,76.609550,-370.102971,9918.759623
767.194805,383.047749,-222.061783,10955.047942
767.195121,229.828649,888.247130,9104.533087
767.195437,995.924147,1702.473667,8734.430116
767.195753,1072.533697,518.144159,9252.574275
767.196069,383.047749,-740.205942,9696.697840
767.196385,-153.219100,-1406.391290,10807.006753
767.196701,0.000000,-1036.288319,10214.842000
767.197017,-229.828649,370.102971,9474.636058
767.197332,-383.047749,370.102971,9326.594869
767.197648,536.266849,-0.000000,9548.656652
767.197964,-383.047749,222.061783,8882.471304
767.198280,-612.876398,-296.082377,9770.718434
767.198596,-612.876398,-370.102971,9326.594869
767.198912,-536.266849,-592.164754,8586.388927
767.199228,0.000000,-1332.370696,9844.739029
767.199543,-229.828649,-1776.494261,10066.800811
767.199859,-1225.752797,-1036.288319,8882.471304
767.200175,-153.219100,-1184.329507,10362.883188
767.200491,-229.828649,296.082377,8290.306550
767.200807,76.609550,888.247130,7846.182985
767.201123,919.314598,-74.020594,8438.347739
767.201439,536.266849,-814.226536,8808.450710
767.201755,229.828649,-814.226536,9622.677246
767.202070,536.266849,-370.102971,8586.388927
767.202386,612.876398,444.123565,7105.977043
767.202702,766.095498,-222.061783,8882.471304
767.203018,842.705048,-518.144159,9326.594869
767.203334,0.000000,-444.123565,8364.327145
767.203650,0.000000,-444.123565,9622.677246
767.203966,0.000000,-74.020594,9252.574275
767.204281,0.000000,296.082377,8660.409521
767.204597,919.314598,-296.082377,9474.636058
767.204913,0.000000,-1258.350101,9252.574275
767.205229,-153.219100,-666.185348,10214.842000
767.205545,459.657299,-148.041188,9918.759623
767.205861,0.000000,740.205942,8142.265362
767.206177,689.485948,962.267725,9104.533087
767.206493,1455.581446,-148.041188,9918.759623
767.206808,536.266849,-666.185348,9474.636058
767.207124,229.828649,-740.205942,10658.965565
767.207440,1149.143247,-222.061783,9474.636058
767.207756,1225.752797,296.082377,8734.430116
767.208072,1608.800546,592.164754,9770.718434
767.208388,1302.362347,296.082377,10436.903782
767.208704,1302.362347,-0.000000,9548.656652
767.209019,1072.533697,370.102971,9918.759623
767.209335,689.485948,666.185348,9178.553681
767.209651,1072.533697,-74.020594,10214.842000
767.209967,1838.629195,-0.000000,9992.780217
767.210283,842.705048,-592.164754,9770.718434
767.210599,766.095498,-518.144159,11029.068536
767.210915,1149.143247,-74.020594,10214.842000
767.211231,459.657299,888.247130,9178.553681
767.211546,1302.362347,666.185348,9918.759623
767.211862,1302.362347,-222.061783,10584.944971
767.212178,383.047749,-0.000000,9474.636058
767.212494,76.609550,-148.041188,10955.047942
767.212810,153.219100,-74.020594,9474.636058
767.213126,459.657299,222.061783,9252.574275
767.213442,766.095498,-74.020594,10288.862594
767.213757,76.609550,-444.123565,9992.780217
767.214073,-153.219100,-1036.288319,10584.944971
767.214389,153.219100,-888.247130,10658.965565
767.214705,-459.657299,-222.061783,8956.491898
767.215021,459.657299,-74.020594,9548.656652
767.215337,536.266849,-814.226536,9770.718434
767.215653,-995.924147,-592.164754,9696.697840
767.215969,-383.047749,-1110.308913,10807.006753
767.216284,-383.047749,-0.000000,8660.409521
767.216600,-229.828649,666.185348,7994.224174
767.216916,766.095498,-592.164754,9770.718434
767.217232,459.657299,-1850.514855,9474.636058
767.217548,-842.705048,-1628.453072,9622.677246
767.217864,-459.657299,-1998.556043,10288.862594
767.218180,-229.828649,-222.061783,8734.430116
767.218495,0.000000,148.041188,8586.388927
767.218811,1072.533697,-148.041188,9548.656652
767.219127,0.000000,-814.226536,8512.368333
767.219443,0.000000,-1110.308913,9548.656652
767.219759,76.609550,-592.164754,9104.533087
767.220075,306.438199,-0.000000,8068.244768
767.220390,612.876398,-0.000000,9474.636058
767.220706,842.705048,-222.061783,9252.574275
767.221022,229.828649,-296.082377,8808.450710
767.221338,76.609550,-296.082377,9474.636058
767.221654,229.828649,-666.185348,8438.347739
767.221969,995.924147,-0.000000,8882.471304
767.222285,1302.362347,-814.226536,9918.759623
767.222601,766.095498,-0.000000,8290.306550
767.222917,459.657299,740.205942,8808.450710
767.223233,1225.752797,-0.000000,8512.368333
767.223548,766.095498,962.267725,7476.080014
767.223864,1455.581446,592.164754,8956.491898
767.224180,1302.362347,-518.144159,9548.656652
767.224496,229.828649,-1184.329507,9326.594869
767.224812,229.828649,-1702.473667,11103.089130
767.225128,842.705048,-592.164754,9622.677246
767.225443,995.924147,888.247130,8586.388927
767.225759,1455.581446,888.247130,9696.697840
767.226075,995.924147,-0.000000,9474.636058
767.226391,76.609550,-370.102971,9622.677246
767.226707,459.657299,592.164754,10510.924376
767.227022,1149.143247,814.226536,8660.409521
767.227338,1072.533697,1036.288319,8882.471304
767.227654,1838.629195,-0.000000,10732.986159
767.227970,1225.752797,-592.164754,10362.883188
767.228286,919.314598,-0.000000,10140.821405
767.228601,766.095498,740.205942,9474.636058
767.228917,536.266849,962.267725,9622.677246
767.229233,842.705048,666.185348,9918.759623
767.229549,995.924147,-222.061783,10436.903782
767.229865,0.000000,-444.123565,10362.883188
767.230180,0.000000,-518.144159,10807.006753
767.230496,229.828649,296.082377,9178.553681
767.230812,459.657299,592.164754,9474.636058
767.231128,689.485948,-592.164754,11325.150913
767.231444,536.266849,-444.123565,9622.677246
767.231760,0.000000,-592.164754,9844.739029
767.232075,0.000000,-370.102971,10881.027347
767.232391,76.609550,-222.061783,9770.718434
767.232707,536.266849,-0.000000,9252.574275
767.233023,76.609550,-0.000000,9770.718434
767.233339,-459.657299,-222.061783,9844.739029
767.233654,306.438199,-518.144159,10436.903782
767.233970,459.657299,-0.000000,9104.533087
767.234286,76.609550,370.102971,8512.368333
767.234602,612.876398,-296.082377,9622.677246
767.234918,536.266849,-1036.288319,9622.677246
767.235233,0.000000,-1480.411884,9770.718434
767.235549,-229.828649,-962.267725,10584.944971
767.235865,-306.438199,296.082377,8808.450710
767.236181,-229.828649,148.041188,8068.244768
767.236497,76.609550,-888.247130,10140.821405
767.236812,-306.438199,-1258.350101,9252.574275
767.237128,-612.876398,-962.267725,9918.759623
767.237444,229.828649,-444.123565,8882.471304
767.237760,0.000000,666.185348,7846.182985
767.238076,766.095498,296.082377,8882.471304
767.238392,383.047749,-518.144159,8808.450710
767.238707,-153.219100,-666.185348,8660.409521
767.239023,76.609550,-962.267725,10066.800811
767.239339,306.438199,-962.267725,8512.368333
767.239655,229.828649,-296.082377,8660.409521
767.239971,1225.752797,-296.082377,9030.512492
767.240286,459.657299,-740.205942,8586.388927
767.240602,153.219100,222.061783,9252.574275
767.240918,229.828649,666.185348,8364.327145
767.241234,459.657299,1258.350101,7624.121203
767.241550,1072.533697,444.123565,8438.347739
767.241865,842.705048,-1406.391290,9474.636058
767.242181,0.000000,-1480.411884,9844.739029
767.242497,153.219100,-1554.432478,10288.862594
767.242813,306.438199,-370.102971,9474.636058
767.243129,306.438199,444.123565,8512.368333
767.243444,842.705048,370.102971,9548.656652
767.243760,919.314598,-0.000000,9400.615463
767.244076,153.219100,-0.000000,9400.615463
767.244392,536.266849,-518.144159,10140.821405
767.244708,612.876398,-0.000000,9622.677246
767.245023,1225.752797,296.082377,9178.553681
767.245339,1838.629195,222.061783,9770.718434
767.245655,1378.971896,-0.000000,9992.780217
767.245971,842.705048,-296.082377,10436.903782
767.246287,766.095498,-222.061783,10140.821405
767.246603,1072.533697,370.102971,9696.697840
767.246918,1532.190996,-148.041188,10362.883188
767.247234,1225.752797,-0.000000,10214.842000
767.247550,689.485948,-0.000000,10362.883188
767.247866,612.876398,222.061783,10510.924376
767.248182,536.266849,1036.288319,9252.574275
767.248497,612.876398,1480.411884,9326.594869
767.248813,919.314598,518.144159,9992.780217
767.249129,459.657299,-370.102971,9770.718434
767.249445,0.000000,-1184.329507,10955.047942
767.249761,306.438199,-888.247130,10807.006753
767.250076,-229.828649,-370.102971,9548.656652
767.250392,229.828649,222.061783,9992.780217
767.250708,306.438199,-518.144159,10140.821405
767.251024,-1072.533697,-148.041188,9992.780217
767.251340,-689.485948,-0.000000,10510.924376
767.251655,-153.219100,222.061783,8882.471304
767.251971,-306.438199,444.123565,9178.553681
767.252287,536.266849,-444.123565,10066.800811
767.252603,153.219100,-1332.370696,9474.636058
767.252919,-306.438199,-1184.329507,9548.656652
767.253235,-229.828649,-592.164754,9696.697840
767.253550,153.219100,148.041188,8142.265362
767.253866,153.219100,-148.041188,9104.533087
767.254182,536.266849,-1110.308913,10732.986159
767.254498,76.609550,-740.205942,8512.368333
767.254814,0.000000,-74.020594,9474.636058
767.255129,0.000000,-148.041188,8734.430116
767.255445,306.438199,-0.000000,7772.162391
767.255761,995.924147,-148.041188,9400.615463
767.256077,689.485948,-1110.308913,9474.636058
767.256393,-229.828649,-1332.370696,8882.471304
767.256708,153.219100,-1184.329507,10066.800811
767.257024,76.609550,-666.185348,8364.327145
767.257340,153.219100,-74.020594,9474.636058
767.257656,995.924147,-370.102971,9474.636058
767.257972,0.000000,-814.226536,8882.471304
767.258287,-383.047749,-296.082377,9770.718434
767.258603,76.609550,-296.082377,8956.491898
767.258919,689.485948,-0.000000,8142.265362
767.259235,612.876398,296.082377,8512.368333
767.259551,1149.143247,-962.267725,9030.512492
767.259866,536.266849,-1258.350101,9178.553681
767.260182,306.438199,-1554.432478,9918.759623
767.260498,689.485948,-740.205942,9696.697840
767.260814,612.876398,296.082377,8734.430116
767.261130,1302.362347,444.123565,9030.512492
767.261446,919.314598,-0.000000,9474.636058
767.261761,0.000000,-814.226536,9474.636058
767.262077,383.047749,-296.082377,9770.718434
767.262393,536.266849,444.123565,8290.306550
767.262709,842.705048,222.061783,8808.450710
767.263025,1532.190996,-1110.308913,10584.944971
767.263340,229.828649,-1184.329507,9030.512492
767.263656,229.828649,-1036.288319,10881.027347
767.263972,612.876398,-148.041188,9992.780217
767.264288,306.438199,296.082377,9104.533087
767.264604,995.924147,-0.000000,9918.759623
767.264919,995.924147,-222.061783,9992.780217
767.265235,766.095498,-666.185348,9326.594869
767.265551,459.657299,-444.123565,10881.027347
767.265867,612.876398,444.123565,9178.553681
767.266183,1149.143247,962.267725,8882.471304
767.266498,1455.581446,222.061783,9474.636058
767.266814,306.438199,-370.102971,9474.636058
767.267130,0.000000,-1258.350101,11103.089130
767.267446,306.438199,-740.205942,11029.068536
767.267762,-306.438199,148.041188,9104.533087
767.268078,153.219100,-74.020594,10214.842000
767.268393,459.657299,-518.144159,10288.862594
767.268709,-306.438199,148.041188,9622.677246
767.269025,0.000000,222.061783,10584.944971
767.269341,0.000000,-74.020594,9548.656652
767.269657,0.000000,740.205942,9030.512492
767.269972,766.095498,-0.000000,9770.718434
767.270288,459.657299,-444.123565,9474.636058
767.270604,0.000000,-814.226536,10066.800811
767.270920,229.828649,-1332.370696,10510.924376
767.271236,459.657299,-0.000000,9252.574275
767.271551,536.266849,666.185348,9030.512492
767.271867,995.924147,296.082377,9252.574275
767.272183,306.438199,-222.061783,8882.471304
767.272499,0.000000,-0.000000,10288.862594
767.272815,153.219100,518.144159,8660.409521
767.273130,76.609550,888.247130,8142.265362
767.273446,229.828649,-0.000000,9844.739029
767.273762,153.219100,-740.205942,9622.677246
767.274078,-153.219100,-592.164754,8956.491898
767.274394,153.219100,-814.226536,10362.883188
767.274710,0.000000,-518.144159,9178.553681
767.275025,0.000000,888.247130,9030.512492
767.275341,689.485948,370.102971,9030.512492
767.275657,0.000000,-0.000000,9252.574275
767.275973,-306.438199,296.082377,9844.739029
767.276289,383.047749,296.082377,8734.430116
767.276604,229.828649,740.205942,8142.265362
767.276920,1149.143247,-148.041188,9104.533087
767.277236,842.705048,-518.144159,9844.739029
767.277552,-229.828649,-666.185348,8956.491898
767.277868,-383.047749,-1036.288319,10362.883188
767.278183,459.657299,-0.000000,9326.594869
767.278499,459.657299,592.164754,8734.430116
767.278815,1225.752797,-0.000000,9474.636058
767.279131,1072.533697,-74.020594,9326.594869
767.279447,842.705048,-0.000000,9548.656652
767.279762,1302.362347,-74.020594,9326.594869
767.280078,536.266849,592.164754,7698.141797
767.280394,995.924147,444.123565,9400.615463
767.280710,1838.629195,-518.144159,9918.759623
767.281026,995.924147,-1406.391290,9474.636058
767.281341,153.219100,-1110.308913,10881.027347
767.281657,306.438199,-148.041188,9918.759623
767.281973,306.438199,-0.000000,9104.533087
767.282289,1072.533697,-0.000000,9918.759623
767.282605,689.485948,-74.020594,10362.883188
767.282921,76.609550,-444.123565,9918.759623
767.283236,229.828649,-222.061783,10510.924376
767.283552,153.219100,592.164754,8734.430116
767.283868,306.438199,74.020594,8956.491898
767.284184,995.924147,-740.205942,11029.068536
767.284500,612.876398,-370.102971,9696.697840
767.284815,0.000000,-370.102971,10510.924376
767.285131,306.438199,-740.205942,9844.739029
767.285447,306.438199,148.041188,9178.553681
767.285763,612.876398,-0.000000,10140.821405
767.286079,842.705048,-370.102971,10140.821405
767.286394,-153.219100,-370.102971,9548.656652
767.286710,-383.047749,-518.144159,10510.924376
767.287026,-383.047749,-370.102971,9474.636058
767.287342,0.000000,148.041188,9178.553681
767.287658,459.657299,-518.144159,9844.739029
767.287973,229.828649,-592.164754,9548.656652
767.288289,76.609550,-1332.370696,9474.636058
767.288605,153.219100,-592.164754,9770.718434
767.288921,-306.438199,-0.000000,8216.285956
767.289237,612.876398,-74.020594,9548.656652
767.289553,1915.238745,-888.247130,9918.759623
767.289868,153.219100,-518.144159,9030.512492
767.290184,-153.219100,-370.102971,9696.697840
767.290500,76.609550,-814.226536,8956.491898
767.290816,536.266849,444.123565,8068.244768
767.291132,766.095498,-0.000000,9326.594869
767.291447,612.876398,-296.082377,9252.574275
767.291763,153.219100,-962.267725,9400.615463
767.292079,536.266849,-518.144159,9992.780217
767.292395,536.266849,222.061783,8808.450710
767.292711,536.266849,592.164754,8438.347739
767.293026,1072.533697,222.061783,9252.574275
767.293342,459.657299,-0.000000,8734.430116
767.293658,229.828649,-0.000000,9622.677246
767.293974,306.438199,-0.000000,9400.615463
767.294290,459.657299,444.123565,7920.203579
767.294605,536.266849,296.082377,8734.430116
767.294921,766.095498,-444.123565,9696.697840
767.295237,0.000000,-592.164754,9326.594869
767.295553,-229.828649,-740.205942,10436.903782
767.295869,306.438199,-0.000000,9474.636058
767.296184,0.000000,370.102971,8142.265362
767.296500,766.095498,-74.020594,9992.780217
767.296816,612.876398,-740.205942,9400.615463
767.297132,306.438199,-444.123565,10362.883188
767.297448,383.047749,-0.000000,9474.636058
767.297764,229.828649,814.226536,8142.265362
767.298079,1072.533697,370.102971,9030.512492
767.298395,1225.752797,-0.000000,9474.636058
767.298711,612.876398,-962.267725,9918.759623
767.299027,0.000000,-666.185348,10436.903782
767.299343,536.266849,-518.144159,10066.800811
767.299658,766.095498,-0.000000,9030.512492
767.299974,1532.190996,-0.000000,9252.574275
767.300290,1149.143247,-74.020594,10362.883188
767.300606,229.828649,-74.020594,9918.759623
767.300922,306.438199,148.041188,10066.800811
767.301237,766.095498,592.164754,9104.533087
767.301553,995.924147,1258.350101,8068.244768
767.301869,1532.190996,-148.041188,10214.842000
767.302185,766.095498,-814.226536,9474.636058
767.302501,229.828649,-1036.288319,10732.986159
767.302816,536.266849,-518.144159,9918.759623
767.303132,153.219100,296.082377,8734.430116
767.303448,612.876398,370.102971,9474.636058
767.303764,766.095498,-296.082377,9992.780217
767.304080,76.609550,-370.102971,9400.615463
767.304396,-612.876398,-370.102971,10881.027347
767.304711,-612.876398,-444.123565,9400.615463
767.305027,0.000000,-0.000000,8882.471304
767.305343,612.876398,-74.020594,9918.759623
767.305659,0.000000,-1110.308913,9696.697840
767.305975,-306.438199,-1554.432478,10214.842000
767.306290,0.000000,-1184.329507,9992.780217
767.306606,76.609550,-74.020594,8734.430116
767.306922,536.266849,-74.020594,9622.677246
767.307238,766.095498,-592.164754,9474.636058
767.307554,459.657299,-74.020594,8882.471304
767.307869,153.219100,-444.123565,9918.759623
767.308185,153.219100,296.082377,8142.265362
767.308501,612.876398,888.247130,8068.244768
767.308817,612.876398,-74.020594,8808.450710
767.309133,612.876398,-1110.308913,9474.636058
767.309448,-229.828649,-1036.288319,10066.800811
767.309764,-153.219100,-962.267725,9918.759623
767.310080,-229.828649,-370.102971,9474.636058
767.310396,0.000000,296.082377,9178.553681
767.310712,919.314598,-0.000000,9770.718434
767.311027,306.438199,-444.123565,9178.553681
767.311343,-229.828649,-370.102971,9992.780217
767.311659,306.438199,-222.061783,9548.656652
767.311975,536.266849,370.102971,8216.285956
767.312291,1149.143247,148.041188,8660.409521
767.312607,1302.362347,-370.102971,9474.636058
767.312922,536.266849,-592.164754,9104.533087
767.313238,306.438199,-666.185348,9770.718434
767.313554,612.876398,-222.061783,9400.615463
767.313870,995.924147,296.082377,8660.409521
767.314186,1532.190996,-0.000000,9622.677246
767.314501,689.485948,-74.020594,9326.594869
767.314817,0.000000,-592.164754,9548.656652
767.315133,536.266849,-296.082377,10066.800811
767.315449,229.828649,-222.061783,8216.285956
767.315765,229.828649,-0.000000,9474.636058
767.316080,1072.533697,-444.123565,10066.800811
767.316396,0.000000,-1110.308913,9474.636058
767.316712,-153.219100,-888.247130,10881.027347
767.317028,0.000000,-740.205942,10584.944971
767.317344,536.266849,-0.000000,8882.471304
767.317659,612.876398,740.205942,9326.594869
767.317975,766.095498,-666.185348,10288.862594
767.318291,229.828649,-222.061783,9696.697840
767.318607,459.657299,-0.000000,9622.677246
767.318923,842.705048,740.205942,8586.388927
767.319239,1149.143247,888.247130,8734.430116
767.319554,1225.752797,-0.000000,9622.677246
767.319870,306.438199,-518.144159,9474.636058
767.320186,-459.657299,-1406.391290,10510.924376
767.320502,153.219100,-666.185348,10807.006753
767.320817,0.000000,-148.041188,9326.594869
767.321133,306.438199,-74.020594,9918.759623
767.321449,383.047749,-592.164754,9844.739029
767.321765,0.000000,-814.226536,9696.697840
767.322080,-536.266849,-962.267725,10881.027347
767.322396,-306.438199,-370.102971,9696.697840
767.322712,153.219100,-0.000000,8734.430116
767.323028,919.314598,-0.000000,9622.677246
767.323343,612.876398,-888.247130,9992.780217
767.323659,459.657299,-1036.288319,9622.677246
767.323975,383.047749,-74.020594,9548.656652
767.324291,536.266849,-74.020594,8882.471304
767.324606,1302.362347,-148.041188,9326.594869
767.324922,1532.190996,-666.185348,9548.656652
767.325238,229.828649,-740.205942,9178.553681
767.325554,459.657299,-592.164754,9992.780217
767.325869,1225.752797,-0.000000,8512.368333
767.326185,842.705048,740.205942,7476.080014
767.326501,919.314598,296.082377,9548.656652
767.326817,1072.533697,-1332.370696,9326.594869
767.327132,0.000000,-592.164754,9030.512492
767.327448,153.219100,-592.164754,10584.944971
767.327764,76.609550,-518.144159,8956.491898
767.328080,459.657299,592.164754,8438.347739
767.328395,383.047749,370.102971,9474.636058
767.328711,536.266849,-296.082377,9030.512492
767.329027,0.000000,-370.102971,9474.636058
767.329342,383.047749,-148.041188,9622.677246
767.329658,153.219100,888.247130,7920.203579
767.329974,919.314598,222.061783,8956.491898
767.330290,842.705048,-0.000000,9474.636058
767.330605,153.219100,-296.082377,9474.636058
767.330921,995.924147,-148.041188,9992.780217
767.331237,459.657299,888.247130,9178.553681
767.331553,383.047749,814.226536,8882.471304
767.331868,919.314598,370.102971,9992.780217
767.332184,612.876398,222.061783,9474.636058
767.332500,153.219100,148.041188,9992.780217
767.332816,153.219100,518.144159,9992.780217
767.333131,153.219100,740.205942,8586.388927
767.333447,842.705048,296.082377,9104.533087
767.333763,689.485948,-222.061783,9622.677246
767.334079,0.000000,-1406.391290,9844.739029
767.334394,0.000000,-962.267725,11029.068536
767.334710,689.485948,-148.041188,9992.780217
767.335026,459.657299,518.144159,8956.491898
767.335342,1225.752797,222.061783,9844.739029
767.335657,1072.533697,-74.020594,9252.574275
767.335973,459.657299,-222.061783,9178.553681
767.336289,766.095498,-296.082377,10362.883188
767.336605,306.438199,296.082377,8734.430116
767.336920,536.266849,518.144159,8808.450710
767.337236,1302.362347,-148.041188,9696.697840
767.337552,383.047749,-296.082377,9252.574275
767.337868,76.609550,-814.226536,10288.862594
767.338183,0.000000,-296.082377,9844.739029
767.338499,-536.266849,-0.000000,9474.636058
767.338815,383.047749,-0.000000,9622.677246
767.339131,459.657299,-370.102971,9474.636058
767.339446,-459.657299,-518.144159,10288.862594
767.339762,-229.828649,-666.185348,10510.924376
767.340078,-459.657299,-0.000000,8660.409521
767.340394,-153.219100,666.185348,9178.553681
767.340709,459.657299,-222.061783,9770.718434
767.341025,76.609550,-518.144159,8882.471304
767.341341,0.000000,-74.020594,10066.800811
767.341657,306.438199,-1406.391290,10214.842000
767.341972,76.609550,-222.061783,8512.368333
767.342288,612.876398,-74.020594,9252.574275
767.342604,612.876398,-518.144159,9252.574275
767.342920,459.657299,-962.267725,9770.718434
767.343235,229.828649,-518.144159,9992.780217
767.343551,229.828649,222.061783,8660.409521
767.343867,0.000000,370.102971,8068.244768
767.344182,842.705048,-370.102971,9474.636058
767.344498,842.705048,-814.226536,8808.450710
767.344814,0.000000,-1554.432478,9918.759623
767.345130,229.828649,-1332.370696,10658.965565
767.345445,459.657299,-222.061783,8882.471304
767.345761,536.266849,518.144159,8290.306550
767.346077,766.095498,-0.000000,9178.553681
767.346393,153.219100,-962.267725,9326.594869
767.346708,153.219100,-814.226536,10362.883188
767.347024,306.438199,-0.000000,9474.636058
767.347340,766.095498,-222.061783,8216.285956
767.347656,1149.143247,-0.000000,9030.512492
767.347971,1225.752797,-666.185348,9104.533087
767.348287,689.485948,-962.267725,9178.553681
767.348603,995.924147,-296.082377,9918.759623
767.348919,842.705048,-74.020594,9104.533087
767.349234,842.705048,222.061783,8808.450710
767.349550,1762.019645,-222.061783,9622.677246
767.349866,842.705048,-0.000000,9400.615463
767.350182,459.657299,-592.164754,9548.656652
767.350497,536.266849,-1184.329507,10140.821405
767.350813,536.266849,296.082377,9030.512492
767.351129,766.095498,-296.082377,8660.409521
767.351445,1608.800546,-370.102971,9918.759623
767.351760,229.828649,-962.267725,9326.594869
767.352076,76.609550,-666.185348,11473.192101
767.352392,306.438199,-444.123565,9992.780217
767.352708,229.828649,296.082377,9252.574275
767.353023,1072.533697,222.061783,10436.903782
767.353339,1149.143247,-222.061783,9474.636058
767.353655,689.485948,-74.020594,9770.718434
767.353971,1302.362347,-0.000000,10214.842000
767.354286,306.438199,666.185348,8364.327145
767.354602,842.705048,1036.288319,9326.594869
767.354918,1685.410096,444.123565,9770.718434
767.355234,842.705048,-0.000000,9030.512492
767.355549,612.876398,-148.041188,10362.883188
767.355865,306.438199,-0.000000,9918.759623
767.356181,229.828649,740.205942,9400.615463
767.356497,229.828649,962.267725,10140.821405
767.356812,842.705048,-0.000000,9622.677246
767.357128,-612.876398,-370.102971,10214.842000
767.357444,-536.266849,-518.144159,10955.047942
767.357760,-459.657299,-0.000000,8882.471304
767.358075,-383.047749,-0.000000,8956.491898
767.358391,306.438199,-518.144159,10658.965565
767.358707,0.000000,-444.123565,9326.594869
767.359022,-842.705048,-814.226536,9918.759623
767.359338,-229.828649,-518.144159,10288.862594
767.359654,0.000000,-0.000000,9252.574275
767.359970,383.047749,222.061783,9104.533087
767.360285,689.485948,-222.061783,9252.574275
767.360601,229.828649,-1110.308913,9548.656652
767.360917,383.047749,-814.226536,9844.739029
767.361233,306.438199,-370.102971,9104.533087
767.361548,459.657299,-0.000000,8290.306550
767.361864,1302.362347,74.020594,9030.512492
767.362180,1149.143247,-0.000000,8364.327145
767.362496,306.438199,-888.247130,9030.512492
767.362811,229.828649,-1036.288319,9992.780217
767.363127,306.438199,-740.205942,8808.450710
767.363443,306.438199,-0.000000,8734.430116
767.363759,383.047749,-1036.288319,9770.718434
767.364074,0.000000,-1406.391290,9548.656652
767.364390,-459.657299,-1110.308913,10362.883188
767.364706,-536.266849,-0.000000,9326.594869
767.365022,-229.828649,296.082377,8216.285956
767.365337,0.000000,-222.061783,9400.615463
767.365653,0.000000,-370.102971,9622.677246
767.365969,0.000000,-814.226536,9548.656652
767.366285,229.828649,-666.185348,9992.780217
767.366600,689.485948,-296.082377,9326.594869
767.366916,995.924147,444.123565,8660.409521
767.367232,1762.019645,-0.000000,9104.533087
767.367548,1225.752797,-0.000000,9252.574275
767.367863,919.314598,-74.020594,9326.594869
767.368179,1072.533697,296.082377,8882.471304
767.368495,1149.143247,1036.288319,8734.430116
767.368811,1532.190996,962.267725,9474.636058
767.369126,1685.410096,-74.020594,9030.512492
767.369442,536.266849,-740.205942,9474.636058
767.369758,306.438199,-1702.473667,11103.089130
767.370074,766.095498,-444.123565,9992.780217
767.370389,306.438199,518.144159,9474.636058
767.370705,1149.143247,-0.000000,9918.759623
767.371021,766.095498,-518.144159,10584.944971
767.371337,0.000000,-148.041188,10510.924376
767.371652,153.219100,740.205942,9474.636058
767.371968,306.438199,1110.308913,8512.368333
767.372284,1149.143247,740.205942,9474.636058
767.372600,919.314598,370.102971,9252.574275
767.372915,383.047749,-666.185348,9696.697840
767.373231,229.828649,-1184.329507,10658.965565
767.373547,229.828649,-370.102971,9992.780217
767.373862,459.657299,222.061783,9178.553681
767.374178,689.485948,814.226536,9104.533087
767.374494,536.266849,-0.000000,9844.739029
767.374810,229.828649,-0.000000,9622.677246
767.375125,76.609550,-370.102971,9992.780217
767.375441,229.828649,592.164754,8586.388927
767.375757,306.438199,740.205942,8734.430116
767.376073,306.438199,-296.082377,9326.594869
767.376388,153.219100,-592.164754,9326.594869
767.376704,-153.219100,-592.164754,10288.862594
767.377020,153.219100,-296.082377,9696.697840
767.377336,-459.657299,592.164754,8808.450710
767.377651,306.438199,222.061783,9844.739029
767.377967,689.485948,444.123565,9622.677246
767.378283,153.219100,444.123565,9030.512492
767.378599,229.828649,518.144159,9992.780217
767.378914,459.657299,370.102971,8808.450710
767.379230,612.876398,1554.432478,8364.327145
767.379546,1378.971896,1184.329507,9104.533087
767.379862,1072.533697,222.061783,9104.533087
767.380177,766.095498,-296.082377,9992.780217
767.380493,459.657299,222.061783,10140.821405
767.380809,383.047749,1036.288319,8882.471304
767.381125,919.314598,740.205942,9326.594869
767.381440,766.095498,222.061783,9918.759623
767.381756,153.219100,888.247130,9104.533087
767.382072,0.000000,222.061783,9918.759623
767.382388,153.219100,444.123565,9844.739029
767.382703,306.438199,814.226536,8290.306550
767.383019,612.876398,-0.000000,9622.677246
767.383335,229.828649,-962.267725,10214.842000
767.383651,-229.828649,-1110.308913,10288.862594
767.383966,229.828649,-592.164754,10510.924376
767.384282,0.000000,-148.041188,9030.512492
767.384598,459.657299,-0.000000,9252.574275
767.384914,1072.533697,-148.041188,10436.903782
767.385229,76.609550,-814.226536,9252.574275
767.385545,0.000000,-1332.370696,10362.883188
767.385861,1072.533697,-1036.288319,9696.697840
767.386177,1302.362347,-148.041188,8290.306550
767.386492,1072.533697,-0.000000,8512.368333
767.386808,1225.752797,-1554.432478,9622.677246
767.387124,919.314598,-1998.556043,9918.759623
767.387440,229.828649,-1702.473667,10288.862594
767.387755,459.657299,-1406.391290,9400.615463
767.388071,229.828649,-666.185348,9252.574275
767.388387,995.924147,-888.247130,9770.718434
767.388702,383.047749,-1258.350101,9252.574275
767.389018,-306.438199,-1406.391290,9992.780217
767.389334,0.000000,-1924.535449,10955.047942
767.389650,153.219100,-444.123565,8216.285956
767.389965,153.219100,-0.000000,8586.388927
767.390281,919.314598,-1406.391290,9548.656652
767.390597,-306.438199,-1554.432478,9992.780217
767.390913,76.609550,-1628.453072,9918.759623
767.391228,-459.657299,-962.267725,9400.615463
767.391544,-229.828649,-814.226536,8956.491898
767.391860,306.438199,-592.164754,9474.636058
767.392176,229.828649,-1036.288319,9696.697840
767.392491,-689.485948,-1554.432478,9918.759623
767.392807,-459.657299,-1110.308913,10066.800811
767.393123,-153.219100,-592.164754,8734.430116
767.393439,0.000000,-296.082377,9326.594869
767.393754,842.705048,-814.226536,9770.718434
767.394070,76.609550,-962.267725,8956.491898
767.394386,-459.657299,-1924.535449,9992.780217
767.394702,229.828649,-1554.432478,10066.800811
767.395017,459.657299,-666.185348,8660.409521
767.395333,612.876398,-444.123565,8956.491898
767.395649,1302.362347,-1184.329507,9548.656652
767.395965,1072.533697,-962.267725,8734.430116
767.396280,229.828649,-370.102971,9474.636058
767.396596,383.047749,-222.061783,8512.368333
767.396912,766.095498,-0.000000,7920.203579
767.397228,1072.533697,-148.041188,9030.512492
767.397543,229.828649,-962.267725,9696.697840
767.397859,153.219100,-1406.391290,9474.636058
767.398175,383.047749,-1406.391290,9992.780217
767.398491,-229.828649,-444.123565,9030.512492
767.398806,76.609550,-0.000000,9474.636058
767.399122,689.485948,-740.205942,9252.574275
767.399438,612.876398,-148.041188,9030.512492
767.399754,306.438199,-0.000000,9770.718434
767.400069,153.219100,-0.000000,8956.491898
767.400385,383.047749,1480.411884,8512.368333
767.400701,995.924147,1110.308913,8882.471304
767.401017,995.924147,518.144159,8882.471304
767.401332,229.828649,444.123565,9548.656652
767.401648,153.219100,-0.000000,10066.800811
767.401964,383.047749,370.102971,9548.656652
767.402280,229.828649,1110.308913,9178.553681
767.402595,995.924147,962.267725,9622.677246
767.402911,612.876398,888.247130,9918.759623
767.403227,76.609550,740.205942,10584.944971
767.403542,383.047749,1554.432478,10436.903782
767.403858,383.047749,2146.597232,8660.409521
767.404174,1225.752797,2442.679609,8586.388927
767.404490,1302.362347,1776.494261,10140.821405
767.404805,766.095498,888.247130,9474.636058
767.405121,612.876398,888.247130,10362.883188
767.405437,919.314598,1036.288319,10288.862594
767.405753,1455.581446,1850.514855,9844.739029
767.406068,1455.581446,1850.514855,10140.821405
767.406384,995.924147,1406.391290,10140.821405
767.406700,919.314598,814.226536,9992.780217
767.407016,1225.752797,1332.370696,10584.944971
767.407331,766.095498,2294.638420,9696.697840
767.407647,536.266849,1850.514855,9030.512492
767.407963,919.314598,740.205942,10288.862594
767.408279,459.657299,-0.000000,9918.759623
767.408594,0.000000,-370.102971,10436.903782
767.408910,306.438199,-0.000000,9992.780217
767.409226,76.609550,592.164754,9252.574275
767.409542,459.657299,-0.000000,9474.636058
767.409857,306.438199,-222.061783,9992.780217
767.410173,0.000000,-592.164754,9992.780217
767.410489,-842.705048,-592.164754,10584.944971
767.410805,-459.657299,-592.164754,8734.430116
767.411120,-229.828649,-0.000000,8956.491898
767.411436,76.609550,-888.247130,10140.821405
767.411752,153.219100,-1332.370696,8956.491898
767.412068,-536.266849,-666.185348,9104.533087
767.412383,0.000000,-1110.308913,9918.759623
767.412699,0.000000,-962.267725,8586.388927
767.413015,229.828649,-296.082377,9252.574275
767.413331,536.266849,-222.061783,9770.718434
767.413646,229.828649,-518.144159,8882.471304
767.413962,-306.438199,-370.102971,9178.553681
767.414278,383.047749,-0.000000,8808.450710
767.414594,383.047749,592.164754,7328.038826
767.414909,689.485948,-0.000000,9252.574275
767.415225,383.047749,-1258.350101,9252.574275
767.415541,229.828649,-1850.514855,9844.739029
767.415857,76.609550,-1332.370696,10066.800811
767.416172,229.828649,-444.123565,8734.430116
767.416488,306.438199,-0.000000,8734.430116
767.416804,995.924147,-444.123565,10140.821405
767.417120,153.219100,-222.061783,8586.388927
767.417435,0.000000,-0.000000,9252.574275
767.417751,383.047749,-148.041188,8660.409521
767.418067,306.438199,-370.102971,8660.409521
767.418382,1378.971896,-1406.391290,9622.677246
767.418698,1149.143247,-1554.432478,8586.388927
767.419014,153.219100,-1776.494261,9400.615463
767.419330,0.000000,-2368.659014,11251.130318
767.419645,612.876398,-1332.370696,9326.594869
767.419961,153.219100,-0.000000,8734.430116
767.420277,919.314598,-1036.288319,9918.759623
767.420593,383.047749,-1554.432478,9622.677246
767.420908,153.219100,-1850.514855,9770.718434
767.421220,995.924147,-1554.432478,9770.718434
767.421536,229.828649,-1850.514855,8882.471304
767.421852,919.314598,-1554.432478,9622.677246
767.422167,1072.533697,-1850.514855,9474.636058
767.422483,459.657299,-1924.535449,9548.656652
767.422799,612.876398,-1776.494261,10362.883188
767.423115,383.047749,-1184.329507,9622.677246
767.423430,612.876398,-740.205942,9030.512492
767.423746,1072.533697,-1554.432478,10584.944971
767.424062,995.924147,-1332.370696,9548.656652
767.424378,459.657299,-888.247130,9474.636058
767.424693,459.657299,-222.061783,9400.615463
767.425009,153.219100,666.185348,8808.450710
767.425325,383.047749,296.082377,9178.553681
767.425640,689.485948,-444.123565,9474.636058
767.425956,306.438199,-444.123565,9844.739029
767.426272,-1072.533697,-1036.288319,10955.047942
767.426588,-459.657299,-592.164754,10362.883188
767.426903,-766.095498,518.144159,9252.574275
767.427219,76.609550,962.267725,9770.718434
767.427535,153.219100,518.144159,9770.718434
767.427850,-536.266849,-74.020594,9622.677246
767.428166,-229.828649,296.082377,10584.944971
767.428482,-229.828649,666.185348,8808.450710
767.428798,153.219100,962.267725,8438.347739
767.429113,1225.752797,222.061783,10214.842000
767.429429,229.828649,-0.000000,9252.574275
767.429745,153.219100,444.123565,9252.574275
767.430061,0.000000,148.041188,9622.677246
767.430376,612.876398,1184.329507,8216.285956
767.430692,1149.143247,1036.288319,9326.594869
767.431008,1378.971896,814.226536,8882.471304
767.431323,536.266849,666.185348,8290.306550
767.431639,689.485948,-148.041188,9918.759623
767.431955,842.705048,-444.123565,9770.718434
767.432271,306.438199,592.164754,8956.491898
767.432586,612.876398,518.144159,9326.594869
767.432902,612.876398,-74.020594,9474.636058
767.433218,0.000000,-296.082377,10140.821405
767.433533,459.657299,-222.061783,10807.006753
767.433849,76.609550,814.226536,8290.306550
767.434165,306.438199,222.061783,9622.677246
767.434481,919.314598,-296.082377,10584.944971
767.434796,229.828649,-148.041188,9104.533087
767.435112,229.828649,-222.061783,10510.924376
767.435428,995.924147,-0.000000,9918.759623
767.435744,1225.752797,962.267725,7846.182985
767.436059,1608.800546,518.144159,9474.636058
767.436375,1302.362347,-0.000000,9918.759623
767.436691,689.485948,-444.123565,10066.800811
767.437006,842.705048,-370.102971,9992.780217
767.437322,612.876398,296.082377,9252.574275
767.437638,612.876398,444.123565,9696.697840
767.437954,1225.752797,370.102971,10140.821405
767.438269,919.314598,444.123565,9696.697840
767.438585,76.609550,-296.082377,9992.780217
767.438901,229.828649,-370.102971,10066.800811
767.439216,306.438199,-0.000000,9178.553681
767.439532,459.657299,-0.000000,9622.677246
767.439848,689.485948,-222.061783,9770.718434
767.440164,383.047749,-1332.370696,9548.656652
767.440479,76.609550,-814.226536,10732.986159
767.440795,766.095498,-222.061783,9548.656652
767.441111,383.047749,222.061783,8216.285956
767.441427,919.314598,-370.102971,9400.615463
767.441742,1455.581446,-518.144159,9992.780217
767.442058,842.705048,-370.102971,9474.636058
767.442374,842.705048,296.082377,9030.512492
767.442689,612.876398,740.205942,8364.327145
767.443005,842.705048,-0.000000,9400.615463
767.443321,766.095498,-0.000000,8956.491898
767.443637,76.609550,-222.061783,9326.594869
767.443952,0.000000,-1480.411884,10881.027347
767.444268,0.000000,-1332.370696,9622.677246
767.444584,-689.485948,-0.000000,8512.368333
767.444900,0.000000,-0.000000,9474.636058
767.445215,306.438199,-370.102971,9104.533087
767.445531,-689.485948,-962.267725,9474.636058
767.445847,-689.485948,-1554.432478,11103.089130
767.446162,-766.095498,-740.205942,8882.471304
767.446478,-459.657299,-592.164754,8216.285956
767.446794,459.657299,-1036.288319,9622.677246
767.447110,0.000000,-1850.514855,9622.677246
767.447425,0.000000,-1406.391290,9622.677246
767.447741,229.828649,-370.102971,8734.430116
767.448057,0.000000,592.164754,7994.224174
767.448372,612.876398,-0.000000,9252.574275
767.448688,766.095498,-444.123565,8734.430116
767.449004,-76.609550,-888.247130,8882.471304
767.449320,-536.266849,-1036.288319,10288.862594
767.449635,0.000000,-518.144159,9104.533087
767.449951,-153.219100,518.144159,8586.388927
767.450267,995.924147,-148.041188,9696.697840
767.450583,306.438199,-148.041188,9474.636058
767.450898,-383.047749,-592.164754,9548.656652
767.451214,-383.047749,-0.000000,10584.944971
767.451530,76.609550,1110.308913,9400.615463
767.451845,306.438199,1110.308913,9474.636058
767.452161,919.314598,666.185348,9770.718434
767.452477,306.438199,962.267725,9770.718434
767.452793,612.876398,370.102971,10214.842000
767.453108,689.485948,1184.329507,9844.739029
767.453424,536.266849,1702.473667,8660.409521
767.453740,1302.362347,740.205942,9696.697840
767.454055,1378.971896,888.247130,10140.821405
767.454371,459.657299,148.041188,10140.821405
767.454687,1149.143247,296.082377,10807.006753
767.455003,459.657299,962.267725,9474.636058
767.455318,842.705048,1036.288319,9104.533087
767.455634,1532.190996,444.123565,10362.883188
767.455950,1302.362347,-0.000000,9696.697840
767.456266,612.876398,-666.185348,10066.800811
767.456581,919.314598,-740.205942,10288.862594
767.456897,536.266849,-0.000000,9178.553681
767.457213,1225.752797,-74.020594,10140.821405
767.457528,1149.143247,-1110.308913,9918.759623
767.457844,459.657299,-1406.391290,9548.656652
767.458160,766.095498,-1776.494261,11177.109724
767.458476,1225.752797,-814.226536,9844.739029
767.458791,995.924147,222.061783,7920.203579
767.459107,1378.971896,-370.102971,9844.739029
767.459423,1378.971896,-1258.350101,9548.656652
767.459738,689.485948,-814.226536,9326.594869
767.460054,536.266849,-592.164754,9844.739029
767.460370,76.609550,444.123565,7920.203579
767.460686,383.047749,-0.000000,8660.409521
767.461001,1608.800546,-1184.329507,9696.697840
767.461317,153.219100,-1036.288319,8956.491898
767.461633,-229.828649,-888.247130,10436.903782
767.461949,-383.047749,-1332.370696,9622.677246
767.462264,-383.047749,-666.185348,9178.553681
767.462580,0.000000,-740.205942,10436.903782
767.462896,-306.438199,-888.247130,9400.615463
767.463211,-766.095498,-962.267725,9548.656652
767.463527,-1072.533697,-592.164754,10362.883188
767.463843,-383.047749,-0.000000,8734.430116
767.464159,-383.047749,222.061783,8660.409521
767.464474,383.047749,-518.144159,9326.594869
767.464790,-306.438199,-1184.329507,8734.430116
767.465106,-229.828649,-1332.370696,9770.718434
767.465421,306.438199,-814.226536,9770.718434
767.465737,612.876398,222.061783,8438.347739
767.466053,995.924147,-74.020594,8882.471304
767.466369,1378.971896,-148.041188,9104.533087
767.466684,689.485948,-518.144159,8512.368333
767.467000,689.485948,-592.164754,9696.697840
767.467316,842.705048,148.041188,8808.450710
767.467632,689.485948,666.185348,7550.100608
767.467947,1532.190996,370.102971,8586.388927
767.468263,919.314598,-0.000000,9252.574275
767.468579,76.609550,-962.267725,9696.697840
767.468894,0.000000,-1036.288319,10214.842000
767.469210,0.000000,-0.000000,9326.594869
767.469526,76.609550,-74.020594,9622.677246
767.469842,766.095498,-888.247130,10066.800811
767.470157,-153.219100,-518.144159,9696.697840
767.470473,-229.828649,-962.267725,10140.821405
767.470789,0.000000,-0.000000,10066.800811
767.471105,229.828649,1184.329507,8068.244768
767.471420,842.705048,-222.061783,9400.615463
767.471736,919.314598,-666.185348,9622.677246
767.472052,383.047749,-888.247130,9918.759623
767.472367,229.828649,-740.205942,10732.986159
767.472683,306.438199,-0.000000,9400.615463
767.472999,459.657299,-0.000000,9104.533087
767.473315,689.485948,222.061783,9992.780217
767.473630,689.485948,-518.144159,9326.594869
767.473946,-153.219100,-1036.288319,10066.800811
767.474262,76.609550,-592.164754,11251.130318
767.474577,0.000000,-74.020594,9326.594869
767.474893,383.047749,222.061783,9474.636058
767.475209,612.876398,-222.061783,10362.883188
767.475525,76.609550,-962.267725,9696.697840
767.475840,-153.219100,-666.185348,10510.924376
767.476156,76.609550,-666.185348,10288.862594
767.476472,0.000000,-74.020594,9104.533087
767.476788,995.924147,-0.000000,10362.883188
767.477103,995.924147,-296.082377,10140.821405
767.477419,766.095498,74.020594,9326.594869
767.477735,689.485948,444.123565,10288.862594
767.478050,995.924147,1406.391290,8364.327145
767.478366,1532.190996,1554.432478,7920.203579
767.478682,1915.238745,148.041188,9104.533087
767.478998,1225.752797,-148.041188,9104.533087
767.479313,689.485948,-148.041188,10436.903782
767.479629,689.485948,-0.000000,9992.780217
767.479945,306.438199,518.144159,8956.491898
767.480260,612.876398,1258.350101,9474.636058
767.480576,842.705048,814.226536,9252.574275
767.480892,0.000000,-0.000000,9104.533087
767.481208,153.219100,-0.000000,9992.780217
767.481523,0.000000,222.061783,8956.491898
767.481839,536.266849,370.102971,9104.533087
767.482155,919.314598,-296.082377,9326.594869
767.482471,383.047749,-666.185348,9030.512492
767.482786,-153.219100,-1036.288319,10214.842000
767.483102,0.000000,-740.205942,9474.636058
767.483418,0.000000,814.226536,8142.265362
767.483733,689.485948,-0.000000,9326.594869
767.484049,842.705048,-370.102971,9474.636058
767.484365,229.828649,-148.041188,8956.491898
767.484681,306.438199,-444.123565,9622.677246
767.484996,383.047749,444.123565,8142.265362
767.485312,612.876398,1110.308913,8216.285956
767.485628,1072.533697,518.144159,8882.471304
767.485943,612.876398,222.061783,8956.491898
767.486259,0.000000,-444.123565,9918.759623
767.486575,-76.609550,-444.123565,10288.862594
767.486891,0.000000,296.082377,9400.615463
767.487206,-459.657299,-74.020594,9770.718434
767.487522,306.438199,-222.061783,10214.842000
767.487838,0.000000,148.041188,9770.718434
767.488154,-536.266849,-0.000000,10362.883188
767.488469,-229.828649,666.185348,9992.780217
767.488785,-536.266849,814.226536,9104.533087
767.489101,153.219100,592.164754,9400.615463
767.489416,306.438199,296.082377,9770.718434
767.489732,0.000000,-518.144159,9918.759623
767.490048,689.485948,-888.247130,11251.130318
767.490364,153.219100,148.041188,9474.636058
767.490679,995.924147,592.164754,9474.636058
767.490995,1762.019645,444.123565,9400.615463
767.491311,1455.581446,296.082377,9400.615463
767.491627,919.314598,-148.041188,10362.883188
767.491942,1608.800546,-0.000000,9844.739029
767.492258,612.876398,740.205942,8586.388927
767.492574,1225.752797,-222.061783,9474.636058
767.492889,1302.362347,-962.267725,9918.759623
767.493205,536.266849,-814.226536,9622.677246
767.493521,459.657299,-1184.329507,10658.965565
767.493837,842.705048,-1258.350101,10140.821405
767.494152,0.000000,-518.144159,9400.615463
767.494468,612.876398,-592.164754,9918.759623
767.494784,459.657299,-814.226536,9252.574275
767.495099,0.000000,-1036.288319,9844.739029
767.495415,229.828649,-1184.329507,10658.965565
767.495731,-383.047749,74.020594,8364.327145
767.496047,536.266849,-0.000000,8734.430116
767.496362,919.314598,-1036.288319,9474.636058
767.496678,0.000000,-1480.411884,8956.491898
767.496994,0.000000,-1776.494261,9844.739029
767.497310,76.609550,-1480.411884,10066.800811
767.497625,0.000000,-296.082377,8290.306550
767.497941,153.219100,-148.041188,9474.636058
767.498257,229.828649,-740.205942,9474.636058
767.498572,0.000000,-1036.288319,8956.491898
767.498888,-153.219100,-888.247130,9400.615463
767.499204,-153.219100,-74.020594,8586.388927
767.499520,0.000000,-518.144159,8512.368333
767.499835,1072.533697,-962.267725,9474.636058
767.500151,229.828649,-962.267725,8882.471304
767.500467,-689.485948,-1184.329507,9474.636058
767.500782,0.000000,-666.185348,9992.780217
767.501098,0.000000,-0.000000,7994.224174
767.501414,459.657299,296.082377,8734.430116
767.501730,842.705048,-518.144159,9844.739029
767.502045,306.438199,-444.123565,8956.491898
767.502361,153.219100,-0.000000,9474.636058
767.502677,766.095498,148.041188,8364.327145
767.502993,919.314598,814.226536,7846.182985
767.503308,1302.362347,-0.000000,9030.512492
767.503624,842.705048,-74.020594,9030.512492
767.503940,689.485948,-814.226536,9844.739029
767.504255,842.705048,-222.061783,10510.924376
767.504571,766.095498,666.185348,8438.347739
767.504887,1225.752797,1036.288319,8586.388927
767.505203,1762.019645,296.082377,10140.821405
767.505518,459.657299,296.082377,9326.594869
767.505834,612.876398,370.102971,10288.862594
767.506150,306.438199,296.082377,9622.677246
767.506465,0.000000,1258.350101,8660.409521
767.506781,919.314598,444.123565,9252.574275
767.507097,612.876398,-296.082377,9992.780217
767.507413,0.000000,-1184.329507,11029.068536
767.507728,0.000000,-1406.391290,11621.233289
767.508044,153.219100,-222.061783,9844.739029
767.508360,612.876398,666.185348,9474.636058
767.508676,1225.752797,370.102971,10140.821405
767.508991,612.876398,-0.000000,9548.656652
767.509307,306.438199,-444.123565,10732.986159
767.509623,383.047749,370.102971,10288.862594
767.509938,383.047749,592.164754,8512.368333
767.510254,536.266849,518.144159,9400.615463
767.510570,1378.971896,-296.082377,10584.944971
767.510886,842.705048,-814.226536,9474.636058
767.511201,306.438199,-370.102971,10362.883188
767.511517,76.609550,-222.061783,9992.780217
767.511833,536.266849,-370.102971,9770.718434
767.512149,689.485948,-0.000000,9918.759623
767.512464,76.609550,296.082377,9622.677246
767.512780,-153.219100,-666.185348,10362.883188
767.513096,0.000000,-74.020594,10362.883188
767.513411,-459.657299,666.185348,8808.450710
767.513727,0.000000,-222.061783,8956.491898
767.514043,689.485948,-444.123565,9918.759623
767.514359,0.000000,-444.123565,9104.533087
767.514674,-153.219100,-666.185348,10436.903782
767.514990,0.000000,-0.000000,9252.574275
767.515306,0.000000,518.144159,8734.430116
767.515621,536.266849,148.041188,9400.615463
767.515937,383.047749,-0.000000,9474.636058
767.516253,459.657299,-518.144159,8660.409521
767.516569,76.609550,-518.144159,9992.780217
767.516884,0.000000,148.041188,8586.388927
767.517200,383.047749,-0.000000,8068.244768
767.517516,766.095498,-0.000000,9400.615463
767.517832,383.047749,-666.185348,8808.450710
767.518147,-153.219100,-1406.391290,9622.677246
767.518463,153.219100,-296.082377,9622.677246
767.518779,76.609550,-0.000000,8068.244768
767.519094,919.314598,-74.020594,8512.368333
767.519410,689.485948,-444.123565,9104.533087
767.519726,383.047749,-1110.308913,9622.677246
767.520042,153.219100,-370.102971,9548.656652
767.520357,153.219100,-0.000000,8290.306550
767.520673,306.438199,-0.000000,8142.265362
767.520989,459.657299,-444.123565,9770.718434
767.521304,306.438199,-1258.350101,9252.574275
767.521620,0.000000,-1406.391290,10510.924376
767.521936,153.219100,-814.226536,10584.944971
767.522251,0.000000,222.061783,8586.388927
767.522567,766.095498,740.205942,8882.471304
767.522883,995.924147,148.041188,9474.636058
767.523199,306.438199,222.061783,9178.553681
767.523514,0.000000,-592.164754,10584.944971
767.523830,383.047749,-222.061783,9400.615463
767.524146,306.438199,444.123565,8734.430116
767.524461,842.705048,74.020594,9622.677246
767.524777,842.705048,-74.020594,9918.759623
767.525093,612.876398,-0.000000,9548.656652
767.525409,689.485948,-74.020594,10436.903782
767.525724,995.924147,148.041188,9474.636058
767.526040,689.485948,740.205942,8956.491898
767.526356,1991.848295,222.061783,10288.862594
767.526671,1072.533697,-148.041188,9400.615463
767.526987,383.047749,-592.164754,10584.944971
767.527303,536.266849,-222.061783,10066.800811
767.527619,459.657299,814.226536,8512.368333
767.527934,1225.752797,518.144159,9622.677246
767.528250,1225.752797,-0.000000,10140.821405
767.528566,919.314598,-518.144159,9622.677246
767.528881,842.705048,-1110.308913,10955.047942
767.529197,459.657299,-74.020594,9474.636058
767.529513,919.314598,740.205942,8512.368333
767.529829,1378.971896,296.082377,10066.800811
767.530144,1149.143247,-148.041188,10140.821405
767.530460,459.657299,-518.144159,10362.883188
767.530776,229.828649,-0.000000,10214.842000
767.531091,383.047749,814.226536,8586.388927
767.531407,536.266849,962.267725,9474.636058
767.531723,842.705048,-148.041188,10066.800811
767.532038,229.828649,-962.267725,9548.656652
767.532354,153.219100,-592.164754,10584.944971
767.532670,459.657299,-740.205942,10066.800811
767.532986,153.219100,296.082377,8438.347739
767.533301,1072.533697,-0.000000,9696.697840
767.533617,536.266849,-592.164754,9400.615463
767.533933,229.828649,-814.226536,9178.553681
767.534248,-612.876398,-814.226536,9992.780217
767.534564,-383.047749,-148.041188,8438.347739
767.534880,-842.705048,-148.041188,7772.162391
767.535196,0.000000,-518.144159,9918.759623
767.535511,-383.047749,-1184.329507,9178.553681
767.535827,-995.924147,-1628.453072,9548.656652
767.536143,-842.705048,-1480.411884,10214.842000
767.536458,-536.266849,-666.185348,8068.244768
767.536774,-459.657299,-518.144159,9178.553681
767.537090,0.000000,-666.185348,9326.594869
767.537406,-612.876398,-222.061783,8364.327145
767.537721,459.657299,-666.185348,9622.677246
767.538037,229.828649,-370.102971,8660.409521
767.538353,0.000000,1184.329507,7402.059420
767.538668,1072.533697,-444.123565,8586.388927
767.538984,689.485948,-518.144159,8882.471304
767.539300,766.095498,-740.205942,9030.512492
767.539616,919.314598,-1554.432478,9992.780217
767.539931,536.266849,518.144159,8956.491898
767.540247,153.219100,-0.000000,8956.491898
767.540563,1149.143247,-0.000000,9622.677246
767.540878,919.314598,-370.102971,9104.533087
767.541194,0.000000,-740.205942,9696.697840
767.541510,459.657299,-0.000000,10658.965565
767.541825,383.047749,-74.020594,8882.471304
767.542141,842.705048,-222.061783,9992.780217
767.542457,766.095498,-0.000000,9474.636058
767.542773,459.657299,-592.164754,9770.718434
767.543088,919.314598,-740.205942,10732.986159
767.543404,766.095498,-0.000000,9030.512492
767.543720,1378.971896,370.102971,9400.615463
767.544035,1685.410096,-148.041188,9548.656652
767.544351,1378.971896,-444.123565,9548.656652
767.544667,1149.143247,-814.226536,9844.739029
767.544983,842.705048,-592.164754,10214.842000
767.545298,1149.143247,148.041188,8956.491898
767.545614,1455.581446,592.164754,9030.512492
767.545930,1838.629195,-0.000000,9622.677246
767.546245,1149.143247,-370.102971,9474.636058
767.546561,995.924147,-1554.432478,10807.006753
767.546877,842.705048,-888.247130,10584.944971
767.547193,842.705048,-0.000000,9622.677246
767.547508,1149.143247,296.082377,9992.780217
767.547824,1302.362347,-222.061783,10140.821405
767.548140,383.047749,-518.144159,9622.677246
767.548455,689.485948,-148.041188,10881.027347
767.548771,612.876398,666.185348,9252.574275
767.549087,1149.143247,1110.308913,8364.327145
767.549403,1302.362347,518.144159,9474.636058
767.549718,842.705048,-74.020594,9474.636058
767.550034,612.876398,-148.041188,9548.656652
767.550350,536.266849,-0.000000,9844.739029
767.550665,306.438199,666.185348,8734.430116
767.550981,536.266849,444.123565,9104.533087
767.551297,229.828649,-0.000000,9178.553681
767.551612,-153.219100,-444.123565,9992.780217
767.551928,-459.657299,-1036.288319,11399.171507
767.552244,-383.047749,-296.082377,9030.512492
767.552560,-383.047749,962.267725,7624.121203
767.552875,459.657299,-222.061783,9548.656652
767.553191,-536.266849,-962.267725,8956.491898
767.553507,-459.657299,-1184.329507,9178.553681
767.553822,-766.095498,-592.164754,9474.636058
767.554138,-536.266849,-222.061783,8882.471304
767.554454,153.219100,-370.102971,8956.491898
767.554770,383.047749,-370.102971,8808.450710
767.555085,-306.438199,-814.226536,8808.450710
767.555401,0.000000,-1480.411884,10584.944971
767.555717,76.609550,-222.061783,8438.347739
767.556032,153.219100,962.267725,7402.059420
767.556348,612.876398,-0.000000,9474.636058
767.556664,766.095498,-296.082377,8956.491898
767.556980,0.000000,-518.144159,9178.553681
767.557295,0.000000,-296.082377,10510.924376
767.557611,229.828649,-0.000000,9548.656652
767.557927,306.438199,592.164754,8734.430116
767.558242,383.047749,74.020594,9178.553681
767.558558,0.000000,-0.000000,9770.718434
767.558874,0.000000,-296.082377,9992.780217
767.559190,-459.657299,-74.020594,9622.677246
767.559505,-459.657299,-0.000000,9918.759623
767.559821,383.047749,592.164754,9844.739029
767.560137,459.657299,740.205942,9252.574275
767.560452,229.828649,-0.000000,9474.636058
767.560768,536.266849,-444.123565,11473.192101
767.561084,536.266849,740.205942,9178.553681
767.561399,995.924147,1258.350101,8438.347739
767.561715,1149.143247,-0.000000,9992.780217
767.562031,689.485948,-0.000000,9992.780217
767.562347,842.705048,-74.020594,9696.697840
767.562662,995.924147,222.061783,9918.759623
767.562978,766.095498,740.205942,8512.368333
767.563294,1072.533697,444.123565,8956.491898
767.563609,1302.362347,-518.144159,9770.718434
767.563925,536.266849,-888.247130,9844.739029
767.564241,459.657299,-814.226536,10658.965565
767.564557,153.219100,222.061783,9252.574275
767.564872,459.657299,-0.000000,9326.594869
767.565188,842.705048,-370.102971,10288.862594
767.565504,383.047749,-888.247130,9696.697840
767.565819,153.219100,-814.226536,10288.862594
767.566135,306.438199,-814.226536,10584.944971
767.566451,306.438199,222.061783,8586.388927
767.566767,1149.143247,296.082377,9400.615463
767.567082,1532.190996,-666.185348,10288.862594
767.567398,842.705048,-370.102971,9548.656652
767.567714,995.924147,-814.226536,10066.800811
767.568029,1149.143247,-666.185348,9696.697840
767.568345,536.266849,222.061783,8882.471304
767.568661,1838.629195,-0.000000,9474.636058
767.568977,1455.581446,-148.041188,9400.615463
767.569292,689.485948,-444.123565,9474.636058
767.569608,842.705048,-740.205942,10436.903782
767.569924,153.219100,-518.144159,9030.512492
767.570239,-153.219100,-296.082377,8142.265362
767.570555,306.438199,-666.185348,9844.739029
767.570871,-153.219100,-1184.329507,9474.636058
767.571187,-306.438199,-1924.535449,10658.965565
767.571502,-229.828649,-1110.308913,9918.759623
767.571818,-766.095498,-148.041188,8216.285956
767.572134,229.828649,-370.102971,8512.368333
767.572449,306.438199,-592.164754,9548.656652
767.572765,383.047749,-1184.329507,8956.491898
767.573081,-153.219100,-592.164754,9474.636058
767.573396,0.000000,-518.144159,9104.533087
767.573712,766.095498,370.102971,7846.182985
767.574028,1072.533697,296.082377,8734.430116
767.574344,383.047749,-444.123565,8660.409521
767.574659,612.876398,-592.164754,9622.677246
767.574975,612.876398,-74.020594,9918.759623
767.575291,383.047749,814.226536,8216.285956
767.575606,842.705048,962.267725,8586.388927
767.575922,1225.752797,222.061783,9992.780217
767.576238,536.266849,296.082377,8586.388927
767.576554,0.000000,-0.000000,10288.862594
767.576869,-153.219100,-0.000000,9178.553681
767.577185,0.000000,518.144159,8290.306550
767.577501,536.266849,-0.000000,10510.924376
767.577816,76.609550,-222.061783,10288.862594
767.578132,229.828649,-518.144159,9696.697840
767.578448,-459.657299,-666.185348,10732.986159
767.578764,-306.438199,-296.082377,9696.697840
767.579079,0.000000,740.205942,9474.636058
767.579395,766.095498,-0.000000,10066.800811
767.579711,536.266849,-444.123565,9918.759623
767.580026,153.219100,-1110.308913,10510.924376
767.580342,383.047749,-518.144159,9474.636058
767.580658,842.705048,666.185348,8586.388927
767.580974,1685.410096,148.041188,9474.636058
767.581289,1762.019645,-444.123565,9400.615463
767.581605,842.705048,-666.185348,9326.594869
767.581921,536.266849,-888.247130,10510.924376
767.582236,1302.362347,-592.164754,9548.656652
767.582552,1072.533697,-592.164754,8882.471304
767.582868,766.095498,296.082377,10140.821405
767.583183,536.266849,-444.123565,9992.780217
767.583499,229.828649,-814.226536,9918.759623
767.583815,0.000000,-0.000000,10584.944971
767.584131,-229.828649,296.082377,9030.512492
767.584446,689.485948,814.226536,8512.368333
767.584762,766.095498,-370.102971,9622.677246
767.585078,919.314598,-1110.308913,9844.739029
767.585393,536.266849,-1406.391290,10807.006753
767.585709,153.219100,-74.020594,9474.636058
767.586025,459.657299,1332.370696,8364.327145
767.586341,1072.533697,222.061783,9252.574275
767.586656,689.485948,-370.102971,9548.656652
767.586972,383.047749,296.082377,9030.512492
767.587288,76.609550,-74.020594,9474.636058
767.587603,229.828649,296.082377,8438.347739
767.587919,76.609550,222.061783,8142.265362
767.588235,995.924147,-518.144159,9696.697840
767.588551,383.047749,-1110.308913,9548.656652
767.588866,-229.828649,-1036.288319,9992.780217
767.589182,-689.485948,-666.185348,9992.780217
767.589498,-153.219100,-222.061783,7920.203579
767.589813,0.000000,-740.205942,8956.491898
767.590129,229.828649,-518.144159,10362.883188
767.590445,0.000000,-888.247130,8882.471304
767.590761,0.000000,-740.205942,9548.656652
767.591076,0.000000,-148.041188,8808.450710
767.591392,689.485948,296.082377,7698.141797
767.591708,1225.752797,-0.000000,9030.512492
767.592023,612.876398,-222.061783,8956.491898
767.592339,536.266849,-1258.350101,9992.780217
767.592655,689.485948,-666.185348,10140.821405
767.592970,383.047749,666.185348,8290.306550
767.593286,612.876398,814.226536,9104.533087
767.593602,1378.971896,-222.061783,10436.903782
767.593918,995.924147,-0.000000,8882.471304
767.594233,229.828649,222.061783,10362.883188
767.594549,306.438199,740.205942,9326.594869
767.594865,459.657299,1036.288319,7846.182985
767.595180,612.876398,370.102971,9696.697840
767.595496,995.924147,-0.000000,10214.842000
767.595812,306.438199,-740.205942,9326.594869
767.596128,229.828649,-370.102971,10436.903782
767.596443,153.219100,148.041188,9918.759623
767.596759,766.095498,444.123565,9104.533087
767.597075,1225.752797,370.102971,9622.677246
767.597390,229.828649,222.061783,10436.903782
767.597706,153.219100,-814.226536,10732.986159
767.598022,842.705048,148.041188,9844.739029
767.598338,383.047749,888.247130,8290.306550
767.598653,689.485948,740.205942,9326.594869
767.598969,1225.752797,222.061783,9992.780217
767.599285,459.657299,-0.000000,8956.491898
767.599600,229.828649,-74.020594,11029.068536
767.599916,383.047749,-296.082377,10288.862594
767.600232,919.314598,518.144159,9030.512492
767.600548,612.876398,962.267725,9622.677246
767.600863,612.876398,148.041188,10066.800811
767.601179,229.828649,-1110.308913,10214.842000
767.601495,0.000000,-444.123565,10584.944971
767.601810,-383.047749,740.205942,9474.636058
767.602126,76.609550,222.061783,9030.512492
767.602442,536.266849,-222.061783,9992.780217
767.602757,-536.266849,-814.226536,9474.636058
767.603073,-766.095498,-1480.411884,11473.192101
767.603389,76.609550,-962.267725,10214.842000
767.603705,-536.266849,-0.000000,8512.368333
767.604020,76.609550,-222.061783,10066.800811
767.604336,383.047749,-444.123565,9770.718434
767.604652,0.000000,-370.102971,8586.388927
767.604967,0.000000,-518.144159,9844.739029
767.605283,0.000000,-296.082377,8660.409521
767.605599,306.438199,-222.061783,8068.244768
767.605915,919.314598,-666.185348,9770.718434
767.606230,612.876398,-1406.391290,8364.327145
767.606546,-459.657299,-1924.535449,9770.718434
767.606862,0.000000,-1036.288319,10288.862594
767.607177,0.000000,-74.020594,8290.306550
767.607493,153.219100,-296.082377,8882.471304
767.607809,153.219100,-888.247130,9770.718434
767.608125,-459.657299,-1184.329507,8956.491898
767.608440,-229.828649,-1332.370696,10584.944971
767.608756,459.657299,444.123565,8882.471304
767.609072,153.219100,370.102971,7402.059420
767.609387,1149.143247,-0.000000,9844.739029
767.609703,536.266849,-0.000000,8438.347739
767.610019,459.657299,-962.267725,8956.491898
767.610335,612.876398,-148.041188,10140.821405
767.610650,1302.362347,296.082377,8512.368333
767.610966,1532.190996,962.267725,8586.388927
767.611282,1991.848295,666.185348,9252.574275
767.611597,1302.362347,-0.000000,8882.471304
767.611913,1302.362347,-296.082377,10510.924376
767.612229,612.876398,444.123565,9030.512492
767.612544,612.876398,1406.391290,7920.203579
767.612860,1149.143247,888.247130,9622.677246
767.613176,1149.143247,-740.205942,9918.759623
767.613492,306.438199,-370.102971,9474.636058
767.613807,383.047749,-1406.391290,10436.903782
767.614123,0.000000,-888.247130,9992.780217
767.614439,459.657299,-0.000000,9918.759623
767.614754,229.828649,-222.061783,10288.862594
767.615070,459.657299,-0.000000,10140.821405
767.615386,689.485948,-444.123565,10140.821405
767.615702,459.657299,-0.000000,9400.615463
767.616017,459.657299,592.164754,8438.347739
767.616333,766.095498,-148.041188,9770.718434
767.616649,1455.581446,-296.082377,10436.903782
767.616964,1072.533697,-444.123565,8438.347739
767.617280,689.485948,-740.205942,10066.800811
767.617596,995.924147,296.082377,10510.924376
767.617912,766.095498,222.061783,9326.594869
767.618227,1378.971896,148.041188,10066.800811
767.618543,766.095498,-666.185348,10584.944971
767.618859,153.219100,-444.123565,10140.821405
767.619174,689.485948,296.082377,10362.883188
767.619490,0.000000,888.247130,8364.327145
767.619806,459.657299,814.226536,9622.677246
767.620122,536.266849,296.082377,9844.739029
767.620437,153.219100,-0.000000,9252.574275
767.620753,-612.876398,-592.164754,10362.883188
767.621069,-536.266849,-370.102971,9844.739029
767.621385,0.000000,-0.000000,9104.533087
767.621700,0.000000,-0.000000,10658.965565
767.622016,153.219100,-518.144159,9918.759623
767.622332,-383.047749,-592.164754,9696.697840
767.622648,-306.438199,-888.247130,10362.883188
767.622964,-306.438199,222.061783,8586.388927
767.623279,153.219100,148.041188,8364.327145
767.623595,766.095498,-740.205942,9770.718434
767.623911,229.828649,-518.144159,8660.409521
767.624227,0.000000,-1258.350101,9178.553681
767.624542,76.609550,-814.226536,9400.615463
767.624858,0.000000,-222.061783,8068.244768
767.625174,459.657299,-0.000000,8586.388927
767.625490,1149.143247,-962.267725,9474.636058
767.625805,-153.219100,-1110.308913,8808.450710
767.626121,0.000000,-1406.391290,9474.636058
767.626437,-229.828649,-1036.288319,9252.574275
767.626753,0.000000,148.041188,7698.141797
767.627069,383.047749,-74.020594,9252.574275
767.627384,76.609550,-962.267725,9178.553681
767.627700,-689.485948,-1406.391290,9548.656652
767.628016,-153.219100,-1406.391290,10732.986159
767.628332,153.219100,296.082377,8068.244768
767.628647,612.876398,222.061783,8808.450710
767.628963,919.314598,-740.205942,9844.739029
767.629279,1378.971896,-370.102971,8956.491898
767.629595,383.047749,-370.102971,9622.677246
767.629910,842.705048,-0.000000,9770.718434
767.630226,612.876398,962.267725,8068.244768
767.630542,1225.752797,1110.308913,8808.450710
767.630858,1455.581446,148.041188,9696.697840
767.631174,1072.533697,-444.123565,9474.636058
767.631489,612.876398,-370.102971,10807.006753
767.631805,919.314598,-444.123565,9844.739029
767.632121,459.657299,-0.000000,9326.594869
767.632437,1225.752797,-296.082377,10436.903782
767.632752,306.438199,-370.102971,10214.842000
767.633068,229.828649,-740.205942,10584.944971
767.633384,306.438199,-222.061783,10288.862594
767.633700,459.657299,518.144159,9326.594869
767.634015,1608.800546,444.123565,9474.636058
767.634331,2221.676944,444.123565,9696.697840
767.634647,1378.971896,-74.020594,9400.615463
767.634963,1762.019645,-296.082377,10066.800811
767.635279,2221.676944,-0.000000,9474.636058
767.635594,1685.410096,1332.370696,8734.430116
767.635910,2221.676944,962.267725,9400.615463
767.636226,1378.971896,-222.061783,9696.697840
767.636542,689.485948,-444.123565,10732.986159
767.636857,536.266849,-222.061783,10510.924376
767.637173,76.609550,1036.288319,9178.553681
767.637489,383.047749,1406.391290,9104.533087
767.637805,766.095498,296.082377,9844.739029
767.638121,0.000000,-148.041188,9918.759623
767.638436,0.000000,-740.205942,10955.047942
767.638752,-459.657299,-296.082377,9992.780217
767.639068,-536.266849,-148.041188,9622.677246
767.639384,-383.047749,-0.000000,10066.800811
767.639699,76.609550,-74.020594,9992.780217
767.640015,-383.047749,-74.020594,9696.697840
767.640331,-536.266849,-222.061783,10436.903782
767.640647,-383.047749,592.164754,8734.430116
767.640962,0.000000,962.267725,7994.224174
767.641278,842.705048,-0.000000,9030.512492
767.641594,0.000000,-296.082377,9474.636058
767.641910,-153.219100,-666.185348,9622.677246
767.642226,0.000000,-444.123565,9770.718434
767.642541,-306.438199,444.123565,7846.182985
767.642857,229.828649,-0.000000,8438.347739
767.643173,0.000000,-592.164754,9696.697840
767.643489,-612.876398,-888.247130,9696.697840
767.643804,-306.438199,-1036.288319,10066.800811
767.644120,-229.828649,-370.102971,8956.491898
767.644436,-306.438199,296.082377,7920.203579
767.644752,229.828649,-74.020594,9104.533087
767.645067,383.047749,-814.226536,10362.883188
767.645383,0.000000,-222.061783,8512.368333
767.645699,459.657299,-518.144159,9622.677246
767.646015,0.000000,518.144159,8512.368333
767.646331,153.219100,-0.000000,8808.450710
767.646646,1149.143247,-0.000000,9548.656652
767.646962,766.095498,-0.000000,9178.553681
767.647278,306.438199,296.082377,9918.759623
767.647594,689.485948,444.123565,9104.533087
767.647909,766.095498,888.247130,8216.285956
767.648225,1225.752797,222.061783,9252.574275
767.648541,1455.581446,222.061783,9474.636058
767.648857,995.924147,-296.082377,9178.553681
767.649172,536.266849,-222.061783,9992.780217
767.649488,383.047749,-592.164754,9622.677246
767.649804,306.438199,-814.226536,9622.677246
767.650120,459.657299,-1184.329507,11103.089130
767.650436,459.657299,-1184.329507,9474.636058
767.650751,-383.047749,-666.185348,10140.821405
767.651067,229.828649,-592.164754,10362.883188
767.651383,459.657299,-0.000000,8882.471304
767.651699,1378.971896,370.102971,9326.594869
767.652014,1455.581446,-148.041188,8882.471304
767.652330,766.095498,-814.226536,9178.553681
767.652646,995.924147,-1924.535449,9992.780217
767.652962,766.095498,-1184.329507,9622.677246
767.653278,1149.143247,-222.061783,9326.594869
767.653593,1608.800546,-0.000000,9622.677246
767.653909,842.705048,-0.000000,9474.636058
767.654225,536.266849,-296.082377,9992.780217
767.654541,0.000000,-666.185348,9992.780217
767.654856,-229.828649,-148.041188,9178.553681
767.655172,-229.828649,-148.041188,9474.636058
767.655488,306.438199,-222.061783,10436.903782
767.655804,-76.609550,-740.205942,9844.739029
767.656119,-383.047749,-740.205942,10436.903782
767.656435,-153.219100,-592.164754,10436.903782
767.656751,-306.438199,-0.000000,8734.430116
767.657067,76.609550,-74.020594,10140.821405
767.657383,306.438199,-370.102971,9178.553681
767.657698,0.000000,-740.205942,9400.615463
767.658014,-383.047749,-592.164754,10214.842000
767.658330,76.609550,-296.082377,8808.450710
767.658646,689.485948,-0.000000,8290.306550
767.658961,459.657299,-0.000000,8882.471304
767.659277,459.657299,-666.185348,9178.553681
767.659593,-153.219100,-1776.494261,9548.656652
767.659909,-229.828649,-1406.391290,10436.903782
767.660224,0.000000,-0.000000,8290.306550
767.660540,383.047749,-814.226536,9474.636058
767.660856,76.609550,-888.247130,9696.697840
767.661172,229.828649,-814.226536,8290.306550
767.661488,229.828649,-1184.329507,9622.677246
767.661803,229.828649,-296.082377,8882.471304
767.662119,153.219100,518.144159,7624.121203
767.662435,766.095498,-0.000000,9474.636058
767.662751,689.485948,-888.247130,9030.512492
767.663066,0.000000,-962.267725,8956.491898
767.663382,612.876398,-592.164754,10658.965565
767.663698,459.657299,370.102971,8808.450710
767.664014,689.485948,666.185348,8438.347739
767.664329,1149.143247,814.226536,9696.697840
767.664645,842.705048,-0.000000,8660.409521
767.664961,766.095498,-0.000000,9622.677246
767.665277,612.876398,444.123565,9622.677246
767.665593,383.047749,1110.308913,7476.080014
767.665908,1532.190996,370.102971,9918.759623
767.666224,766.095498,-222.061783,9696.697840
767.666540,0.000000,-444.123565,9178.553681
767.666856,0.000000,-296.082377,10732.986159
767.667171,153.219100,296.082377,9548.656652
767.667487,689.485948,666.185348,9178.553681
767.667803,842.705048,740.205942,9696.697840
767.668119,689.485948,-0.000000,9548.656652
767.668435,0.000000,-148.041188,10140.821405
767.668750,229.828649,296.082377,10658.965565
767.669066,536.266849,888.247130,8586.388927
767.669382,919.314598,296.082377,9696.697840
767.669698,1455.581446,296.082377,10362.883188
767.670013,1225.752797,370.102971,9326.594869
767.670329,1225.752797,-518.144159,10584.944971
767.670645,919.314598,-148.041188,10140.821405
767.670961,1149.143247,518.144159,9400.615463
767.671276,1608.800546,666.185348,10066.800811
767.671592,919.314598,370.102971,9770.718434
767.671908,1149.143247,-0.000000,10214.842000
767.672224,766.095498,444.123565,10288.862594
767.672540,383.047749,814.226536,9178.553681
767.672855,995.924147,592.164754,9622.677246
767.673171,1302.362347,-0.000000,9474.636058
767.673487,-383.047749,-740.205942,9326.594869
767.673803,-153.219100,-1406.391290,11029.068536
767.674118,0.000000,-962.267725,10732.986159
767.674434,-76.609550,-148.041188,9548.656652
767.674750,689.485948,222.061783,9548.656652
767.675066,306.438199,-370.102971,9696.697840
767.675381,0.000000,-814.226536,9326.594869
767.675697,0.000000,-814.226536,10288.862594
767.676013,0.000000,-444.123565,8586.388927
767.676329,153.219100,-0.000000,8438.347739
767.676645,459.657299,-296.082377,9252.574275
767.676960,383.047749,-814.226536,8956.491898
767.677276,0.000000,-1332.370696,9622.677246
767.677592,-383.047749,-814.226536,9474.636058
767.677908,-1225.752797,148.041188,8438.347739
767.678223,0.000000,-444.123565,9104.533087
767.678539,153.219100,-888.247130,9770.718434
767.678855,0.000000,-592.164754,8882.471304
767.679171,0.000000,-814.226536,9178.553681
767.679486,-306.438199,296.082377,8956.491898
767.679802,-153.219100,962.267725,8068.244768
767.680118,689.485948,296.082377,8438.347739
767.680434,153.219100,-0.000000,9104.533087
767.680750,0.000000,-962.267725,9178.553681
767.681065,153.219100,-1258.350101,9770.718434
767.681381,0.000000,-0.000000,9104.533087
767.681697,383.047749,-74.020594,9252.574275
767.682013,995.924147,-370.102971,9696.697840
767.682328,842.705048,74.020594,8586.388927
767.682644,306.438199,-222.061783,9326.594869
767.682960,-229.828649,592.164754,9252.574275
767.683276,459.657299,518.144159,8734.430116
767.683592,1225.752797,-0.000000,9252.574275
767.683907,1378.971896,-0.000000,9326.594869
767.684223,689.485948,-814.226536,9844.739029
767.684539,459.657299,-1406.391290,10362.883188
767.684855,306.438199,-222.061783,9252.574275
767.685170,1072.533697,-296.082377,9400.615463
767.685486,1072.533697,-370.102971,10584.944971
767.685802,536.266849,-666.185348,9548.656652
767.686118,459.657299,-1258.350101,10807.006753
767.686433,766.095498,-518.144159,9992.780217
767.686749,1225.752797,370.102971,8882.471304
767.687065,1149.143247,740.205942,8364.327145
767.687381,1302.362347,-0.000000,9622.677246
767.687697,995.924147,-740.205942,9326.594869
767.688012,1072.533697,-962.267725,10584.944971
767.688328,459.657299,-666.185348,9770.718434
767.688644,306.438199,-222.061783,9252.574275
767.688960,689.485948,-222.061783,9918.759623
767.689275,306.438199,-666.185348,10288.862594
767.689591,0.000000,-740.205942,10584.944971
767.689907,-153.219100,-0.000000,10510.924376
767.690223,-306.438199,-0.000000,9326.594869
767.690538,-459.657299,-148.041188,9474.636058
767.690854,383.047749,-1480.411884,10732.986159
767.691170,383.047749,-2220.617826,10436.903782
767.691486,-306.438199,-1850.514855,11325.150913
767.691802,153.219100,-1332.370696,10881.027347
767.692117,536.266849,-148.041188,9178.553681
767.692433,1532.190996,-0.000000,8956.491898
767.692749,1915.238745,-222.061783,9326.594869
767.693065,1762.019645,370.102971,9548.656652
767.693380,1685.410096,370.102971,9178.553681
767.693696,1225.752797,-0.000000,7476.080014
767.694012,919.314598,-74.020594,7772.162391
767.694328,1072.533697,-370.102971,9030.512492
767.694643,1608.800546,-2072.576638,8660.409521
767.694959,0.000000,-2072.576638,9326.594869
767.695275,-1608.800546,-2664.741391,9992.780217
767.695591,-1302.362347,-2812.782580,9548.656652
767.695907,-1762.019645,-1998.556043,9918.759623
767.696222,-2451.505594,-2368.659014,10288.862594
767.696538,-1532.190996,-2072.576638,9844.739029
767.696854,-1838.629195,-3182.885551,9844.739029
767.697170,-2374.896044,-2368.659014,9474.636058
767.697485,-1149.143247,-1036.288319,8290.306550
767.697801,-766.095498,-1258.350101,7698.141797
767.698117,-689.485948,-1184.329507,8734.430116
767.698433,-612.876398,-1406.391290,8290.306550
767.698749,-459.657299,-2368.659014,9474.636058
767.699064,-1378.971896,-1406.391290,8438.347739
767.699380,-1149.143247,-814.226536,8512.368333
767.699696,-612.876398,-888.247130,9252.574275
767.700012,-536.266849,-518.144159,8290.306550
767.700327,-1455.581446,-888.247130,9104.533087
767.700643,-1915.238745,-1406.391290,9918.759623
767.700959,-1991.848295,-1480.411884,9030.512492
767.701275,-2068.457845,-1406.391290,8586.388927
767.701590,-2528.115143,-1924.535449,9770.718434
767.701906,-2451.505594,-2738.761985,9992.780217
767.702222,-2681.334243,-3701.029710,10584.944971
767.702538,-2911.162892,-3108.864956,10955.047942
767.702854,-2757.943793,-2294.638420,9622.677246
767.703169,-2451.505594,-2072.576638,9770.718434
767.703485,-1991.848295,-1332.370696,9844.739029
767.703801,-1532.190996,-1332.370696,9548.656652
767.704117,-383.047749,-2368.659014,10140.821405
767.704432,-306.438199,-2368.659014,9548.656652
767.704748,-842.705048,-1628.453072,8290.306550
767.705064,76.609550,-2220.617826,8956.491898
767.705380,0.000000,-1406.391290,8882.471304
767.705695,0.000000,-74.020594,8438.347739
767.706011,612.876398,-1480.411884,9178.553681
767.706327,-229.828649,-1628.453072,9104.533087
767.706643,-1915.238745,-1110.308913,9548.656652
767.706959,-1225.752797,-3182.885551,9992.780217
767.707274,-1991.848295,-2442.679609,10436.903782
767.707590,-2987.772442,-1406.391290,10807.006753
767.707906,-2145.067394,-1998.556043,11103.089130
767.708222,-2604.724693,-2516.700203,10362.883188
767.708537,-3600.648841,-2220.617826,11177.109724
767.708853,-3524.039291,-2368.659014,10955.047942
767.709169,-2681.334243,-1924.535449,9844.739029
767.709485,-2451.505594,-962.267725,9918.759623
767.709800,-2145.067394,-518.144159,9326.594869
767.710116,-1455.581446,-1554.432478,8808.450710
767.710432,-842.705048,-1924.535449,9030.512492
767.710748,-1455.581446,-2294.638420,9178.553681
767.711064,-919.314598,-2442.679609,9400.615463
767.711379,-383.047749,-2516.700203,9622.677246
767.711695,-689.485948,-1406.391290,8734.430116
767.712011,-1455.581446,-1036.288319,9178.553681
767.712327,-1225.752797,-1258.350101,9030.512492
767.712642,-1685.410096,-1702.473667,8956.491898
767.712958,-1915.238745,-2072.576638,9326.594869
767.713274,-1915.238745,-2516.700203,9622.677246
767.713590,-1991.848295,-2516.700203,9178.553681
767.713906,-1915.238745,-2664.741391,9400.615463
767.714221,-2298.286494,-3404.947333,9474.636058
767.714537,-2757.943793,-3108.864956,8956.491898
767.714853,-3217.601092,-3108.864956,9178.553681
767.715169,-2987.772442,-3182.885551,9770.718434
767.715484,-2451.505594,-3330.926739,9918.759623
767.715800,-2221.676944,-3552.988522,9844.739029
767.716116,-2757.943793,-3256.906145,9918.759623
767.716432,-1991.848295,-3552.988522,10288.862594
767.716747,-1302.362347,-2960.823768,9992.780217
767.717063,-1455.581446,-1850.514855,9696.697840
767.717379,-1149.143247,-222.061783,8734.430116
767.717695,383.047749,-74.020594,8068.244768
767.718011,766.095498,-740.205942,7920.203579
767.718326,612.876398,-1184.329507,7476.080014
767.718642,612.876398,-1406.391290,7550.100608
767.718958,612.876398,-1702.473667,8068.244768
767.719274,0.000000,-1998.556043,8586.388927
767.719589,-459.657299,-2146.597232,9104.533087
767.719905,-1608.800546,-1480.411884,9178.553681
767.720221,-2681.334243,-1332.370696,9400.615463
767.720537,-3140.991542,-2368.659014,10066.800811
767.720852,-3447.429741,-3330.926739,10362.883188
767.721168,-3600.648841,-3330.926739,10510.924376
767.721484,-3677.258390,-3923.091493,11325.150913
767.721800,-3524.039291,-4367.215058,11843.295072
767.722116,-3447.429741,-3701.029710,11251.130318
767.722432,-2681.334243,-3182.885551,11103.089130
767.722747,-2068.457845,-2294.638420,10140.821405
767.723063,-1608.800546,-592.164754,9104.533087
767.723379,-536.266849,-0.000000,7994.224174
767.723695,689.485948,148.041188,7254.018232
767.724011,1762.019645,444.123565,6883.915261
767.724326,1762.019645,-370.102971,7031.956449
767.724642,1378.971896,-1776.494261,8068.244768
767.724958,0.000000,-3108.864956,8808.450710
767.725274,-1225.752797,-3108.864956,9918.759623
767.725590,-2221.676944,-2960.823768,11103.089130
767.725905,-2757.943793,-2738.761985,11991.336260
767.726221,-3677.258390,-2442.679609,12065.356855
767.726537,-3907.087040,-2516.700203,11547.212695
767.726853,-3830.477490,-2294.638420,10658.965565
767.727169,-3217.601092,-1850.514855,9844.739029
767.727484,-2834.553343,-1850.514855,9474.636058
767.727800,-2374.896044,-2442.679609,9474.636058
767.728116,-1838.629195,-3034.844362,9178.553681
767.728432,-2145.067394,-4219.173869,9474.636058
767.728748,-2451.505594,-3997.112087,10066.800811
767.729063,-2298.286494,-4367.215058,9918.759623
767.729379,-1302.362347,-3923.091493,10584.944971
767.729695,-1532.190996,-2886.803174,10584.944971
767.730011,-919.314598,-2146.597232,9992.780217
767.730327,0.000000,-1258.350101,9326.594869
767.730643,76.609550,-740.205942,8512.368333
767.730958,229.828649,-222.061783,7920.203579
767.731274,306.438199,-222.061783,7402.059420
767.731590,76.609550,-666.185348,7254.018232
767.731906,-612.876398,-1332.370696,7624.121203
767.732222,-1072.533697,-2664.741391,8290.306550
767.732537,-1915.238745,-4367.215058,8808.450710
767.732853,-2681.334243,-4737.318029,9770.718434
767.733169,-3140.991542,-4811.338623,10436.903782
767.733485,-3830.477490,-4811.338623,11251.130318
767.733801,-4366.744339,-4515.256246,11547.212695
767.734116,-4213.525239,-4071.132681,11769.274478
767.734432,-3983.696590,-3330.926739,11325.150913
767.734748,-3370.820191,-2294.638420,10362.883188
767.735064,-2298.286494,-1628.453072,9474.636058
767.735380,-919.314598,-1184.329507,8660.409521
767.735695,0.000000,-592.164754,7624.121203
767.736011,1149.143247,-0.000000,6513.812290
767.736327,1302.362347,-0.000000,6069.688724
767.736643,1455.581446,-296.082377,6365.771101
767.736959,1302.362347,-1480.411884,6587.832884
767.737274,536.266849,-1628.453072,7328.038826
767.737590,-383.047749,-2368.659014,8512.368333
767.737906,-1838.629195,-3627.009116,10066.800811
767.738222,-3677.258390,-4811.338623,11177.109724
767.738538,-4596.572988,-5107.421000,12213.398043
767.738854,-5362.668486,-5181.441594,12805.562797
767.739169,-4903.011187,-4589.276840,12953.603985
767.739485,-4903.011187,-3404.947333,12657.521608
767.739801,-3983.696590,-2146.597232,11399.171507
767.740117,-1762.019645,-962.267725,9474.636058
767.740433,-766.095498,-296.082377,8512.368333
767.740748,1072.533697,-0.000000,7476.080014
767.741064,2298.286494,-0.000000,6365.771101
767.741380,3140.991542,-74.020594,5773.606348
767.741696,3907.087040,-148.041188,5995.668130
767.742012,3600.648841,-296.082377,6587.832884
767.742327,2298.286494,-1184.329507,7772.162391
767.742643,919.314598,-2146.597232,9326.594869
767.742959,-612.876398,-2812.782580,10214.842000
767.743275,-2298.286494,-2812.782580,11399.171507
767.743591,-3370.820191,-2664.741391,11769.274478
767.743906,-4060.306139,-2220.617826,12509.480420
767.744222,-4366.744339,-2294.638420,11991.336260
767.744538,-4366.744339,-2738.761985,11621.233289
767.744854,-4290.134789,-2442.679609,11325.150913
767.745170,-3983.696590,-2886.803174,10140.821405
767.745485,-3370.820191,-2738.761985,9622.677246
767.745801,-2528.115143,-2368.659014,9326.594869
767.746117,-1149.143247,-2294.638420,8734.430116
767.746433,-1302.362347,-1628.453072,8068.244768
767.746749,-1072.533697,-1480.411884,8438.347739
767.747065,-919.314598,-2072.576638,8660.409521
767.747380,-1072.533697,-2368.659014,8956.491898
767.747696,-1532.190996,-2368.659014,9844.739029
767.748012,-1532.190996,-2220.617826,9918.759623
767.748328,-1455.581446,-1184.329507,10140.821405
767.748644,-2221.676944,-1332.370696,10288.862594
767.748959,-2145.067394,-1480.411884,10362.883188
767.749275,-2068.457845,-2072.576638,10066.800811
767.749591,-2068.457845,-1924.535449,9548.656652
767.749907,-1762.019645,-2442.679609,9400.615463
767.750223,-1838.629195,-2886.803174,9400.615463
767.750538,-919.314598,-3330.926739,9030.512492
767.750854,-1302.362347,-2960.823768,9252.574275
767.751170,-1302.362347,-2812.782580,9030.512492
767.751486,-995.924147,-3330.926739,9030.512492
767.751802,-1685.410096,-3256.906145,9622.677246
767.752117,-1225.752797,-2812.782580,9696.697840
767.752433,-1608.800546,-2294.638420,9770.718434
767.752749,-766.095498,-1776.494261,9622.677246
767.753065,-536.266849,-1036.288319,9252.574275
767.753381,0.000000,-962.267725,8808.450710
767.753696,306.438199,-814.226536,8364.327145
767.754012,1149.143247,-1036.288319,7994.224174
767.754328,1302.362347,-1036.288319,7476.080014
767.754644,1378.971896,-1332.370696,7402.059420
767.754960,842.705048,-1628.453072,7550.100608
767.755275,459.657299,-2590.720797,8364.327145
767.755591,-306.438199,-2516.700203,8882.471304
767.755907,-1149.143247,-2960.823768,9622.677246
767.756223,-2221.676944,-2738.761985,10362.883188
767.756539,-2757.943793,-2442.679609,10584.944971
767.756855,-2987.772442,-1924.535449,10510.924376
767.757170,-2757.943793,-1110.308913,10584.944971
767.757486,-2681.334243,-518.144159,10066.800811
767.757802,-1915.238745,-222.061783,9474.636058
767.758118,-1302.362347,-740.205942,9178.553681
767.758434,-612.876398,-1036.288319,8882.471304
767.758749,-229.828649,-1184.329507,8882.471304
767.759065,0.000000,-962.267725,8586.388927
767.759381,0.000000,-1036.288319,8512.368333
767.759697,-766.095498,-1406.391290,9326.594869
767.760013,-383.047749,-1554.432478,9104.533087
767.760328,-1225.752797,-1998.556043,9474.636058
767.760644,-2221.676944,-2368.659014,9918.759623
767.760960,-2681.334243,-2516.700203,10288.862594
767.761276,-3447.429741,-2812.782580,10658.965565
767.761592,-3983.696590,-2812.782580,11103.089130
767.761907,-4366.744339,-2738.761985,10955.047942
767.762223,-4596.572988,-2886.803174,11029.068536
767.762539,-4290.134789,-3552.988522,10288.862594
767.762855,-4519.963438,-3923.091493,10362.883188
767.763171,-3677.258390,-4071.132681,10362.883188
767.763486,-3140.991542,-4145.153275,9770.718434
767.763802,-2374.896044,-3997.112087,9548.656652
767.764118,-1685.410096,-3701.029710,9104.533087
767.764434,-1532.190996,-3775.050304,9030.512492
767.764750,-1225.752797,-3701.029710,9178.553681
767.765066,-1608.800546,-3701.029710,9178.553681
767.765381,-1685.410096,-3701.029710,9548.656652
767.765697,-1915.238745,-3775.050304,9992.780217
767.766013,-2068.457845,-3701.029710,9844.739029
767.766329,-1915.238745,-3478.967927,9918.759623
767.766645,-1991.848295,-3330.926739,9622.677246
767.766960,-1915.238745,-3552.988522,9474.636058
767.767276,-1762.019645,-2886.803174,9400.615463
767.767592,-1072.533697,-2886.803174,9178.553681
767.767908,-612.876398,-2368.659014,8364.327145
767.768224,-612.876398,-2368.659014,7846.182985
767.768539,-229.828649,-2072.576638,7846.182985
767.768855,-459.657299,-2368.659014,7772.162391
767.769171,-766.095498,-2590.720797,7698.141797
767.769487,-1072.533697,-2738.761985,8142.265362
767.769803,-1838.629195,-3182.885551,8660.409521
767.770118,-2451.505594,-3552.988522,9252.574275
767.770434,-3294.210641,-3478.967927,9918.759623
767.770750,-3370.820191,-3330.926739,10214.842000
767.771066,-3370.820191,-3330.926739,10436.903782
767.771382,-2987.772442,-3701.029710,10436.903782
767.771697,-2374.896044,-3775.050304,10214.842000
767.772013,-2145.067394,-3182.885551,9992.780217
767.772329,-1302.362347,-2368.659014,9474.636058
767.772645,-306.438199,-1702.473667,8660.409521
767.772961,459.657299,-592.164754,7476.080014
767.773277,842.705048,296.082377,7254.018232
767.773592,1455.581446,592.164754,6957.935855
767.773908,1915.238745,444.123565,6587.832884
767.774224,1685.410096,-0.000000,6661.853478
767.774540,842.705048,-888.247130,7476.080014
767.774856,0.000000,-1628.453072,8364.327145
767.775171,-1532.190996,-2664.741391,9622.677246
767.775487,-2451.505594,-3627.009116,11103.089130
767.775803,-3370.820191,-4367.215058,12583.501014
767.776119,-4136.915689,-4737.318029,13545.768739
767.776435,-4673.182538,-4441.235652,13545.768739
767.776750,-3983.696590,-3404.947333,13027.624579
767.777066,-3217.601092,-1702.473667,11695.253884
767.777382,-1991.848295,-0.000000,10066.800811
767.777698,-383.047749,1110.308913,8734.430116
767.778014,919.314598,1554.432478,7328.038826
767.778329,1532.190996,1776.494261,6069.688724
767.778645,1685.410096,1332.370696,5699.585753
767.778961,1685.410096,592.164754,6365.771101
767.779277,919.314598,-962.267725,7772.162391
767.779593,306.438199,-2146.597232,9474.636058
767.779908,-1685.410096,-2960.823768,10658.965565
767.780224,-3294.210641,-4145.153275,12435.459826
767.780540,-4213.525239,-3627.009116,13323.706956
767.780856,-4749.792088,-2960.823768,13027.624579
767.781172,-4673.182538,-2368.659014,12805.562797
767.781488,-4213.525239,-1184.329507,11991.336260
767.781803,-4213.525239,-666.185348,10732.986159
767.782119,-3294.210641,-592.164754,9474.636058
767.782435,-2068.457845,-888.247130,8586.388927
767.782751,-1455.581446,-1628.453072,8586.388927
767.783067,-842.705048,-2294.638420,8364.327145
767.783382,-1072.533697,-2146.597232,7994.224174
767.783698,-1149.143247,-2220.617826,8438.347739
767.784014,-995.924147,-1776.494261,8660.409521
767.784330,-995.924147,-1406.391290,8586.388927
767.784646,-1685.410096,-2072.576638,8808.450710
767.784961,-2451.505594,-1998.556043,9474.636058
767.785277,-2528.115143,-2812.782580,9992.780217
767.785593,-2298.286494,-4145.153275,10584.944971
767.785909,-3064.381992,-3701.029710,11251.130318
767.786225,-3983.696590,-3404.947333,10881.027347
767.786540,-3600.648841,-2960.823768,10362.883188
767.786856,-2987.772442,-2812.782580,10362.883188
767.787172,-2298.286494,-2812.782580,9918.759623
767.787488,-1762.019645,-2368.659014,8438.347739
767.787804,-1378.971896,-2368.659014,7105.977043
767.788119,-536.266849,-3034.844362,6957.935855
767.788435,383.047749,-4219.173869,7698.141797
767.788751,-306.438199,-3552.988522,7698.141797
767.789067,-1149.143247,-3478.967927,8882.471304
767.789383,-1225.752797,-4145.153275,9474.636058
767.789699,-1608.800546,-3923.091493,9918.759623
767.790014,-2068.457845,-2664.741391,10140.821405
767.790330,-1838.629195,-1850.514855,9622.677246
767.790646,-995.924147,-1776.494261,9474.636058
767.790962,-229.828649,-2442.679609,9104.533087
767.791278,0.000000,-2368.659014,8660.409521
767.791593,76.609550,-1776.494261,8142.265362
767.791909,0.000000,-2146.597232,7920.203579
767.792225,-153.219100,-2516.700203,7698.141797
767.792541,-153.219100,-3108.864956,8216.285956
767.792857,-612.876398,-3627.009116,8808.450710
767.793172,-1072.533697,-3997.112087,9252.574275
767.793488,-2298.286494,-4293.194464,9992.780217
767.793804,-2451.505594,-4145.153275,10510.924376
767.794120,-2451.505594,-3108.864956,10658.965565
767.794436,-2834.553343,-2294.638420,10732.986159
767.794751,-1915.238745,-74.020594,9844.739029
767.795067,-1532.190996,-222.061783,9252.574275
767.795383,-689.485948,-888.247130,9030.512492
767.795699,-459.657299,-1406.391290,9104.533087
767.796015,153.219100,-1184.329507,8586.388927
767.796330,919.314598,-962.267725,8290.306550
767.796646,842.705048,-888.247130,8142.265362
767.796962,0.000000,-666.185348,7624.121203
767.797278,229.828649,-1628.453072,8216.285956
767.797594,-536.266849,-2146.597232,8660.409521
767.797910,-2298.286494,-1998.556043,9770.718434
767.798225,-3600.648841,-2664.741391,10510.924376
767.798541,-4060.306139,-2812.782580,11325.150913
767.798857,-4903.011187,-1924.535449,12287.418637
767.799173,-4903.011187,-1702.473667,12213.398043
767.799489,-4290.134789,-1924.535449,12139.377449
767.799804,-4596.572988,-1332.370696,11399.171507
767.800120,-3830.477490,-518.144159,10658.965565
767.800436,-1991.848295,-222.061783,9548.656652
767.800752,-842.705048,-0.000000,8660.409521
767.801068,153.219100,814.226536,7920.203579
767.801383,1225.752797,1036.288319,6587.832884
767.801699,1915.238745,444.123565,6513.812290
767.802015,1302.362347,148.041188,8882.471304
767.802331,229.828649,-1036.288319,9252.574275
767.802647,0.000000,-1332.370696,9400.615463
767.802962,-1532.190996,-1036.288319,10288.862594
767.803278,-2451.505594,-1702.473667,11399.171507
767.803594,-2987.772442,-2146.597232,11991.336260
767.803910,-3830.477490,-1406.391290,12731.542202
767.804226,-3677.258390,-592.164754,11843.295072
767.804541,-2451.505594,-296.082377,10881.027347
767.804857,-1149.143247,-0.000000,9326.594869
767.805173,-766.095498,-444.123565,9770.718434
767.805489,383.047749,-592.164754,9178.553681
767.805805,1225.752797,-888.247130,8364.327145
767.806121,1378.971896,-148.041188,7846.182985
767.806436,2681.334243,-0.000000,8216.285956
767.806752,2528.115143,-148.041188,7179.997637
767.807068,2298.286494,-148.041188,8512.368333
767.807384,1532.190996,-1036.288319,9622.677246
767.807700,1378.971896,-962.267725,9548.656652
767.808015,383.047749,666.185348,9696.697840
767.808331,766.095498,444.123565,9400.615463
767.808647,1302.362347,370.102971,10140.821405
767.808963,842.705048,-74.020594,9918.759623
767.809279,-383.047749,-740.205942,9252.574275
767.809594,-842.705048,-1850.514855,10066.800811
767.809910,-459.657299,-1702.473667,9844.739029
767.810226,0.000000,-1110.308913,8956.491898
767.810542,306.438199,-814.226536,9696.697840
767.810858,383.047749,-1184.329507,9474.636058
767.811173,0.000000,-1702.473667,8512.368333
767.811489,-76.609550,-1406.391290,9474.636058
767.811805,0.000000,-1406.391290,9104.533087
767.812121,766.095498,-814.226536,8956.491898
767.812437,1149.143247,-1036.288319,10362.883188
767.812752,1225.752797,-740.205942,9696.697840
767.813068,612.876398,148.041188,9178.553681
767.813384,1225.752797,-962.267725,9400.615463
767.813700,1072.533697,-222.061783,8586.388927
767.814016,1915.238745,-444.123565,8882.471304
767.814331,2451.505594,-1110.308913,9992.780217
767.814647,2221.676944,-0.000000,7772.162391
767.814963,1608.800546,-74.020594,7846.182985
767.815279,1378.971896,-370.102971,8142.265362
767.815595,1225.752797,-0.000000,7328.038826
767.815911,919.314598,-888.247130,8734.430116
767.816226,-229.828649,-1924.535449,10362.883188
767.816542,-1532.190996,-2072.576638,10140.821405
767.816858,-2221.676944,-2146.597232,11177.109724
767.817174,-2145.067394,-1554.432478,11029.068536
767.817490,-2451.505594,-518.144159,10436.903782
767.817805,-1455.581446,-444.123565,11177.109724
767.818121,-1378.971896,-0.000000,10510.924376
767.818437,-766.095498,222.061783,9548.656652
767.818753,383.047749,-0.000000,9548.656652
767.819069,1302.362347,1036.288319,7920.203579
767.819384,1915.238745,666.185348,7328.038826
767.819700,2528.115143,-222.061783,8956.491898
767.820016,2145.067394,-444.123565,9030.512492
767.820332,1685.410096,-74.020594,8364.327145
767.820648,919.314598,296.082377,8882.471304
767.820963,612.876398,222.061783,9030.512492
767.821279,76.609550,-0.000000,9474.636058
767.821595,-536.266849,-814.226536,11325.150913
767.821911,-2068.457845,-370.102971,11695.253884
767.822227,-1991.848295,-962.267725,11251.130318
767.822542,-1838.629195,-296.082377,10584.944971
767.822858,-1378.971896,-296.082377,9770.718434
767.823174,-1225.752797,-1258.350101,11029.068536
767.823490,-689.485948,-1480.411884,10732.986159
767.823805,-995.924147,-962.267725,9104.533087
767.824121,229.828649,-740.205942,10140.821405
767.824437,1225.752797,-148.041188,9104.533087
767.824753,2145.067394,-0.000000,8586.388927
767.825068,2451.505594,-0.000000,9548.656652
767.825384,2145.067394,740.205942,9104.533087
767.825700,1915.238745,1554.432478,8438.347739
767.826016,1608.800546,1998.556043,8438.347739
767.826331,1838.629195,1036.288319,7476.080014
767.826647,1532.190996,148.041188,10584.944971
767.826963,842.705048,-1332.370696,10732.986159
767.827278,0.000000,-962.267725,10658.965565
767.827594,-229.828649,-666.185348,11029.068536
767.827910,459.657299,-592.164754,10362.883188
767.828226,229.828649,740.205942,8882.471304
767.828541,842.705048,-0.000000,10658.965565
767.828857,995.924147,296.082377,9030.512492
767.829173,919.314598,814.226536,7994.224174
767.829489,1072.533697,370.102971,9178.553681
767.829804,1378.971896,-0.000000,7846.182985
767.830120,1532.190996,-666.185348,8512.368333
767.830436,1378.971896,-1184.329507,9326.594869
767.830752,842.705048,-740.205942,9622.677246
767.831067,689.485948,-888.247130,9992.780217
767.831383,766.095498,-148.041188,9400.615463
767.831699,306.438199,888.247130,8882.471304
767.832015,842.705048,-592.164754,9844.739029
767.832330,1225.752797,-814.226536,9622.677246
767.832646,383.047749,592.164754,9474.636058
767.832962,919.314598,-0.000000,8734.430116
767.833278,842.705048,666.185348,7550.100608
767.833593,536.266849,888.247130,8068.244768
767.833909,689.485948,-148.041188,9326.594869
767.834225,153.219100,-222.061783,9104.533087
767.834541,-995.924147,-296.082377,9104.533087
767.834856,-766.095498,-888.247130,9992.780217
767.835172,-383.047749,-740.205942,9992.780217
767.835488,0.000000,-740.205942,9992.780217
767.835803,-1302.362347,-740.205942,11177.109724
767.836119,-1302.362347,-592.164754,10214.842000
767.836435,-306.438199,-0.000000,9770.718434
767.836751,0.000000,1110.308913,9326.594869
767.837066,229.828649,962.267725,8956.491898
767.837382,842.705048,-666.185348,9918.759623
767.837698,612.876398,-1110.308913,9622.677246
767.838014,459.657299,-296.082377,9474.636058
767.838329,1072.533697,592.164754,9474.636058
767.838645,1455.581446,814.226536,8438.347739
767.838961,1455.581446,444.123565,8438.347739
767.839277,1532.190996,-74.020594,10140.821405
767.839592,536.266849,-296.082377,8956.491898
767.839908,-76.609550,-222.061783,9770.718434
767.840224,0.000000,-740.205942,10214.842000
767.840540,-459.657299,-1184.329507,9992.780217
767.840855,-612.876398,-1332.370696,11251.130318
767.841171,-766.095498,-1258.350101,11177.109724
767.841487,-1302.362347,-1480.411884,10288.862594
767.841803,-612.876398,-740.205942,11177.109724
767.842118,229.828649,370.102971,9400.615463
767.842434,536.266849,-0.000000,8882.471304
767.842750,1838.629195,-1258.350101,11473.192101
767.843066,306.438199,-740.205942,9104.533087
767.843381,689.485948,148.041188,8512.368333
767.843697,2145.067394,148.041188,9104.533087
767.844013,1762.019645,814.226536,8660.409521
767.844329,1685.410096,-0.000000,8660.409521
767.844644,1302.362347,-740.205942,9918.759623
767.844960,689.485948,-1036.288319,9400.615463
767.845276,153.219100,-1110.308913,10214.842000
767.845591,919.314598,-518.144159,9622.677246
767.845907,1225.752797,-296.082377,9104.533087
767.846223,766.095498,-666.185348,10436.903782
767.846539,536.266849,-518.144159,9400.615463
767.846854,306.438199,-1036.288319,8734.430116
767.847170,612.876398,-740.205942,9030.512492
767.847486,842.705048,-74.020594,8216.285956
767.847802,1149.143247,-888.247130,8290.306550
767.848117,1149.143247,-1406.391290,9548.656652
767.848433,153.219100,-1258.350101,8216.285956
767.848749,229.828649,-1184.329507,8956.491898
767.849065,536.266849,-592.164754,9252.574275
767.849380,306.438199,-0.000000,8290.306550
767.849696,612.876398,-0.000000,8882.471304
767.850012,536.266849,-592.164754,9548.656652
767.850328,-459.657299,-370.102971,8586.388927
767.850643,-842.705048,-148.041188,9992.780217
767.850959,0.000000,370.102971,9104.533087
767.851275,-153.219100,1036.288319,7254.018232
767.851591,-306.438199,222.061783,9844.739029
767.851906,0.000000,-518.144159,10066.800811
767.852222,-612.876398,-148.041188,9326.594869
767.852538,-459.657299,-148.041188,9992.780217
767.852854,0.000000,444.123565,9326.594869
767.853169,76.609550,-74.020594,9030.512492
767.853485,153.219100,-148.041188,10066.800811
767.853801,-612.876398,-0.000000,9844.739029
767.854116,-383.047749,666.185348,9844.739029
767.854432,0.000000,1702.473667,8808.450710
767.854748,76.609550,1702.473667,8216.285956
767.855064,459.657299,-0.000000,10510.924376
767.855379,1072.533697,-148.041188,10510.924376
767.855695,0.000000,222.061783,9770.718434
767.856011,306.438199,148.041188,10140.821405
767.856327,995.924147,666.185348,9770.718434
767.856642,842.705048,962.267725,8882.471304
767.856958,842.705048,370.102971,10732.986159
767.857274,536.266849,148.041188,9622.677246
767.857590,0.000000,518.144159,10214.842000
767.857905,383.047749,1110.308913,9844.739029
767.858221,76.609550,1258.350101,9178.553681
767.858537,612.876398,-740.205942,10584.944971
767.858853,0.000000,-1036.288319,10807.006753
767.859168,-536.266849,-444.123565,10362.883188
767.859484,229.828649,-444.123565,10362.883188
767.859800,612.876398,296.082377,9548.656652
767.860116,229.828649,222.061783,9548.656652
767.860431,1149.143247,-1036.288319,11029.068536
767.860747,612.876398,-0.000000,9548.656652
767.861063,306.438199,814.226536,9178.553681
767.861379,919.314598,370.102971,9474.636058
767.861694,1532.190996,-0.000000,8290.306550
767.862010,1149.143247,-74.020594,8882.471304
767.862326,1685.410096,-888.247130,10288.862594
767.862642,766.095498,-1554.432478,9474.636058
767.862957,1072.533697,-1702.473667,10288.862594
767.863273,612.876398,-296.082377,9696.697840
767.863589,1455.581446,-0.000000,8882.471304
767.863904,995.924147,-740.205942,10510.924376
767.864220,306.438199,-592.164754,10140.821405
767.864536,306.438199,-0.000000,9104.533087
767.864852,1149.143247,296.082377,8882.471304
767.865167,1455.581446,814.226536,7550.100608
767.865483,1762.019645,-222.061783,8734.430116
767.865799,1685.410096,-1554.432478,9178.553681
767.866115,919.314598,-1776.494261,9104.533087
767.866430,459.657299,-1110.308913,9178.553681
767.866746,1149.143247,-592.164754,8882.471304
767.867062,383.047749,-148.041188,8068.244768
767.867378,536.266849,-592.164754,9474.636058
767.867693,229.828649,-962.267725,9622.677246
767.868009,-536.266849,-888.247130,8808.450710
767.868325,-459.657299,-296.082377,9104.533087
767.868641,-229.828649,-370.102971,8586.388927
767.868956,76.609550,-518.144159,8290.306550
767.869272,0.000000,-740.205942,9918.759623
767.869588,-612.876398,-888.247130,9326.594869
767.869904,-766.095498,-888.247130,9030.512492
767.870219,0.000000,-666.185348,9770.718434
767.870535,0.000000,370.102971,8734.430116
767.870851,306.438199,296.082377,9104.533087
767.871167,0.000000,-666.185348,9474.636058
767.871482,-612.876398,296.082377,9326.594869
767.871798,153.219100,666.185348,9326.594869
767.872114,459.657299,740.205942,8142.265362
767.872429,153.219100,296.082377,8512.368333
767.872745,306.438199,-962.267725,10288.862594
767.873061,-383.047749,-1184.329507,10140.821405
767.873377,-766.095498,-592.164754,9770.718434
767.873692,-383.047749,-74.020594,10288.862594
767.874008,306.438199,888.247130,9178.553681
767.874324,76.609550,962.267725,9326.594869
767.874640,229.828649,222.061783,10288.862594
767.874955,459.657299,-74.020594,9178.553681
767.875271,76.609550,-74.020594,9548.656652
767.875587,612.876398,296.082377,9548.656652
767.875903,1072.533697,-148.041188,8882.471304
767.876218,1072.533697,-740.205942,10584.944971
767.876534,459.657299,-962.267725,10807.006753
767.876850,0.000000,-74.020594,9696.697840
767.877166,306.438199,296.082377,10140.821405
