#time,accel_x,accel_y,accel_z
574.542874,1685.410096,1184.329507,8956.491898
574.543190,1762.019645,814.226536,9474.636058
574.543506,2068.457845,1258.350101,9400.615463
574.543821,1838.629195,962.267725,9400.615463
574.544137,1685.410096,1036.288319,9474.636058
574.544453,2068.457845,666.185348,9770.718434
574.544769,1532.190996,740.205942,9326.594869
574.545084,1302.362347,1258.350101,9548.656652
574.545400,1225.752797,518.144159,9400.615463
574.545716,1225.752797,740.205942,9474.636058
574.546032,995.924147,518.144159,9326.594869
574.546347,459.657299,148.041188,9474.636058
574.546663,612.876398,-0.000000,9474.636058
574.546979,229.828649,-592.164754,9696.697840
574.547295,383.047749,-888.247130,10214.842000
574.547610,0.000000,-1332.370696,10140.821405
574.547926,766.095498,-1110.308913,10584.944971
574.548242,383.047749,-592.164754,10362.883188
574.548558,1072.533697,-0.000000,9770.718434
574.548873,1532.190996,666.185348,9770.718434
574.549189,2068.457845,888.247130,9178.553681
574.549505,2834.553343,1406.391290,8808.450710
574.549820,3677.258390,1628.453072,8216.285956
574.550136,4443.353888,1924.535449,7846.182985
574.550452,4903.011187,1850.514855,7920.203579
574.550768,4826.401637,1628.453072,8142.265362
574.551083,4826.401637,1036.288319,8142.265362
574.551399,4519.963438,1628.453072,8290.306550
574.551715,4136.915689,1628.453072,8438.347739
574.552031,3447.429741,1110.308913,9326.594869
574.552346,3217.601092,592.164754,9844.739029
574.552662,2374.896044,1184.329507,9992.780217
574.552978,2068.457845,666.185348,10214.842000
574.553294,1302.362347,888.247130,10214.842000
574.553609,1072.533697,1258.350101,10362.883188
574.553925,1532.190996,814.226536,10140.821405
574.554241,1608.800546,1850.514855,9770.718434
574.554557,1608.800546,1850.514855,9400.615463
574.554872,2298.286494,1850.514855,9178.553681
574.555188,2374.896044,1628.453072,9030.512492
574.555504,2911.162892,1406.391290,9252.574275
574.555819,3140.991542,1628.453072,9178.553681
574.556135,3064.381992,1554.432478,9400.615463
574.556451,2987.772442,1628.453072,9696.697840
574.556767,3064.381992,2072.576638,9918.759623
574.557082,2604.724693,1628.453072,10066.800811
574.557398,2604.724693,2072.576638,9918.759623
574.557714,2451.505594,1850.514855,9770.718434
574.558030,2374.896044,2146.597232,9918.759623
574.558345,2374.896044,1998.556043,9918.759623
574.558661,1991.848295,2146.597232,9770.718434
574.558977,1838.629195,2220.617826,9548.656652
574.559293,1378.971896,2146.597232,9696.697840
574.559608,1685.410096,1924.535449,9696.697840
574.559924,1455.581446,1554.432478,9622.677246
574.560240,1225.752797,1554.432478,9548.656652
574.560556,1225.752797,888.247130,9844.739029
574.560871,1302.362347,518.144159,9844.739029
574.561187,1072.533697,370.102971,10066.800811
574.561503,842.705048,-0.000000,10066.800811
574.561819,229.828649,666.185348,10214.842000
574.562134,76.609550,740.205942,10214.842000
574.562450,-153.219100,962.267725,9844.739029
574.562766,-306.438199,888.247130,9844.739029
574.563081,-229.828649,1184.329507,9252.574275
574.563397,-536.266849,1036.288319,9178.553681
574.563713,0.000000,740.205942,8882.471304
574.564029,-383.047749,592.164754,9030.512492
574.564344,-459.657299,296.082377,8734.430116
574.564660,-689.485948,-296.082377,9178.553681
574.564976,-1302.362347,-962.267725,9548.656652
574.565292,-1915.238745,-1332.370696,9696.697840
574.565607,-2374.896044,-1924.535449,10140.821405
574.565923,-2451.505594,-2146.597232,10807.006753
574.566239,-2834.553343,-1776.494261,10510.924376
574.566555,-2221.676944,-1702.473667,10510.924376
574.566870,-2221.676944,-1702.473667,10436.903782
574.567186,-1838.629195,-1554.432478,10066.800811
574.567502,-1072.533697,-814.226536,9474.636058
574.567818,-536.266849,-666.185348,9030.512492
574.568133,229.828649,-296.082377,8438.347739
574.568449,1149.143247,-222.061783,8068.244768
574.568765,1685.410096,-74.020594,7920.203579
574.569080,1838.629195,-518.144159,7624.121203
574.569396,1838.629195,-740.205942,7698.141797
574.569712,1915.238745,-1036.288319,7920.203579
574.570028,1225.752797,-1406.391290,8586.388927
574.570343,1072.533697,-1406.391290,9178.553681
574.570659,-153.219100,-1850.514855,9474.636058
574.570975,-536.266849,-2368.659014,9992.780217
574.571291,-1302.362347,-2368.659014,10510.924376
574.571606,-1608.800546,-2368.659014,10732.986159
574.571922,-1685.410096,-2146.597232,10658.965565
574.572238,-1378.971896,-2146.597232,10140.821405
574.572554,-689.485948,-1850.514855,9622.677246
574.572869,76.609550,-1480.411884,9326.594869
574.573185,766.095498,-1332.370696,8586.388927
574.573501,689.485948,-1480.411884,8586.388927
574.573817,1915.238745,-1258.350101,8290.306550
574.574132,2221.676944,-1110.308913,8512.368333
574.574448,2451.505594,-814.226536,8808.450710
574.574764,1915.238745,-296.082377,8882.471304
574.575079,2298.286494,-592.164754,9400.615463
574.575395,2298.286494,-592.164754,9770.718434
574.575711,1915.238745,-518.144159,9992.780217
574.576027,2068.457845,-0.000000,9992.780217
574.576342,1915.238745,296.082377,9696.697840
574.576658,2451.505594,740.205942,9696.697840
574.576974,2374.896044,1110.308913,9104.533087
574.577290,2221.676944,1184.329507,9030.512492
574.577605,2374.896044,1110.308913,8438.347739
574.577921,2604.724693,1110.308913,8512.368333
574.578237,2298.286494,518.144159,8512.368333
574.578553,1838.629195,222.061783,8956.491898
574.578868,1378.971896,444.123565,9474.636058
574.579184,689.485948,-0.000000,9770.718434
574.579500,153.219100,-148.041188,10214.842000
574.579816,-842.705048,148.041188,10658.965565
574.580131,-1072.533697,370.102971,10584.944971
574.580447,-1455.581446,740.205942,10732.986159
574.580763,-1225.752797,962.267725,10288.862594
574.581078,-766.095498,1702.473667,10066.800811
574.581394,-689.485948,1554.432478,9696.697840
574.581710,-612.876398,1184.329507,9474.636058
574.582026,-459.657299,962.267725,9178.553681
574.582341,-229.828649,814.226536,9326.594869
574.582657,-995.924147,444.123565,9548.656652
574.582973,-229.828649,888.247130,9696.697840
574.583289,-459.657299,592.164754,9770.718434
574.583604,-689.485948,444.123565,10214.842000
574.583920,-689.485948,444.123565,10584.944971
574.584236,-612.876398,592.164754,10510.924376
574.584552,-536.266849,962.267725,10214.842000
574.584867,-536.266849,1628.453072,10140.821405
574.585183,0.000000,2220.617826,9696.697840
574.585499,229.828649,2368.659014,9326.594869
574.585814,306.438199,1702.473667,8882.471304
574.586130,612.876398,1924.535449,8438.347739
574.586446,1149.143247,1406.391290,8438.347739
574.586762,766.095498,740.205942,8586.388927
574.587077,383.047749,-0.000000,8956.491898
574.587393,153.219100,-222.061783,9474.636058
574.587709,-229.828649,-592.164754,9770.718434
574.588025,-995.924147,-888.247130,10140.821405
574.588340,-1455.581446,-1036.288319,10658.965565
574.588656,-1762.019645,-518.144159,10955.047942
574.588972,-2145.067394,-518.144159,10436.903782
574.589288,-1991.848295,-518.144159,10436.903782
574.589603,-1685.410096,-370.102971,9844.739029
574.589919,-1072.533697,-370.102971,9252.574275
574.590235,-306.438199,-370.102971,9104.533087
574.590551,0.000000,-1332.370696,9104.533087
574.590866,383.047749,-1554.432478,9030.512492
574.591182,612.876398,-1554.432478,8956.491898
574.591498,1225.752797,-1702.473667,8882.471304
574.591813,1532.190996,-2294.638420,9474.636058
574.592129,1838.629195,-1924.535449,9696.697840
574.592445,1915.238745,-1776.494261,9844.739029
574.592761,1838.629195,-1184.329507,9696.697840
574.593076,2145.067394,-592.164754,9474.636058
574.593392,2221.676944,-148.041188,8882.471304
574.593708,2451.505594,-0.000000,8660.409521
574.594024,2528.115143,444.123565,8438.347739
574.594339,2451.505594,-0.000000,8142.265362
574.594655,2911.162892,-296.082377,8216.285956
574.594971,2451.505594,-1036.288319,8586.388927
574.595287,2221.676944,-1184.329507,8882.471304
574.595602,2145.067394,-1480.411884,8734.430116
574.595918,1608.800546,-1628.453072,9326.594869
574.596234,995.924147,-2294.638420,9696.697840
574.596549,383.047749,-2220.617826,9844.739029
574.596865,0.000000,-2072.576638,10362.883188
574.597181,0.000000,-1480.411884,10140.821405
574.597497,-229.828649,-962.267725,9844.739029
574.597812,-459.657299,-666.185348,9696.697840
574.598128,-612.876398,-148.041188,9400.615463
574.598444,0.000000,-0.000000,9104.533087
574.598760,229.828649,-518.144159,9030.512492
574.599075,306.438199,-1036.288319,8808.450710
574.599391,919.314598,-1184.329507,9178.553681
574.599707,995.924147,-888.247130,9104.533087
574.600023,1225.752797,-888.247130,9474.636058
574.600338,1302.362347,-814.226536,9400.615463
574.600654,1532.190996,-592.164754,10066.800811
574.600970,1225.752797,-518.144159,9770.718434
574.601286,842.705048,-74.020594,9696.697840
574.601601,842.705048,296.082377,9548.656652
574.601917,919.314598,962.267725,9400.615463
574.602233,919.314598,1258.350101,9252.574275
574.602548,536.266849,1332.370696,8808.450710
574.602864,459.657299,888.247130,8956.491898
574.603180,229.828649,370.102971,8882.471304
574.603496,0.000000,-74.020594,9252.574275
574.603811,-383.047749,-370.102971,9326.594869
574.604127,-612.876398,-592.164754,9844.739029
574.604443,-689.485948,-888.247130,10362.883188
574.604759,-1225.752797,-518.144159,10584.944971
574.605074,-1532.190996,-888.247130,10510.924376
574.605390,-1532.190996,-296.082377,10288.862594
574.605706,-1762.019645,370.102971,10066.800811
574.606022,-1455.581446,888.247130,9992.780217
574.606337,-1455.581446,1110.308913,9474.636058
574.606653,-1225.752797,1332.370696,9400.615463
574.606969,-612.876398,1110.308913,9326.594869
574.607284,-383.047749,444.123565,9326.594869
574.607600,-306.438199,148.041188,9252.574275
574.607916,0.000000,-0.000000,9326.594869
574.608232,76.609550,-148.041188,9696.697840
574.608547,383.047749,-444.123565,9992.780217
574.608863,766.095498,-148.041188,10288.862594
574.609179,1072.533697,-0.000000,10140.821405
574.609495,1225.752797,296.082377,9770.718434
574.609810,1532.190996,1184.329507,9548.656652
574.610126,2068.457845,1628.453072,9178.553681
574.610442,2451.505594,1998.556043,8956.491898
574.610758,2528.115143,2220.617826,8438.347739
574.611073,2834.553343,1924.535449,8068.244768
574.611389,2987.772442,1036.288319,8216.285956
574.611705,2604.724693,814.226536,8438.347739
574.612021,2145.067394,222.061783,8882.471304
574.612336,1608.800546,-0.000000,9252.574275
574.612652,1455.581446,-1184.329507,9844.739029
574.612968,612.876398,-962.267725,10288.862594
574.613283,0.000000,-1332.370696,10732.986159
574.613599,-459.657299,-1480.411884,11029.068536
574.613915,-536.266849,-888.247130,10732.986159
574.614231,-536.266849,-222.061783,10510.924376
574.614546,0.000000,-0.000000,9696.697840
574.614862,-306.438199,-0.000000,9474.636058
574.615178,76.609550,-0.000000,9178.553681
574.615494,766.095498,-296.082377,8956.491898
574.615809,1149.143247,-592.164754,9104.533087
574.616125,919.314598,-666.185348,9104.533087
574.616441,1072.533697,-666.185348,9178.553681
574.616757,1532.190996,-666.185348,9400.615463
574.617072,1532.190996,-888.247130,9622.677246
574.617388,1149.143247,-962.267725,10140.821405
574.617704,1302.362347,-814.226536,9992.780217
574.618020,1378.971896,-740.205942,9696.697840
574.618335,1455.581446,-0.000000,9326.594869
574.618651,1608.800546,370.102971,8956.491898
574.618967,1915.238745,666.185348,8734.430116
574.619282,1302.362347,740.205942,8586.388927
574.619598,1225.752797,296.082377,8364.327145
574.619914,842.705048,-370.102971,8364.327145
574.620230,229.828649,-740.205942,8734.430116
574.620545,0.000000,-1776.494261,9104.533087
574.620861,-689.485948,-1850.514855,9548.656652
574.621177,-919.314598,-1776.494261,10140.821405
574.621493,-1302.362347,-2368.659014,10436.903782
574.621808,-1838.629195,-2368.659014,10732.986159
574.622124,-1762.019645,-1998.556043,10140.821405
574.622440,-1762.019645,-1110.308913,9770.718434
574.622756,-1532.190996,-666.185348,9622.677246
574.623071,-1378.971896,-296.082377,8956.491898
574.623387,-919.314598,-148.041188,8808.450710
574.623703,-536.266849,-592.164754,8882.471304
574.624018,-306.438199,-666.185348,8364.327145
574.624334,-459.657299,-962.267725,8808.450710
574.624650,0.000000,-1110.308913,9030.512492
574.624966,0.000000,-1258.350101,9400.615463
574.625281,76.609550,-1406.391290,9770.718434
574.625597,0.000000,-1184.329507,10214.842000
574.625913,0.000000,-1036.288319,10362.883188
574.626229,383.047749,-666.185348,10288.862594
574.626544,995.924147,296.082377,9918.759623
574.626860,1302.362347,962.267725,9400.615463
574.627176,1072.533697,1332.370696,9030.512492
574.627492,1608.800546,1924.535449,8290.306550
574.627807,1685.410096,1628.453072,7994.224174
574.628123,2221.676944,1036.288319,7994.224174
574.628439,1532.190996,814.226536,8290.306550
574.628755,1072.533697,296.082377,8808.450710
574.629070,995.924147,-0.000000,9104.533087
574.629386,459.657299,-740.205942,9844.739029
574.629702,-612.876398,-1036.288319,10881.027347
574.630017,-842.705048,-1110.308913,10881.027347
574.630333,-919.314598,-888.247130,11103.089130
574.630649,-1149.143247,-518.144159,10584.944971
574.630965,-842.705048,148.041188,10140.821405
574.631280,-612.876398,1110.308913,9918.759623
574.631596,-153.219100,1184.329507,9474.636058
574.631912,0.000000,814.226536,9104.533087
574.632228,612.876398,444.123565,9030.512492
574.632543,766.095498,-0.000000,8956.491898
574.632859,766.095498,222.061783,9400.615463
574.633175,995.924147,-74.020594,9474.636058
574.633491,1302.362347,-0.000000,9548.656652
574.633806,1302.362347,-0.000000,10140.821405
574.634122,1302.362347,-148.041188,10510.924376
574.634438,1532.190996,-0.000000,10362.883188
574.634753,1685.410096,740.205942,9918.759623
574.635069,2145.067394,1628.453072,9696.697840
574.635385,2221.676944,2072.576638,9400.615463
574.635701,1991.848295,2072.576638,9178.553681
574.636016,1915.238745,2220.617826,8512.368333
574.636332,1762.019645,1332.370696,8290.306550
574.636648,1685.410096,666.185348,8512.368333
574.636964,1149.143247,-0.000000,9104.533087
574.637279,536.266849,-222.061783,9474.636058
574.637595,536.266849,-740.205942,9770.718434
574.637911,0.000000,-1184.329507,10214.842000
574.638227,-995.924147,-1628.453072,10881.027347
574.638542,-1149.143247,-1702.473667,10658.965565
574.638858,-1455.581446,-962.267725,10658.965565
574.639174,-1608.800546,-666.185348,10140.821405
574.639490,-1455.581446,-444.123565,9844.739029
574.639805,-1302.362347,-74.020594,9622.677246
574.640121,-995.924147,-148.041188,9252.574275
574.640437,-536.266849,-592.164754,8734.430116
574.640752,-306.438199,-740.205942,8586.388927
574.641068,-153.219100,-962.267725,8956.491898
574.641384,153.219100,-1110.308913,9178.553681
574.641700,383.047749,-1702.473667,9326.594869
574.642015,536.266849,-1406.391290,9622.677246
574.642331,689.485948,-1332.370696,9992.780217
574.642647,459.657299,-1258.350101,10214.842000
574.642963,459.657299,-814.226536,10140.821405
574.643278,842.705048,-0.000000,9474.636058
574.643594,995.924147,592.164754,9104.533087
574.643910,1378.971896,962.267725,8438.347739
574.644226,1608.800546,1184.329507,8068.244768
574.644541,1915.238745,518.144159,7624.121203
574.644857,1685.410096,-0.000000,7994.224174
574.645173,1455.581446,-222.061783,8216.285956
574.645488,995.924147,-666.185348,8734.430116
574.645804,766.095498,-1110.308913,8956.491898
574.646120,766.095498,-1776.494261,9474.636058
574.646436,0.000000,-2072.576638,9992.780217
574.646751,-459.657299,-2146.597232,10510.924376
574.647067,-1072.533697,-1776.494261,10510.924376
574.647383,-1302.362347,-1554.432478,10288.862594
574.647699,-919.314598,-1036.288319,10066.800811
574.648014,-689.485948,-370.102971,9770.718434
574.648330,-612.876398,-74.020594,9474.636058
574.648646,-153.219100,-444.123565,8882.471304
574.648962,612.876398,-444.123565,9030.512492
574.649277,842.705048,-740.205942,9326.594869
574.649593,612.876398,-666.185348,9326.594869
574.649909,1225.752797,-740.205942,9104.533087
574.650225,1532.190996,-740.205942,9548.656652
574.650540,1762.019645,-666.185348,9992.780217
574.650856,1608.800546,-518.144159,10362.883188
574.651172,1762.019645,222.061783,10066.800811
574.651487,1762.019645,518.144159,9474.636058
574.651803,2068.457845,1406.391290,9178.553681
574.652119,2068.457845,1850.514855,8586.388927
574.652435,2221.676944,1850.514855,8882.471304
574.652750,1762.019645,1628.453072,8512.368333
574.653066,1608.800546,1332.370696,8734.430116
574.653382,1455.581446,740.205942,8808.450710
574.653698,1149.143247,370.102971,9548.656652
574.654013,689.485948,-222.061783,9474.636058
574.654329,306.438199,-518.144159,10066.800811
574.654645,0.000000,-666.185348,10732.986159
574.654961,-612.876398,-888.247130,10881.027347
574.655276,-1225.752797,-814.226536,11029.068536
574.655592,-1149.143247,-666.185348,10658.965565
574.655908,-842.705048,148.041188,10140.821405
574.656224,-766.095498,740.205942,9918.759623
574.656539,-612.876398,962.267725,9474.636058
574.656855,-383.047749,888.247130,9326.594869
574.657171,0.000000,444.123565,8956.491898
574.657486,229.828649,222.061783,9252.574275
574.657802,383.047749,-0.000000,9622.677246
574.658118,306.438199,-296.082377,9474.636058
574.658434,919.314598,-148.041188,9992.780217
574.658749,766.095498,-888.247130,10140.821405
574.659065,1072.533697,-296.082377,10288.862594
574.659381,842.705048,-148.041188,10436.903782
574.659697,995.924147,666.185348,10066.800811
574.660012,1378.971896,962.267725,9696.697840
574.660328,1685.410096,1702.473667,9326.594869
574.660644,1608.800546,1850.514855,8734.430116
574.660960,1762.019645,1924.535449,8216.285956
574.661275,2068.457845,1406.391290,8216.285956
574.661591,2298.286494,518.144159,8216.285956
574.661907,1532.190996,370.102971,8438.347739
574.662222,1378.971896,-148.041188,8734.430116
574.662538,1225.752797,-444.123565,9104.533087
574.662854,536.266849,-814.226536,9622.677246
574.663170,0.000000,-1480.411884,9918.759623
574.663485,-842.705048,-1480.411884,10807.006753
574.663801,-1149.143247,-1036.288319,10732.986159
574.664117,-1532.190996,-814.226536,9992.780217
574.664433,-1378.971896,-444.123565,10066.800811
574.664748,-1149.143247,-444.123565,10140.821405
574.665064,-1455.581446,-222.061783,9400.615463
574.665380,-842.705048,-296.082377,9178.553681
574.665696,-306.438199,-888.247130,9030.512492
574.666011,-153.219100,-962.267725,9104.533087
574.666327,229.828649,-1184.329507,9030.512492
574.666643,536.266849,-1036.288319,9178.553681
574.666959,1072.533697,-962.267725,9548.656652
574.667274,1302.362347,-814.226536,9696.697840
574.667590,1608.800546,-962.267725,9844.739029
574.667906,1685.410096,-148.041188,9844.739029
574.668221,1762.019645,444.123565,9326.594869
574.668537,1762.019645,962.267725,8956.491898
574.668853,1991.848295,1036.288319,8660.409521
574.669169,2068.457845,1258.350101,8512.368333
574.669484,1915.238745,740.205942,8068.244768
574.669800,1685.410096,222.061783,8290.306550
574.670116,995.924147,-370.102971,8808.450710
574.670432,612.876398,-1184.329507,9400.615463
574.670748,306.438199,-1554.432478,9548.656652
574.671063,0.000000,-1924.535449,10436.903782
574.671379,-919.314598,-2072.576638,10807.006753
574.671695,-1072.533697,-2072.576638,10732.986159
574.672011,-1532.190996,-1924.535449,10955.047942
574.672326,-1838.629195,-1184.329507,10510.924376
574.672642,-1378.971896,-1036.288319,9770.718434
574.672958,-1149.143247,-814.226536,9548.656652
574.673274,-1149.143247,-296.082377,9178.553681
574.673589,-459.657299,-444.123565,9104.533087
574.673905,0.000000,-740.205942,8660.409521
574.674221,0.000000,-814.226536,9030.512492
574.674537,306.438199,-1184.329507,9400.615463
574.674853,766.095498,-1110.308913,9178.553681
574.675168,842.705048,-1110.308913,9474.636058
574.675484,842.705048,-962.267725,9992.780217
574.675800,1149.143247,-888.247130,9992.780217
574.676116,995.924147,-222.061783,10214.842000
574.676431,1378.971896,296.082377,9474.636058
574.676747,1608.800546,1036.288319,9178.553681
574.677063,1455.581446,1184.329507,9030.512492
574.677379,1302.362347,1628.453072,8364.327145
574.677694,1455.581446,1554.432478,8438.347739
574.678010,1762.019645,1110.308913,7994.224174
574.678326,1455.581446,666.185348,8364.327145
574.678642,842.705048,-0.000000,9178.553681
574.678958,689.485948,-222.061783,9104.533087
574.679273,459.657299,-518.144159,9622.677246
574.679589,0.000000,-1110.308913,9918.759623
574.679905,-612.876398,-1480.411884,10362.883188
574.680221,-1072.533697,-1258.350101,10881.027347
574.680536,-1225.752797,-518.144159,10436.903782
574.680852,-995.924147,-0.000000,9844.739029
574.681168,-919.314598,296.082377,9770.718434
574.681484,-842.705048,444.123565,9474.636058
574.681799,-536.266849,370.102971,9252.574275
574.682115,-459.657299,222.061783,8956.491898
574.682431,76.609550,-0.000000,9104.533087
574.682747,153.219100,-296.082377,9326.594869
574.683063,459.657299,-296.082377,9400.615463
574.683378,842.705048,-370.102971,9474.636058
574.683694,1072.533697,-222.061783,9918.759623
574.684010,995.924147,-222.061783,10066.800811
574.684326,995.924147,-0.000000,10140.821405
574.684641,919.314598,296.082377,9992.780217
574.684957,1455.581446,962.267725,9474.636058
574.685273,1608.800546,1628.453072,9400.615463
574.685589,1608.800546,1924.535449,8882.471304
574.685905,1532.190996,1776.494261,8364.327145
574.686220,1685.410096,1184.329507,8438.347739
574.686536,1302.362347,740.205942,8586.388927
574.686852,842.705048,518.144159,8882.471304
574.687168,612.876398,-74.020594,9326.594869
574.687483,229.828649,-592.164754,9622.677246
574.687799,-229.828649,-740.205942,10066.800811
574.688115,-766.095498,-1554.432478,10510.924376
574.688431,-1149.143247,-1406.391290,11029.068536
574.688746,-1532.190996,-1110.308913,10807.006753
574.689062,-1072.533697,-1110.308913,10288.862594
574.689378,-1455.581446,-296.082377,10362.883188
574.689694,-1149.143247,-148.041188,9992.780217
574.690010,-766.095498,-0.000000,9326.594869
574.690325,-306.438199,-148.041188,9326.594869
574.690641,0.000000,-222.061783,8882.471304
574.690957,0.000000,-518.144159,8956.491898
574.691273,383.047749,-1036.288319,9400.615463
574.691588,612.876398,-962.267725,9474.636058
574.691904,842.705048,-814.226536,9622.677246
574.692220,842.705048,-888.247130,10066.800811
574.692536,1072.533697,-962.267725,9918.759623
574.692851,995.924147,-518.144159,9844.739029
574.693167,1302.362347,-0.000000,9474.636058
574.693483,1915.238745,814.226536,9252.574275
574.693799,1915.238745,962.267725,8882.471304
574.694115,1915.238745,1110.308913,8364.327145
574.694430,1838.629195,962.267725,8142.265362
574.694746,1915.238745,518.144159,8216.285956
574.695062,1378.971896,-222.061783,8438.347739
574.695378,1302.362347,-592.164754,8956.491898
574.695693,1225.752797,-962.267725,8956.491898
574.696009,612.876398,-1110.308913,9400.615463
574.696325,76.609550,-1628.453072,9918.759623
574.696641,0.000000,-2146.597232,10362.883188
574.696956,-919.314598,-1628.453072,10140.821405
574.697272,-1149.143247,-1184.329507,10066.800811
574.697588,-1072.533697,-888.247130,9770.718434
574.697904,-919.314598,-518.144159,9548.656652
574.698220,-995.924147,-0.000000,9548.656652
574.698535,-536.266849,-370.102971,9030.512492
574.698851,0.000000,-518.144159,9030.512492
574.699167,229.828649,-518.144159,8882.471304
574.699483,383.047749,-740.205942,9326.594869
574.699798,1072.533697,-962.267725,9030.512492
574.700114,1302.362347,-814.226536,9326.594869
574.700430,1378.971896,-444.123565,9844.739029
574.700746,1455.581446,-518.144159,9844.739029
574.701062,1838.629195,-296.082377,9770.718434
574.701377,1455.581446,370.102971,9696.697840
574.701693,1532.190996,962.267725,9178.553681
574.702009,1838.629195,1480.411884,9104.533087
574.702325,1838.629195,1628.453072,8956.491898
574.702640,1915.238745,1628.453072,8734.430116
574.702956,1532.190996,1406.391290,8660.409521
574.703272,1225.752797,962.267725,8512.368333
574.703588,919.314598,370.102971,9252.574275
574.703903,306.438199,-148.041188,9474.636058
574.704219,153.219100,-518.144159,9844.739029
574.704535,0.000000,-888.247130,10362.883188
574.704851,-612.876398,-1258.350101,10881.027347
574.705167,-995.924147,-1258.350101,11029.068536
574.705482,-1149.143247,-888.247130,10732.986159
574.705798,-689.485948,-148.041188,10066.800811
574.706114,-842.705048,222.061783,10140.821405
574.706430,-766.095498,666.185348,9770.718434
574.706745,-689.485948,-0.000000,9326.594869
574.707061,-306.438199,296.082377,9326.594869
574.707377,0.000000,-518.144159,9178.553681
574.707693,229.828649,-222.061783,9400.615463
574.708008,536.266849,-592.164754,9548.656652
574.708324,766.095498,-518.144159,9770.718434
574.708640,995.924147,-444.123565,10140.821405
574.708956,1072.533697,-666.185348,10362.883188
574.709272,995.924147,-592.164754,10140.821405
574.709587,919.314598,444.123565,9992.780217
574.709903,1302.362347,962.267725,9252.574275
574.710219,1838.629195,1406.391290,9400.615463
574.710535,1838.629195,1480.411884,8882.471304
574.710850,2145.067394,1702.473667,8216.285956
574.711166,2451.505594,1480.411884,8216.285956
574.711482,1991.848295,962.267725,8142.265362
574.711798,1991.848295,370.102971,8512.368333
574.712114,919.314598,-0.000000,8882.471304
574.712429,766.095498,-444.123565,9104.533087
574.712745,229.828649,-592.164754,9622.677246
574.713061,-153.219100,-1184.329507,10362.883188
574.713377,-383.047749,-1776.494261,10584.944971
574.713692,-1225.752797,-1480.411884,10658.965565
574.714008,-1149.143247,-1036.288319,10140.821405
574.714324,-1149.143247,-444.123565,9992.780217
574.714640,-1072.533697,-518.144159,9696.697840
574.714955,-459.657299,-592.164754,9178.553681
574.715271,-689.485948,-518.144159,8956.491898
574.715587,0.000000,-518.144159,9030.512492
574.715903,0.000000,-814.226536,8882.471304
574.716219,383.047749,-814.226536,8956.491898
574.716534,459.657299,-1554.432478,8956.491898
574.716850,1149.143247,-888.247130,9326.594869
574.717166,1532.190996,-1036.288319,9622.677246
574.717482,1455.581446,-740.205942,9770.718434
574.717797,1532.190996,-518.144159,9622.677246
574.718113,1685.410096,-0.000000,9400.615463
574.718429,1378.971896,740.205942,9178.553681
574.718745,1685.410096,962.267725,8808.450710
574.719060,1608.800546,962.267725,8438.347739
574.719376,1608.800546,962.267725,8512.368333
574.719692,1532.190996,148.041188,8512.368333
574.720008,995.924147,-222.061783,8512.368333
574.720324,153.219100,-814.226536,9178.553681
574.720639,0.000000,-1184.329507,9770.718434
574.720955,-459.657299,-1628.453072,9992.780217
574.721271,-919.314598,-1924.535449,10510.924376
574.721587,-1532.190996,-2072.576638,11029.068536
574.721902,-1455.581446,-1776.494261,10955.047942
574.722218,-1455.581446,-1332.370696,10732.986159
574.722534,-1378.971896,-740.205942,9992.780217
574.722850,-995.924147,-296.082377,9770.718434
574.723165,-842.705048,-222.061783,9326.594869
574.723481,-306.438199,-0.000000,9104.533087
574.723797,76.609550,-370.102971,8734.430116
574.724113,76.609550,-740.205942,9104.533087
574.724429,689.485948,-592.164754,9178.553681
574.724744,383.047749,-814.226536,9104.533087
574.725060,842.705048,-888.247130,9548.656652
574.725376,766.095498,-814.226536,9918.759623
574.725692,1072.533697,-740.205942,10288.862594
574.726007,919.314598,-370.102971,10140.821405
574.726323,995.924147,222.061783,9992.780217
574.726639,1302.362347,888.247130,9548.656652
574.726955,1225.752797,1184.329507,9326.594869
574.727271,1685.410096,1406.391290,8882.471304
574.727586,1302.362347,1776.494261,8438.347739
574.727902,1608.800546,1258.350101,8290.306550
574.728218,1608.800546,814.226536,8364.327145
574.728534,1072.533697,518.144159,8734.430116
574.728849,1149.143247,-370.102971,8956.491898
574.729165,842.705048,-444.123565,9030.512492
574.729481,383.047749,-518.144159,9622.677246
574.729797,-153.219100,-1110.308913,10362.883188
574.730112,-919.314598,-1554.432478,10584.944971
574.730428,-919.314598,-814.226536,10436.903782
574.730744,-1149.143247,-148.041188,10214.842000
574.731060,-995.924147,222.061783,9992.780217
574.731376,-766.095498,444.123565,9622.677246
574.731691,-919.314598,666.185348,9474.636058
574.732007,-383.047749,-0.000000,8956.491898
574.732323,0.000000,-74.020594,8956.491898
574.732639,306.438199,-296.082377,9252.574275
574.732954,76.609550,-222.061783,9252.574275
574.733270,842.705048,-296.082377,9622.677246
574.733586,995.924147,-370.102971,9770.718434
574.733902,1149.143247,-370.102971,10066.800811
574.734217,1072.533697,-222.061783,10066.800811
574.734533,1149.143247,-0.000000,9622.677246
574.734849,1378.971896,1036.288319,9474.636058
574.735165,1685.410096,1554.432478,9326.594869
574.735481,1915.238745,1924.535449,8882.471304
574.735796,1685.410096,1998.556043,8660.409521
574.736112,1685.410096,1406.391290,8142.265362
574.736428,1532.190996,1036.288319,8290.306550
574.736744,995.924147,370.102971,8734.430116
574.737059,612.876398,-0.000000,9400.615463
574.737375,459.657299,-814.226536,9474.636058
574.737691,0.000000,-814.226536,10066.800811
574.738007,-689.485948,-1628.453072,10658.965565
574.738322,-1225.752797,-1554.432478,10807.006753
574.738638,-1532.190996,-1184.329507,10881.027347
574.738954,-1685.410096,-888.247130,10362.883188
574.739270,-1378.971896,-592.164754,9844.739029
574.739586,-1149.143247,-0.000000,9844.739029
574.739901,-919.314598,-0.000000,9474.636058
574.740217,-383.047749,-74.020594,9104.533087
574.740533,-76.609550,-222.061783,9178.553681
574.740849,536.266849,-666.185348,9178.553681
574.741164,842.705048,-740.205942,9326.594869
574.741480,766.095498,-888.247130,9326.594869
574.741796,842.705048,-740.205942,9770.718434
574.742112,1149.143247,-666.185348,9992.780217
574.742428,1149.143247,-444.123565,10214.842000
574.742743,1072.533697,-370.102971,10066.800811
574.743059,1455.581446,222.061783,9696.697840
574.743375,1378.971896,592.164754,9252.574275
574.743691,1915.238745,1036.288319,9104.533087
574.744006,1455.581446,1258.350101,8808.450710
574.744322,1991.848295,1110.308913,8438.347739
574.744638,2068.457845,518.144159,7920.203579
574.744954,1532.190996,-0.000000,8364.327145
574.745269,1302.362347,-370.102971,8882.471304
574.745585,1072.533697,-888.247130,9104.533087
574.745901,612.876398,-1184.329507,9548.656652
574.746217,76.609550,-1480.411884,10066.800811
574.746533,-383.047749,-1998.556043,10510.924376
574.746848,-766.095498,-1850.514855,10732.986159
574.747164,-919.314598,-1406.391290,10881.027347
574.747480,-1378.971896,-740.205942,9918.759623
574.747796,-1149.143247,-518.144159,9770.718434
574.748111,-995.924147,-444.123565,9548.656652
574.748427,-612.876398,-444.123565,9178.553681
574.748743,0.000000,-592.164754,9178.553681
574.749059,153.219100,-666.185348,8956.491898
574.749374,306.438199,-814.226536,9326.594869
574.749690,689.485948,-740.205942,9252.574275
574.750006,1072.533697,-962.267725,9326.594869
574.750322,1225.752797,-666.185348,9548.656652
574.750638,1149.143247,-740.205942,9844.739029
574.750953,1378.971896,-296.082377,9696.697840
574.751269,1608.800546,148.041188,9474.636058
574.751585,1149.143247,592.164754,9104.533087
574.751901,1762.019645,1110.308913,8808.450710
574.752216,1762.019645,1554.432478,8660.409521
574.752532,1762.019645,1480.411884,8364.327145
574.752848,1455.581446,962.267725,8290.306550
574.753164,1302.362347,814.226536,8808.450710
574.753479,306.438199,-296.082377,8956.491898
574.753795,76.609550,-444.123565,9326.594869
574.754111,0.000000,-962.267725,9548.656652
574.754427,-689.485948,-1110.308913,10288.862594
574.754743,-1225.752797,-1776.494261,10955.047942
574.755058,-1225.752797,-1184.329507,10807.006753
574.755374,-1608.800546,-740.205942,10584.944971
574.755690,-1225.752797,-296.082377,10066.800811
574.756006,-1455.581446,-74.020594,9770.718434
574.756321,-536.266849,-0.000000,9622.677246
574.756637,-766.095498,296.082377,9178.553681
574.756953,0.000000,148.041188,9178.553681
574.757269,383.047749,-0.000000,8882.471304
574.757585,383.047749,-222.061783,9326.594869
574.757900,766.095498,-518.144159,9474.636058
574.758216,919.314598,-666.185348,9548.656652
574.758532,919.314598,-444.123565,9844.739029
574.758848,766.095498,-592.164754,10436.903782
574.759163,689.485948,-444.123565,10584.944971
574.759479,1302.362347,222.061783,10436.903782
574.759795,1225.752797,444.123565,9696.697840
574.760111,1608.800546,1702.473667,9696.697840
574.760426,1838.629195,1702.473667,8882.471304
574.760742,2145.067394,1850.514855,8660.409521
574.761058,2068.457845,1702.473667,8216.285956
574.761374,1991.848295,740.205942,8142.265362
574.761690,1762.019645,444.123565,8586.388927
574.762005,1302.362347,-0.000000,8882.471304
574.762321,1149.143247,-518.144159,9030.512492
574.762637,306.438199,-666.185348,9548.656652
574.762953,-229.828649,-1184.329507,10288.862594
574.763268,-536.266849,-1628.453072,10658.965565
574.763584,-1149.143247,-1332.370696,10807.006753
574.763900,-1302.362347,-1110.308913,10658.965565
574.764216,-1072.533697,-666.185348,9918.759623
574.764531,-995.924147,-222.061783,9918.759623
574.764847,-1072.533697,-148.041188,9474.636058
574.765163,-306.438199,-296.082377,8956.491898
574.765479,0.000000,-666.185348,9252.574275
574.765795,306.438199,-518.144159,8956.491898
574.766110,306.438199,-814.226536,8956.491898
574.766426,919.314598,-740.205942,9030.512492
574.766742,1378.971896,-518.144159,9474.636058
574.767058,1302.362347,-296.082377,9770.718434
574.767373,1378.971896,-444.123565,9918.759623
574.767689,1532.190996,-370.102971,9696.697840
574.768005,1455.581446,-0.000000,9474.636058
574.768321,1378.971896,518.144159,9104.533087
574.768636,1915.238745,1036.288319,9030.512492
574.768952,1838.629195,1184.329507,8438.347739
574.769268,1532.190996,888.247130,8216.285956
574.769584,1302.362347,296.082377,8364.327145
574.769900,1302.362347,-0.000000,8660.409521
574.770215,383.047749,-518.144159,9104.533087
574.770531,459.657299,-962.267725,9326.594869
574.770847,-306.438199,-1406.391290,9844.739029
574.771163,-766.095498,-1628.453072,10066.800811
574.771479,-1149.143247,-2220.617826,10584.944971
574.771795,-1608.800546,-1924.535449,10584.944971
574.772110,-1532.190996,-1258.350101,10584.944971
574.772426,-1762.019645,-814.226536,9770.718434
574.772742,-1455.581446,-296.082377,9696.697840
574.773058,-995.924147,-148.041188,9548.656652
574.773374,-536.266849,-148.041188,8956.491898
574.773690,-229.828649,-222.061783,8882.471304
574.774005,0.000000,-518.144159,8882.471304
574.774321,383.047749,-888.247130,9696.697840
574.774637,459.657299,-740.205942,9326.594869
574.774953,919.314598,-962.267725,9548.656652
574.775269,919.314598,-740.205942,9918.759623
574.775585,842.705048,-814.226536,10066.800811
574.775900,766.095498,-370.102971,9844.739029
574.776216,1149.143247,296.082377,9696.697840
574.776532,1378.971896,962.267725,9104.533087
574.776848,1762.019645,1480.411884,9030.512492
574.777164,1991.848295,2220.617826,8882.471304
574.777479,1685.410096,1480.411884,8364.327145
574.777795,1991.848295,1406.391290,8068.244768
574.778111,1608.800546,962.267725,8660.409521
574.778427,1455.581446,222.061783,8734.430116
574.778743,1072.533697,-0.000000,9252.574275
574.779059,1072.533697,-518.144159,9252.574275
574.779374,76.609550,-1110.308913,9844.739029
574.779690,-459.657299,-1332.370696,10362.883188
574.780006,-919.314598,-1258.350101,10807.006753
574.780322,-1608.800546,-1110.308913,10584.944971
574.780638,-1225.752797,-518.144159,10140.821405
574.780954,-1072.533697,-148.041188,9992.780217
574.781269,-1149.143247,-0.000000,9770.718434
574.781585,-766.095498,370.102971,9548.656652
574.781901,76.609550,296.082377,9400.615463
574.782217,383.047749,-0.000000,8808.450710
574.782533,306.438199,-0.000000,9030.512492
574.782849,612.876398,-222.061783,9252.574275
574.783164,919.314598,-222.061783,9474.636058
574.783480,1302.362347,-370.102971,9548.656652
574.783796,1302.362347,-74.020594,10066.800811
574.784112,1225.752797,-74.020594,10140.821405
574.784428,1302.362347,296.082377,9992.780217
574.784744,1685.410096,814.226536,9474.636058
574.785059,1915.238745,1406.391290,9474.636058
574.785375,1532.190996,1332.370696,8956.491898
574.785691,995.924147,1628.453072,8808.450710
574.786007,1532.190996,1554.432478,8660.409521
574.786323,1225.752797,814.226536,8586.388927
574.786639,842.705048,444.123565,8808.450710
574.786954,459.657299,-296.082377,9474.636058
574.787270,76.609550,-666.185348,9696.697840
574.787586,-229.828649,-1036.288319,10066.800811
574.787902,-842.705048,-1480.411884,10584.944971
574.788218,-995.924147,-1702.473667,10510.924376
574.788534,-842.705048,-1406.391290,10362.883188
574.788849,-1302.362347,-666.185348,10066.800811
574.789165,-1149.143247,-0.000000,9918.759623
574.789481,-459.657299,-0.000000,9474.636058
574.789797,-612.876398,-0.000000,9326.594869
574.790113,-383.047749,148.041188,9030.512492
574.790429,76.609550,-296.082377,9030.512492
574.790744,229.828649,-666.185348,9030.512492
574.791060,0.000000,-962.267725,9474.636058
574.791376,383.047749,-1110.308913,9474.636058
574.791692,842.705048,-962.267725,9622.677246
574.792008,612.876398,-888.247130,10362.883188
574.792324,766.095498,-740.205942,10288.862594
574.792639,1072.533697,-518.144159,9844.739029
574.792955,995.924147,-0.000000,9622.677246
574.793271,1608.800546,740.205942,9400.615463
574.793587,1762.019645,1110.308913,8956.491898
574.793903,1838.629195,1258.350101,8364.327145
574.794219,1915.238745,1406.391290,7994.224174
574.794534,2221.676944,518.144159,7698.141797
574.794850,1915.238745,370.102971,8142.265362
574.795166,1378.971896,-222.061783,8882.471304
574.795482,1072.533697,-592.164754,8956.491898
574.795798,612.876398,-1258.350101,9474.636058
574.796114,0.000000,-1406.391290,9918.759623
574.796429,-536.266849,-1776.494261,10436.903782
574.796745,-1072.533697,-1850.514855,10658.965565
574.797061,-1302.362347,-1184.329507,10436.903782
574.797377,-1072.533697,-962.267725,10214.842000
574.797693,-842.705048,-518.144159,9918.759623
574.798009,-1072.533697,-222.061783,9474.636058
574.798324,-612.876398,-222.061783,9030.512492
574.798640,0.000000,-296.082377,8882.471304
574.798956,383.047749,-592.164754,9178.553681
574.799272,383.047749,-592.164754,9252.574275
574.799588,766.095498,-666.185348,9474.636058
574.799904,1225.752797,-814.226536,9400.615463
574.800219,1455.581446,-740.205942,9474.636058
574.800535,1225.752797,-444.123565,9992.780217
574.800851,1149.143247,-518.144159,10362.883188
574.801167,1455.581446,-0.000000,9622.677246
574.801483,1378.971896,814.226536,9326.594869
574.801799,1608.800546,1184.329507,9104.533087
574.802114,1608.800546,1554.432478,9326.594869
574.802430,1455.581446,1480.411884,8660.409521
574.802746,1455.581446,1110.308913,8512.368333
574.803062,1302.362347,518.144159,8808.450710
574.803378,306.438199,-0.000000,9104.533087
574.803694,919.314598,-666.185348,9326.594869
574.804009,306.438199,-814.226536,9474.636058
574.804325,-459.657299,-1036.288319,10140.821405
574.804641,-919.314598,-1480.411884,10584.944971
574.804957,-995.924147,-1554.432478,10658.965565
574.805273,-1149.143247,-962.267725,10436.903782
574.805589,-1072.533697,-370.102971,10140.821405
574.805904,-842.705048,-0.000000,9770.718434
574.806220,-766.095498,222.061783,9548.656652
574.806536,-842.705048,222.061783,9326.594869
574.806852,0.000000,370.102971,9252.574275
574.807168,459.657299,-0.000000,8660.409521
574.807484,229.828649,-370.102971,8956.491898
574.807799,383.047749,-370.102971,9326.594869
574.808115,766.095498,-592.164754,9696.697840
574.808431,842.705048,-740.205942,9918.759623
574.808747,995.924147,-740.205942,10140.821405
574.809063,919.314598,-444.123565,10140.821405
574.809379,842.705048,-0.000000,10214.842000
574.809694,1225.752797,592.164754,9622.677246
574.810010,1838.629195,1480.411884,9622.677246
574.810326,1762.019645,1776.494261,8808.450710
574.810642,1991.848295,1850.514855,8364.327145
574.810958,1991.848295,1628.453072,8068.244768
574.811274,2374.896044,1036.288319,8216.285956
574.811589,1685.410096,592.164754,8512.368333
574.811905,1378.971896,-0.000000,9178.553681
574.812221,1072.533697,-296.082377,9104.533087
574.812537,536.266849,-740.205942,9474.636058
574.812853,-229.828649,-1036.288319,10584.944971
574.813169,-689.485948,-1554.432478,11029.068536
574.813484,-1072.533697,-1258.350101,10658.965565
574.813800,-1302.362347,-814.226536,10362.883188
574.814116,-1378.971896,-148.041188,10140.821405
574.814432,-1225.752797,148.041188,10066.800811
574.814748,-995.924147,296.082377,9474.636058
574.815064,-612.876398,148.041188,9252.574275
574.815379,0.000000,-0.000000,9030.512492
574.815695,-229.828649,-518.144159,9252.574275
574.816011,689.485948,-0.000000,9400.615463
574.816327,919.314598,-592.164754,9326.594869
574.816643,919.314598,-666.185348,9400.615463
574.816959,1072.533697,-888.247130,9918.759623
574.817274,1455.581446,-888.247130,9992.780217
574.817590,1149.143247,-444.123565,10066.800811
574.817906,1072.533697,222.061783,9770.718434
574.818222,1532.190996,592.164754,9252.574275
574.818538,1608.800546,1184.329507,9252.574275
574.818854,1378.971896,1184.329507,9178.553681
574.819169,1532.190996,1184.329507,8660.409521
574.819485,1302.362347,814.226536,8512.368333
574.819801,842.705048,-0.000000,8808.450710
574.820117,229.828649,-296.082377,9178.553681
574.820433,0.000000,-962.267725,9474.636058
574.820749,0.000000,-1480.411884,9844.739029
574.821064,-689.485948,-1554.432478,10214.842000
574.821380,-1072.533697,-1702.473667,10658.965565
574.821696,-1455.581446,-1924.535449,10881.027347
574.822012,-1378.971896,-1258.350101,10436.903782
574.822328,-1072.533697,-666.185348,10066.800811
574.822644,-995.924147,-74.020594,9770.718434
574.822959,-689.485948,148.041188,9400.615463
574.823275,-76.609550,-0.000000,8734.430116
574.823591,0.000000,-74.020594,8586.388927
574.823907,383.047749,-444.123565,8882.471304
574.824223,229.828649,-592.164754,9104.533087
574.824539,612.876398,-962.267725,9178.553681
574.824854,383.047749,-1258.350101,9696.697840
574.825170,536.266849,-1110.308913,9918.759623
574.825486,612.876398,-888.247130,10362.883188
574.825802,995.924147,-518.144159,10214.842000
574.826118,919.314598,-0.000000,9918.759623
574.826434,1455.581446,666.185348,9326.594869
574.826749,1608.800546,1110.308913,9178.553681
574.827065,1762.019645,1480.411884,8586.388927
574.827381,1991.848295,1554.432478,8216.285956
574.827697,2374.896044,888.247130,8068.244768
574.828013,1991.848295,666.185348,8142.265362
574.828329,1532.190996,222.061783,8660.409521
574.828644,1225.752797,-148.041188,8956.491898
574.828960,995.924147,-592.164754,9178.553681
574.829276,612.876398,-1110.308913,9622.677246
574.829592,-153.219100,-1110.308913,10436.903782
574.829908,-995.924147,-1184.329507,10881.027347
574.830224,-919.314598,-888.247130,10658.965565
574.830539,-1225.752797,-518.144159,10288.862594
574.830855,-689.485948,-296.082377,9992.780217
574.831171,-689.485948,296.082377,9622.677246
574.831487,-766.095498,444.123565,9400.615463
574.831803,0.000000,444.123565,9030.512492
574.832119,306.438199,-0.000000,8882.471304
574.832434,0.000000,-666.185348,9326.594869
574.832750,919.314598,-0.000000,9252.574275
574.833066,612.876398,-222.061783,9326.594869
574.833382,1225.752797,-0.000000,9696.697840
574.833698,1302.362347,-0.000000,9992.780217
574.834014,1072.533697,-0.000000,10658.965565
574.834329,1225.752797,370.102971,10066.800811
574.834645,1302.362347,962.267725,9548.656652
574.834961,1455.581446,1258.350101,9252.574275
574.835277,1762.019645,1110.308913,9104.533087
574.835593,1072.533697,1628.453072,9030.512492
574.835909,1455.581446,1332.370696,8808.450710
574.836224,1072.533697,814.226536,8660.409521
574.836540,842.705048,222.061783,8882.471304
574.836856,459.657299,-370.102971,9400.615463
574.837172,0.000000,-592.164754,9622.677246
574.837488,-229.828649,-1184.329507,10288.862594
574.837804,-766.095498,-1480.411884,10584.944971
574.838119,-1072.533697,-1702.473667,11029.068536
574.838435,-1149.143247,-1554.432478,10658.965565
574.838751,-1225.752797,-1036.288319,10584.944971
574.839067,-766.095498,-444.123565,9770.718434
574.839383,-459.657299,-222.061783,9622.677246
574.839699,-612.876398,-0.000000,9252.574275
574.840014,0.000000,-74.020594,8882.471304
574.840330,229.828649,-444.123565,8438.347739
574.840646,229.828649,-814.226536,8734.430116
574.840962,383.047749,-962.267725,9252.574275
574.841278,842.705048,-1036.288319,9252.574275
574.841594,612.876398,-1184.329507,9474.636058
574.841909,689.485948,-814.226536,9696.697840
574.842225,536.266849,-814.226536,10214.842000
574.842541,689.485948,-888.247130,10214.842000
574.842857,689.485948,-222.061783,9548.656652
574.843173,1532.190996,222.061783,9104.533087
574.843489,1532.190996,1036.288319,9030.512492
574.843804,1608.800546,1480.411884,8512.368333
574.844120,1838.629195,1480.411884,7994.224174
574.844436,1915.238745,962.267725,7994.224174
574.844752,1608.800546,296.082377,7772.162391
574.845068,1608.800546,222.061783,8512.368333
574.845384,919.314598,-592.164754,8808.450710
574.845699,766.095498,-1036.288319,9178.553681
574.846015,76.609550,-1110.308913,9622.677246
574.846331,0.000000,-2072.576638,10436.903782
574.846647,-919.314598,-1776.494261,10732.986159
574.846963,-1302.362347,-1258.350101,10584.944971
574.847279,-1225.752797,-888.247130,10140.821405
574.847594,-1072.533697,-666.185348,9844.739029
574.847910,-1072.533697,-370.102971,9622.677246
574.848226,-536.266849,-222.061783,8882.471304
574.848542,-306.438199,-444.123565,9030.512492
574.848858,153.219100,-666.185348,8882.471304
574.849174,229.828649,-740.205942,9178.553681
574.849489,766.095498,-1110.308913,8808.450710
574.849805,995.924147,-592.164754,9474.636058
574.850121,1378.971896,-592.164754,9696.697840
574.850437,1532.190996,-666.185348,10066.800811
574.850753,1149.143247,-444.123565,9992.780217
574.851068,1991.848295,-0.000000,9770.718434
574.851384,1532.190996,592.164754,9474.636058
574.851700,1762.019645,1332.370696,9252.574275
574.852016,1532.190996,1702.473667,9030.512492
574.852332,1455.581446,1702.473667,8882.471304
574.852648,1532.190996,1406.391290,8512.368333
574.852963,1302.362347,888.247130,8586.388927
574.853279,689.485948,370.102971,9178.553681
574.853595,536.266849,-0.000000,9548.656652
574.853911,306.438199,-814.226536,9844.739029
574.854227,-383.047749,-518.144159,10807.006753
574.854543,-766.095498,-1332.370696,10881.027347
574.854858,-1072.533697,-1332.370696,10881.027347
574.855174,-995.924147,-962.267725,10732.986159
574.855490,-1455.581446,-740.205942,10214.842000
574.855806,-1072.533697,-0.000000,9918.759623
574.856122,-689.485948,-0.000000,9770.718434
574.856438,-612.876398,296.082377,9474.636058
574.856753,-153.219100,148.041188,9104.533087
574.857069,229.828649,-74.020594,9030.512492
574.857385,229.828649,-518.144159,9030.512492
574.857701,229.828649,-592.164754,9622.677246
574.858017,689.485948,-592.164754,9548.656652
574.858333,995.924147,-592.164754,9696.697840
574.858648,995.924147,-518.144159,10140.821405
574.858964,842.705048,-518.144159,10288.862594
574.859280,1149.143247,-222.061783,10140.821405
574.859596,1302.362347,444.123565,9548.656652
574.859912,1532.190996,962.267725,9326.594869
574.860228,2068.457845,1554.432478,9104.533087
574.860543,2145.067394,1776.494261,8586.388927
574.860859,2221.676944,1628.453072,7994.224174
574.861175,2068.457845,1036.288319,8142.265362
574.861491,1685.410096,296.082377,8364.327145
574.861807,1378.971896,-74.020594,9178.553681
574.862123,1072.533697,-592.164754,8956.491898
574.862438,612.876398,-888.247130,9548.656652
574.862754,0.000000,-1258.350101,9844.739029
574.863070,-536.266849,-1850.514855,10658.965565
574.863386,-1072.533697,-1850.514855,10807.006753
574.863702,-1149.143247,-1036.288319,10510.924376
574.864018,-1072.533697,-740.205942,9918.759623
574.864333,-995.924147,-222.061783,10066.800811
574.864649,-536.266849,-370.102971,9622.677246
574.864965,-842.705048,-0.000000,8956.491898
574.865281,-306.438199,-296.082377,8882.471304
574.865597,0.000000,-592.164754,8660.409521
574.865913,0.000000,-592.164754,8882.471304
574.866228,536.266849,-814.226536,8882.471304
574.866544,689.485948,-1036.288319,9326.594869
574.866860,919.314598,-1036.288319,9770.718434
574.867176,1225.752797,-740.205942,9918.759623
574.867492,1149.143247,-444.123565,9992.780217
574.867808,1302.362347,148.041188,9622.677246
574.868123,1608.800546,740.205942,9178.553681
574.868439,1532.190996,1406.391290,9104.533087
574.868755,1762.019645,1406.391290,8734.430116
574.869071,1608.800546,1554.432478,8734.430116
574.869387,1455.581446,1110.308913,8438.347739
574.869703,1608.800546,592.164754,8660.409521
574.870018,689.485948,-222.061783,8808.450710
574.870334,536.266849,-518.144159,9474.636058
574.870650,76.609550,-1258.350101,9474.636058
574.870966,-306.438199,-1258.350101,10214.842000
574.871282,-612.876398,-1554.432478,10658.965565
574.871598,-1378.971896,-1628.453072,10807.006753
574.871913,-1532.190996,-1258.350101,10658.965565
574.872229,-1378.971896,-814.226536,10140.821405
574.872545,-995.924147,-74.020594,9622.677246
574.872861,-766.095498,-0.000000,9548.656652
574.873177,-612.876398,-0.000000,9326.594869
574.873493,0.000000,-222.061783,9178.553681
574.873808,0.000000,-592.164754,9030.512492
574.874124,0.000000,-592.164754,9252.574275
574.874440,229.828649,-814.226536,9474.636058
574.874756,612.876398,-1036.288319,9474.636058
574.875072,689.485948,-962.267725,9918.759623
574.875388,919.314598,-592.164754,10362.883188
574.875703,995.924147,-370.102971,10066.800811
574.876019,919.314598,296.082377,10066.800811
574.876335,1608.800546,1036.288319,9400.615463
574.876651,1762.019645,1406.391290,9400.615463
574.876967,2374.896044,1998.556043,8882.471304
574.877283,2145.067394,1850.514855,8364.327145
574.877598,1915.238745,1554.432478,8290.306550
574.877914,1991.848295,962.267725,8290.306550
574.878230,1378.971896,444.123565,8364.327145
574.878546,1378.971896,-0.000000,9326.594869
574.878862,612.876398,-296.082377,9474.636058
574.879178,229.828649,-666.185348,9918.759623
574.879493,-459.657299,-1110.308913,10584.944971
574.879809,-766.095498,-1554.432478,10732.986159
574.880125,-1072.533697,-1184.329507,10955.047942
574.880441,-1225.752797,-222.061783,10066.800811
574.880757,-995.924147,-0.000000,9844.739029
574.881073,-995.924147,296.082377,9474.636058
574.881388,-766.095498,222.061783,9400.615463
574.881704,-306.438199,222.061783,8808.450710
574.882020,229.828649,-0.000000,8956.491898
574.882336,76.609550,-592.164754,9104.533087
574.882652,383.047749,-518.144159,9474.636058
574.882968,842.705048,-592.164754,9252.574275
574.883283,1072.533697,-444.123565,9548.656652
574.883599,995.924147,-518.144159,9696.697840
574.883915,1149.143247,-740.205942,9770.718434
574.884231,1149.143247,-0.000000,9770.718434
574.884547,1378.971896,518.144159,9548.656652
574.884863,1455.581446,666.185348,9326.594869
574.885178,1532.190996,1184.329507,9030.512492
574.885494,1455.581446,1184.329507,8586.388927
574.885810,1762.019645,962.267725,8216.285956
574.886126,1072.533697,814.226536,8586.388927
574.886442,995.924147,222.061783,8586.388927
574.886758,383.047749,-518.144159,9104.533087
574.887073,306.438199,-814.226536,9474.636058
574.887389,-229.828649,-962.267725,9696.697840
574.887705,-536.266849,-1702.473667,10288.862594
574.888021,-1149.143247,-1702.473667,10732.986159
574.888337,-1378.971896,-1554.432478,10732.986159
574.888653,-1608.800546,-1036.288319,10436.903782
574.888968,-1149.143247,-888.247130,9918.759623
574.889284,-919.314598,-296.082377,9992.780217
574.889600,-1149.143247,-518.144159,9548.656652
574.889916,-612.876398,-0.000000,9030.512492
574.890232,0.000000,-222.061783,8882.471304
574.890548,0.000000,-666.185348,9178.553681
574.890863,459.657299,-444.123565,9400.615463
574.891179,536.266849,-518.144159,9178.553681
574.891495,1149.143247,-962.267725,9548.656652
574.891811,1149.143247,-666.185348,9918.759623
574.892127,1149.143247,-962.267725,10288.862594
574.892443,919.314598,-888.247130,10066.800811
574.892758,1149.143247,-0.000000,10066.800811
574.893074,1455.581446,518.144159,9474.636058
574.893390,1685.410096,1110.308913,9178.553681
574.893706,1915.238745,1258.350101,8734.430116
574.894022,2068.457845,1406.391290,8216.285956
574.894338,1991.848295,1110.308913,8364.327145
574.894653,1915.238745,370.102971,8364.327145
574.894969,1532.190996,-444.123565,8882.471304
574.895285,1072.533697,-1110.308913,8882.471304
574.895601,689.485948,-1110.308913,9104.533087
574.895917,0.000000,-1406.391290,9844.739029
574.896233,-536.266849,-1776.494261,10436.903782
574.896548,-689.485948,-1554.432478,10732.986159
574.896864,-1302.362347,-1036.288319,10658.965565
574.897180,-1072.533697,-814.226536,9992.780217
574.897496,-1149.143247,-370.102971,9770.718434
574.897812,-766.095498,-0.000000,9400.615463
574.898128,-612.876398,222.061783,9030.512492
574.898443,-383.047749,148.041188,8956.491898
574.898759,0.000000,-370.102971,8882.471304
574.899075,-153.219100,-444.123565,9252.574275
574.899391,459.657299,-888.247130,9030.512492
574.899707,919.314598,-666.185348,9326.594869
574.900022,1149.143247,-592.164754,9474.636058
574.900338,1072.533697,-444.123565,10066.800811
574.900654,1072.533697,-148.041188,10066.800811
574.900970,1149.143247,-0.000000,9770.718434
574.901286,1302.362347,962.267725,9548.656652
574.901602,1532.190996,1036.288319,9400.615463
574.901917,1532.190996,1480.411884,9178.553681
574.902233,1608.800546,1406.391290,8660.409521
574.902549,1378.971896,1110.308913,8290.306550
574.902865,919.314598,222.061783,8512.368333
574.903181,842.705048,-0.000000,8808.450710
574.903497,459.657299,-296.082377,9474.636058
574.903812,459.657299,-666.185348,9400.615463
574.904128,-306.438199,-962.267725,9918.759623
574.904444,0.000000,-1184.329507,10584.944971
574.904760,-995.924147,-1702.473667,10732.986159
574.905076,-995.924147,-1036.288319,10658.965565
574.905392,-1149.143247,-518.144159,10288.862594
574.905707,-1072.533697,-296.082377,9844.739029
574.906023,-766.095498,-0.000000,9770.718434
574.906339,-459.657299,-0.000000,9400.615463
574.906655,-306.438199,-0.000000,9030.512492
574.906971,0.000000,-296.082377,8956.491898
574.907287,306.438199,-814.226536,9030.512492
574.907602,536.266849,-296.082377,9696.697840
574.907918,383.047749,-666.185348,9326.594869
574.908234,766.095498,-814.226536,9622.677246
574.908550,995.924147,-592.164754,10066.800811
574.908866,1378.971896,-592.164754,10140.821405
574.909182,1225.752797,-74.020594,9992.780217
574.909497,1455.581446,518.144159,9548.656652
574.909813,1762.019645,1332.370696,9326.594869
574.910129,1838.629195,1776.494261,9104.533087
574.910445,2145.067394,1702.473667,8512.368333
574.910761,1838.629195,1628.453072,8216.285956
574.911077,2068.457845,1406.391290,8142.265362
574.911392,1915.238745,740.205942,8438.347739
574.911708,1532.190996,222.061783,8956.491898
574.912024,1302.362347,-592.164754,9030.512492
574.912340,536.266849,-666.185348,9474.636058
574.912656,0.000000,-1036.288319,10066.800811
574.912972,-612.876398,-1480.411884,10658.965565
574.913287,-995.924147,-1776.494261,10658.965565
574.913603,-1378.971896,-888.247130,10658.965565
574.913919,-1302.362347,-814.226536,10140.821405
574.914235,-1072.533697,-74.020594,10066.800811
574.914551,-919.314598,-74.020594,9622.677246
574.914867,-383.047749,-148.041188,9400.615463
574.915182,0.000000,-222.061783,9178.553681
574.915498,76.609550,-518.144159,8882.471304
574.915814,306.438199,-444.123565,9474.636058
574.916130,383.047749,-740.205942,9104.533087
574.916446,1072.533697,-962.267725,9400.615463
574.916762,1378.971896,-518.144159,9474.636058
574.917077,1532.190996,-666.185348,9696.697840
574.917393,1378.971896,-370.102971,9992.780217
574.917709,1532.190996,148.041188,9696.697840
574.918025,1685.410096,888.247130,9252.574275
574.918341,1838.629195,1258.350101,9104.533087
574.918657,1685.410096,1480.411884,8882.471304
574.918972,1455.581446,1332.370696,8438.347739
574.919288,1302.362347,888.247130,8364.327145
574.919604,995.924147,296.082377,8586.388927
574.919920,612.876398,-74.020594,8882.471304
574.920236,459.657299,-740.205942,9400.615463
574.920552,0.000000,-962.267725,9474.636058
574.920867,-229.828649,-1110.308913,9844.739029
574.921183,-995.924147,-1480.411884,10288.862594
574.921499,-1455.581446,-1850.514855,10732.986159
574.921815,-1685.410096,-1258.350101,10436.903782
574.922131,-1685.410096,-740.205942,10214.842000
574.922447,-1302.362347,-74.020594,9992.780217
574.922762,-1149.143247,-222.061783,9474.636058
574.923078,-995.924147,-74.020594,9326.594869
574.923394,-459.657299,-148.041188,9030.512492
574.923710,0.000000,-740.205942,8882.471304
574.924026,76.609550,-740.205942,9474.636058
574.924342,459.657299,-962.267725,9474.636058
574.924657,459.657299,-962.267725,9474.636058
574.924973,842.705048,-740.205942,9696.697840
574.925289,919.314598,-888.247130,9992.780217
574.925605,766.095498,-518.144159,10436.903782
574.925921,1225.752797,-74.020594,9918.759623
574.926237,1378.971896,592.164754,9474.636058
574.926552,1685.410096,1184.329507,9104.533087
574.926868,1915.238745,1702.473667,8956.491898
574.927184,1455.581446,1258.350101,8438.347739
574.927500,1991.848295,1110.308913,8142.265362
574.927816,2221.676944,962.267725,8438.347739
574.928132,1685.410096,370.102971,8512.368333
574.928447,1378.971896,-0.000000,8956.491898
574.928763,995.924147,-296.082377,9178.553681
574.929079,229.828649,-666.185348,9548.656652
574.929395,-229.828649,-1258.350101,10214.842000
574.929711,-766.095498,-1554.432478,10436.903782
574.930027,-1072.533697,-1332.370696,10584.944971
574.930342,-1072.533697,-814.226536,10362.883188
574.930658,-995.924147,-0.000000,10066.800811
574.930974,-842.705048,-0.000000,9918.759623
574.931290,-612.876398,296.082377,9326.594869
574.931606,0.000000,148.041188,9252.574275
574.931922,383.047749,-0.000000,8808.450710
574.932237,383.047749,-148.041188,9030.512492
574.932553,612.876398,-74.020594,9030.512492
574.932869,1072.533697,-370.102971,9326.594869
574.933185,1608.800546,-740.205942,9474.636058
574.933501,1455.581446,-74.020594,9992.780217
574.933817,1455.581446,-148.041188,10214.842000
574.934132,1149.143247,-0.000000,10214.842000
574.934448,1149.143247,518.144159,9770.718434
574.934764,1762.019645,962.267725,9474.636058
574.935080,1608.800546,1406.391290,9252.574275
574.935396,1455.581446,1480.411884,8882.471304
574.935712,1302.362347,1406.391290,8734.430116
574.936027,1302.362347,814.226536,8660.409521
574.936343,842.705048,222.061783,8438.347739
574.936659,306.438199,-370.102971,9400.615463
574.936975,383.047749,-444.123565,9474.636058
574.937291,153.219100,-888.247130,9622.677246
574.937607,-383.047749,-1110.308913,10288.862594
574.937922,-1149.143247,-1924.535449,10510.924376
574.938238,-1225.752797,-1554.432478,10807.006753
574.938554,-1378.971896,-1184.329507,10436.903782
574.938870,-1302.362347,-592.164754,9992.780217
574.939186,-842.705048,-444.123565,9770.718434
574.939501,-919.314598,-444.123565,9770.718434
574.939817,-766.095498,-0.000000,9104.533087
574.940133,-383.047749,-518.144159,9104.533087
574.940449,0.000000,-592.164754,9104.533087
574.940765,306.438199,-740.205942,9400.615463
574.941081,306.438199,-888.247130,8956.491898
574.941396,612.876398,-1184.329507,9326.594869
574.941712,689.485948,-888.247130,9696.697840
574.942028,689.485948,-962.267725,10140.821405
574.942344,919.314598,-666.185348,10140.821405
574.942660,689.485948,-222.061783,10140.821405
574.942976,1225.752797,370.102971,9252.574275
574.943291,2068.457845,1110.308913,8956.491898
574.943607,1608.800546,1554.432478,8586.388927
574.943923,1991.848295,1406.391290,8364.327145
574.944239,1915.238745,1036.288319,7920.203579
574.944555,1838.629195,666.185348,8216.285956
574.944871,1762.019645,222.061783,8364.327145
574.945186,1302.362347,-0.000000,8956.491898
574.945502,919.314598,-814.226536,9326.594869
574.945818,229.828649,-1406.391290,9548.656652
574.946134,-306.438199,-1628.453072,10510.924376
574.946450,-842.705048,-1628.453072,10732.986159
574.946766,-1072.533697,-1406.391290,10510.924376
574.947081,-1149.143247,-666.185348,10584.944971
574.947397,-995.924147,-444.123565,9992.780217
574.947713,-766.095498,-0.000000,9770.718434
574.948029,-689.485948,-148.041188,9252.574275
574.948345,0.000000,-148.041188,8882.471304
574.948661,-153.219100,-296.082377,8882.471304
574.948976,76.609550,-666.185348,8808.450710
574.949292,459.657299,-740.205942,9252.574275
574.949608,1149.143247,-592.164754,9178.553681
574.949924,1149.143247,-370.102971,9474.636058
574.950240,1225.752797,-740.205942,9918.759623
574.950556,1455.581446,-296.082377,9918.759623
574.950871,1532.190996,296.082377,9844.739029
574.951187,1455.581446,666.185348,9474.636058
574.951503,1991.848295,1036.288319,9326.594869
574.951819,1838.629195,1628.453072,8882.471304
574.952135,1685.410096,1702.473667,8660.409521
574.952451,1378.971896,1110.308913,8438.347739
574.952766,1149.143247,888.247130,8364.327145
574.953082,1072.533697,296.082377,9104.533087
574.953398,459.657299,-74.020594,9474.636058
574.953714,229.828649,-740.205942,9474.636058
574.954030,0.000000,-1036.288319,9918.759623
574.954346,-689.485948,-1184.329507,10510.924376
574.954661,-842.705048,-1776.494261,10807.006753
574.954977,-1532.190996,-1184.329507,10955.047942
574.955293,-995.924147,-370.102971,10436.903782
574.955609,-1378.971896,-0.000000,9770.718434
574.955925,-766.095498,-0.000000,9696.697840
574.956241,-459.657299,592.164754,9548.656652
574.956556,-153.219100,-0.000000,9030.512492
574.956872,0.000000,148.041188,8956.491898
574.957188,229.828649,-222.061783,9104.533087
574.957504,229.828649,-444.123565,9548.656652
574.957820,842.705048,-740.205942,9474.636058
574.958136,536.266849,-666.185348,9548.656652
574.958451,612.876398,-518.144159,9918.759623
574.958767,689.485948,-518.144159,10214.842000
574.959083,766.095498,-370.102971,10362.883188
574.959399,919.314598,370.102971,9696.697840
574.959715,1225.752797,1036.288319,9326.594869
574.960031,1378.971896,1480.411884,9030.512492
574.960346,1302.362347,1702.473667,8660.409521
574.960662,1991.848295,1332.370696,8438.347739
574.960978,1532.190996,1184.329507,8364.327145
574.961294,1608.800546,444.123565,8364.327145
574.961610,1378.971896,-0.000000,8734.430116
574.961926,1149.143247,-814.226536,9104.533087
574.962241,766.095498,-814.226536,9548.656652
574.962557,0.000000,-1184.329507,9844.739029
574.962873,-536.266849,-1628.453072,10584.944971
574.963189,-919.314598,-1702.473667,10584.944971
574.963505,-1072.533697,-1036.288319,10881.027347
574.963821,-1225.752797,-814.226536,9992.780217
574.964136,-995.924147,-444.123565,9696.697840
574.964452,-766.095498,-0.000000,9400.615463
574.964768,-536.266849,-296.082377,8734.430116
574.965084,0.000000,-518.144159,8882.471304
574.965400,0.000000,-444.123565,8956.491898
574.965716,229.828649,-444.123565,9030.512492
574.966031,689.485948,-740.205942,9178.553681
574.966347,919.314598,-814.226536,9178.553681
574.966663,919.314598,-1332.370696,9474.636058
574.966979,919.314598,-1110.308913,10066.800811
574.967295,995.924147,-888.247130,10140.821405
574.967611,1149.143247,-74.020594,9918.759623
574.967926,919.314598,592.164754,9326.594869
574.968242,1225.752797,1184.329507,9326.594869
574.968558,1762.019645,1480.411884,8586.388927
574.968874,1915.238745,1628.453072,8290.306550
574.969190,1608.800546,1184.329507,8142.265362
574.969506,1532.190996,444.123565,8364.327145
574.969821,1072.533697,-0.000000,8882.471304
574.970137,459.657299,-444.123565,9326.594869
574.970453,306.438199,-962.267725,9326.594869
574.970769,0.000000,-1406.391290,9918.759623
574.971085,-612.876398,-1628.453072,10658.965565
574.971401,-995.924147,-1998.556043,10881.027347
574.971716,-1455.581446,-1480.411884,10807.006753
574.972032,-1838.629195,-1184.329507,10436.903782
574.972348,-1378.971896,-518.144159,10066.800811
574.972664,-306.438199,-74.020594,9918.759623
574.972980,-1149.143247,-0.000000,9622.677246
574.973295,-306.438199,-0.000000,8956.491898
574.973611,0.000000,-444.123565,8808.450710
574.973927,76.609550,-666.185348,8882.471304
574.974242,536.266849,-592.164754,9400.615463
574.974558,612.876398,-1184.329507,9326.594869
574.974874,766.095498,-666.185348,9474.636058
574.975190,1149.143247,-666.185348,9696.697840
574.975505,1225.752797,-740.205942,10214.842000
574.975821,919.314598,-148.041188,10288.862594
574.976137,1302.362347,518.144159,9474.636058
574.976453,1608.800546,1110.308913,9178.553681
574.976768,1762.019645,1702.473667,9104.533087
574.977084,1838.629195,1776.494261,8734.430116
574.977400,1685.410096,1628.453072,8364.327145
574.977716,2221.676944,962.267725,8216.285956
574.978031,1072.533697,592.164754,8586.388927
574.978347,1225.752797,-0.000000,8956.491898
574.978663,766.095498,-888.247130,9178.553681
574.978979,459.657299,-1036.288319,9474.636058
574.979294,-306.438199,-1184.329507,10066.800811
574.979610,-459.657299,-1406.391290,10732.986159
574.979926,-842.705048,-1258.350101,10881.027347
574.980242,-919.314598,-666.185348,10658.965565
574.980557,-1149.143247,-0.000000,10140.821405
574.980873,-766.095498,222.061783,9622.677246
574.981189,-383.047749,518.144159,9178.553681
574.981505,-153.219100,444.123565,9030.512492
574.981820,76.609550,-74.020594,8734.430116
574.982136,612.876398,-222.061783,9030.512492
574.982452,383.047749,-740.205942,9400.615463
574.982767,689.485948,-740.205942,9400.615463
574.983083,842.705048,-740.205942,9474.636058
574.983399,689.485948,-666.185348,9918.759623
574.983715,1149.143247,-814.226536,10214.842000
574.984030,766.095498,-296.082377,10140.821405
574.984346,919.314598,444.123565,9622.677246
574.984662,1302.362347,888.247130,9178.553681
574.984978,1455.581446,1406.391290,9030.512492
574.985293,1455.581446,1554.432478,9030.512492
574.985609,1532.190996,1480.411884,8290.306550
574.985925,1455.581446,1036.288319,8364.327145
574.986241,1072.533697,296.082377,8586.388927
574.986556,766.095498,-518.144159,9030.512492
574.986872,0.000000,-148.041188,9844.739029
574.987188,0.000000,-1036.288319,9918.759623
574.987504,-459.657299,-1036.288319,10510.924376
574.987819,-995.924147,-1554.432478,10658.965565
574.988135,-1302.362347,-1628.453072,10881.027347
574.988451,-1378.971896,-1036.288319,10510.924376
574.988767,-1378.971896,-666.185348,10140.821405
574.989082,-1072.533697,-74.020594,10066.800811
574.989398,-995.924147,-0.000000,9696.697840
574.989714,-536.266849,-0.000000,8956.491898
574.990030,-383.047749,-148.041188,8956.491898
574.990345,0.000000,-592.164754,8808.450710
574.990661,153.219100,-740.205942,9178.553681
574.990977,536.266849,-888.247130,9548.656652
574.991292,306.438199,-1036.288319,9548.656652
574.991608,995.924147,-1036.288319,9770.718434
574.991924,842.705048,-814.226536,10140.821405
574.992240,995.924147,-592.164754,10214.842000
574.992555,1149.143247,-74.020594,10066.800811
574.992871,1608.800546,444.123565,9770.718434
574.993187,2068.457845,1110.308913,9252.574275
574.993503,1685.410096,1184.329507,8512.368333
574.993818,2068.457845,1554.432478,8290.306550
574.994134,2145.067394,1184.329507,7994.224174
574.994450,1915.238745,518.144159,7920.203579
574.994766,1378.971896,-0.000000,8586.388927
574.995081,1225.752797,-296.082377,9030.512492
574.995397,536.266849,-740.205942,9252.574275
574.995713,459.657299,-1110.308913,9844.739029
574.996029,-153.219100,-1554.432478,10214.842000
574.996344,-612.876398,-1554.432478,10658.965565
574.996660,-919.314598,-1332.370696,10658.965565
574.996976,-1149.143247,-740.205942,10362.883188
574.997292,-766.095498,-740.205942,9548.656652
574.997607,-842.705048,-148.041188,9622.677246
574.997923,-612.876398,-0.000000,9252.574275
574.998239,0.000000,-0.000000,8882.471304
574.998555,306.438199,-74.020594,8808.450710
574.998870,383.047749,-370.102971,8808.450710
574.999186,766.095498,-296.082377,9104.533087
574.999502,1149.143247,-370.102971,9030.512492
574.999817,1378.971896,-444.123565,9474.636058
575.000133,1302.362347,-444.123565,9770.718434
575.000449,1455.581446,-592.164754,10214.842000
575.000765,1302.362347,-148.041188,9844.739029
575.001080,1225.752797,518.144159,9770.718434
575.001396,1608.800546,1036.288319,9326.594869
575.001712,1915.238745,1406.391290,9104.533087
575.002028,1455.581446,1406.391290,8882.471304
575.002343,1225.752797,1110.308913,8512.368333
575.002659,1302.362347,740.205942,8808.450710
575.002975,919.314598,148.041188,8660.409521
575.003291,459.657299,-148.041188,9326.594869
575.003606,76.609550,-888.247130,9474.636058
575.003922,76.609550,-962.267725,9844.739029
575.004238,-459.657299,-1184.329507,10362.883188
575.004554,-995.924147,-1554.432478,10807.006753
575.004869,-919.314598,-962.267725,10807.006753
575.005185,-1225.752797,-666.185348,10214.842000
575.005501,-1302.362347,-518.144159,9770.718434
575.005817,-995.924147,-0.000000,9622.677246
575.006132,-383.047749,74.020594,9252.574275
575.006448,-229.828649,296.082377,9252.574275
575.006764,0.000000,-0.000000,8956.491898
575.007080,76.609550,-518.144159,9030.512492
575.007395,0.000000,-814.226536,9400.615463
575.007711,76.609550,-1480.411884,9548.656652
575.008027,689.485948,-740.205942,9696.697840
575.008342,766.095498,-592.164754,10066.800811
575.008658,383.047749,-666.185348,10288.862594
575.008974,536.266849,-592.164754,10362.883188
575.009290,1378.971896,-0.000000,9696.697840
575.009605,995.924147,444.123565,9326.594869
575.009921,1455.581446,1110.308913,9104.533087
575.010237,1762.019645,1554.432478,8734.430116
575.010553,1838.629195,1480.411884,8068.244768
575.010868,1991.848295,1258.350101,7846.182985
575.011184,1991.848295,518.144159,8290.306550
575.011500,1455.581446,222.061783,8734.430116
575.011816,1149.143247,-222.061783,9104.533087
575.012131,919.314598,-1110.308913,9104.533087
575.012447,0.000000,-1406.391290,9770.718434
575.012763,-383.047749,-1702.473667,10510.924376
575.013079,-1072.533697,-1850.514855,10584.944971
575.013394,-1302.362347,-1258.350101,10362.883188
575.013710,-1455.581446,-740.205942,9992.780217
575.014026,-1072.533697,-296.082377,9992.780217
575.014342,-919.314598,-296.082377,9548.656652
575.014657,-459.657299,-370.102971,9104.533087
575.014973,-229.828649,-296.082377,8956.491898
575.015289,383.047749,-518.144159,8882.471304
575.015605,76.609550,-444.123565,9104.533087
575.015920,689.485948,-518.144159,9326.594869
575.016236,842.705048,-740.205942,9178.553681
575.016552,1149.143247,-666.185348,9474.636058
575.016867,1608.800546,-740.205942,9844.739029
575.017183,1302.362347,-518.144159,9844.739029
575.017499,1685.410096,-222.061783,9696.697840
575.017815,1455.581446,740.205942,9474.636058
575.018130,1762.019645,1184.329507,9104.533087
575.018446,1762.019645,1554.432478,9104.533087
575.018762,1455.581446,1480.411884,8660.409521
575.019078,1378.971896,1406.391290,8290.306550
575.019393,1378.971896,888.247130,8586.388927
575.019709,612.876398,148.041188,8956.491898
575.020025,0.000000,-222.061783,9474.636058
575.020341,229.828649,-1036.288319,9696.697840
575.020656,-306.438199,-1036.288319,10214.842000
575.020972,-995.924147,-1480.411884,10658.965565
575.021288,-919.314598,-1554.432478,10807.006753
575.021604,-1072.533697,-1332.370696,10955.047942
575.021919,-1149.143247,-592.164754,10066.800811
575.022235,-459.657299,-0.000000,9622.677246
575.022551,-536.266849,148.041188,9474.636058
575.022867,-383.047749,370.102971,9252.574275
575.023182,0.000000,148.041188,8734.430116
575.023498,383.047749,-0.000000,8734.430116
575.023814,612.876398,-370.102971,9030.512492
575.024130,383.047749,-666.185348,9400.615463
575.024445,1072.533697,-962.267725,9474.636058
575.024761,919.314598,-814.226536,9696.697840
575.025077,766.095498,-962.267725,10140.821405
575.025392,459.657299,-666.185348,10584.944971
575.025708,766.095498,-370.102971,10288.862594
575.026024,919.314598,444.123565,9918.759623
575.026340,1378.971896,962.267725,9474.636058
575.026655,1532.190996,1554.432478,9178.553681
575.026971,1838.629195,1776.494261,8734.430116
575.027287,1915.238745,1554.432478,8216.285956
575.027603,2451.505594,1184.329507,8142.265362
575.027918,1608.800546,444.123565,8364.327145
575.028234,1455.581446,-74.020594,8882.471304
575.028550,1225.752797,-148.041188,9104.533087
575.028866,689.485948,-814.226536,9474.636058
575.029181,612.876398,-1036.288319,10066.800811
575.029497,-459.657299,-1628.453072,10584.944971
575.029813,-919.314598,-1258.350101,10436.903782
575.030129,-1072.533697,-814.226536,10288.862594
575.030444,-1225.752797,-592.164754,9992.780217
575.030760,-919.314598,-370.102971,9770.718434
575.031076,-995.924147,-74.020594,9622.677246
575.031392,-459.657299,-148.041188,9178.553681
575.031707,-459.657299,-518.144159,9030.512492
575.032023,-306.438199,-592.164754,8956.491898
575.032339,383.047749,-740.205942,9400.615463
575.032655,306.438199,-666.185348,9474.636058
575.032970,689.485948,-814.226536,9400.615463
575.033286,1072.533697,-666.185348,9844.739029
575.033602,995.924147,-666.185348,9992.780217
575.033918,1225.752797,-740.205942,9696.697840
575.034233,1532.190996,370.102971,9474.636058
575.034549,1685.410096,740.205942,9030.512492
575.034865,1915.238745,1480.411884,9030.512492
575.035180,2145.067394,1628.453072,8660.409521
575.035496,1685.410096,1702.473667,8364.327145
575.035812,1762.019645,1258.350101,8364.327145
575.036128,1455.581446,518.144159,8586.388927
575.036443,995.924147,-0.000000,9030.512492
575.036759,689.485948,-666.185348,9770.718434
575.037075,76.609550,-1406.391290,9844.739029
575.037391,-306.438199,-1406.391290,10066.800811
575.037706,-1149.143247,-1702.473667,10732.986159
575.038022,-1455.581446,-1850.514855,10955.047942
575.038338,-1455.581446,-1628.453072,10658.965565
575.038654,-1532.190996,-962.267725,10140.821405
575.038969,-995.924147,-444.123565,9696.697840
575.039285,-995.924147,-0.000000,9548.656652
575.039601,-689.485948,-0.000000,9178.553681
575.039917,153.219100,-148.041188,8734.430116
575.040232,153.219100,-444.123565,8586.388927
575.040548,229.828649,-592.164754,9104.533087
575.040864,919.314598,-518.144159,9252.574275
575.041180,1149.143247,-888.247130,9474.636058
575.041495,995.924147,-222.061783,9474.636058
575.041811,995.924147,-666.185348,9918.759623
575.042127,1149.143247,-444.123565,10066.800811
575.042443,1149.143247,-0.000000,9918.759623
575.042758,1915.238745,592.164754,9474.636058
575.043074,1608.800546,1110.308913,9400.615463
575.043390,1378.971896,1554.432478,8882.471304
575.043705,1455.581446,1406.391290,8808.450710
575.044021,1762.019645,1406.391290,8512.368333
575.044337,1532.190996,518.144159,8364.327145
575.044653,1149.143247,222.061783,8734.430116
575.044968,689.485948,-222.061783,9030.512492
575.045284,612.876398,-666.185348,9326.594869
575.045600,153.219100,-666.185348,9844.739029
575.045916,-229.828649,-814.226536,10362.883188
575.046231,-383.047749,-1406.391290,10584.944971
575.046547,-612.876398,-1184.329507,10510.924376
575.046863,-919.314598,-814.226536,10362.883188
575.047179,-612.876398,-296.082377,10066.800811
575.047494,-459.657299,-0.000000,9844.739029
575.047810,-536.266849,148.041188,9474.636058
575.048126,-153.219100,-0.000000,8956.491898
575.048442,153.219100,-74.020594,8882.471304
575.048757,383.047749,-370.102971,9178.553681
575.049073,383.047749,-518.144159,9400.615463
575.049389,766.095498,-740.205942,9474.636058
575.049705,842.705048,-592.164754,9622.677246
575.050020,766.095498,-1110.308913,10140.821405
575.050336,919.314598,-666.185348,10140.821405
575.050652,1149.143247,-444.123565,10140.821405
575.050968,1149.143247,370.102971,9696.697840
575.051283,1532.190996,1036.288319,9326.594869
575.051599,1838.629195,1332.370696,9030.512492
575.051915,1838.629195,1480.411884,8734.430116
575.052230,1838.629195,1554.432478,8364.327145
575.052546,1685.410096,1110.308913,8512.368333
575.052862,1149.143247,518.144159,8660.409521
575.053178,612.876398,-0.000000,9252.574275
575.053493,0.000000,-592.164754,9770.718434
575.053809,0.000000,-1110.308913,9474.636058
575.054125,-383.047749,-1480.411884,10140.821405
575.054441,-1072.533697,-1554.432478,10732.986159
575.054756,-1378.971896,-1554.432478,10955.047942
575.055072,-1455.581446,-1258.350101,10510.924376
575.055388,-1302.362347,-592.164754,9844.739029
575.055704,-1072.533697,-222.061783,9844.739029
575.056019,-766.095498,-74.020594,9400.615463
575.056335,-766.095498,-74.020594,8956.491898
575.056651,0.000000,-0.000000,9104.533087
575.056967,76.609550,-222.061783,8882.471304
575.057282,383.047749,-592.164754,9104.533087
575.057598,536.266849,-666.185348,9400.615463
575.057914,612.876398,-518.144159,9622.677246
575.058230,1149.143247,-666.185348,9844.739029
575.058545,995.924147,-814.226536,10140.821405
575.058861,1072.533697,-444.123565,10066.800811
575.059177,1149.143247,148.041188,9696.697840
575.059493,1532.190996,444.123565,9252.574275
575.059808,1608.800546,1110.308913,8808.450710
575.060124,1838.629195,1480.411884,8586.388927
575.060440,1685.410096,1628.453072,8364.327145
575.060755,1762.019645,1110.308913,8142.265362
575.061071,1838.629195,592.164754,8216.285956
575.061387,1149.143247,-0.000000,8808.450710
575.061703,919.314598,-518.144159,8956.491898
575.062018,536.266849,-962.267725,9178.553681
575.062334,76.609550,-1036.288319,9622.677246
575.062650,-76.609550,-1258.350101,10658.965565
575.062966,-766.095498,-1554.432478,10584.944971
575.063281,-1072.533697,-1332.370696,10584.944971
575.063597,-919.314598,-740.205942,10140.821405
575.063913,-689.485948,-296.082377,9548.656652
575.064229,-536.266849,-148.041188,9696.697840
575.064544,-383.047749,-0.000000,9326.594869
575.064860,0.000000,-148.041188,8956.491898
575.065176,153.219100,-296.082377,9030.512492
575.065492,229.828649,-592.164754,9252.574275
575.065807,536.266849,-518.144159,9548.656652
575.066123,689.485948,-592.164754,9622.677246
575.066439,995.924147,-296.082377,9992.780217
575.066755,1072.533697,-592.164754,9992.780217
575.067070,1378.971896,-444.123565,9844.739029
575.067386,1225.752797,-0.000000,9918.759623
575.067702,1838.629195,666.185348,9474.636058
575.068018,1915.238745,1184.329507,9326.594869
575.068333,1915.238745,1554.432478,9104.533087
575.068649,1378.971896,1628.453072,8660.409521
575.068965,919.314598,1110.308913,8438.347739
575.069280,1225.752797,814.226536,8512.368333
575.069596,1072.533697,296.082377,8882.471304
575.069912,536.266849,-222.061783,9474.636058
575.070228,306.438199,-1036.288319,9474.636058
575.070543,-306.438199,-1036.288319,9992.780217
575.070859,-842.705048,-1406.391290,10658.965565
575.071175,-1072.533697,-1628.453072,10881.027347
575.071491,-1149.143247,-1258.350101,10807.006753
575.071806,-1149.143247,-444.123565,10584.944971
575.072122,-842.705048,-296.082377,9992.780217
575.072438,-1072.533697,-0.000000,9400.615463
575.072754,-689.485948,148.041188,9326.594869
575.073069,-229.828649,-0.000000,8734.430116
575.073385,536.266849,-222.061783,8512.368333
575.073701,459.657299,-370.102971,8808.450710
575.074017,536.266849,-518.144159,9326.594869
575.074332,919.314598,-740.205942,9178.553681
575.074648,1072.533697,-740.205942,9548.656652
575.074964,1532.190996,-740.205942,10066.800811
575.075279,995.924147,-740.205942,10362.883188
575.075595,1455.581446,-0.000000,10140.821405
575.075911,1225.752797,370.102971,9696.697840
575.076226,1532.190996,740.205942,9178.553681
575.076542,1915.238745,888.247130,9104.533087
575.076858,1991.848295,1480.411884,8290.306550
575.077173,1915.238745,1480.411884,8142.265362
575.077489,1915.238745,888.247130,8216.285956
575.077805,1532.190996,370.102971,8512.368333
575.078121,1302.362347,-0.000000,8882.471304
575.078436,1072.533697,-666.185348,8956.491898
575.078752,459.657299,-1184.329507,9400.615463
575.079068,0.000000,-1110.308913,9992.780217
575.079383,-536.266849,-1332.370696,10510.924376
575.079699,-612.876398,-1702.473667,10510.924376
575.080015,-1072.533697,-1258.350101,10362.883188
575.080330,-1072.533697,-740.205942,9992.780217
575.080646,-1149.143247,-370.102971,9918.759623
575.080962,-612.876398,-74.020594,9548.656652
575.081277,-766.095498,-592.164754,9474.636058
575.081593,-383.047749,-370.102971,9178.553681
575.081909,0.000000,-444.123565,8956.491898
575.082225,153.219100,-740.205942,9400.615463
575.082540,459.657299,-814.226536,9548.656652
575.082856,766.095498,-666.185348,9622.677246
575.083172,995.924147,-814.226536,9622.677246
575.083487,1225.752797,-444.123565,9918.759623
575.083803,1149.143247,-222.061783,9918.759623
575.084119,1532.190996,-0.000000,9474.636058
575.084434,1608.800546,740.205942,9104.533087
575.084750,1762.019645,1036.288319,8956.491898
575.085066,1915.238745,1702.473667,8512.368333
575.085382,1685.410096,1406.391290,8216.285956
575.085697,1685.410096,962.267725,8586.388927
575.086013,1225.752797,518.144159,8512.368333
575.086329,766.095498,-0.000000,9104.533087
575.086644,459.657299,-592.164754,9400.615463
575.086960,153.219100,-962.267725,9696.697840
575.087276,-459.657299,-1480.411884,10288.862594
575.087591,-919.314598,-1702.473667,10881.027347
575.087907,-1225.752797,-1702.473667,10955.047942
575.088223,-1302.362347,-1332.370696,10436.903782
575.088538,-1149.143247,-518.144159,10140.821405
575.088854,-842.705048,-148.041188,9770.718434
575.089170,-842.705048,222.061783,9548.656652
575.089486,-536.266849,370.102971,9178.553681
575.089801,0.000000,-0.000000,8882.471304
575.090117,459.657299,-444.123565,8660.409521
575.090433,229.828649,-592.164754,9474.636058
575.090748,536.266849,-740.205942,9622.677246
575.091064,766.095498,-740.205942,9474.636058
575.091380,689.485948,-740.205942,9844.739029
575.091695,842.705048,-592.164754,10362.883188
575.092011,842.705048,-296.082377,10140.821405
575.092327,995.924147,-74.020594,9918.759623
575.092643,1225.752797,888.247130,9252.574275
575.092958,1608.800546,1258.350101,9252.574275
575.093274,1685.410096,1702.473667,8808.450710
575.093590,1838.629195,1850.514855,8512.368333
575.093905,1991.848295,1406.391290,8438.347739
575.094221,1762.019645,1036.288319,8142.265362
575.094537,1378.971896,222.061783,8808.450710
575.094852,995.924147,-222.061783,9030.512492
575.095168,306.438199,-592.164754,9252.574275
575.095484,76.609550,-740.205942,9622.677246
575.095799,-153.219100,-1184.329507,10362.883188
575.096115,-919.314598,-1702.473667,10955.047942
575.096431,-1149.143247,-1184.329507,10584.944971
575.096747,-1149.143247,-888.247130,10362.883188
575.097062,-1225.752797,-444.123565,9992.780217
575.097378,-766.095498,-148.041188,9770.718434
575.097694,-689.485948,-148.041188,9474.636058
575.098009,-306.438199,-0.000000,9252.574275
575.098325,0.000000,-148.041188,9252.574275
575.098641,306.438199,-370.102971,9104.533087
575.098956,306.438199,-370.102971,9252.574275
575.099272,1532.190996,-814.226536,8882.471304
575.099588,1302.362347,-518.144159,9400.615463
575.099904,1072.533697,-518.144159,9696.697840
575.100219,1149.143247,-296.082377,9918.759623
575.100535,1532.190996,-444.123565,9770.718434
575.100851,1685.410096,148.041188,9770.718434
575.101166,1608.800546,814.226536,9178.553681
575.101482,1762.019645,888.247130,9252.574275
575.101798,1762.019645,1406.391290,8734.430116
575.102113,1378.971896,1184.329507,8586.388927
575.102429,1762.019645,518.144159,8512.368333
575.102745,1225.752797,-0.000000,8660.409521
575.103060,612.876398,-296.082377,9326.594869
575.103376,76.609550,-666.185348,9548.656652
575.103692,76.609550,-1036.288319,9918.759623
575.104008,0.000000,-1406.391290,9992.780217
575.104323,-766.095498,-1406.391290,10658.965565
575.104639,-995.924147,-1628.453072,10658.965565
575.104955,-1378.971896,-1184.329507,10362.883188
575.105270,-1302.362347,-814.226536,9918.759623
575.105586,-1302.362347,-222.061783,9770.718434
575.105902,-766.095498,-74.020594,9548.656652
575.106217,-612.876398,-74.020594,9104.533087
575.106533,0.000000,-444.123565,8956.491898
575.106849,0.000000,-370.102971,9104.533087
575.107164,0.000000,-962.267725,9326.594869
575.107480,612.876398,-962.267725,9474.636058
575.107796,612.876398,-962.267725,9474.636058
575.108112,689.485948,-962.267725,9696.697840
575.108427,919.314598,-888.247130,10288.862594
575.108743,766.095498,-740.205942,10066.800811
575.109059,995.924147,-296.082377,9696.697840
575.109374,1378.971896,666.185348,9178.553681
575.109690,1378.971896,1110.308913,8808.450710
575.110006,1685.410096,1406.391290,8882.471304
575.110321,1991.848295,1406.391290,8216.285956
575.110637,2298.286494,1184.329507,7994.224174
575.110953,1685.410096,592.164754,8142.265362
575.111269,1378.971896,-148.041188,8586.388927
575.111584,1225.752797,-444.123565,9030.512492
575.111900,995.924147,-518.144159,9252.574275
575.112216,0.000000,-888.247130,9918.759623
575.112531,-383.047749,-1258.350101,10362.883188
575.112847,-995.924147,-1628.453072,10510.924376
575.113163,-1302.362347,-1258.350101,10362.883188
575.113478,-919.314598,-666.185348,9992.780217
575.113794,-766.095498,-296.082377,9770.718434
575.114110,-995.924147,-0.000000,9622.677246
575.114425,-919.314598,148.041188,9326.594869
575.114741,0.000000,-74.020594,9178.553681
575.115057,76.609550,-0.000000,8882.471304
575.115373,76.609550,-296.082377,9178.553681
575.115688,536.266849,-444.123565,9400.615463
575.116004,919.314598,-296.082377,9400.615463
575.116320,766.095498,-518.144159,9622.677246
575.116635,1915.238745,-444.123565,9696.697840
575.116951,1532.190996,-148.041188,9844.739029
575.117267,1455.581446,370.102971,9696.697840
575.117582,1455.581446,1036.288319,9400.615463
575.117898,1608.800546,1184.329507,9474.636058
575.118214,1838.629195,1628.453072,9104.533087
575.118530,1608.800546,1702.473667,8808.450710
575.118845,1685.410096,1406.391290,8660.409521
575.119161,1455.581446,888.247130,8734.430116
575.119477,1378.971896,222.061783,9326.594869
575.119792,612.876398,-148.041188,9696.697840
575.120108,76.609550,-740.205942,9548.656652
575.120424,0.000000,-1184.329507,10066.800811
575.120739,-689.485948,-1406.391290,10584.944971
575.121055,-995.924147,-1702.473667,11177.109724
575.121371,-1302.362347,-1628.453072,10807.006753
575.121686,-1149.143247,-962.267725,10510.924376
575.122002,-1149.143247,-444.123565,9844.739029
575.122318,-995.924147,-0.000000,9548.656652
575.122634,-766.095498,-0.000000,9696.697840
575.122949,-306.438199,-0.000000,8882.471304
575.123265,229.828649,-148.041188,8808.450710
575.123581,306.438199,-592.164754,8956.491898
575.123896,612.876398,-740.205942,9400.615463
575.124212,766.095498,-1184.329507,9326.594869
575.124528,1072.533697,-740.205942,9474.636058
575.124843,1072.533697,-666.185348,9844.739029
575.125159,842.705048,-814.226536,10214.842000
575.125475,766.095498,-740.205942,10214.842000
575.125791,1072.533697,444.123565,9770.718434
575.126106,1685.410096,814.226536,9326.594869
575.126422,1762.019645,1184.329507,9178.553681
575.126738,1532.190996,1480.411884,8734.430116
575.127053,2068.457845,1258.350101,8290.306550
575.127369,1915.238745,1036.288319,8216.285956
575.127685,1532.190996,222.061783,8142.265362
575.128000,1072.533697,-0.000000,8956.491898
575.128316,689.485948,-370.102971,8956.491898
575.128632,689.485948,-814.226536,9400.615463
575.128947,0.000000,-1184.329507,9696.697840
575.129263,-842.705048,-1776.494261,10584.944971
575.129579,-766.095498,-1776.494261,10510.924376
575.129895,-1072.533697,-1406.391290,10362.883188
575.130210,-2221.676944,-592.164754,9992.780217
575.130526,-1225.752797,-444.123565,9696.697840
575.130842,-995.924147,-148.041188,9400.615463
575.131157,-919.314598,-148.041188,9104.533087
575.131473,-153.219100,-370.102971,8882.471304
575.131789,-229.828649,-592.164754,8956.491898
575.132104,0.000000,-814.226536,9104.533087
575.132420,306.438199,-1036.288319,9178.553681
575.132736,842.705048,-666.185348,9400.615463
575.133051,919.314598,-592.164754,9622.677246
575.133367,1149.143247,-518.144159,10066.800811
575.133683,1149.143247,-296.082377,10066.800811
575.133999,1455.581446,-0.000000,9844.739029
575.134314,1532.190996,888.247130,9548.656652
575.134630,1685.410096,1258.350101,9400.615463
575.134946,1838.629195,1776.494261,9104.533087
575.135261,1455.581446,1924.535449,8734.430116
575.135577,1838.629195,1332.370696,8660.409521
575.135893,1302.362347,740.205942,8660.409521
575.136208,995.924147,-0.000000,9326.594869
575.136524,229.828649,-370.102971,9622.677246
575.136840,76.609550,-1036.288319,9992.780217
575.137156,-306.438199,-1406.391290,10140.821405
575.137471,-842.705048,-1628.453072,10881.027347
575.137787,-1149.143247,-1702.473667,10955.047942
575.138103,-1302.362347,-1184.329507,10658.965565
575.138418,-995.924147,-296.082377,9918.759623
575.138734,-995.924147,-148.041188,9918.759623
575.139050,-612.876398,296.082377,9548.656652
575.139365,-689.485948,74.020594,9622.677246
575.139681,0.000000,-74.020594,8956.491898
575.139997,536.266849,-370.102971,8808.450710
575.140312,536.266849,-444.123565,9104.533087
575.140628,459.657299,-888.247130,9474.636058
575.140944,919.314598,-666.185348,9474.636058
575.141260,1225.752797,-518.144159,9770.718434
575.141575,919.314598,-518.144159,9770.718434
575.141891,919.314598,-518.144159,10214.842000
575.142207,1225.752797,-222.061783,9992.780217
575.142522,1149.143247,370.102971,9548.656652
575.142838,1455.581446,888.247130,9474.636058
575.143154,1608.800546,1332.370696,8882.471304
575.143469,1608.800546,1628.453072,8586.388927
575.143785,1915.238745,1406.391290,8216.285956
575.144101,1838.629195,1110.308913,8142.265362
575.144417,1455.581446,666.185348,8216.285956
575.144732,1072.533697,-0.000000,8882.471304
575.145048,1532.190996,-148.041188,9104.533087
575.145364,536.266849,-1036.288319,9326.594869
575.145679,-306.438199,-1258.350101,10066.800811
575.145995,-689.485948,-1554.432478,10584.944971
575.146311,-919.314598,-1628.453072,10658.965565
575.146626,-1225.752797,-1036.288319,10510.924376
575.146942,-1225.752797,-740.205942,9770.718434
575.147258,-1072.533697,-296.082377,9696.697840
575.147573,-766.095498,-0.000000,9326.594869
575.147889,-536.266849,-74.020594,9104.533087
575.148205,0.000000,-518.144159,8734.430116
575.148521,76.609550,-296.082377,8808.450710
575.148836,76.609550,-592.164754,9104.533087
575.149152,689.485948,-592.164754,9178.553681
575.149468,995.924147,-444.123565,9252.574275
575.149783,1225.752797,-370.102971,9770.718434
575.150099,1149.143247,-444.123565,10140.821405
575.150415,1455.581446,-222.061783,9844.739029
575.150730,1378.971896,296.082377,9696.697840
575.151046,1685.410096,666.185348,9104.533087
575.151362,1915.238745,1554.432478,9178.553681
575.151678,1915.238745,1776.494261,8660.409521
575.151993,1532.190996,1258.350101,8808.450710
575.152309,1532.190996,1184.329507,8660.409521
575.152625,1149.143247,-0.000000,8734.430116
575.152940,536.266849,-296.082377,9252.574275
575.153256,229.828649,-592.164754,9400.615463
575.153572,0.000000,-1554.432478,9696.697840
575.153887,-459.657299,-1554.432478,10214.842000
575.154203,-995.924147,-1554.432478,11251.130318
575.154519,-1149.143247,-1776.494261,11325.150913
575.154834,-1302.362347,-1406.391290,10732.986159
575.155150,-1149.143247,-888.247130,10214.842000
575.155466,-766.095498,-148.041188,9770.718434
575.155782,-612.876398,-0.000000,9622.677246
575.156097,-229.828649,-0.000000,9030.512492
575.156413,153.219100,-0.000000,8956.491898
575.156729,536.266849,-296.082377,9030.512492
575.157044,383.047749,-592.164754,9030.512492
575.157360,919.314598,-888.247130,9400.615463
575.157676,919.314598,-888.247130,9548.656652
575.157991,995.924147,-740.205942,9918.759623
575.158307,995.924147,-740.205942,10288.862594
575.158623,1072.533697,-518.144159,10140.821405
575.158939,842.705048,-74.020594,9844.739029
575.159254,1302.362347,814.226536,9400.615463
575.159570,1838.629195,1480.411884,9252.574275
575.159886,1685.410096,1702.473667,8808.450710
575.160201,2145.067394,1628.453072,8290.306550
575.160517,1991.848295,1110.308913,8142.265362
575.160833,1915.238745,814.226536,8068.244768
575.161148,1532.190996,74.020594,8364.327145
575.161464,1302.362347,-0.000000,9030.512492
575.161780,612.876398,-296.082377,9104.533087
575.162095,229.828649,-222.061783,9474.636058
575.162411,0.000000,-888.247130,10214.842000
575.162727,-689.485948,-1554.432478,10362.883188
575.163043,-995.924147,-1258.350101,10362.883188
575.163358,-995.924147,-814.226536,10140.821405
575.163674,-689.485948,-296.082377,9992.780217
575.163990,-919.314598,-0.000000,9918.759623
575.164305,-536.266849,-0.000000,9400.615463
575.164621,-536.266849,-0.000000,9104.533087
575.164937,0.000000,-74.020594,9104.533087
575.165252,153.219100,-518.144159,8956.491898
575.165568,153.219100,-296.082377,9326.594869
575.165884,689.485948,-518.144159,9178.553681
575.166199,1149.143247,-222.061783,9474.636058
575.166515,1302.362347,-444.123565,9918.759623
575.166831,995.924147,-74.020594,9992.780217
575.167147,1455.581446,-74.020594,9696.697840
575.167462,1685.410096,518.144159,9252.574275
575.167778,1608.800546,1184.329507,9326.594869
575.168094,2298.286494,1332.370696,9178.553681
575.168409,1378.971896,1554.432478,8882.471304
575.168725,1378.971896,1332.370696,8438.347739
575.169041,1302.362347,592.164754,8660.409521
575.169356,766.095498,148.041188,8734.430116
575.169672,306.438199,-666.185348,9474.636058
575.169988,76.609550,-814.226536,9622.677246
575.170304,-229.828649,-1110.308913,10066.800811
575.170619,-919.314598,-1480.411884,10658.965565
575.170935,-1455.581446,-1554.432478,11103.089130
575.171251,-1302.362347,-1628.453072,10881.027347
575.171566,-1378.971896,-888.247130,10584.944971
575.171882,-1149.143247,-296.082377,10140.821405
575.172198,-1072.533697,-74.020594,9770.718434
575.172513,-689.485948,148.041188,9326.594869
575.172829,0.000000,-0.000000,9104.533087
575.173145,383.047749,-0.000000,9104.533087
575.173460,536.266849,-0.000000,8882.471304
575.173776,612.876398,-444.123565,9326.594869
575.174092,842.705048,-666.185348,9474.636058
575.174408,1149.143247,-888.247130,9622.677246
575.174723,1072.533697,-666.185348,10066.800811
575.175039,919.314598,-740.205942,10362.883188
575.175355,1225.752797,-444.123565,10288.862594
575.175670,919.314598,-0.000000,10066.800811
575.175986,1378.971896,814.226536,9400.615463
575.176302,1991.848295,1406.391290,9326.594869
575.176617,2068.457845,1554.432478,8586.388927
575.176933,1915.238745,1406.391290,8216.285956
575.177249,2145.067394,740.205942,8216.285956
575.177564,1685.410096,296.082377,8216.285956
575.177880,1532.190996,-148.041188,8808.450710
575.178196,995.924147,-592.164754,9030.512492
575.178511,919.314598,-814.226536,9326.594869
575.178827,153.219100,-1258.350101,9474.636058
575.179143,-76.609550,-1554.432478,10214.842000
575.179458,-842.705048,-1702.473667,10584.944971
575.179774,-1302.362347,-1628.453072,10584.944971
575.180090,-1149.143247,-1036.288319,9918.759623
575.180405,-919.314598,-444.123565,10288.862594
575.180721,-766.095498,-222.061783,9622.677246
575.181037,-612.876398,-148.041188,9178.553681
575.181352,-229.828649,-222.061783,8734.430116
575.181668,0.000000,-444.123565,8734.430116
575.181984,306.438199,-666.185348,8808.450710
575.182300,612.876398,-592.164754,9030.512492
575.182615,919.314598,-518.144159,8956.491898
575.182931,1072.533697,-444.123565,9474.636058
575.183247,1302.362347,-518.144159,9770.718434
575.183562,1149.143247,-296.082377,9770.718434
575.183878,1149.143247,296.082377,9844.739029
575.184194,1378.971896,814.226536,9326.594869
575.184509,1455.581446,1554.432478,9178.553681
575.184825,1225.752797,1702.473667,8956.491898
575.185141,1685.410096,1628.453072,8734.430116
575.185456,1149.143247,1110.308913,8438.347739
575.185772,919.314598,518.144159,8882.471304
575.186088,459.657299,-74.020594,8882.471304
575.186403,459.657299,-666.185348,9696.697840
575.186719,0.000000,-888.247130,9548.656652
575.187035,-306.438199,-962.267725,10066.800811
575.187350,-919.314598,-1184.329507,10955.047942
575.187666,-1149.143247,-1480.411884,10881.027347
575.187982,-1225.752797,-1258.350101,10658.965565
575.188297,-1149.143247,-666.185348,10066.800811
575.188613,-1072.533697,-296.082377,10288.862594
575.188929,-383.047749,222.061783,9474.636058
575.189244,153.219100,444.123565,9178.553681
575.189560,0.000000,-0.000000,8882.471304
575.189876,76.609550,-296.082377,9104.533087
575.190191,229.828649,-518.144159,9326.594869
575.190507,306.438199,-814.226536,9548.656652
575.190823,842.705048,-1036.288319,9622.677246
575.191139,842.705048,-814.226536,9918.759623
575.191454,766.095498,-888.247130,10288.862594
575.191770,689.485948,-962.267725,10436.903782
575.192086,919.314598,-592.164754,10288.862594
575.192401,1149.143247,-0.000000,9548.656652
575.192717,1455.581446,1036.288319,9326.594869
575.193033,1532.190996,1554.432478,8882.471304
575.193348,1991.848295,1480.411884,8512.368333
575.193664,1838.629195,1480.411884,8068.244768
575.193980,1915.238745,1036.288319,7994.224174
575.194295,1608.800546,592.164754,8512.368333
575.194611,1225.752797,-0.000000,9030.512492
575.194927,995.924147,-518.144159,9178.553681
575.195242,383.047749,-1036.288319,9622.677246
575.195558,-229.828649,-1554.432478,10066.800811
575.195874,-383.047749,-1628.453072,10436.903782
575.196189,-995.924147,-1776.494261,10658.965565
575.196505,-1302.362347,-1036.288319,10436.903782
575.196821,-995.924147,-740.205942,9992.780217
575.197136,-612.876398,-74.020594,9770.718434
575.197452,-842.705048,74.020594,9400.615463
575.197768,-536.266849,-0.000000,8808.450710
575.198083,76.609550,-0.000000,9030.512492
575.198399,536.266849,-370.102971,8660.409521
575.198715,536.266849,-592.164754,9252.574275
575.199030,689.485948,-888.247130,9030.512492
575.199346,1072.533697,-814.226536,9030.512492
575.199662,1455.581446,-666.185348,9622.677246
575.199978,1378.971896,-888.247130,10140.821405
575.200293,1378.971896,-148.041188,9918.759623
575.200609,1532.190996,296.082377,9474.636058
575.200925,1838.629195,814.226536,9400.615463
575.201240,1991.848295,1258.350101,9030.512492
575.201556,1378.971896,1332.370696,8808.450710
575.201872,1532.190996,1110.308913,8512.368333
575.202187,1225.752797,592.164754,8512.368333
575.202503,1455.581446,296.082377,8808.450710
575.202819,536.266849,-148.041188,9030.512492
575.203134,0.000000,-1036.288319,9696.697840
575.203450,0.000000,-1110.308913,9844.739029
575.203766,-766.095498,-1258.350101,10288.862594
575.204081,-995.924147,-1480.411884,10881.027347
575.204397,-1378.971896,-1850.514855,10732.986159
575.204713,-1455.581446,-1184.329507,10807.006753
575.205028,-1455.581446,-518.144159,10214.842000
575.205344,-995.924147,148.041188,9770.718434
575.205660,-536.266849,222.061783,9474.636058
575.205975,-383.047749,222.061783,9030.512492
575.206291,-229.828649,-0.000000,9252.574275
575.206607,229.828649,-222.061783,9030.512492
575.206922,459.657299,-592.164754,9252.574275
575.207238,383.047749,-518.144159,9326.594869
575.207554,842.705048,-592.164754,9548.656652
575.207869,689.485948,-296.082377,10214.842000
575.208185,689.485948,-444.123565,10362.883188
575.208501,536.266849,-444.123565,10584.944971
575.208817,766.095498,-0.000000,10288.862594
575.209132,919.314598,740.205942,9622.677246
575.209448,1378.971896,1258.350101,9548.656652
575.209764,1608.800546,1850.514855,9030.512492
575.210079,1532.190996,1924.535449,8660.409521
575.210395,1762.019645,1628.453072,8364.327145
575.210711,1685.410096,962.267725,8512.368333
575.211026,1455.581446,296.082377,8660.409521
575.211342,1072.533697,-74.020594,9252.574275
575.211658,842.705048,-370.102971,9326.594869
575.211973,459.657299,-814.226536,9696.697840
575.212289,-383.047749,-1258.350101,10140.821405
575.212605,-459.657299,-1554.432478,10584.944971
575.212920,-919.314598,-1258.350101,10584.944971
575.213236,-995.924147,-962.267725,10362.883188
575.213552,-689.485948,-518.144159,9696.697840
575.213867,-919.314598,-0.000000,9696.697840
575.214183,-919.314598,-0.000000,9178.553681
575.214499,-383.047749,-0.000000,8956.491898
575.214814,76.609550,-222.061783,8808.450710
575.215130,153.219100,-444.123565,9030.512492
575.215446,919.314598,-592.164754,9326.594869
575.215761,612.876398,-740.205942,9178.553681
575.216077,842.705048,-888.247130,9326.594869
575.216393,1072.533697,-740.205942,9696.697840
575.216708,1149.143247,-740.205942,10066.800811
575.217024,1455.581446,-444.123565,9992.780217
575.217340,1302.362347,296.082377,9474.636058
575.217656,1608.800546,962.267725,8882.471304
575.217971,1608.800546,1480.411884,8882.471304
575.218287,1532.190996,1554.432478,8438.347739
575.218603,1608.800546,1332.370696,8512.368333
575.218918,1455.581446,666.185348,8290.306550
575.219234,995.924147,666.185348,8734.430116
575.219550,612.876398,-444.123565,9326.594869
575.219865,383.047749,-962.267725,9770.718434
575.220181,0.000000,-1258.350101,9844.739029
575.220497,-459.657299,-1184.329507,10214.842000
575.220812,-689.485948,-1850.514855,10658.965565
575.221128,-1225.752797,-1776.494261,10584.944971
575.221444,-1072.533697,-1036.288319,10510.924376
575.221759,-1149.143247,-518.144159,9992.780217
575.222075,-766.095498,-74.020594,9548.656652
575.222391,-306.438199,296.082377,9400.615463
575.222706,0.000000,296.082377,8956.491898
575.223022,383.047749,-296.082377,8512.368333
575.223338,383.047749,-444.123565,8956.491898
575.223653,536.266849,-740.205942,9030.512492
575.223969,383.047749,-888.247130,9474.636058
575.224285,689.485948,-888.247130,9696.697840
575.224600,689.485948,-740.205942,10066.800811
575.224916,766.095498,-888.247130,10214.842000
575.225232,919.314598,-666.185348,10214.842000
575.225547,919.314598,-0.000000,9844.739029
575.225863,1455.581446,666.185348,9770.718434
575.226179,1532.190996,1036.288319,9326.594869
575.226495,1378.971896,1184.329507,8808.450710
575.226810,1685.410096,1554.432478,8586.388927
575.227126,1838.629195,962.267725,8216.285956
575.227442,1915.238745,-0.000000,8216.285956
575.227757,1455.581446,-0.000000,8586.388927
575.228073,1225.752797,-444.123565,8956.491898
575.228389,766.095498,-666.185348,9178.553681
575.228704,0.000000,-1036.288319,9696.697840
575.229020,-612.876398,-1332.370696,10140.821405
575.229336,-995.924147,-1480.411884,10807.006753
575.229651,-995.924147,-1258.350101,10510.924376
575.229967,-1302.362347,-888.247130,10214.842000
575.230283,-1149.143247,-296.082377,10140.821405
575.230598,-919.314598,-222.061783,9696.697840
575.230914,-1072.533697,-0.000000,9474.636058
575.231230,-766.095498,-0.000000,9252.574275
575.231545,-229.828649,-296.082377,8808.450710
575.231861,0.000000,-518.144159,9326.594869
575.232177,306.438199,-592.164754,9326.594869
575.232492,536.266849,-444.123565,9252.574275
575.232808,1225.752797,-296.082377,9474.636058
575.233124,1225.752797,-444.123565,9992.780217
575.233439,1455.581446,-370.102971,9474.636058
575.233755,1455.581446,-0.000000,9918.759623
575.234071,1455.581446,814.226536,9474.636058
575.234386,1762.019645,1332.370696,9030.512492
575.234702,1762.019645,1628.453072,8956.491898
575.235018,1378.971896,1554.432478,8808.450710
575.235334,1225.752797,1258.350101,8660.409521
575.235649,1072.533697,666.185348,8882.471304
575.235965,842.705048,-0.000000,9030.512492
575.236281,459.657299,-740.205942,9548.656652
575.236596,153.219100,-1258.350101,9548.656652
575.236912,-536.266849,-1480.411884,9992.780217
575.237228,-612.876398,-1702.473667,10658.965565
575.237543,-1225.752797,-1776.494261,10881.027347
575.237859,-1149.143247,-1480.411884,10362.883188
575.238175,-995.924147,-814.226536,10214.842000
575.238490,-766.095498,-222.061783,9548.656652
575.238806,-306.438199,-0.000000,9622.677246
575.239122,0.000000,-0.000000,9104.533087
575.239437,612.876398,-0.000000,8734.430116
575.239753,766.095498,-370.102971,8882.471304
575.240069,689.485948,-370.102971,8660.409521
575.240384,842.705048,-518.144159,9178.553681
575.240700,995.924147,-444.123565,9326.594869
575.241016,459.657299,-888.247130,9844.739029
575.241331,842.705048,-814.226536,10066.800811
575.241647,842.705048,-814.226536,10066.800811
575.241963,689.485948,-444.123565,10362.883188
575.242278,919.314598,74.020594,9918.759623
575.242594,1608.800546,222.061783,9326.594869
575.242910,1302.362347,1036.288319,9400.615463
575.243225,1608.800546,1702.473667,8882.471304
575.243541,1915.238745,1480.411884,8142.265362
575.243857,2068.457845,1406.391290,8290.306550
575.244173,1685.410096,592.164754,8290.306550
575.244488,1532.190996,222.061783,8734.430116
575.244804,1378.971896,-74.020594,9030.512492
575.245120,995.924147,-444.123565,9400.615463
575.245435,229.828649,-888.247130,9770.718434
575.245751,76.609550,-1406.391290,10436.903782
575.246067,-766.095498,-1332.370696,10658.965565
575.246382,-1378.971896,-1036.288319,10658.965565
575.246698,-1072.533697,-740.205942,10140.821405
575.247014,-842.705048,-296.082377,9992.780217
575.247329,-1072.533697,-0.000000,9548.656652
575.247645,-919.314598,-0.000000,9474.636058
575.247961,-229.828649,-74.020594,9030.512492
575.248276,-76.609550,-222.061783,9104.533087
575.248592,-229.828649,-370.102971,9474.636058
575.248908,536.266849,-222.061783,9622.677246
575.249223,766.095498,-666.185348,9326.594869
575.249539,995.924147,-666.185348,9474.636058
575.249855,1149.143247,-666.185348,10066.800811
575.250170,842.705048,-0.000000,10140.821405
575.250486,1225.752797,-0.000000,9696.697840
575.250802,1455.581446,962.267725,9178.553681
575.251117,1532.190996,1406.391290,9030.512492
575.251433,1838.629195,1628.453072,8882.471304
575.251749,1302.362347,1702.473667,8660.409521
575.252064,1455.581446,888.247130,8512.368333
575.252380,919.314598,518.144159,8808.450710
575.252696,536.266849,-222.061783,8882.471304
575.253012,306.438199,-740.205942,9696.697840
575.253327,0.000000,-1110.308913,9548.656652
575.253643,-459.657299,-1332.370696,10214.842000
575.253959,-919.314598,-1258.350101,10658.965565
575.254274,-1455.581446,-1628.453072,10807.006753
575.254590,-1378.971896,-1406.391290,10510.924376
575.254906,-1378.971896,-740.205942,9992.780217
575.255221,-1302.362347,-222.061783,9696.697840
575.255537,-919.314598,-0.000000,9770.718434
575.255853,-459.657299,-0.000000,9030.512492
575.256168,0.000000,-74.020594,8956.491898
575.256484,306.438199,-370.102971,8956.491898
575.256800,229.828649,-666.185348,9104.533087
575.257115,76.609550,-814.226536,9326.594869
575.257431,459.657299,-1036.288319,9474.636058
575.257747,153.219100,-1036.288319,9992.780217
575.258062,1149.143247,-592.164754,10362.883188
575.258378,842.705048,-592.164754,9992.780217
575.258694,766.095498,-370.102971,9918.759623
575.259009,1455.581446,296.082377,9548.656652
575.259325,1072.533697,740.205942,9104.533087
575.259641,1915.238745,1258.350101,8808.450710
575.259956,1991.848295,1554.432478,8364.327145
575.260272,2451.505594,1406.391290,8216.285956
575.260588,2145.067394,888.247130,8068.244768
575.260903,1915.238745,296.082377,8512.368333
575.261219,1915.238745,-0.000000,8586.388927
575.261535,1302.362347,-444.123565,8882.471304
575.261851,842.705048,-888.247130,9400.615463
575.262166,76.609550,-1258.350101,10066.800811
575.262482,-536.266849,-1924.535449,10362.883188
575.262798,-1072.533697,-1480.411884,10584.944971
575.263113,-1225.752797,-1184.329507,10436.903782
575.263429,-1149.143247,-444.123565,9992.780217
575.263745,-1302.362347,-74.020594,10214.842000
575.264060,-919.314598,-0.000000,9548.656652
575.264376,-229.828649,-0.000000,9252.574275
575.264692,0.000000,-0.000000,9104.533087
575.265007,76.609550,-370.102971,9030.512492
575.265323,229.828649,-666.185348,9474.636058
575.265639,766.095498,-518.144159,9104.533087
575.265954,995.924147,-518.144159,9326.594869
575.266270,1225.752797,-370.102971,9770.718434
575.266586,1302.362347,-592.164754,10066.800811
575.266901,1378.971896,-74.020594,9770.718434
575.267217,1608.800546,666.185348,9474.636058
575.267533,1762.019645,1110.308913,9178.553681
575.267848,1685.410096,1480.411884,9104.533087
575.268164,1455.581446,1332.370696,8882.471304
575.268480,1455.581446,1332.370696,8660.409521
575.268795,1302.362347,888.247130,8956.491898
575.269111,842.705048,222.061783,8956.491898
575.269427,229.828649,-296.082377,9474.636058
575.269742,0.000000,-962.267725,9622.677246
575.270058,-306.438199,-1258.350101,9918.759623
575.270374,-766.095498,-1332.370696,10214.842000
575.270690,-1302.362347,-1480.411884,10658.965565
575.271005,-1378.971896,-1332.370696,10955.047942
575.271321,-1455.581446,-1406.391290,10362.883188
575.271637,-995.924147,-592.164754,9918.759623
575.271952,-1072.533697,-0.000000,9696.697840
575.272268,-689.485948,-0.000000,9474.636058
575.272584,-306.438199,-148.041188,8956.491898
575.272899,76.609550,-370.102971,8956.491898
575.273215,306.438199,-296.082377,9104.533087
575.273531,229.828649,-592.164754,9030.512492
575.273846,536.266849,-814.226536,9252.574275
575.274162,459.657299,-592.164754,9474.636058
575.274478,766.095498,-888.247130,9844.739029
575.274793,842.705048,-740.205942,10362.883188
575.275109,1072.533697,-814.226536,10214.842000
575.275425,995.924147,-74.020594,9770.718434
575.275740,1149.143247,740.205942,9474.636058
575.276056,1149.143247,1036.288319,9326.594869
575.276372,1762.019645,1406.391290,8882.471304
575.276687,1685.410096,1480.411884,8364.327145
575.277003,2145.067394,1332.370696,8364.327145
575.277319,1762.019645,740.205942,7994.224174
575.277634,1608.800546,296.082377,8660.409521
575.277950,1608.800546,-222.061783,8734.430116
575.278266,1302.362347,-666.185348,9326.594869
575.278581,459.657299,-962.267725,9400.615463
575.278897,306.438199,-1480.411884,10066.800811
575.279213,-459.657299,-1776.494261,10584.944971
575.279529,-842.705048,-1258.350101,10658.965565
575.279844,-1149.143247,-888.247130,10288.862594
575.280160,-995.924147,-370.102971,9918.759623
575.280476,-1302.362347,-74.020594,9992.780217
575.280791,-766.095498,-148.041188,9474.636058
575.281107,-612.876398,-0.000000,8956.491898
575.281423,-153.219100,-444.123565,9178.553681
575.281738,0.000000,-592.164754,8956.491898
575.282054,383.047749,-518.144159,9474.636058
575.282370,919.314598,-592.164754,9178.553681
575.282685,1072.533697,-518.144159,9474.636058
575.283001,1455.581446,-370.102971,9918.759623
575.283317,1302.362347,-370.102971,9918.759623
575.283632,1532.190996,148.041188,9770.718434
575.283948,1608.800546,740.205942,9474.636058
575.284264,1608.800546,1110.308913,9252.574275
575.284579,1762.019645,1480.411884,8956.491898
575.284895,1685.410096,1702.473667,8808.450710
575.285211,1762.019645,962.267725,8512.368333
575.285526,1225.752797,740.205942,8808.450710
575.285842,842.705048,296.082377,8956.491898
575.286158,459.657299,-222.061783,9622.677246
575.286474,0.000000,-666.185348,9844.739029
575.286789,0.000000,-1110.308913,10288.862594
575.287105,-766.095498,-1480.411884,10288.862594
575.287421,-1455.581446,-1480.411884,11029.068536
575.287736,-1225.752797,-1184.329507,10881.027347
575.288052,-1455.581446,-666.185348,10510.924376
575.288368,-766.095498,-814.226536,9548.656652
575.288683,-689.485948,-0.000000,9770.718434
575.288999,-766.095498,-0.000000,9178.553681
575.289315,-306.438199,-0.000000,9178.553681
575.289630,76.609550,-296.082377,8808.450710
575.289946,153.219100,-370.102971,8956.491898
575.290262,153.219100,-740.205942,9400.615463
575.290577,536.266849,-666.185348,9252.574275
575.290893,842.705048,-666.185348,9548.656652
575.291209,1072.533697,-666.185348,9918.759623
575.291524,919.314598,-814.226536,10066.800811
575.291840,995.924147,-444.123565,9992.780217
575.292156,1225.752797,518.144159,9696.697840
575.292471,1685.410096,1036.288319,9252.574275
575.292787,1608.800546,1406.391290,9178.553681
575.293103,1685.410096,1702.473667,8660.409521
575.293418,1838.629195,1628.453072,8438.347739
575.293734,2068.457845,1406.391290,8364.327145
575.294050,1762.019645,740.205942,8290.306550
575.294365,1225.752797,222.061783,8956.491898
575.294681,1225.752797,-222.061783,9030.512492
575.294997,689.485948,-592.164754,9326.594869
575.295312,229.828649,-1036.288319,9696.697840
575.295628,-536.266849,-1258.350101,10584.944971
575.295944,-766.095498,-1332.370696,10658.965565
575.296259,-995.924147,-1184.329507,10510.924376
575.296575,-1149.143247,-592.164754,10066.800811
575.296891,-1149.143247,-296.082377,9844.739029
575.297206,-1149.143247,-74.020594,9474.636058
575.297522,-459.657299,-0.000000,9252.574275
575.297838,-153.219100,-148.041188,9030.512492
575.298154,153.219100,-518.144159,8882.471304
575.298469,153.219100,-518.144159,9252.574275
575.298785,76.609550,-814.226536,9474.636058
575.299101,689.485948,-740.205942,8882.471304
575.299416,1149.143247,-666.185348,9548.656652
575.299732,919.314598,-740.205942,9844.739029
575.300048,1225.752797,-592.164754,9992.780217
575.300363,1378.971896,-0.000000,9770.718434
575.300679,1608.800546,444.123565,9400.615463
575.300995,1608.800546,962.267725,9104.533087
575.301310,1532.190996,1480.411884,8882.471304
575.301626,1608.800546,1258.350101,8734.430116
575.301942,1532.190996,1110.308913,8586.388927
575.302257,842.705048,666.185348,8586.388927
575.302573,459.657299,-0.000000,8882.471304
575.302889,153.219100,-740.205942,9548.656652
575.303204,0.000000,-1184.329507,9770.718434
575.303520,-383.047749,-1480.411884,10066.800811
575.303836,-995.924147,-1776.494261,10732.986159
575.304151,-1149.143247,-1850.514855,10955.047942
575.304467,-1685.410096,-1628.453072,10658.965565
575.304783,-1302.362347,-814.226536,10362.883188
575.305098,-1302.362347,-370.102971,10066.800811
575.305414,-459.657299,296.082377,9474.636058
575.305730,-536.266849,222.061783,9178.553681
575.306045,0.000000,-148.041188,8808.450710
575.306361,383.047749,-296.082377,8882.471304
575.306677,153.219100,-666.185348,8808.450710
575.306992,306.438199,-666.185348,9104.533087
575.307308,689.485948,-962.267725,9474.636058
575.307624,689.485948,-962.267725,9622.677246
575.307939,1762.019645,-740.205942,9918.759623
575.308255,1225.752797,-518.144159,10214.842000
575.308571,995.924147,-518.144159,10214.842000
575.308887,1225.752797,222.061783,9696.697840
575.309202,1608.800546,962.267725,9178.553681
575.309518,1991.848295,1332.370696,9030.512492
575.309834,1915.238745,1554.432478,8364.327145
575.310149,2221.676944,1554.432478,8142.265362
575.310465,1991.848295,1036.288319,8290.306550
575.310781,1915.238745,592.164754,8512.368333
575.311096,1302.362347,-74.020594,8882.471304
575.311412,1302.362347,-148.041188,9030.512492
575.311728,766.095498,-666.185348,9252.574275
575.312043,76.609550,-1184.329507,9992.780217
575.312359,0.000000,-1406.391290,10658.965565
575.312675,-1149.143247,-1628.453072,10584.944971
575.312990,-1302.362347,-962.267725,10362.883188
575.313306,-995.924147,-444.123565,9844.739029
575.313622,-1072.533697,-222.061783,9696.697840
575.313937,-1072.533697,-0.000000,9622.677246
575.314253,-612.876398,-0.000000,9252.574275
575.314569,0.000000,-222.061783,8882.471304
575.314884,0.000000,-370.102971,8882.471304
575.315200,229.828649,-444.123565,9326.594869
575.315516,689.485948,-296.082377,9326.594869
575.315831,995.924147,-518.144159,9400.615463
575.316147,1378.971896,-74.020594,9696.697840
575.316463,1302.362347,-148.041188,10066.800811
575.316778,1072.533697,-0.000000,9844.739029
575.317094,1149.143247,518.144159,9770.718434
575.317410,1762.019645,1036.288319,9178.553681
575.317725,1608.800546,1332.370696,9104.533087
575.318041,1302.362347,1702.473667,9104.533087
575.318357,995.924147,1554.432478,8734.430116
575.318672,1072.533697,666.185348,8734.430116
575.318988,995.924147,444.123565,8660.409521
575.319304,153.219100,-0.000000,9474.636058
575.319619,0.000000,-518.144159,9844.739029
575.319935,-306.438199,-962.267725,9992.780217
575.320251,-612.876398,-1258.350101,10140.821405
575.320567,-995.924147,-1554.432478,10584.944971
575.320882,-1302.362347,-1850.514855,10584.944971
575.321198,-1608.800546,-962.267725,10584.944971
575.321514,-1455.581446,-740.205942,10214.842000
575.321829,-1072.533697,-296.082377,9918.759623
575.322145,-995.924147,-74.020594,9696.697840
575.322461,-459.657299,-0.000000,9252.574275
575.322776,-153.219100,-0.000000,9104.533087
575.323092,306.438199,-370.102971,9104.533087
575.323408,306.438199,-518.144159,9252.574275
575.323723,459.657299,-592.164754,9622.677246
575.324039,766.095498,-888.247130,9474.636058
575.324355,1072.533697,-814.226536,9770.718434
575.324670,919.314598,-666.185348,10140.821405
575.324986,842.705048,-444.123565,9992.780217
575.325302,1302.362347,-0.000000,9770.718434
575.325617,1225.752797,518.144159,9326.594869
575.325933,1685.410096,1110.308913,9178.553681
575.326249,2145.067394,1554.432478,9326.594869
575.326564,2068.457845,1480.411884,8364.327145
575.326880,1915.238745,1332.370696,8142.265362
575.327196,2221.676944,592.164754,8290.306550
575.327511,1762.019645,-0.000000,8364.327145
575.327827,1225.752797,-222.061783,9178.553681
575.328143,995.924147,-740.205942,9252.574275
575.328458,842.705048,-740.205942,9474.636058
575.328774,0.000000,-1110.308913,10214.842000
575.329090,-229.828649,-1628.453072,10362.883188
575.329405,-1149.143247,-1480.411884,10584.944971
575.329721,-1072.533697,-1110.308913,9992.780217
575.330037,-995.924147,-370.102971,9918.759623
575.330352,-689.485948,-222.061783,9696.697840
575.330668,-459.657299,296.082377,9400.615463
575.330984,-153.219100,-222.061783,9474.636058
575.331300,153.219100,-0.000000,9030.512492
575.331615,153.219100,-370.102971,8808.450710
575.331931,612.876398,-592.164754,9178.553681
575.332247,919.314598,-370.102971,9326.594869
575.332562,1378.971896,-444.123565,9548.656652
575.332878,1378.971896,-370.102971,9696.697840
575.333194,1378.971896,-296.082377,9992.780217
575.333509,1455.581446,-0.000000,9844.739029
575.333825,1685.410096,666.185348,9474.636058
575.334141,1838.629195,1332.370696,9400.615463
575.334456,1991.848295,1554.432478,8882.471304
575.334772,1532.190996,1554.432478,8586.388927
575.335088,1378.971896,1480.411884,8734.430116
575.335403,1991.848295,740.205942,8660.409521
575.335719,995.924147,148.041188,8808.450710
575.336035,459.657299,-222.061783,9400.615463
575.336350,0.000000,-592.164754,9844.739029
575.336666,0.000000,-888.247130,9770.718434
575.336982,-689.485948,-1184.329507,10140.821405
575.337297,-766.095498,-1554.432478,10955.047942
575.337613,-1685.410096,-1628.453072,11029.068536
575.337929,-1455.581446,-1036.288319,10584.944971
575.338244,-1378.971896,-592.164754,9844.739029
575.338560,-612.876398,-296.082377,9770.718434
575.338876,-689.485948,222.061783,9548.656652
575.339191,-612.876398,-0.000000,9178.553681
575.339507,-76.609550,-74.020594,9030.512492
575.339823,0.000000,-518.144159,9104.533087
575.340138,842.705048,-592.164754,9474.636058
575.340454,536.266849,-814.226536,9326.594869
575.340770,766.095498,-740.205942,9474.636058
575.341085,919.314598,-444.123565,9992.780217
575.341401,689.485948,-592.164754,10288.862594
575.341717,919.314598,-444.123565,10288.862594
575.342032,1072.533697,-0.000000,9918.759623
575.342348,1608.800546,814.226536,9252.574275
575.342664,2068.457845,1332.370696,9104.533087
575.342980,1991.848295,1702.473667,8808.450710
575.343295,1991.848295,1554.432478,8438.347739
575.343611,2221.676944,1036.288319,8142.265362
575.343927,2068.457845,518.144159,8290.306550
575.344242,1685.410096,148.041188,8586.388927
575.344558,1149.143247,-370.102971,9104.533087
575.344874,995.924147,-814.226536,9252.574275
575.345189,536.266849,-888.247130,9622.677246
575.345505,0.000000,-1628.453072,10362.883188
575.345821,-919.314598,-1628.453072,10658.965565
575.346136,-1149.143247,-1332.370696,10510.924376
575.346452,-1225.752797,-814.226536,10288.862594
575.346768,-919.314598,-814.226536,9844.739029
575.347083,-1072.533697,-444.123565,9844.739029
575.347399,-919.314598,-296.082377,9474.636058
575.347715,-536.266849,-370.102971,9474.636058
575.348030,0.000000,-666.185348,8882.471304
575.348346,229.828649,-296.082377,9252.574275
575.348662,612.876398,-518.144159,9178.553681
575.348977,1302.362347,-888.247130,9326.594869
575.349293,1455.581446,-370.102971,9326.594869
575.349609,1762.019645,-444.123565,9622.677246
575.349924,1838.629195,-148.041188,9622.677246
575.350240,1762.019645,148.041188,9696.697840
575.350556,2068.457845,592.164754,9252.574275
575.350871,2068.457845,1184.329507,9104.533087
575.351187,1838.629195,1406.391290,8882.471304
575.351503,1378.971896,962.267725,8512.368333
575.351818,1225.752797,1110.308913,8660.409521
575.352134,1149.143247,444.123565,8808.450710
575.352450,612.876398,-0.000000,8956.491898
575.352765,0.000000,-592.164754,9548.656652
575.353081,0.000000,-1036.288319,9770.718434
575.353397,-536.266849,-1184.329507,9696.697840
575.353712,-1225.752797,-1332.370696,10510.924376
