#time,accel_x,accel_y,accel_z
1129.371776,383.047749,-148.041188,9474.636058
1129.372091,229.828649,-0.000000,9622.677246
1129.372407,689.485948,-370.102971,9474.636058
1129.372722,229.828649,-74.020594,9622.677246
1129.373038,306.438199,-74.020594,9696.697840
1129.373353,306.438199,-222.061783,9474.636058
1129.373669,306.438199,-296.082377,9474.636058
1129.373984,153.219100,-74.020594,9770.718434
1129.374300,536.266849,-0.000000,9548.656652
1129.374615,459.657299,-148.041188,9474.636058
1129.374931,536.266849,-0.000000,9474.636058
1129.375246,306.438199,-148.041188,9548.656652
1129.375562,229.828649,-370.102971,9474.636058
1129.375877,229.828649,-74.020594,9696.697840
1129.376193,383.047749,-0.000000,9548.656652
1129.376508,229.828649,-0.000000,9326.594869
1129.376824,76.609550,-0.000000,9474.636058
1129.377139,459.657299,148.041188,9400.615463
1129.377455,536.266849,666.185348,9030.512492
1129.377770,459.657299,518.144159,9400.615463
1129.378086,612.876398,370.102971,9252.574275
1129.378401,612.876398,370.102971,8956.491898
1129.378717,383.047749,222.061783,9326.594869
1129.379033,689.485948,-0.000000,9622.677246
1129.379348,459.657299,-74.020594,9548.656652
1129.379664,995.924147,444.123565,9548.656652
1129.379979,306.438199,518.144159,9548.656652
1129.380295,536.266849,592.164754,9622.677246
1129.380610,229.828649,814.226536,9474.636058
1129.380926,383.047749,962.267725,9326.594869
1129.381241,612.876398,962.267725,9178.553681
1129.381557,306.438199,814.226536,9326.594869
1129.381872,306.438199,888.247130,9326.594869
1129.382188,229.828649,888.247130,9178.553681
1129.382503,76.609550,740.205942,9400.615463
1129.382819,0.000000,592.164754,9400.615463
1129.383134,0.000000,1110.308913,9474.636058
1129.383450,-229.828649,1110.308913,9474.636058
1129.383765,76.609550,1332.370696,9326.594869
1129.384081,-383.047749,1332.370696,9326.594869
1129.384396,-766.095498,1776.494261,9326.594869
1129.384712,-919.314598,1554.432478,9252.574275
1129.385027,-919.314598,1332.370696,9326.594869
1129.385343,-1302.362347,1480.411884,9474.636058
1129.385658,-1608.800546,1554.432478,9622.677246
1129.385974,-1532.190996,1406.391290,9696.697840
1129.386290,-1915.238745,1332.370696,9844.739029
1129.386605,-2221.676944,1554.432478,9770.718434
1129.386921,-1991.848295,1628.453072,9622.677246
1129.387236,-2145.067394,1776.494261,9622.677246
1129.387552,-2221.676944,1924.535449,9622.677246
1129.387867,-2145.067394,1998.556043,9770.718434
1129.388183,-2221.676944,1850.514855,9474.636058
1129.388498,-2145.067394,1998.556043,9474.636058
1129.388814,-1915.238745,1776.494261,9474.636058
1129.389129,-2068.457845,1406.391290,9844.739029
1129.389445,-1762.019645,1924.535449,10066.800811
1129.389760,-1762.019645,1628.453072,9696.697840
1129.390076,-1838.629195,1924.535449,9400.615463
1129.390391,-2374.896044,2294.638420,9474.636058
1129.390707,-1608.800546,2220.617826,9178.553681
1129.391022,-1915.238745,2368.659014,9178.553681
1129.391338,-1685.410096,2368.659014,9474.636058
1129.391653,-1685.410096,1924.535449,9326.594869
1129.391969,-1685.410096,1628.453072,9548.656652
1129.392284,-2221.676944,1184.329507,9474.636058
1129.392600,-1991.848295,1184.329507,9622.677246
1129.392915,-2221.676944,962.267725,9696.697840
1129.393231,-2451.505594,592.164754,9770.718434
1129.393546,-2298.286494,1184.329507,9548.656652
1129.393862,-2068.457845,1332.370696,9622.677246
1129.394178,-2068.457845,1184.329507,9770.718434
1129.394493,-2221.676944,1406.391290,9548.656652
1129.394809,-1838.629195,1480.411884,9770.718434
1129.395124,-1608.800546,1628.453072,9548.656652
1129.395440,-1762.019645,1554.432478,9104.533087
1129.395755,-1838.629195,1628.453072,9104.533087
1129.396071,-1915.238745,1924.535449,8882.471304
1129.396386,-1762.019645,2368.659014,8882.471304
1129.396702,-2374.896044,2368.659014,9030.512492
1129.397017,-2451.505594,2072.576638,8956.491898
1129.397333,-2528.115143,1924.535449,9252.574275
1129.397648,-2681.334243,1554.432478,9474.636058
1129.397964,-2528.115143,814.226536,9918.759623
1129.398279,-2374.896044,370.102971,10140.821405
1129.398595,-2221.676944,148.041188,10510.924376
1129.398910,-2221.676944,296.082377,10288.862594
1129.399226,-1608.800546,296.082377,9992.780217
1129.399541,-1378.971896,1110.308913,9622.677246
1129.399857,-459.657299,1924.535449,9474.636058
1129.400172,0.000000,2368.659014,8734.430116
1129.400488,383.047749,2812.782580,8216.285956
1129.400803,919.314598,3108.864956,8068.244768
1129.401119,689.485948,3034.844362,7994.224174
1129.401434,306.438199,2812.782580,8216.285956
1129.401750,-229.828649,2812.782580,8068.244768
1129.402066,-995.924147,2664.741391,8216.285956
1129.402381,-1838.629195,2294.638420,8882.471304
1129.402697,-2221.676944,1332.370696,9252.574275
1129.403012,-2987.772442,1480.411884,10066.800811
1129.403328,-3524.039291,962.267725,10658.965565
1129.403643,-3753.867940,518.144159,11029.068536
1129.403959,-3753.867940,-148.041188,11695.253884
1129.404274,-3370.820191,-0.000000,11325.150913
1129.404590,-2451.505594,296.082377,10881.027347
1129.404905,-1608.800546,740.205942,10214.842000
1129.405221,-306.438199,1258.350101,9548.656652
1129.405536,383.047749,1776.494261,8882.471304
1129.405852,536.266849,2886.803174,8734.430116
1129.406167,1072.533697,3775.050304,7994.224174
1129.406483,1302.362347,4293.194464,7846.182985
1129.406798,1072.533697,4737.318029,7476.080014
1129.407114,383.047749,4515.256246,7179.997637
1129.407429,-612.876398,4293.194464,7328.038826
1129.407745,-1991.848295,3330.926739,8438.347739
1129.408060,-2987.772442,1776.494261,9844.739029
1129.408376,-3907.087040,814.226536,10881.027347
1129.408691,-5745.716235,-666.185348,11547.212695
1129.409007,-5286.058936,-1110.308913,12213.398043
1129.409322,-5439.278036,-1702.473667,12509.480420
1129.409638,-5132.839837,-1406.391290,12657.521608
1129.409954,-3983.696590,-666.185348,11917.315666
1129.410269,-2757.943793,518.144159,10436.903782
1129.410585,-1302.362347,2072.576638,9400.615463
1129.410900,153.219100,3701.029710,8142.265362
1129.411216,1225.752797,5107.421000,6513.812290
1129.411531,1302.362347,5699.585753,5847.626942
1129.411847,1455.581446,5551.544565,6069.688724
1129.412162,919.314598,5255.462188,6809.894666
1129.412478,0.000000,4293.194464,7624.121203
1129.412793,-1225.752797,2442.679609,8808.450710
1129.413109,-3140.991542,296.082377,10584.944971
1129.413424,-3907.087040,-740.205942,11621.233289
1129.413740,-4366.744339,-1184.329507,12435.459826
1129.414055,-4673.182538,-962.267725,12509.480420
1129.414371,-4826.401637,-592.164754,11843.295072
1129.414686,-3907.087040,-0.000000,11251.130318
1129.415002,-3370.820191,1184.329507,10362.883188
1129.415317,-2298.286494,2442.679609,9178.553681
1129.415633,-766.095498,3330.926739,8438.347739
1129.415948,0.000000,3627.009116,7624.121203
1129.416264,459.657299,3923.091493,7105.977043
1129.416579,459.657299,3182.885551,7698.141797
1129.416895,842.705048,2664.741391,8364.327145
1129.417211,612.876398,2368.659014,8364.327145
1129.417526,306.438199,1702.473667,8512.368333
1129.417842,-1072.533697,1850.514855,9474.636058
1129.418157,-1608.800546,1406.391290,9770.718434
1129.418473,-1991.848295,1036.288319,10362.883188
1129.418788,-2298.286494,1554.432478,10362.883188
1129.419104,-3217.601092,1406.391290,9696.697840
1129.419419,-3677.258390,1110.308913,10140.821405
1129.419735,-3140.991542,444.123565,10436.903782
1129.420050,-2451.505594,444.123565,10140.821405
1129.420366,-2374.896044,1406.391290,9474.636058
1129.420681,-2528.115143,1924.535449,8734.430116
1129.420997,-1762.019645,2220.617826,8734.430116
1129.421312,-1378.971896,2442.679609,9178.553681
1129.421628,-1608.800546,2516.700203,9104.533087
1129.421943,-1302.362347,2738.761985,9622.677246
1129.422259,-1072.533697,2146.597232,9474.636058
1129.422574,-995.924147,1850.514855,9474.636058
1129.422890,-1072.533697,1480.411884,9326.594869
1129.423205,-995.924147,888.247130,9770.718434
1129.423521,-842.705048,592.164754,9622.677246
1129.423836,-766.095498,1036.288319,9400.615463
1129.424152,-1378.971896,1776.494261,9474.636058
1129.424467,-1455.581446,1554.432478,9844.739029
1129.424783,-1225.752797,2294.638420,10066.800811
1129.425099,-1072.533697,2812.782580,9326.594869
1129.425414,-1225.752797,2960.823768,8660.409521
1129.425730,-766.095498,2590.720797,8586.388927
1129.426045,-766.095498,2294.638420,8808.450710
1129.426361,-1378.971896,2294.638420,9474.636058
1129.426676,-1915.238745,1924.535449,9622.677246
1129.426992,-2451.505594,962.267725,10288.862594
1129.427307,-2757.943793,962.267725,10510.924376
1129.427623,-2834.553343,1258.350101,10362.883188
1129.427938,-2604.724693,592.164754,10066.800811
1129.428254,-2221.676944,518.144159,10288.862594
1129.428569,-1455.581446,592.164754,9918.759623
1129.428885,-766.095498,740.205942,9548.656652
1129.429200,-536.266849,888.247130,9622.677246
1129.429516,383.047749,1406.391290,9104.533087
1129.429831,689.485948,2294.638420,8512.368333
1129.430147,153.219100,2738.761985,7846.182985
1129.430462,0.000000,3182.885551,8068.244768
1129.430778,-1072.533697,2886.803174,8512.368333
1129.431093,-1302.362347,2886.803174,8808.450710
1129.431409,-1762.019645,1554.432478,9770.718434
1129.431724,-2757.943793,1184.329507,9844.739029
1129.432040,-3370.820191,666.185348,10362.883188
1129.432355,-2987.772442,-370.102971,10214.842000
1129.432671,-4290.134789,-1036.288319,10807.006753
1129.432986,-4443.353888,-592.164754,10807.006753
1129.433302,-3447.429741,-1110.308913,11325.150913
1129.433618,-2987.772442,-814.226536,11029.068536
1129.433933,-2681.334243,-0.000000,10066.800811
1129.434249,-1378.971896,-0.000000,9696.697840
1129.434564,-229.828649,296.082377,8586.388927
1129.434880,229.828649,1480.411884,8586.388927
1129.435195,1302.362347,1998.556043,7994.224174
1129.435511,1991.848295,1924.535449,8068.244768
1129.435826,2068.457845,1924.535449,7920.203579
1129.436142,1915.238745,1406.391290,8068.244768
1129.436457,1991.848295,962.267725,7994.224174
1129.436773,766.095498,370.102971,8660.409521
1129.437088,76.609550,148.041188,9770.718434
1129.437404,689.485948,-592.164754,10436.903782
1129.437719,-383.047749,-592.164754,10807.006753
1129.438035,-766.095498,-296.082377,10362.883188
1129.438350,-766.095498,-518.144159,9178.553681
1129.438666,-995.924147,-962.267725,9992.780217
1129.438981,-842.705048,-888.247130,10732.986159
1129.439297,76.609550,-518.144159,9918.759623
1129.439612,306.438199,148.041188,9992.780217
1129.439928,306.438199,148.041188,9474.636058
1129.440243,612.876398,444.123565,8290.306550
1129.440559,1072.533697,1258.350101,8734.430116
1129.440874,689.485948,814.226536,8364.327145
1129.441190,1378.971896,666.185348,9400.615463
1129.441505,1762.019645,444.123565,9622.677246
1129.441821,1991.848295,-370.102971,9622.677246
1129.442136,1378.971896,-666.185348,9326.594869
1129.442452,1455.581446,-1036.288319,9326.594869
1129.442767,1149.143247,-518.144159,9474.636058
1129.443083,1378.971896,-74.020594,9770.718434
1129.443398,1608.800546,-0.000000,10214.842000
1129.443714,842.705048,740.205942,9178.553681
1129.444030,306.438199,1258.350101,8216.285956
1129.444345,153.219100,-0.000000,8956.491898
1129.444661,0.000000,-74.020594,9548.656652
1129.444976,459.657299,-74.020594,10288.862594
1129.445292,-383.047749,-518.144159,9992.780217
1129.445607,0.000000,-962.267725,9992.780217
1129.445923,-612.876398,-1332.370696,9844.739029
1129.446238,-153.219100,-814.226536,9622.677246
1129.446554,229.828649,-814.226536,9918.759623
1129.446869,919.314598,-0.000000,10510.924376
1129.447185,1225.752797,814.226536,9474.636058
1129.447500,1991.848295,-0.000000,9400.615463
1129.447816,2298.286494,888.247130,8438.347739
1129.448131,2221.676944,592.164754,8068.244768
1129.448447,2068.457845,666.185348,8438.347739
1129.448762,2451.505594,814.226536,8956.491898
1129.449078,1991.848295,1110.308913,8660.409521
1129.449393,1762.019645,1110.308913,9400.615463
1129.449709,0.000000,444.123565,9252.574275
1129.450024,-612.876398,740.205942,9252.574275
1129.450340,-1149.143247,1184.329507,10436.903782
1129.450655,-995.924147,222.061783,10214.842000
1129.450971,-1532.190996,518.144159,10436.903782
1129.451286,-1532.190996,-0.000000,10140.821405
1129.451602,-1685.410096,-296.082377,9622.677246
1129.451917,-1608.800546,-592.164754,10140.821405
1129.452233,-1378.971896,-962.267725,10362.883188
1129.452548,-612.876398,-296.082377,10362.883188
1129.452864,-459.657299,370.102971,9770.718434
1129.453179,-383.047749,740.205942,9178.553681
1129.453495,0.000000,1110.308913,8586.388927
1129.453811,0.000000,1110.308913,8808.450710
1129.454126,612.876398,1036.288319,9474.636058
1129.454442,536.266849,1036.288319,9400.615463
1129.454757,76.609550,518.144159,9400.615463
1129.455073,306.438199,370.102971,9326.594869
1129.455388,-383.047749,-518.144159,9104.533087
1129.455704,-153.219100,-1110.308913,9992.780217
1129.456019,-229.828649,-962.267725,10140.821405
1129.456335,-612.876398,-1258.350101,10140.821405
1129.456650,-459.657299,-1480.411884,10807.006753
1129.456966,0.000000,-1406.391290,10362.883188
1129.457281,306.438199,-740.205942,9030.512492
1129.457597,306.438199,-0.000000,8956.491898
1129.457912,1302.362347,-370.102971,9400.615463
1129.458228,1838.629195,-518.144159,9844.739029
1129.458543,1685.410096,370.102971,9252.574275
1129.458859,1225.752797,-296.082377,8438.347739
1129.459174,1072.533697,-962.267725,9104.533087
1129.459490,1225.752797,222.061783,9400.615463
1129.459805,995.924147,-0.000000,8808.450710
1129.460121,1149.143247,-74.020594,10288.862594
1129.460436,995.924147,-222.061783,9770.718434
1129.460752,459.657299,-1258.350101,9326.594869
1129.461067,612.876398,-740.205942,9474.636058
1129.461383,842.705048,-888.247130,9622.677246
1129.461698,1608.800546,-518.144159,9400.615463
1129.462014,1532.190996,-444.123565,9548.656652
1129.462329,1915.238745,-296.082377,8956.491898
1129.462645,1762.019645,74.020594,9104.533087
1129.462960,1225.752797,222.061783,8142.265362
1129.463276,1685.410096,370.102971,8364.327145
1129.463592,1838.629195,148.041188,10066.800811
1129.463907,1225.752797,-0.000000,9030.512492
1129.464223,919.314598,296.082377,9474.636058
1129.464538,689.485948,-1332.370696,9548.656652
1129.464854,459.657299,-1480.411884,10288.862594
1129.465169,612.876398,-444.123565,9548.656652
1129.465485,842.705048,-666.185348,9770.718434
1129.465800,612.876398,-370.102971,9918.759623
1129.466116,306.438199,-592.164754,9696.697840
1129.466431,689.485948,-518.144159,9622.677246
1129.466747,383.047749,-0.000000,9400.615463
1129.467062,612.876398,296.082377,8956.491898
1129.467378,1225.752797,-0.000000,9548.656652
1129.467693,1149.143247,-1036.288319,9548.656652
1129.468009,612.876398,-740.205942,9030.512492
1129.468324,-229.828649,-296.082377,9622.677246
1129.468640,0.000000,-740.205942,9696.697840
1129.468955,229.828649,296.082377,9622.677246
1129.469271,536.266849,592.164754,9622.677246
1129.469586,0.000000,814.226536,8956.491898
1129.469902,-459.657299,-148.041188,9844.739029
1129.470217,-842.705048,-814.226536,9992.780217
1129.470533,-536.266849,-1036.288319,9474.636058
1129.470848,0.000000,-814.226536,10510.924376
1129.471164,0.000000,-444.123565,9400.615463
1129.471479,76.609550,-0.000000,9326.594869
1129.471795,0.000000,-518.144159,9104.533087
1129.472110,-229.828649,-592.164754,9326.594869
1129.472426,-153.219100,296.082377,9326.594869
1129.472741,-229.828649,740.205942,9400.615463
1129.473057,229.828649,222.061783,9252.574275
1129.473373,0.000000,-518.144159,9918.759623
1129.473688,0.000000,592.164754,9104.533087
1129.474004,-153.219100,-814.226536,9400.615463
1129.474319,76.609550,-0.000000,10436.903782
1129.474635,76.609550,-0.000000,8956.491898
1129.474950,76.609550,-222.061783,9770.718434
1129.475266,383.047749,-0.000000,9548.656652
1129.475581,0.000000,-888.247130,9030.512492
1129.475897,383.047749,-0.000000,9474.636058
1129.476212,919.314598,-74.020594,9474.636058
1129.476528,383.047749,370.102971,9252.574275
1129.476843,612.876398,740.205942,9326.594869
1129.477159,0.000000,-0.000000,8734.430116
1129.477474,383.047749,-222.061783,9400.615463
1129.477790,-306.438199,-0.000000,9400.615463
1129.478105,76.609550,-962.267725,10140.821405
1129.478421,306.438199,-296.082377,10362.883188
1129.478736,536.266849,222.061783,9326.594869
1129.479052,153.219100,-370.102971,9400.615463
1129.479367,-229.828649,-518.144159,9474.636058
1129.479683,229.828649,-370.102971,9474.636058
1129.479998,766.095498,-370.102971,9844.739029
1129.480314,919.314598,-0.000000,9474.636058
1129.480629,1225.752797,-444.123565,9548.656652
1129.480945,1378.971896,-74.020594,9326.594869
1129.481260,1378.971896,-148.041188,9252.574275
1129.481576,1225.752797,148.041188,8216.285956
1129.481891,1455.581446,592.164754,10066.800811
1129.482207,1608.800546,444.123565,9104.533087
1129.482522,1378.971896,592.164754,8660.409521
1129.482838,1378.971896,-148.041188,9918.759623
1129.483154,383.047749,-518.144159,9030.512492
1129.483469,689.485948,-0.000000,9548.656652
1129.483785,995.924147,-222.061783,10288.862594
1129.484100,689.485948,-148.041188,9770.718434
1129.484416,766.095498,-0.000000,9696.697840
1129.484731,383.047749,-222.061783,8956.491898
1129.485047,612.876398,-296.082377,9474.636058
1129.485362,612.876398,-0.000000,9622.677246
1129.485678,1072.533697,-0.000000,9696.697840
1129.485993,612.876398,-222.061783,8956.491898
1129.486309,229.828649,-0.000000,9400.615463
1129.486624,153.219100,-74.020594,9252.574275
1129.486940,0.000000,370.102971,9474.636058
1129.487255,612.876398,888.247130,9548.656652
1129.487571,766.095498,740.205942,9326.594869
1129.487886,76.609550,740.205942,9474.636058
1129.488202,0.000000,-370.102971,9178.553681
1129.488517,-612.876398,-666.185348,8882.471304
1129.488833,-689.485948,-444.123565,9696.697840
1129.489148,-229.828649,-518.144159,10510.924376
1129.489464,-766.095498,-296.082377,9918.759623
1129.489779,-919.314598,-0.000000,9844.739029
1129.490095,-536.266849,-0.000000,9622.677246
1129.490410,-153.219100,-0.000000,8734.430116
1129.490726,-536.266849,-222.061783,9548.656652
1129.491041,-153.219100,-814.226536,10362.883188
1129.491357,0.000000,-740.205942,10214.842000
1129.491672,0.000000,-444.123565,9400.615463
1129.491988,76.609550,-518.144159,9326.594869
1129.492303,-229.828649,-666.185348,9252.574275
1129.492619,306.438199,-814.226536,9548.656652
1129.492935,0.000000,-370.102971,9474.636058
1129.493250,383.047749,-1110.308913,10214.842000
1129.493566,383.047749,-592.164754,10066.800811
1129.493881,-153.219100,-740.205942,9252.574275
1129.494197,459.657299,-148.041188,8956.491898
1129.494512,919.314598,-592.164754,9474.636058
1129.494828,612.876398,-740.205942,9696.697840
1129.495143,612.876398,-518.144159,10214.842000
1129.495459,842.705048,-814.226536,9696.697840
1129.495774,383.047749,-1036.288319,9252.574275
1129.496090,0.000000,-518.144159,9474.636058
1129.496405,536.266849,-222.061783,9474.636058
1129.496721,612.876398,-0.000000,9844.739029
1129.497036,766.095498,148.041188,9622.677246
1129.497352,842.705048,-74.020594,9400.615463
1129.497667,612.876398,-148.041188,8660.409521
1129.497983,459.657299,-148.041188,8882.471304
1129.498298,1378.971896,-222.061783,9474.636058
1129.498614,1455.581446,-0.000000,9178.553681
1129.498929,1149.143247,222.061783,9326.594869
1129.499245,919.314598,-0.000000,8734.430116
1129.499560,536.266849,-296.082377,9104.533087
1129.499876,689.485948,-592.164754,9400.615463
1129.500191,766.095498,-74.020594,9770.718434
1129.500507,1302.362347,-0.000000,8956.491898
1129.500822,689.485948,-222.061783,9252.574275
1129.501138,612.876398,-370.102971,9104.533087
1129.501453,612.876398,-370.102971,9326.594869
1129.501769,306.438199,518.144159,8882.471304
1129.502084,689.485948,444.123565,9104.533087
1129.502400,842.705048,-0.000000,9696.697840
1129.502715,383.047749,-0.000000,9548.656652
1129.503031,766.095498,-0.000000,9178.553681
1129.503347,229.828649,666.185348,9104.533087
1129.503662,766.095498,888.247130,9178.553681
1129.503978,1072.533697,222.061783,9474.636058
1129.504293,1302.362347,148.041188,9696.697840
1129.504609,1149.143247,444.123565,9252.574275
1129.504924,766.095498,222.061783,9252.574275
1129.505240,459.657299,444.123565,9400.615463
1129.505555,536.266849,962.267725,9178.553681
1129.505871,612.876398,888.247130,9474.636058
1129.506186,76.609550,666.185348,10066.800811
1129.506502,-153.219100,222.061783,9548.656652
1129.506817,-995.924147,-370.102971,9474.636058
1129.507133,-1072.533697,-0.000000,10288.862594
1129.507448,0.000000,-0.000000,10214.842000
1129.507764,-306.438199,-444.123565,9622.677246
1129.508079,-459.657299,-370.102971,10807.006753
1129.508395,-689.485948,-740.205942,10510.924376
1129.508710,-459.657299,-592.164754,9548.656652
1129.509026,-536.266849,-74.020594,9622.677246
1129.509341,-306.438199,370.102971,9622.677246
1129.509657,306.438199,148.041188,9844.739029
1129.509972,383.047749,296.082377,9696.697840
1129.510288,0.000000,-0.000000,9474.636058
1129.510603,0.000000,-444.123565,9844.739029
1129.510919,536.266849,-666.185348,9770.718434
1129.511234,459.657299,-296.082377,9178.553681
1129.511550,459.657299,-592.164754,9992.780217
1129.511865,306.438199,-1110.308913,10658.965565
1129.512181,-306.438199,-814.226536,9770.718434
1129.512496,-459.657299,-814.226536,9918.759623
1129.512812,229.828649,-444.123565,9992.780217
1129.513128,536.266849,-148.041188,9770.718434
1129.513443,536.266849,-148.041188,9178.553681
1129.513759,995.924147,-592.164754,9474.636058
1129.514074,995.924147,-962.267725,8956.491898
1129.514390,689.485948,-962.267725,9030.512492
1129.514705,842.705048,-1184.329507,9178.553681
1129.515021,995.924147,-1258.350101,9252.574275
1129.515336,1225.752797,-962.267725,9770.718434
1129.515652,689.485948,-740.205942,9622.677246
1129.515967,1225.752797,-518.144159,8882.471304
1129.516283,919.314598,-962.267725,8734.430116
1129.516598,1608.800546,444.123565,8956.491898
1129.516914,1608.800546,296.082377,8586.388927
1129.517229,1685.410096,-74.020594,8882.471304
1129.517545,1532.190996,-74.020594,8956.491898
1129.517860,1072.533697,-444.123565,8216.285956
1129.518176,1302.362347,-444.123565,8512.368333
1129.518491,1149.143247,-518.144159,8734.430116
1129.518807,842.705048,-592.164754,9252.574275
1129.519122,1455.581446,-1036.288319,9992.780217
1129.519438,919.314598,-296.082377,8808.450710
1129.519753,536.266849,-296.082377,9104.533087
1129.520069,766.095498,-518.144159,9104.533087
1129.520384,1072.533697,-888.247130,9400.615463
1129.520700,1072.533697,-740.205942,9992.780217
1129.521015,919.314598,-222.061783,9178.553681
1129.521331,842.705048,-666.185348,8512.368333
1129.521646,536.266849,-444.123565,9104.533087
1129.521962,689.485948,-74.020594,9104.533087
1129.522277,1149.143247,-74.020594,8660.409521
1129.522593,842.705048,296.082377,9770.718434
1129.522909,766.095498,-74.020594,9400.615463
1129.523224,689.485948,-74.020594,9400.615463
1129.523540,383.047749,-0.000000,9030.512492
1129.523855,0.000000,-0.000000,8956.491898
1129.524171,0.000000,-222.061783,10140.821405
1129.524486,153.219100,-0.000000,9992.780217
1129.524802,-536.266849,-0.000000,9474.636058
1129.525117,-536.266849,222.061783,9696.697840
1129.525433,-1149.143247,-0.000000,9770.718434
1129.525748,-689.485948,222.061783,10140.821405
1129.526064,-536.266849,-148.041188,10881.027347
1129.526379,-536.266849,-0.000000,10510.924376
1129.526695,-383.047749,296.082377,9844.739029
1129.527010,-842.705048,-148.041188,9622.677246
1129.527326,0.000000,-148.041188,9918.759623
1129.527641,0.000000,222.061783,9696.697840
1129.527957,229.828649,-0.000000,9918.759623
1129.528272,459.657299,-0.000000,10140.821405
1129.528588,459.657299,444.123565,9918.759623
1129.528903,-76.609550,-0.000000,9178.553681
1129.529219,-76.609550,370.102971,9548.656652
1129.529534,306.438199,148.041188,9918.759623
1129.529850,306.438199,222.061783,9770.718434
1129.530165,306.438199,-0.000000,10066.800811
1129.530481,306.438199,-666.185348,9844.739029
1129.530797,76.609550,-592.164754,9770.718434
1129.531112,76.609550,-666.185348,9992.780217
1129.531428,229.828649,-592.164754,9844.739029
1129.531744,536.266849,-0.000000,10362.883188
1129.532059,229.828649,592.164754,9992.780217
1129.532375,0.000000,148.041188,9178.553681
1129.532690,229.828649,-222.061783,9474.636058
1129.533006,383.047749,-148.041188,9474.636058
1129.533322,842.705048,-74.020594,10066.800811
1129.533637,919.314598,-740.205942,9918.759623
1129.533953,1072.533697,-888.247130,9622.677246
1129.534269,536.266849,-0.000000,8734.430116
1129.534584,689.485948,222.061783,9178.553681
1129.534900,1302.362347,-74.020594,9178.553681
1129.535215,842.705048,296.082377,9030.512492
1129.535531,1225.752797,592.164754,9178.553681
1129.535847,842.705048,-296.082377,9252.574275
1129.536162,995.924147,-296.082377,8882.471304
1129.536478,842.705048,-148.041188,8660.409521
1129.536793,1072.533697,-0.000000,9474.636058
1129.537109,995.924147,-296.082377,9104.533087
1129.537425,689.485948,-518.144159,8882.471304
1129.537740,842.705048,-592.164754,9696.697840
1129.538056,536.266849,-740.205942,8808.450710
1129.538372,995.924147,-296.082377,9400.615463
1129.538687,1225.752797,-0.000000,8808.450710
1129.539003,612.876398,-0.000000,9474.636058
1129.539318,1302.362347,222.061783,9474.636058
1129.539634,1072.533697,-0.000000,8586.388927
1129.539950,459.657299,148.041188,8586.388927
1129.540265,612.876398,222.061783,8586.388927
1129.540581,919.314598,-0.000000,9104.533087
1129.540896,1072.533697,-0.000000,9178.553681
1129.541212,536.266849,-740.205942,10066.800811
1129.541528,0.000000,-666.185348,9770.718434
1129.541843,-766.095498,-148.041188,8734.430116
1129.542159,-383.047749,-0.000000,9474.636058
1129.542475,0.000000,-74.020594,10140.821405
1129.542790,229.828649,-0.000000,9622.677246
1129.543106,0.000000,518.144159,9474.636058
1129.543421,-536.266849,296.082377,9400.615463
1129.543737,-689.485948,-222.061783,9474.636058
1129.544053,-536.266849,-0.000000,9474.636058
1129.544368,0.000000,-370.102971,9844.739029
1129.544684,0.000000,-444.123565,10732.986159
1129.544999,-229.828649,-222.061783,9918.759623
1129.545315,-459.657299,-444.123565,9770.718434
1129.545631,-536.266849,-222.061783,9474.636058
1129.545946,0.000000,222.061783,10288.862594
1129.546262,306.438199,740.205942,9918.759623
1129.546578,383.047749,592.164754,9400.615463
1129.546893,306.438199,222.061783,9696.697840
1129.547209,0.000000,-370.102971,9548.656652
1129.547524,383.047749,-74.020594,9400.615463
1129.547840,153.219100,-592.164754,10066.800811
1129.548156,229.828649,-296.082377,10436.903782
1129.548471,536.266849,-888.247130,10436.903782
1129.548787,76.609550,-888.247130,9622.677246
1129.549102,0.000000,-296.082377,10362.883188
1129.549418,76.609550,-666.185348,9770.718434
1129.549734,612.876398,-518.144159,10066.800811
1129.550049,459.657299,-0.000000,9918.759623
1129.550365,766.095498,-0.000000,9844.739029
1129.550681,1072.533697,-222.061783,8808.450710
1129.550996,536.266849,-370.102971,8586.388927
1129.551312,919.314598,-148.041188,9548.656652
1129.551627,1302.362347,-814.226536,9696.697840
1129.551943,766.095498,-666.185348,9326.594869
1129.552259,612.876398,-1332.370696,10140.821405
1129.552574,766.095498,-740.205942,8956.491898
1129.552890,766.095498,-148.041188,8734.430116
1129.553206,995.924147,-222.061783,9326.594869
1129.553521,1378.971896,148.041188,9326.594869
1129.553837,1225.752797,296.082377,9400.615463
1129.554152,995.924147,222.061783,8364.327145
1129.554468,919.314598,-296.082377,8808.450710
1129.554784,1072.533697,-444.123565,8512.368333
1129.555099,766.095498,-222.061783,8734.430116
1129.555415,612.876398,-814.226536,9474.636058
1129.555730,153.219100,-666.185348,9622.677246
1129.556046,842.705048,-592.164754,9474.636058
1129.556362,0.000000,-592.164754,8290.306550
1129.556677,842.705048,518.144159,8956.491898
1129.556993,1455.581446,-148.041188,9252.574275
1129.557309,1532.190996,148.041188,8956.491898
1129.557624,1532.190996,-0.000000,9104.533087
1129.557940,1149.143247,-370.102971,8290.306550
1129.558255,1685.410096,-0.000000,8068.244768
1129.558571,612.876398,-296.082377,9178.553681
1129.558887,612.876398,148.041188,8956.491898
1129.559202,689.485948,222.061783,9474.636058
1129.559518,383.047749,-0.000000,9178.553681
1129.559833,306.438199,-0.000000,9104.533087
1129.560149,-229.828649,-74.020594,9104.533087
1129.560465,76.609550,-74.020594,9474.636058
1129.560780,76.609550,-222.061783,9918.759623
1129.561096,-306.438199,-888.247130,10288.862594
1129.561412,-995.924147,-0.000000,10658.965565
1129.561727,-612.876398,-222.061783,9400.615463
1129.562043,-842.705048,-0.000000,9548.656652
1129.562358,0.000000,-74.020594,10436.903782
1129.562674,-536.266849,370.102971,9696.697840
1129.562990,153.219100,370.102971,9696.697840
1129.563305,76.609550,-148.041188,9770.718434
1129.563621,0.000000,74.020594,9622.677246
1129.563936,-459.657299,74.020594,9474.636058
1129.564252,-153.219100,740.205942,9474.636058
1129.564568,153.219100,-0.000000,10584.944971
1129.564883,0.000000,296.082377,10658.965565
1129.565199,-153.219100,-296.082377,9548.656652
1129.565515,-842.705048,-592.164754,10288.862594
1129.565830,-612.876398,-1036.288319,10362.883188
1129.566146,-536.266849,-666.185348,10362.883188
1129.566461,0.000000,-444.123565,10436.903782
1129.566777,0.000000,-148.041188,10658.965565
1129.567093,229.828649,-666.185348,9844.739029
1129.567408,0.000000,-814.226536,9474.636058
1129.567724,306.438199,-666.185348,9770.718434
1129.568039,612.876398,-148.041188,9622.677246
1129.568355,1455.581446,-0.000000,9252.574275
1129.568671,1072.533697,-74.020594,9474.636058
1129.568986,995.924147,-0.000000,9400.615463
1129.569302,612.876398,148.041188,9104.533087
1129.569618,919.314598,-0.000000,9030.512492
1129.569933,1532.190996,-370.102971,9178.553681
1129.570249,1838.629195,-814.226536,9992.780217
1129.570564,919.314598,-740.205942,9918.759623
1129.570880,919.314598,-1406.391290,9252.574275
1129.571196,536.266849,-888.247130,9400.615463
1129.571511,995.924147,-740.205942,9400.615463
1129.571827,1302.362347,-444.123565,9474.636058
1129.572143,995.924147,740.205942,8660.409521
1129.572458,995.924147,518.144159,8290.306550
1129.572774,842.705048,-518.144159,8586.388927
1129.573089,612.876398,-518.144159,8882.471304
1129.573405,842.705048,-74.020594,9030.512492
1129.573721,1378.971896,-1110.308913,9252.574275
1129.574036,1302.362347,-1110.308913,9622.677246
1129.574352,919.314598,-888.247130,9252.574275
1129.574667,995.924147,-518.144159,8882.471304
1129.574983,995.924147,-222.061783,8512.368333
1129.575299,919.314598,370.102971,8956.491898
1129.575614,1378.971896,-0.000000,9474.636058
1129.575930,1302.362347,-0.000000,8512.368333
1129.576246,1302.362347,518.144159,8512.368333
1129.576561,919.314598,444.123565,8142.265362
1129.576877,689.485948,-148.041188,8660.409521
1129.577192,612.876398,-0.000000,9400.615463
1129.577508,383.047749,-0.000000,9622.677246
1129.577824,0.000000,-222.061783,9252.574275
1129.578139,-536.266849,-592.164754,9622.677246
1129.578455,-1072.533697,-592.164754,9474.636058
1129.578770,-689.485948,-74.020594,9918.759623
1129.579086,-536.266849,222.061783,10140.821405
1129.579402,-689.485948,148.041188,10362.883188
1129.579717,-306.438199,592.164754,9178.553681
1129.580033,-383.047749,-444.123565,9252.574275
1129.580349,-459.657299,-148.041188,9400.615463
1129.580664,0.000000,-0.000000,9992.780217
1129.580980,76.609550,222.061783,9178.553681
1129.581295,229.828649,370.102971,9992.780217
1129.581611,536.266849,296.082377,10288.862594
1129.581927,229.828649,666.185348,9178.553681
1129.582242,0.000000,370.102971,9474.636058
1129.582558,0.000000,518.144159,9548.656652
1129.582873,306.438199,518.144159,9918.759623
1129.583189,0.000000,-0.000000,10584.944971
1129.583505,-76.609550,-0.000000,10140.821405
1129.583820,-612.876398,-518.144159,9992.780217
1129.584136,-766.095498,-740.205942,10066.800811
1129.584452,-612.876398,-592.164754,10436.903782
1129.584767,-383.047749,-1036.288319,10881.027347
1129.585083,0.000000,-740.205942,10658.965565
1129.585398,-383.047749,-814.226536,9918.759623
1129.585714,-229.828649,-740.205942,9992.780217
1129.586030,306.438199,-0.000000,9918.759623
1129.586345,919.314598,592.164754,9474.636058
1129.586661,995.924147,962.267725,9400.615463
1129.586977,1608.800546,296.082377,8438.347739
1129.587292,766.095498,222.061783,8216.285956
1129.587608,383.047749,-666.185348,9622.677246
1129.587923,689.485948,-1036.288319,9992.780217
1129.588239,766.095498,-592.164754,9844.739029
1129.588555,919.314598,-148.041188,9696.697840
1129.588870,306.438199,-666.185348,9844.739029
1129.589186,689.485948,-296.082377,9400.615463
1129.589501,306.438199,-444.123565,9326.594869
1129.589817,383.047749,-0.000000,9178.553681
1129.590133,536.266849,-518.144159,9178.553681
1129.590448,1149.143247,-444.123565,9326.594869
1129.590764,1225.752797,-74.020594,9252.574275
1129.591080,1455.581446,-0.000000,7920.203579
1129.591395,1149.143247,444.123565,7994.224174
1129.591711,766.095498,148.041188,8660.409521
1129.592026,1455.581446,-666.185348,9104.533087
1129.592342,1378.971896,-814.226536,9326.594869
1129.592658,1072.533697,-962.267725,9474.636058
1129.592973,919.314598,-1184.329507,8734.430116
1129.593289,1072.533697,-1036.288319,9252.574275
1129.593604,1149.143247,-814.226536,8364.327145
1129.593920,1915.238745,-370.102971,9400.615463
1129.594236,1532.190996,-0.000000,9104.533087
1129.594551,1608.800546,370.102971,8364.327145
1129.594867,766.095498,592.164754,8216.285956
1129.595183,1149.143247,222.061783,8290.306550
1129.595498,1378.971896,-0.000000,8808.450710
1129.595814,919.314598,-222.061783,9252.574275
1129.596129,612.876398,-592.164754,9696.697840
1129.596445,689.485948,-814.226536,9474.636058
1129.596761,306.438199,-296.082377,8734.430116
1129.597076,0.000000,-0.000000,9326.594869
1129.597392,306.438199,-74.020594,9918.759623
1129.597707,229.828649,-0.000000,9548.656652
1129.598023,-612.876398,-0.000000,10288.862594
1129.598339,-995.924147,-814.226536,10288.862594
1129.598654,-1225.752797,-888.247130,10214.842000
1129.598970,-1072.533697,-444.123565,9474.636058
1129.599286,-153.219100,-74.020594,10658.965565
1129.599601,-306.438199,-444.123565,10436.903782
1129.599917,-536.266849,148.041188,9918.759623
1129.600232,-536.266849,296.082377,9548.656652
1129.600548,-766.095498,444.123565,9622.677246
1129.600864,0.000000,370.102971,9844.739029
1129.601179,-459.657299,296.082377,9918.759623
1129.601495,-689.485948,-0.000000,10362.883188
1129.601810,0.000000,-222.061783,10362.883188
1129.602126,-459.657299,-740.205942,9918.759623
1129.602442,-536.266849,-666.185348,10510.924376
1129.602757,0.000000,-888.247130,10066.800811
1129.603073,306.438199,-814.226536,10288.862594
1129.603389,383.047749,-592.164754,10955.047942
1129.603704,842.705048,-814.226536,9992.780217
1129.604020,995.924147,-148.041188,9104.533087
1129.604335,383.047749,-0.000000,9474.636058
1129.604651,995.924147,-0.000000,9252.574275
1129.604967,1225.752797,-296.082377,9918.759623
1129.605282,1838.629195,222.061783,9622.677246
1129.605598,995.924147,-0.000000,8956.491898
1129.605914,536.266849,-444.123565,9326.594869
1129.606229,229.828649,-740.205942,9770.718434
1129.606545,536.266849,-888.247130,9474.636058
1129.606860,76.609550,-888.247130,10436.903782
1129.607176,459.657299,-814.226536,9918.759623
1129.607492,229.828649,-1036.288319,9918.759623
1129.607807,536.266849,-592.164754,9252.574275
1129.608123,612.876398,-0.000000,9104.533087
1129.608438,1302.362347,-222.061783,9400.615463
1129.608754,1302.362347,296.082377,8660.409521
1129.609070,1608.800546,296.082377,8808.450710
1129.609385,1685.410096,-0.000000,8512.368333
1129.609701,1225.752797,222.061783,8290.306550
1129.610017,1302.362347,-0.000000,8364.327145
1129.610332,1532.190996,-222.061783,9104.533087
1129.610648,1455.581446,-148.041188,9622.677246
1129.610963,1532.190996,-296.082377,8882.471304
1129.611279,689.485948,-296.082377,8808.450710
1129.611595,536.266849,-666.185348,9030.512492
1129.611910,842.705048,-148.041188,8956.491898
1129.612226,1302.362347,-296.082377,9252.574275
1129.612541,842.705048,-74.020594,9030.512492
1129.612857,536.266849,-518.144159,9548.656652
1129.613173,459.657299,-296.082377,9030.512492
1129.613488,383.047749,-222.061783,8586.388927
1129.613804,459.657299,518.144159,9696.697840
1129.614120,536.266849,296.082377,9252.574275
1129.614435,229.828649,-592.164754,9104.533087
1129.614751,229.828649,-74.020594,9474.636058
1129.615066,-153.219100,-518.144159,9400.615463
1129.615382,-153.219100,-148.041188,9474.636058
1129.615698,-229.828649,814.226536,9918.759623
1129.616013,-229.828649,370.102971,9696.697840
1129.616329,-459.657299,592.164754,10362.883188
1129.616644,-689.485948,-296.082377,9918.759623
1129.616960,-766.095498,-0.000000,9696.697840
1129.617276,-766.095498,-444.123565,9918.759623
1129.617591,-536.266849,-0.000000,10140.821405
1129.617907,0.000000,-0.000000,10066.800811
1129.618223,-153.219100,296.082377,9918.759623
1129.618538,-306.438199,-0.000000,10288.862594
1129.618854,-689.485948,74.020594,10140.821405
1129.619169,-229.828649,592.164754,9252.574275
1129.619485,459.657299,962.267725,9770.718434
1129.619801,612.876398,148.041188,10214.842000
1129.620116,612.876398,148.041188,9770.718434
1129.620432,153.219100,-222.061783,10214.842000
1129.620747,153.219100,-222.061783,10140.821405
1129.621063,76.609550,-666.185348,10140.821405
1129.621379,689.485948,-74.020594,10140.821405
1129.621694,919.314598,-74.020594,10066.800811
1129.622010,536.266849,-740.205942,9844.739029
1129.622326,383.047749,-814.226536,10288.862594
1129.622641,459.657299,-666.185348,9104.533087
1129.622957,459.657299,-370.102971,9252.574275
1129.623272,1302.362347,-222.061783,9992.780217
1129.623588,1225.752797,-148.041188,9918.759623
1129.623904,766.095498,-296.082377,9400.615463
1129.624219,76.609550,-296.082377,9474.636058
1129.624535,229.828649,-592.164754,9104.533087
1129.624851,689.485948,-592.164754,9844.739029
1129.625166,536.266849,-1110.308913,9474.636058
1129.625482,459.657299,-666.185348,10288.862594
1129.625797,383.047749,-1554.432478,9992.780217
1129.626113,229.828649,-814.226536,9030.512492
1129.626429,766.095498,-222.061783,9326.594869
1129.626744,1532.190996,-0.000000,8882.471304
1129.627060,1532.190996,-0.000000,8586.388927
1129.627375,995.924147,-148.041188,9252.574275
1129.627691,995.924147,-740.205942,8660.409521
1129.628007,536.266849,-888.247130,8216.285956
1129.628322,612.876398,-370.102971,7994.224174
1129.628638,1072.533697,-148.041188,8734.430116
1129.628954,1072.533697,-740.205942,9400.615463
1129.629269,689.485948,-518.144159,8882.471304
1129.629585,229.828649,-1258.350101,8734.430116
1129.629900,76.609550,-1184.329507,8956.491898
1129.630216,306.438199,-962.267725,8808.450710
1129.630532,536.266849,-1332.370696,9474.636058
1129.630847,995.924147,-740.205942,9474.636058
1129.631163,1149.143247,-0.000000,9178.553681
1129.631479,766.095498,296.082377,8808.450710
1129.631795,766.095498,444.123565,7994.224174
1129.632111,1225.752797,1036.288319,7920.203579
1129.632427,1302.362347,370.102971,8290.306550
1129.632743,1608.800546,370.102971,9474.636058
1129.633058,919.314598,-0.000000,9474.636058
1129.633374,229.828649,-592.164754,8956.491898
1129.633690,-76.609550,74.020594,9326.594869
1129.634006,76.609550,296.082377,9104.533087
1129.634322,76.609550,148.041188,9326.594869
1129.634638,0.000000,296.082377,10140.821405
1129.634954,-459.657299,-0.000000,9474.636058
1129.635270,-536.266849,-296.082377,9918.759623
1129.635586,-919.314598,-296.082377,9474.636058
1129.635901,-459.657299,-740.205942,9548.656652
1129.636217,0.000000,-370.102971,10436.903782
1129.636533,383.047749,-0.000000,10288.862594
1129.636849,-306.438199,222.061783,9474.636058
1129.637165,-536.266849,444.123565,9252.574275
1129.637481,-306.438199,-222.061783,10362.883188
1129.637797,153.219100,370.102971,10066.800811
1129.638113,76.609550,518.144159,9770.718434
1129.638429,76.609550,-0.000000,10584.944971
1129.638744,-306.438199,148.041188,10362.883188
1129.639060,-229.828649,-74.020594,9992.780217
1129.639376,0.000000,-74.020594,10214.842000
1129.639692,153.219100,-296.082377,10584.944971
1129.640008,383.047749,-518.144159,10807.006753
1129.640324,1149.143247,-0.000000,9844.739029
1129.640640,383.047749,-666.185348,10510.924376
1129.640956,153.219100,-592.164754,10510.924376
1129.641271,766.095498,148.041188,9548.656652
1129.641587,842.705048,592.164754,9400.615463
1129.641903,1072.533697,-0.000000,10288.862594
1129.642219,919.314598,296.082377,9844.739029
1129.642535,536.266849,518.144159,8882.471304
1129.642851,306.438199,-0.000000,9474.636058
1129.643167,1072.533697,-518.144159,10288.862594
1129.643483,919.314598,-370.102971,9548.656652
1129.643799,842.705048,-666.185348,9844.739029
1129.644114,536.266849,-1184.329507,10214.842000
1129.644430,306.438199,-1036.288319,9474.636058
1129.644746,689.485948,-296.082377,9474.636058
1129.645062,1225.752797,-0.000000,9474.636058
1129.645378,919.314598,222.061783,9104.533087
1129.645694,1455.581446,518.144159,8882.471304
1129.646010,1378.971896,-296.082377,8586.388927
1129.646326,1072.533697,-592.164754,8734.430116
1129.646642,766.095498,-222.061783,7994.224174
1129.646957,995.924147,-518.144159,8512.368333
1129.647273,995.924147,-740.205942,9548.656652
1129.647589,766.095498,-592.164754,9622.677246
1129.647905,459.657299,-222.061783,8660.409521
1129.648221,0.000000,-444.123565,8734.430116
1129.648537,536.266849,-518.144159,8660.409521
1129.648853,689.485948,-666.185348,8512.368333
1129.649169,612.876398,-740.205942,9326.594869
1129.649485,306.438199,-1258.350101,9918.759623
1129.649800,536.266849,-814.226536,8808.450710
1129.650116,612.876398,-222.061783,8068.244768
1129.650432,306.438199,296.082377,7772.162391
1129.650748,536.266849,-296.082377,8808.450710
1129.651064,766.095498,-444.123565,9400.615463
1129.651380,383.047749,-444.123565,8956.491898
1129.651696,76.609550,-222.061783,9178.553681
1129.652012,-229.828649,-296.082377,9326.594869
1129.652328,-536.266849,-0.000000,9104.533087
1129.652643,-76.609550,-0.000000,9474.636058
1129.652959,0.000000,-74.020594,9474.636058
1129.653275,-229.828649,-222.061783,10066.800811
1129.653591,-612.876398,-666.185348,9622.677246
1129.653907,-1378.971896,-518.144159,9548.656652
1129.654223,-536.266849,-444.123565,9400.615463
1129.654539,-383.047749,-0.000000,9918.759623
1129.654855,-383.047749,-296.082377,10658.965565
1129.655171,-153.219100,370.102971,9992.780217
1129.655486,-459.657299,148.041188,9326.594869
1129.655802,-689.485948,444.123565,9326.594869
1129.656118,229.828649,-0.000000,9918.759623
1129.656434,306.438199,-0.000000,9474.636058
1129.656750,689.485948,-0.000000,11103.089130
1129.657066,766.095498,-296.082377,10510.924376
1129.657382,383.047749,-0.000000,9622.677246
1129.657698,383.047749,888.247130,9622.677246
1129.658013,459.657299,666.185348,9992.780217
1129.658329,919.314598,-0.000000,10955.047942
1129.658645,612.876398,-370.102971,11029.068536
1129.658961,383.047749,-0.000000,10066.800811
1129.659277,689.485948,-0.000000,9474.636058
1129.659593,919.314598,-444.123565,9548.656652
1129.659909,1149.143247,-0.000000,9770.718434
1129.660225,995.924147,148.041188,10066.800811
1129.660541,842.705048,444.123565,9992.780217
1129.660856,459.657299,296.082377,9548.656652
1129.661172,76.609550,-148.041188,8882.471304
1129.661488,689.485948,296.082377,10288.862594
1129.661804,766.095498,-0.000000,9918.759623
1129.662120,766.095498,-222.061783,9474.636058
1129.662436,919.314598,-592.164754,10288.862594
1129.662752,689.485948,-962.267725,9622.677246
1129.663068,766.095498,-296.082377,9178.553681
1129.663384,1225.752797,-148.041188,9030.512492
1129.663699,1149.143247,-518.144159,9548.656652
1129.664015,1378.971896,-148.041188,9918.759623
1129.664331,1378.971896,-0.000000,9104.533087
1129.664647,1532.190996,296.082377,8142.265362
1129.664963,766.095498,222.061783,8660.409521
1129.665279,1225.752797,148.041188,8734.430116
1129.665595,1302.362347,-0.000000,9252.574275
1129.665911,919.314598,-74.020594,9104.533087
1129.666227,536.266849,-518.144159,9104.533087
1129.666542,383.047749,-888.247130,8956.491898
1129.666858,459.657299,-814.226536,9252.574275
1129.667174,306.438199,-296.082377,8734.430116
1129.667490,689.485948,-148.041188,9696.697840
1129.667806,689.485948,-814.226536,9252.574275
1129.668122,459.657299,-74.020594,8290.306550
1129.668438,536.266849,-0.000000,8512.368333
1129.668754,536.266849,-444.123565,8808.450710
1129.669070,995.924147,-592.164754,9030.512492
1129.669385,842.705048,-296.082377,8882.471304
1129.669701,459.657299,-148.041188,8734.430116
1129.670017,306.438199,-666.185348,8660.409521
1129.670333,76.609550,-814.226536,8808.450710
1129.670649,0.000000,-296.082377,9474.636058
1129.670965,229.828649,148.041188,9400.615463
1129.671281,0.000000,-0.000000,9252.574275
1129.671597,0.000000,-74.020594,9696.697840
1129.671913,-459.657299,-222.061783,9252.574275
1129.672228,-306.438199,-518.144159,8956.491898
1129.672544,-383.047749,-370.102971,9622.677246
1129.672860,0.000000,-222.061783,10288.862594
1129.673176,-459.657299,-370.102971,10214.842000
1129.673492,-383.047749,-0.000000,9548.656652
1129.673808,-459.657299,-222.061783,9474.636058
1129.674124,-383.047749,-444.123565,10066.800811
1129.674440,0.000000,-0.000000,9918.759623
1129.674756,0.000000,-0.000000,9992.780217
1129.675071,0.000000,-370.102971,10436.903782
1129.675387,306.438199,-370.102971,9992.780217
1129.675703,-153.219100,148.041188,9400.615463
1129.676019,0.000000,-222.061783,9622.677246
1129.676335,153.219100,-370.102971,10362.883188
1129.676651,689.485948,-296.082377,10732.986159
1129.676967,1225.752797,-148.041188,10510.924376
1129.677283,306.438199,-0.000000,9622.677246
1129.677598,383.047749,-74.020594,9548.656652
1129.677914,995.924147,-370.102971,9992.780217
1129.678230,919.314598,-74.020594,9770.718434
1129.678546,459.657299,-0.000000,10288.862594
1129.678862,689.485948,-296.082377,9844.739029
1129.679178,689.485948,-814.226536,9844.739029
1129.679494,459.657299,-296.082377,9918.759623
1129.679810,383.047749,148.041188,9770.718434
1129.680126,383.047749,-74.020594,9696.697840
1129.680441,536.266849,-148.041188,9474.636058
1129.680757,689.485948,-518.144159,9696.697840
1129.681073,383.047749,-1110.308913,9474.636058
1129.681389,459.657299,-666.185348,9474.636058
1129.681705,1072.533697,-296.082377,9474.636058
1129.682021,1149.143247,-0.000000,9178.553681
1129.682337,1149.143247,296.082377,8956.491898
1129.682653,1532.190996,592.164754,8734.430116
1129.682969,1455.581446,148.041188,8364.327145
1129.683284,766.095498,222.061783,8364.327145
1129.683600,1302.362347,-0.000000,8734.430116
1129.683916,1225.752797,-444.123565,8882.471304
1129.684232,1072.533697,-222.061783,9474.636058
1129.684548,689.485948,-444.123565,9030.512492
1129.684864,229.828649,-518.144159,9030.512492
1129.685180,306.438199,-0.000000,8808.450710
1129.685496,536.266849,-296.082377,9326.594869
1129.685812,612.876398,-74.020594,9326.594869
1129.686127,689.485948,222.061783,9326.594869
1129.686443,306.438199,-0.000000,8734.430116
1129.686759,306.438199,-148.041188,8512.368333
1129.687075,0.000000,-74.020594,8956.491898
1129.687391,536.266849,-0.000000,9474.636058
1129.687707,612.876398,-0.000000,8882.471304
1129.688023,229.828649,888.247130,9178.553681
1129.688339,459.657299,-148.041188,9178.553681
1129.688655,229.828649,-222.061783,9030.512492
1129.688970,76.609550,-0.000000,9622.677246
1129.689286,536.266849,-0.000000,9548.656652
1129.689602,459.657299,740.205942,9474.636058
1129.689918,-306.438199,444.123565,9474.636058
1129.690234,-229.828649,-148.041188,9474.636058
1129.690550,-612.876398,-296.082377,9770.718434
1129.690866,-766.095498,-0.000000,9770.718434
1129.691182,-689.485948,-444.123565,10288.862594
1129.691498,-383.047749,-74.020594,10658.965565
1129.691813,0.000000,-444.123565,9844.739029
1129.692129,-306.438199,-296.082377,9326.594869
1129.692445,-383.047749,-0.000000,9474.636058
1129.692761,-306.438199,-74.020594,9992.780217
1129.693077,459.657299,-0.000000,9622.677246
1129.693393,383.047749,-0.000000,10066.800811
1129.693709,383.047749,-0.000000,9696.697840
1129.694025,689.485948,-148.041188,9770.718434
1129.694340,153.219100,-296.082377,9622.677246
1129.694656,612.876398,-370.102971,10140.821405
1129.694972,766.095498,-444.123565,10436.903782
1129.695288,766.095498,-148.041188,10066.800811
1129.695604,689.485948,-666.185348,9844.739029
1129.695920,383.047749,-1036.288319,10066.800811
1129.696236,689.485948,-518.144159,9696.697840
1129.696552,919.314598,296.082377,9474.636058
1129.696868,1378.971896,-0.000000,9696.697840
1129.697183,1149.143247,-0.000000,9918.759623
1129.697499,842.705048,296.082377,9030.512492
1129.697815,229.828649,-740.205942,9030.512492
1129.698131,842.705048,-592.164754,9992.780217
1129.698447,689.485948,-444.123565,9844.739029
1129.698763,995.924147,-592.164754,9622.677246
1129.699079,689.485948,-962.267725,9844.739029
1129.699395,459.657299,-1258.350101,9548.656652
1129.699711,306.438199,-1258.350101,9548.656652
1129.700026,459.657299,-148.041188,9326.594869
1129.700342,919.314598,-444.123565,9474.636058
1129.700658,919.314598,-444.123565,8956.491898
1129.700974,995.924147,-148.041188,8808.450710
1129.701290,995.924147,-666.185348,8660.409521
1129.701606,919.314598,-518.144159,8512.368333
1129.701922,1072.533697,-222.061783,8438.347739
1129.702238,995.924147,-592.164754,9104.533087
1129.702554,1149.143247,-518.144159,9104.533087
1129.702869,842.705048,-592.164754,9178.553681
1129.703185,1378.971896,-666.185348,8586.388927
1129.703501,689.485948,-814.226536,8882.471304
1129.703817,536.266849,-148.041188,8438.347739
1129.704133,766.095498,-296.082377,9400.615463
1129.704449,995.924147,-814.226536,9104.533087
1129.704765,612.876398,-74.020594,8956.491898
1129.705081,689.485948,-518.144159,9326.594869
1129.705397,536.266849,-148.041188,8364.327145
1129.705712,766.095498,740.205942,8808.450710
1129.706028,842.705048,-148.041188,8956.491898
1129.706344,689.485948,-148.041188,9622.677246
1129.706660,612.876398,-0.000000,9400.615463
1129.706976,0.000000,-0.000000,8586.388927
1129.707292,76.609550,518.144159,9104.533087
1129.707608,383.047749,370.102971,9474.636058
1129.707924,-229.828649,296.082377,9844.739029
1129.708240,-459.657299,-0.000000,10066.800811
1129.708555,-229.828649,-222.061783,9030.512492
1129.708871,-689.485948,-666.185348,10066.800811
1129.709187,-842.705048,-370.102971,9770.718434
1129.709503,-153.219100,296.082377,10066.800811
1129.709819,-306.438199,-148.041188,10066.800811
1129.710135,0.000000,370.102971,9992.780217
1129.710451,-153.219100,-0.000000,9474.636058
1129.710767,0.000000,-0.000000,9622.677246
1129.711082,153.219100,518.144159,9770.718434
1129.711398,0.000000,370.102971,9622.677246
1129.711714,383.047749,-0.000000,10510.924376
1129.712030,306.438199,-148.041188,9992.780217
1129.712346,0.000000,-0.000000,9918.759623
1129.712662,0.000000,148.041188,9918.759623
1129.712978,0.000000,-444.123565,9918.759623
1129.713294,0.000000,-296.082377,10362.883188
1129.713610,0.000000,-740.205942,10584.944971
1129.713925,0.000000,-666.185348,10732.986159
1129.714241,229.828649,-74.020594,10510.924376
1129.714557,0.000000,518.144159,9178.553681
1129.714873,536.266849,592.164754,9400.615463
1129.715189,919.314598,-0.000000,9992.780217
1129.715505,689.485948,592.164754,8956.491898
1129.715821,612.876398,-148.041188,9696.697840
1129.716137,76.609550,-814.226536,10584.944971
1129.716453,153.219100,-444.123565,9326.594869
1129.716768,306.438199,-518.144159,9548.656652
1129.717084,153.219100,-518.144159,10288.862594
1129.717400,536.266849,-518.144159,10066.800811
1129.717716,459.657299,-148.041188,9326.594869
1129.718032,229.828649,-0.000000,9400.615463
1129.718348,229.828649,-74.020594,9326.594869
1129.718664,1455.581446,-0.000000,8734.430116
1129.718980,1378.971896,296.082377,8290.306550
1129.719296,766.095498,-0.000000,9326.594869
1129.719611,1991.848295,-666.185348,9326.594869
1129.719927,1072.533697,-666.185348,8290.306550
1129.720243,612.876398,-148.041188,8586.388927
1129.720559,1378.971896,-666.185348,9696.697840
1129.720875,1455.581446,-444.123565,9104.533087
1129.721191,1455.581446,-0.000000,9178.553681
1129.721507,612.876398,-666.185348,9178.553681
1129.721823,536.266849,-0.000000,7920.203579
1129.722139,689.485948,-148.041188,8956.491898
1129.722454,689.485948,-740.205942,9030.512492
1129.722770,459.657299,-592.164754,9104.533087
1129.723086,229.828649,-296.082377,8586.388927
1129.723402,0.000000,-0.000000,8290.306550
1129.723718,0.000000,-222.061783,9252.574275
1129.724034,229.828649,-444.123565,9178.553681
1129.724350,306.438199,-592.164754,9104.533087
1129.724666,0.000000,-740.205942,9918.759623
1129.724982,689.485948,-296.082377,9178.553681
1129.725297,-306.438199,-74.020594,8660.409521
1129.725613,-383.047749,370.102971,8882.471304
1129.725929,383.047749,-296.082377,9696.697840
1129.726245,383.047749,148.041188,9474.636058
1129.726561,-306.438199,518.144159,9474.636058
1129.726877,-229.828649,-370.102971,9918.759623
1129.727193,-153.219100,-444.123565,9326.594869
1129.727509,-459.657299,444.123565,9474.636058
1129.727824,0.000000,666.185348,9696.697840
1129.728140,229.828649,-0.000000,10658.965565
1129.728456,-153.219100,-296.082377,10214.842000
1129.728772,0.000000,-0.000000,10584.944971
1129.729087,0.000000,-444.123565,9770.718434
1129.729403,76.609550,370.102971,9696.697840
1129.729718,842.705048,444.123565,10288.862594
1129.730034,536.266849,296.082377,9696.697840
1129.730350,1149.143247,222.061783,10658.965565
1129.730666,689.485948,-592.164754,9770.718434
1129.730982,306.438199,-0.000000,9474.636058
1129.731298,536.266849,-296.082377,9918.759623
1129.731614,919.314598,-296.082377,10362.883188
1129.731930,1149.143247,-148.041188,10510.924376
1129.732245,1149.143247,-592.164754,10140.821405
1129.732561,919.314598,-518.144159,9918.759623
1129.732877,689.485948,-74.020594,9696.697840
1129.733193,919.314598,-222.061783,9622.677246
1129.733509,1378.971896,-0.000000,9844.739029
1129.733825,919.314598,-0.000000,10214.842000
1129.734141,1149.143247,-148.041188,9474.636058
1129.734457,76.609550,-222.061783,9104.533087
1129.734772,306.438199,-814.226536,9992.780217
1129.735088,536.266849,-888.247130,9696.697840
1129.735404,766.095498,-222.061783,9992.780217
1129.735720,459.657299,-296.082377,9622.677246
1129.736036,536.266849,-148.041188,9400.615463
1129.736352,153.219100,-222.061783,9622.677246
1129.736668,536.266849,-148.041188,9400.615463
1129.736984,76.609550,148.041188,8808.450710
1129.737299,995.924147,814.226536,9178.553681
1129.737615,536.266849,296.082377,9178.553681
1129.737931,612.876398,-370.102971,9252.574275
1129.738247,536.266849,-148.041188,8808.450710
1129.738563,76.609550,-296.082377,8586.388927
1129.738879,229.828649,-0.000000,8734.430116
1129.739195,306.438199,-296.082377,9178.553681
1129.739511,153.219100,-296.082377,9030.512492
1129.739826,-383.047749,-1036.288319,9400.615463
1129.740142,-306.438199,-666.185348,9474.636058
1129.740458,-459.657299,-444.123565,8808.450710
1129.740774,383.047749,-0.000000,9252.574275
1129.741090,459.657299,-0.000000,8882.471304
1129.741406,842.705048,-592.164754,8882.471304
1129.741722,459.657299,-888.247130,8660.409521
1129.742038,383.047749,-74.020594,8216.285956
1129.742353,766.095498,-444.123565,8808.450710
1129.742669,919.314598,-518.144159,9252.574275
1129.742985,1072.533697,-296.082377,8882.471304
1129.743301,536.266849,-0.000000,9030.512492
1129.743617,229.828649,-0.000000,8882.471304
1129.743933,76.609550,-444.123565,9326.594869
1129.744249,229.828649,148.041188,9252.574275
1129.744565,459.657299,222.061783,9474.636058
1129.744880,153.219100,444.123565,9622.677246
1129.745196,153.219100,-0.000000,9474.636058
1129.745512,0.000000,-740.205942,9622.677246
1129.745828,-229.828649,-0.000000,9622.677246
1129.746144,-612.876398,148.041188,9474.636058
1129.746460,-383.047749,-370.102971,10066.800811
1129.746776,-383.047749,-666.185348,10807.006753
1129.747092,-612.876398,-0.000000,10362.883188
1129.747407,-689.485948,-0.000000,9548.656652
1129.747723,0.000000,-370.102971,9548.656652
1129.748039,153.219100,-0.000000,10362.883188
1129.748355,383.047749,-222.061783,10436.903782
1129.748671,306.438199,-222.061783,10288.862594
1129.748987,153.219100,-444.123565,10140.821405
1129.749303,0.000000,-444.123565,9326.594869
1129.749619,383.047749,-296.082377,9474.636058
1129.749934,1072.533697,-444.123565,10288.862594
1129.750250,1608.800546,-444.123565,10066.800811
1129.750566,1455.581446,-296.082377,10066.800811
1129.750882,689.485948,-222.061783,9622.677246
1129.751198,919.314598,-1036.288319,9844.739029
1129.751514,1225.752797,-518.144159,10288.862594
1129.751830,1532.190996,518.144159,9474.636058
1129.752146,1225.752797,-444.123565,9844.739029
1129.752461,689.485948,-0.000000,10214.842000
1129.752777,612.876398,-592.164754,9696.697840
1129.753093,689.485948,-148.041188,9030.512492
1129.753409,919.314598,-0.000000,9326.594869
1129.753725,766.095498,-666.185348,10214.842000
1129.754041,842.705048,-888.247130,10510.924376
1129.754357,536.266849,-1110.308913,9844.739029
1129.754673,459.657299,-518.144159,9178.553681
1129.754988,612.876398,-74.020594,9474.636058
1129.755304,766.095498,-0.000000,8660.409521
1129.755620,1762.019645,-222.061783,9548.656652
1129.755936,1608.800546,-518.144159,8660.409521
1129.756252,1302.362347,-0.000000,8660.409521
1129.756568,1072.533697,-0.000000,8290.306550
1129.756884,842.705048,-222.061783,8142.265362
1129.757200,1072.533697,-0.000000,8734.430116
1129.757515,689.485948,-666.185348,9326.594869
1129.757831,766.095498,-592.164754,9400.615463
1129.758147,536.266849,-1110.308913,9178.553681
1129.758463,-306.438199,-962.267725,8660.409521
1129.758779,0.000000,-1184.329507,9696.697840
1129.759095,0.000000,-296.082377,9252.574275
1129.759411,229.828649,222.061783,9030.512492
1129.759727,229.828649,-0.000000,8512.368333
1129.760042,76.609550,-0.000000,8290.306550
1129.760358,0.000000,-222.061783,8660.409521
1129.760674,-306.438199,-0.000000,8512.368333
1129.760990,459.657299,-148.041188,9548.656652
1129.761306,689.485948,-444.123565,8808.450710
1129.761622,76.609550,370.102971,8734.430116
1129.761938,-612.876398,-0.000000,9178.553681
1129.762254,-383.047749,-148.041188,9252.574275
1129.762569,0.000000,740.205942,9178.553681
1129.762885,-229.828649,592.164754,9474.636058
1129.763201,-229.828649,444.123565,10214.842000
1129.763517,-306.438199,-222.061783,9696.697840
1129.763833,-766.095498,148.041188,9252.574275
1129.764149,-459.657299,-0.000000,9326.594869
1129.764465,-306.438199,-74.020594,9992.780217
1129.764781,153.219100,-148.041188,10658.965565
1129.765096,-383.047749,148.041188,10066.800811
1129.765412,-229.828649,-0.000000,9770.718434
1129.765728,229.828649,370.102971,9918.759623
1129.766044,-229.828649,518.144159,9548.656652
1129.766360,229.828649,518.144159,10362.883188
1129.766676,383.047749,888.247130,10140.821405
1129.766992,766.095498,740.205942,10214.842000
1129.767308,459.657299,-148.041188,9400.615463
1129.767623,306.438199,-0.000000,9992.780217
1129.767939,536.266849,-444.123565,10214.842000
1129.768255,995.924147,-370.102971,10140.821405
1129.768571,1149.143247,-444.123565,10584.944971
1129.768887,1608.800546,-1110.308913,11695.253884
1129.769203,919.314598,-74.020594,9992.780217
1129.769519,612.876398,444.123565,9030.512492
1129.769835,919.314598,444.123565,10362.883188
1129.770150,1608.800546,296.082377,10066.800811
1129.770466,2068.457845,1036.288319,9400.615463
1129.770782,1685.410096,444.123565,9104.533087
1129.771098,995.924147,-666.185348,9474.636058
1129.771414,919.314598,-962.267725,9548.656652
1129.771730,612.876398,-740.205942,9622.677246
1129.772046,229.828649,-740.205942,9622.677246
1129.772362,612.876398,-888.247130,10510.924376
1129.772677,459.657299,-444.123565,9918.759623
1129.772993,0.000000,-666.185348,9400.615463
1129.773309,306.438199,-518.144159,9844.739029
1129.773625,919.314598,-74.020594,9326.594869
1129.773941,919.314598,-222.061783,8956.491898
1129.774257,995.924147,148.041188,9030.512492
1129.774573,1302.362347,-0.000000,8882.471304
1129.774889,1302.362347,-296.082377,8216.285956
1129.775204,842.705048,-296.082377,9030.512492
1129.775520,612.876398,-592.164754,8956.491898
1129.775836,842.705048,-592.164754,8660.409521
1129.776152,536.266849,-592.164754,9326.594869
1129.776468,612.876398,-1406.391290,9622.677246
1129.776784,306.438199,-962.267725,8808.450710
1129.777100,383.047749,-222.061783,8586.388927
1129.777416,383.047749,-370.102971,8882.471304
1129.777731,919.314598,-592.164754,9474.636058
1129.778047,689.485948,-222.061783,8364.327145
1129.778363,689.485948,-1036.288319,8808.450710
1129.778679,153.219100,-1258.350101,9252.574275
1129.778995,612.876398,-888.247130,8882.471304
1129.779311,383.047749,-666.185348,8734.430116
1129.779627,689.485948,-0.000000,9474.636058
1129.779943,689.485948,-0.000000,8734.430116
1129.780258,76.609550,592.164754,8438.347739
1129.780574,-383.047749,518.144159,8660.409521
1129.780890,229.828649,-74.020594,9252.574275
1129.781206,-153.219100,-74.020594,9400.615463
1129.781522,-229.828649,-0.000000,9992.780217
1129.781838,-459.657299,-296.082377,9474.636058
1129.782154,-842.705048,-962.267725,9548.656652
1129.782470,-1302.362347,-592.164754,9622.677246
1129.782785,-689.485948,-74.020594,10066.800811
1129.783101,-689.485948,-74.020594,9770.718434
1129.783417,-383.047749,-0.000000,10140.821405
1129.783733,-383.047749,-444.123565,9474.636058
1129.784049,-689.485948,-296.082377,9474.636058
1129.784365,0.000000,-148.041188,9770.718434
1129.784681,0.000000,-74.020594,9326.594869
1129.784997,153.219100,148.041188,10288.862594
1129.785312,0.000000,518.144159,9918.759623
1129.785628,-153.219100,444.123565,9622.677246
1129.785944,-153.219100,-370.102971,9548.656652
1129.786260,0.000000,-444.123565,9992.780217
1129.786576,229.828649,-666.185348,10362.883188
1129.786892,612.876398,-888.247130,10658.965565
1129.787208,995.924147,-518.144159,10584.944971
1129.787524,766.095498,-370.102971,9770.718434
1129.787839,383.047749,-74.020594,9400.615463
1129.788155,919.314598,444.123565,9326.594869
1129.788471,1608.800546,370.102971,9770.718434
1129.788787,1762.019645,592.164754,9918.759623
1129.789103,1225.752797,444.123565,9844.739029
1129.789419,1072.533697,-0.000000,8956.491898
1129.789735,766.095498,-444.123565,9770.718434
1129.790051,459.657299,-740.205942,10288.862594
1129.790366,766.095498,-888.247130,10214.842000
1129.790682,1225.752797,-0.000000,10510.924376
1129.790998,766.095498,-444.123565,10140.821405
1129.791314,842.705048,-444.123565,9548.656652
1129.791630,612.876398,-0.000000,9178.553681
1129.791946,842.705048,518.144159,9548.656652
1129.792262,1455.581446,148.041188,9622.677246
1129.792578,1685.410096,-0.000000,9104.533087
1129.792893,1608.800546,370.102971,9400.615463
1129.793209,1608.800546,-296.082377,9104.533087
1129.793525,1532.190996,-74.020594,7698.141797
1129.793841,1072.533697,-370.102971,9030.512492
1129.794157,1225.752797,-962.267725,9696.697840
1129.794473,1072.533697,-888.247130,9474.636058
1129.794789,612.876398,-0.000000,9400.615463
1129.795105,689.485948,-518.144159,8512.368333
1129.795420,536.266849,-814.226536,9326.594869
1129.795736,459.657299,-370.102971,8808.450710
1129.796052,459.657299,-592.164754,8586.388927
1129.796368,689.485948,-740.205942,9326.594869
1129.796684,612.876398,-814.226536,8808.450710
1129.797000,76.609550,-148.041188,8290.306550
1129.797316,153.219100,-666.185348,8882.471304
1129.797632,306.438199,-962.267725,9030.512492
1129.797947,229.828649,-74.020594,8808.450710
1129.798263,306.438199,-222.061783,8512.368333
1129.798579,-459.657299,-444.123565,8956.491898
1129.798895,-536.266849,-148.041188,9030.512492
1129.799211,-766.095498,-74.020594,8808.450710
1129.799527,-689.485948,-0.000000,9474.636058
1129.799843,-536.266849,-74.020594,9474.636058
1129.800159,-766.095498,222.061783,8882.471304
1129.800474,-995.924147,-222.061783,9252.574275
1129.800790,-1225.752797,-370.102971,9770.718434
1129.801106,-1149.143247,-0.000000,9400.615463
1129.801422,-995.924147,222.061783,9474.636058
1129.801738,-689.485948,-0.000000,10214.842000
1129.802054,-766.095498,-148.041188,9992.780217
1129.802370,-842.705048,-518.144159,9844.739029
1129.802686,-1225.752797,-148.041188,9696.697840
1129.803001,-536.266849,222.061783,10214.842000
1129.803317,153.219100,296.082377,9770.718434
1129.803633,612.876398,666.185348,9474.636058
1129.803949,306.438199,444.123565,9474.636058
1129.804265,306.438199,-518.144159,9474.636058
1129.804581,229.828649,-518.144159,10214.842000
1129.804897,766.095498,-518.144159,10288.862594
1129.805213,766.095498,-0.000000,9992.780217
1129.805528,1072.533697,74.020594,10140.821405
1129.805844,995.924147,-666.185348,9918.759623
1129.806160,995.924147,-962.267725,10140.821405
1129.806476,612.876398,-740.205942,10732.986159
1129.806792,1225.752797,-296.082377,10214.842000
1129.807108,1532.190996,518.144159,9696.697840
1129.807424,1532.190996,666.185348,9178.553681
1129.807740,1455.581446,370.102971,9548.656652
1129.808055,995.924147,-0.000000,9696.697840
1129.808371,919.314598,-0.000000,10066.800811
1129.808687,1072.533697,-296.082377,9770.718434
1129.809003,842.705048,-0.000000,9770.718434
1129.809319,995.924147,-444.123565,9992.780217
1129.809635,612.876398,-888.247130,9696.697840
1129.809951,766.095498,-740.205942,10362.883188
1129.810267,1455.581446,-296.082377,10140.821405
1129.810582,1455.581446,518.144159,9178.553681
1129.810898,1378.971896,592.164754,9030.512492
1129.811214,1455.581446,370.102971,8956.491898
1129.811530,995.924147,-0.000000,8586.388927
1129.811846,1072.533697,148.041188,8882.471304
1129.812162,919.314598,222.061783,9178.553681
1129.812478,1302.362347,-296.082377,8660.409521
1129.812794,1072.533697,-444.123565,9252.574275
1129.813109,1378.971896,-814.226536,8956.491898
1129.813425,612.876398,-814.226536,8734.430116
1129.813741,459.657299,-814.226536,9326.594869
1129.814057,536.266849,-222.061783,9622.677246
1129.814373,612.876398,-0.000000,9104.533087
1129.814689,689.485948,370.102971,8808.450710
1129.815005,383.047749,296.082377,8364.327145
1129.815321,76.609550,-518.144159,8956.491898
1129.815636,76.609550,-518.144159,9104.533087
1129.815952,306.438199,-518.144159,8290.306550
1129.816268,383.047749,-814.226536,9474.636058
1129.816584,459.657299,-148.041188,9104.533087
1129.816900,0.000000,-0.000000,8290.306550
1129.817216,-153.219100,-296.082377,9474.636058
1129.817532,0.000000,-370.102971,9178.553681
1129.817848,0.000000,-0.000000,8956.491898
1129.818163,-306.438199,296.082377,9696.697840
1129.818479,0.000000,-222.061783,9548.656652
1129.818795,-459.657299,-814.226536,9030.512492
1129.819111,-919.314598,-222.061783,9030.512492
1129.819427,-995.924147,-962.267725,9696.697840
1129.819743,-536.266849,-370.102971,9918.759623
1129.820059,-229.828649,-0.000000,9474.636058
1129.820375,-459.657299,-592.164754,9918.759623
1129.820690,-842.705048,-444.123565,9474.636058
1129.821006,-842.705048,-444.123565,9400.615463
1129.821322,-536.266849,-296.082377,9474.636058
1129.821638,-229.828649,-0.000000,10140.821405
1129.821954,-153.219100,-518.144159,10288.862594
1129.822270,0.000000,-444.123565,10510.924376
1129.822586,-153.219100,-518.144159,9548.656652
1129.822902,-612.876398,-296.082377,9474.636058
1129.823217,-153.219100,-518.144159,9918.759623
1129.823533,76.609550,-1110.308913,10066.800811
1129.823849,689.485948,-370.102971,10436.903782
1129.824165,306.438199,-592.164754,9844.739029
1129.824481,76.609550,-444.123565,10140.821405
1129.824797,536.266849,-148.041188,9918.759623
1129.825113,995.924147,370.102971,9326.594869
1129.825429,1608.800546,888.247130,9178.553681
1129.825744,1455.581446,296.082377,10140.821405
1129.826060,1608.800546,-148.041188,9918.759623
1129.826376,766.095498,-370.102971,9400.615463
1129.826692,383.047749,-74.020594,9770.718434
1129.827008,842.705048,-148.041188,10658.965565
1129.827324,689.485948,-0.000000,9844.739029
1129.827640,919.314598,-0.000000,9844.739029
1129.827956,536.266849,-592.164754,10140.821405
1129.828271,612.876398,-666.185348,10288.862594
1129.828587,842.705048,-518.144159,9474.636058
1129.828903,1302.362347,148.041188,9030.512492
1129.829219,1915.238745,370.102971,9622.677246
1129.829535,1455.581446,148.041188,9252.574275
1129.829851,1225.752797,370.102971,9104.533087
1129.830167,1302.362347,-74.020594,8956.491898
1129.830482,1378.971896,-0.000000,8586.388927
1129.830798,1455.581446,296.082377,8512.368333
1129.831114,1608.800546,-296.082377,9326.594869
1129.831430,1072.533697,-740.205942,9548.656652
1129.831745,612.876398,-740.205942,9030.512492
1129.832061,306.438199,-814.226536,9104.533087
1129.832377,766.095498,-666.185348,9400.615463
1129.832693,995.924147,-296.082377,9030.512492
1129.833008,1072.533697,-0.000000,8734.430116
1129.833324,459.657299,-222.061783,8882.471304
1129.833640,229.828649,-444.123565,8956.491898
1129.833956,76.609550,-74.020594,8734.430116
1129.834271,459.657299,-0.000000,8364.327145
1129.834587,383.047749,148.041188,9030.512492
1129.834903,612.876398,-148.041188,9326.594869
1129.835219,0.000000,74.020594,8734.430116
1129.835534,-229.828649,-148.041188,9104.533087
1129.835850,-306.438199,-296.082377,9474.636058
1129.836166,-306.438199,-296.082377,9844.739029
1129.836482,-536.266849,222.061783,9548.656652
1129.836797,-383.047749,-0.000000,9474.636058
1129.837113,-383.047749,-0.000000,9548.656652
1129.837429,-689.485948,-148.041188,9030.512492
1129.837745,-842.705048,370.102971,9622.677246
1129.838060,0.000000,74.020594,9474.636058
1129.838376,0.000000,296.082377,9622.677246
1129.838692,-229.828649,296.082377,9844.739029
1129.839008,-306.438199,-518.144159,9918.759623
1129.839323,0.000000,-740.205942,9622.677246
1129.839639,-383.047749,222.061783,9548.656652
1129.839955,0.000000,-370.102971,10214.842000
1129.840271,0.000000,222.061783,10066.800811
1129.840586,-153.219100,-0.000000,10214.842000
1129.840902,0.000000,148.041188,9844.739029
1129.841218,-229.828649,-0.000000,9326.594869
1129.841534,0.000000,-370.102971,10214.842000
1129.841849,536.266849,-518.144159,10214.842000
1129.842165,459.657299,-518.144159,10807.006753
1129.842481,612.876398,-1184.329507,10362.883188
1129.842797,229.828649,-962.267725,9992.780217
1129.843112,306.438199,-444.123565,10436.903782
1129.843428,1149.143247,-0.000000,9918.759623
1129.843744,1149.143247,1258.350101,9104.533087
1129.844060,1149.143247,222.061783,9992.780217
1129.844375,1302.362347,-0.000000,9474.636058
1129.844691,766.095498,-148.041188,9474.636058
1129.845007,842.705048,-222.061783,9622.677246
1129.845322,1072.533697,-222.061783,9548.656652
1129.845638,459.657299,-0.000000,9918.759623
1129.845954,919.314598,-518.144159,10288.862594
1129.846270,0.000000,-666.185348,9474.636058
1129.846585,-383.047749,-1036.288319,10214.842000
1129.846901,-229.828649,-740.205942,9918.759623
1129.847217,153.219100,-444.123565,9474.636058
1129.847533,229.828649,-74.020594,9844.739029
1129.847848,766.095498,-0.000000,9252.574275
1129.848164,995.924147,-0.000000,8956.491898
1129.848480,612.876398,-0.000000,8660.409521
1129.848796,919.314598,-0.000000,8808.450710
1129.849111,1302.362347,-296.082377,8512.368333
1129.849427,1225.752797,-74.020594,8808.450710
1129.849743,1378.971896,-296.082377,9104.533087
1129.850059,995.924147,-444.123565,8586.388927
1129.850374,1302.362347,-0.000000,8734.430116
1129.850690,689.485948,-0.000000,8956.491898
1129.851006,1149.143247,370.102971,8734.430116
1129.851322,1608.800546,-0.000000,8882.471304
1129.851637,1225.752797,-222.061783,8734.430116
1129.851953,689.485948,-518.144159,9326.594869
1129.852269,383.047749,-740.205942,9252.574275
1129.852585,842.705048,-518.144159,9252.574275
1129.852900,766.095498,-222.061783,8956.491898
1129.853216,536.266849,-148.041188,9474.636058
1129.853532,689.485948,-296.082377,9696.697840
1129.853848,0.000000,-370.102971,8586.388927
1129.854163,0.000000,-0.000000,9252.574275
1129.854479,459.657299,814.226536,8956.491898
1129.854795,153.219100,296.082377,8586.388927
1129.855111,306.438199,-0.000000,9696.697840
1129.855426,0.000000,-666.185348,10214.842000
1129.855742,-689.485948,-1036.288319,9104.533087
1129.856058,-842.705048,-296.082377,9474.636058
1129.856374,-383.047749,-74.020594,9622.677246
1129.856689,-459.657299,-0.000000,9474.636058
1129.857005,-459.657299,-370.102971,9918.759623
1129.857321,-689.485948,-740.205942,10066.800811
1129.857637,-612.876398,-148.041188,9844.739029
1129.857952,-612.876398,-222.061783,9770.718434
1129.858268,-459.657299,222.061783,9400.615463
1129.858584,-383.047749,-0.000000,9844.739029
1129.858900,153.219100,-370.102971,10066.800811
1129.859215,-536.266849,-740.205942,9918.759623
1129.859531,-689.485948,-296.082377,9918.759623
1129.859847,0.000000,-592.164754,10214.842000
1129.860163,153.219100,-518.144159,9992.780217
1129.860478,0.000000,-74.020594,10140.821405
1129.860794,995.924147,-222.061783,10362.883188
1129.861110,995.924147,-296.082377,9326.594869
1129.861426,995.924147,-148.041188,9918.759623
1129.861741,842.705048,74.020594,9548.656652
1129.862057,1149.143247,370.102971,9474.636058
1129.862373,1149.143247,-0.000000,9844.739029
1129.862689,1532.190996,-296.082377,9844.739029
1129.863004,766.095498,-518.144159,9844.739029
1129.863320,766.095498,-666.185348,10066.800811
1129.863636,612.876398,-0.000000,9844.739029
1129.863952,1072.533697,-444.123565,9918.759623
1129.864267,995.924147,222.061783,9400.615463
1129.864583,1532.190996,-148.041188,9622.677246
1129.864899,995.924147,-592.164754,9474.636058
1129.865215,766.095498,-370.102971,9326.594869
1129.865530,995.924147,-666.185348,9104.533087
1129.865846,1302.362347,-592.164754,9770.718434
1129.866162,1302.362347,-222.061783,9918.759623
1129.866478,536.266849,-0.000000,9030.512492
1129.866793,536.266849,-74.020594,8734.430116
1129.867109,459.657299,-1184.329507,9770.718434
1129.867425,383.047749,-962.267725,9548.656652
1129.867741,1072.533697,-74.020594,9252.574275
1129.868056,919.314598,-296.082377,9400.615463
1129.868372,1149.143247,-592.164754,9326.594869
1129.868688,995.924147,-0.000000,8808.450710
1129.869004,995.924147,1036.288319,8438.347739
1129.869319,842.705048,740.205942,8808.450710
1129.869635,995.924147,-518.144159,9474.636058
1129.869951,842.705048,-222.061783,9548.656652
1129.870267,459.657299,-370.102971,8956.491898
1129.870582,229.828649,-296.082377,8512.368333
1129.870898,612.876398,-0.000000,8956.491898
1129.871214,459.657299,-74.020594,9178.553681
1129.871530,229.828649,-592.164754,9770.718434
1129.871845,0.000000,-0.000000,9696.697840
1129.872161,-229.828649,-444.123565,8956.491898
1129.872477,-306.438199,-222.061783,8364.327145
1129.872793,0.000000,-888.247130,9548.656652
1129.873108,-306.438199,-222.061783,9548.656652
1129.873424,0.000000,296.082377,9474.636058
1129.873740,-536.266849,-370.102971,9326.594869
1129.874056,-612.876398,-296.082377,9326.594869
1129.874371,-689.485948,-0.000000,9030.512492
1129.874687,-229.828649,-814.226536,9548.656652
1129.875003,-383.047749,-370.102971,9844.739029
1129.875319,-383.047749,-370.102971,9770.718434
1129.875634,-229.828649,-740.205942,9992.780217
1129.875950,0.000000,-0.000000,9770.718434
1129.876266,0.000000,-0.000000,9326.594869
1129.876582,0.000000,444.123565,9548.656652
1129.876897,0.000000,592.164754,9178.553681
1129.877213,306.438199,592.164754,10288.862594
1129.877529,536.266849,-74.020594,9918.759623
1129.877845,76.609550,222.061783,9400.615463
1129.878160,306.438199,-0.000000,10066.800811
1129.878476,459.657299,-518.144159,10362.883188
1129.878792,842.705048,-148.041188,10584.944971
1129.879108,1149.143247,-148.041188,10288.862594
1129.879423,383.047749,148.041188,9696.697840
1129.879739,689.485948,-1036.288319,10362.883188
1129.880055,919.314598,-592.164754,10436.903782
1129.880370,689.485948,-0.000000,9252.574275
1129.880686,995.924147,222.061783,10288.862594
1129.881002,1532.190996,-370.102971,9696.697840
1129.881318,919.314598,-74.020594,9400.615463
1129.881633,689.485948,-444.123565,9622.677246
1129.881949,1072.533697,-740.205942,9770.718434
1129.882265,919.314598,-444.123565,9770.718434
1129.882581,995.924147,-296.082377,9548.656652
1129.882896,1149.143247,-740.205942,10214.842000
1129.883212,919.314598,-370.102971,9918.759623
1129.883528,536.266849,-444.123565,9326.594869
1129.883844,842.705048,-296.082377,9474.636058
1129.884159,1225.752797,-296.082377,9770.718434
1129.884475,1225.752797,-0.000000,9252.574275
1129.884791,919.314598,518.144159,9030.512492
1129.885107,842.705048,-296.082377,8882.471304
1129.885422,689.485948,-0.000000,8956.491898
1129.885738,612.876398,-0.000000,8660.409521
1129.886054,919.314598,222.061783,9326.594869
1129.886370,842.705048,-370.102971,9252.574275
1129.886685,306.438199,-814.226536,9474.636058
1129.887001,153.219100,-962.267725,9622.677246
1129.887317,229.828649,-740.205942,8882.471304
1129.887633,995.924147,-222.061783,9104.533087
1129.887948,689.485948,-0.000000,8734.430116
1129.888264,842.705048,-0.000000,8956.491898
1129.888580,612.876398,-296.082377,8808.450710
1129.888896,0.000000,222.061783,8512.368333
1129.889211,0.000000,-296.082377,8586.388927
1129.889527,689.485948,-222.061783,8586.388927
1129.889843,536.266849,-74.020594,9400.615463
1129.890159,153.219100,-740.205942,9548.656652
1129.890474,76.609550,-592.164754,9326.594869
1129.890790,0.000000,-74.020594,8438.347739
1129.891106,0.000000,74.020594,8808.450710
1129.891422,229.828649,962.267725,9104.533087
1129.891737,-306.438199,148.041188,9030.512492
1129.892053,-76.609550,-0.000000,9326.594869
1129.892369,-612.876398,-444.123565,9844.739029
1129.892685,-995.924147,-444.123565,8956.491898
1129.893000,-842.705048,-0.000000,9252.574275
1129.893316,-612.876398,-0.000000,10066.800811
1129.893632,-306.438199,-370.102971,10066.800811
1129.893948,-306.438199,-0.000000,10140.821405
1129.894263,-766.095498,-148.041188,9252.574275
1129.894579,-536.266849,-148.041188,9622.677246
1129.894895,-229.828649,-740.205942,10362.883188
1129.895211,-306.438199,370.102971,9918.759623
1129.895526,0.000000,518.144159,9844.739029
1129.895842,0.000000,444.123565,9696.697840
1129.896158,-229.828649,-0.000000,9178.553681
1129.896474,0.000000,-1332.370696,10140.821405
1129.896789,306.438199,-888.247130,10584.944971
1129.897105,229.828649,-296.082377,9770.718434
1129.897421,689.485948,-296.082377,10362.883188
1129.897737,536.266849,-814.226536,9992.780217
1129.898052,76.609550,-370.102971,9696.697840
1129.898368,612.876398,148.041188,9474.636058
1129.898684,229.828649,-0.000000,9400.615463
1129.899000,842.705048,-0.000000,10066.800811
1129.899315,1072.533697,148.041188,9844.739029
1129.899631,766.095498,-74.020594,9400.615463
1129.899947,229.828649,-740.205942,9844.739029
1129.900263,536.266849,-962.267725,10140.821405
1129.900578,842.705048,-666.185348,9696.697840
1129.900894,1072.533697,-296.082377,9770.718434
1129.901210,995.924147,-0.000000,10214.842000
1129.901526,1302.362347,-518.144159,9104.533087
1129.901841,536.266849,148.041188,9326.594869
1129.902157,1378.971896,222.061783,9548.656652
1129.902473,1532.190996,296.082377,8956.491898
1129.902789,1532.190996,518.144159,8956.491898
1129.903104,1685.410096,-74.020594,9474.636058
1129.903420,1608.800546,-444.123565,9030.512492
1129.903736,1378.971896,-0.000000,9104.533087
1129.904052,1302.362347,-148.041188,9548.656652
1129.904367,1685.410096,-148.041188,9696.697840
1129.904683,1455.581446,-0.000000,9474.636058
1129.904999,1455.581446,-444.123565,8956.491898
1129.905315,766.095498,-74.020594,9030.512492
1129.905630,842.705048,-444.123565,9252.574275
1129.905946,995.924147,-0.000000,9474.636058
1129.906262,766.095498,296.082377,8882.471304
1129.906578,995.924147,296.082377,8660.409521
1129.906893,1149.143247,-444.123565,8882.471304
1129.907209,459.657299,-1036.288319,9252.574275
1129.907525,153.219100,-148.041188,9178.553681
1129.907841,0.000000,-592.164754,9104.533087
1129.908156,0.000000,-148.041188,9770.718434
1129.908472,153.219100,-370.102971,9548.656652
1129.908788,153.219100,-0.000000,8956.491898
1129.909104,-612.876398,148.041188,8586.388927
1129.909419,-689.485948,-0.000000,9252.574275
1129.909735,-229.828649,-296.082377,9474.636058
1129.910051,-306.438199,-74.020594,9400.615463
1129.910367,-689.485948,-74.020594,9326.594869
1129.910682,-1072.533697,-518.144159,9474.636058
1129.910998,-1608.800546,-444.123565,9622.677246
1129.911314,-766.095498,-0.000000,9474.636058
1129.911630,-612.876398,148.041188,9622.677246
1129.911945,-689.485948,592.164754,9918.759623
1129.912261,-536.266849,-74.020594,9400.615463
1129.912577,-766.095498,-296.082377,9622.677246
1129.912893,-919.314598,296.082377,9548.656652
1129.913208,-536.266849,222.061783,9844.739029
1129.913524,0.000000,592.164754,9474.636058
1129.913840,-229.828649,444.123565,9770.718434
1129.914155,-536.266849,-296.082377,10362.883188
1129.914471,0.000000,-370.102971,9770.718434
1129.914787,-229.828649,-222.061783,9400.615463
1129.915103,0.000000,-222.061783,10066.800811
1129.915418,383.047749,-148.041188,10288.862594
1129.915734,612.876398,-148.041188,10140.821405
1129.916050,612.876398,-518.144159,10214.842000
1129.916366,76.609550,-222.061783,9696.697840
1129.916681,153.219100,-74.020594,9474.636058
1129.916997,1302.362347,222.061783,9918.759623
1129.917313,1608.800546,444.123565,9622.677246
1129.917629,1455.581446,444.123565,9400.615463
1129.917944,1149.143247,-148.041188,9252.574275
1129.918260,995.924147,-962.267725,9474.636058
1129.918576,1225.752797,-962.267725,9918.759623
1129.918892,1302.362347,-74.020594,9622.677246
1129.919207,1302.362347,-0.000000,9548.656652
1129.919523,1149.143247,-666.185348,10807.006753
1129.919839,1149.143247,-518.144159,10066.800811
1129.920155,1149.143247,222.061783,9104.533087
1129.920470,1302.362347,296.082377,8660.409521
1129.920786,1225.752797,296.082377,9104.533087
1129.921102,1149.143247,-74.020594,9252.574275
1129.921418,1225.752797,-444.123565,9548.656652
1129.921733,612.876398,-222.061783,9474.636058
1129.922049,689.485948,-74.020594,8882.471304
1129.922365,459.657299,370.102971,8364.327145
1129.922681,1072.533697,-74.020594,9400.615463
1129.922996,1225.752797,-296.082377,9918.759623
1129.923312,1608.800546,-814.226536,9918.759623
1129.923628,612.876398,-1776.494261,9252.574275
1129.923944,766.095498,-666.185348,9178.553681
1129.924259,1302.362347,-370.102971,8956.491898
1129.924575,1302.362347,-0.000000,8660.409521
1129.924891,1149.143247,296.082377,9252.574275
1129.925207,612.876398,-0.000000,8808.450710
1129.925522,536.266849,-148.041188,8882.471304
1129.925838,689.485948,-222.061783,8586.388927
1129.926154,842.705048,-962.267725,9252.574275
1129.926470,842.705048,-148.041188,9474.636058
1129.926785,689.485948,148.041188,9400.615463
1129.927101,612.876398,-370.102971,9030.512492
1129.927417,0.000000,-222.061783,9400.615463
1129.927733,-383.047749,-0.000000,8734.430116
1129.928048,0.000000,-148.041188,8882.471304
1129.928364,-229.828649,-592.164754,9770.718434
1129.928680,-306.438199,-740.205942,9696.697840
1129.928996,-612.876398,-592.164754,9770.718434
1129.929311,-766.095498,-518.144159,9474.636058
1129.929627,-766.095498,-592.164754,9474.636058
1129.929943,-842.705048,-148.041188,9548.656652
1129.930259,-153.219100,370.102971,9474.636058
1129.930574,-536.266849,-0.000000,9474.636058
1129.930890,0.000000,-74.020594,9400.615463
1129.931206,-689.485948,-370.102971,9844.739029
1129.931522,-306.438199,-518.144159,9622.677246
1129.931837,0.000000,-148.041188,9548.656652
1129.932153,0.000000,-0.000000,9622.677246
1129.932469,229.828649,-0.000000,9770.718434
1129.932785,153.219100,666.185348,9030.512492
1129.933100,-306.438199,-0.000000,9326.594869
1129.933416,0.000000,-518.144159,10140.821405
1129.933732,0.000000,-962.267725,10510.924376
1129.934048,536.266849,-444.123565,10584.944971
1129.934363,383.047749,-888.247130,10288.862594
1129.934679,153.219100,-1036.288319,9770.718434
1129.934995,612.876398,-222.061783,10288.862594
1129.935311,995.924147,-0.000000,9474.636058
1129.935626,842.705048,740.205942,9548.656652
1129.935942,1455.581446,444.123565,9918.759623
1129.936258,1915.238745,-222.061783,9474.636058
1129.936574,766.095498,-0.000000,9252.574275
1129.936889,306.438199,-592.164754,9918.759623
1129.937205,1072.533697,-1036.288319,9548.656652
1129.937521,919.314598,-518.144159,9918.759623
1129.937837,842.705048,-666.185348,10881.027347
1129.938152,383.047749,-814.226536,9992.780217
1129.938468,459.657299,-1480.411884,9918.759623
1129.938784,459.657299,-1036.288319,9474.636058
1129.939100,1302.362347,-148.041188,9696.697840
1129.939415,1532.190996,592.164754,9548.656652
1129.939731,1685.410096,296.082377,8882.471304
1129.940047,919.314598,-0.000000,8734.430116
1129.940363,995.924147,-0.000000,8586.388927
1129.940678,1072.533697,222.061783,8216.285956
1129.940994,1149.143247,-0.000000,9104.533087
1129.941310,1302.362347,-444.123565,9474.636058
1129.941626,1072.533697,-962.267725,9474.636058
1129.941941,459.657299,-962.267725,9474.636058
1129.942257,153.219100,-592.164754,9252.574275
1129.942573,995.924147,-370.102971,9622.677246
1129.942889,842.705048,518.144159,8882.471304
1129.943204,1378.971896,888.247130,8586.388927
1129.943520,919.314598,296.082377,8734.430116
1129.943836,689.485948,-222.061783,8808.450710
1129.944152,995.924147,-518.144159,8882.471304
1129.944467,766.095498,-222.061783,9104.533087
1129.944783,1072.533697,-0.000000,9178.553681
1129.945099,919.314598,518.144159,9030.512492
1129.945415,383.047749,296.082377,8882.471304
1129.945730,229.828649,-0.000000,9474.636058
1129.946046,0.000000,-518.144159,9474.636058
1129.946362,-383.047749,-0.000000,9474.636058
1129.946678,-842.705048,518.144159,9474.636058
1129.946993,-229.828649,-296.082377,10066.800811
1129.947309,-229.828649,-296.082377,9548.656652
1129.947625,-536.266849,-222.061783,9252.574275
1129.947941,-1072.533697,-518.144159,10066.800811
1129.948256,-842.705048,-592.164754,9770.718434
1129.948572,-612.876398,-666.185348,9548.656652
1129.948888,-459.657299,-370.102971,10066.800811
1129.949204,-612.876398,-740.205942,9622.677246
1129.949519,-612.876398,-518.144159,9992.780217
1129.949835,0.000000,-0.000000,10066.800811
1129.950151,459.657299,592.164754,9326.594869
1129.950467,229.828649,962.267725,9252.574275
1129.950782,383.047749,444.123565,9844.739029
1129.951098,0.000000,-740.205942,9400.615463
1129.951414,-229.828649,-518.144159,9992.780217
1129.951730,76.609550,-1036.288319,10288.862594
1129.952045,0.000000,-888.247130,10066.800811
1129.952361,229.828649,-444.123565,10288.862594
1129.952677,306.438199,-518.144159,10066.800811
1129.952993,0.000000,-296.082377,10066.800811
1129.953308,153.219100,-888.247130,9918.759623
1129.953624,995.924147,-148.041188,9918.759623
1129.953940,1225.752797,666.185348,9474.636058
1129.954256,1532.190996,518.144159,9474.636058
1129.954571,1838.629195,222.061783,9104.533087
1129.954887,536.266849,222.061783,9104.533087
1129.955203,919.314598,-148.041188,9548.656652
1129.955519,383.047749,-296.082377,9992.780217
1129.955834,766.095498,370.102971,9622.677246
1129.956150,1149.143247,-74.020594,9474.636058
1129.956466,689.485948,-296.082377,9474.636058
1129.956781,919.314598,-518.144159,10140.821405
1129.957097,612.876398,-222.061783,9474.636058
1129.957413,1149.143247,444.123565,8956.491898
1129.957729,1072.533697,518.144159,9178.553681
1129.958044,1532.190996,518.144159,9178.553681
1129.958360,1149.143247,-296.082377,9178.553681
1129.958676,842.705048,-740.205942,9030.512492
1129.958992,612.876398,-444.123565,9104.533087
1129.959307,995.924147,-444.123565,9252.574275
1129.959623,1378.971896,-0.000000,9104.533087
1129.959939,1149.143247,-518.144159,9622.677246
1129.960255,459.657299,-888.247130,9326.594869
1129.960570,689.485948,-666.185348,9400.615463
1129.960886,459.657299,-814.226536,9548.656652
1129.961202,689.485948,-444.123565,9474.636058
1129.961518,1072.533697,-0.000000,9030.512492
1129.961833,919.314598,-666.185348,9030.512492
1129.962149,689.485948,-444.123565,9178.553681
1129.962465,229.828649,-518.144159,9252.574275
1129.962781,612.876398,-0.000000,8808.450710
1129.963096,919.314598,444.123565,8512.368333
1129.963412,1149.143247,-0.000000,8734.430116
1129.963728,842.705048,-0.000000,9252.574275
1129.964044,-153.219100,-74.020594,9178.553681
1129.964359,0.000000,-444.123565,9548.656652
1129.964675,-306.438199,-0.000000,9178.553681
1129.964991,-383.047749,814.226536,9326.594869
1129.965307,-612.876398,444.123565,9104.533087
1129.965622,-995.924147,-592.164754,9474.636058
1129.965938,-1072.533697,-444.123565,10140.821405
1129.966254,-1225.752797,-518.144159,10140.821405
1129.966570,-1225.752797,-814.226536,9696.697840
1129.966885,-766.095498,-148.041188,9770.718434
1129.967201,-536.266849,-592.164754,10140.821405
1129.967517,0.000000,-148.041188,9474.636058
1129.967833,-842.705048,592.164754,9474.636058
1129.968148,0.000000,370.102971,9474.636058
1129.968464,76.609550,222.061783,9252.574275
1129.968780,383.047749,296.082377,9622.677246
1129.969096,689.485948,-222.061783,9918.759623
1129.969411,612.876398,-962.267725,9400.615463
1129.969727,153.219100,-888.247130,10140.821405
1129.970043,383.047749,-444.123565,9622.677246
1129.970359,612.876398,-0.000000,9696.697840
1129.970674,766.095498,222.061783,9844.739029
1129.970990,919.314598,-370.102971,9844.739029
1129.971306,306.438199,-962.267725,10214.842000
1129.971622,383.047749,-1110.308913,10066.800811
1129.971937,842.705048,-1332.370696,10066.800811
1129.972253,766.095498,-296.082377,9622.677246
1129.972569,919.314598,-0.000000,9400.615463
1129.972885,995.924147,-148.041188,9474.636058
1129.973200,612.876398,-296.082377,9474.636058
1129.973516,1072.533697,-222.061783,9474.636058
1129.973832,383.047749,-148.041188,8808.450710
1129.974148,612.876398,-1258.350101,9844.739029
1129.974463,1302.362347,-1332.370696,10658.965565
1129.974779,1149.143247,-1480.411884,9992.780217
1129.975095,383.047749,-518.144159,9326.594869
1129.975411,536.266849,-222.061783,9400.615463
1129.975726,1149.143247,-0.000000,9104.533087
1129.976042,1455.581446,1110.308913,8068.244768
1129.976358,1838.629195,814.226536,8956.491898
1129.976674,1991.848295,444.123565,8660.409521
1129.976989,842.705048,-592.164754,9104.533087
1129.977305,612.876398,-444.123565,9178.553681
1129.977621,383.047749,-814.226536,8808.450710
1129.977937,612.876398,-444.123565,9178.553681
1129.978252,766.095498,-222.061783,9844.739029
1129.978568,306.438199,-518.144159,9178.553681
1129.978884,0.000000,-666.185348,9030.512492
1129.979200,0.000000,-518.144159,9622.677246
1129.979515,612.876398,-592.164754,8734.430116
1129.979831,612.876398,-0.000000,9178.553681
1129.980147,766.095498,148.041188,9326.594869
1129.980463,612.876398,74.020594,8512.368333
1129.980778,766.095498,-0.000000,8808.450710
1129.981094,1072.533697,-0.000000,8734.430116
1129.981410,919.314598,444.123565,8290.306550
1129.981726,1072.533697,-0.000000,9326.594869
1129.982041,919.314598,-0.000000,9844.739029
1129.982357,76.609550,-444.123565,9548.656652
1129.982673,-229.828649,-148.041188,9474.636058
1129.982989,0.000000,148.041188,9030.512492
1129.983304,-306.438199,296.082377,9326.594869
1129.983620,76.609550,740.205942,9548.656652
1129.983936,0.000000,-0.000000,9622.677246
1129.984252,-1072.533697,-222.061783,9326.594869
1129.984567,-842.705048,-370.102971,10066.800811
1129.984883,-1149.143247,-1036.288319,10066.800811
1129.985199,-536.266849,-518.144159,10658.965565
1129.985515,-306.438199,-0.000000,10214.842000
1129.985830,-306.438199,-0.000000,9844.739029
1129.986146,-306.438199,-0.000000,10362.883188
1129.986462,76.609550,-148.041188,9696.697840
1129.986778,306.438199,444.123565,9326.594869
1129.987093,689.485948,962.267725,9326.594869
1129.987409,536.266849,592.164754,8956.491898
1129.987725,612.876398,296.082377,9474.636058
1129.988041,229.828649,-0.000000,9696.697840
1129.988356,0.000000,-148.041188,9918.759623
1129.988672,229.828649,-74.020594,9696.697840
1129.988988,153.219100,-0.000000,9622.677246
1129.989304,0.000000,-444.123565,10510.924376
1129.989619,0.000000,-962.267725,10362.883188
1129.989935,-153.219100,-1110.308913,10362.883188
1129.990251,229.828649,-592.164754,10140.821405
1129.990567,0.000000,-74.020594,9844.739029
1129.990882,153.219100,888.247130,9622.677246
1129.991198,612.876398,148.041188,9696.697840
1129.991514,306.438199,-0.000000,9474.636058
1129.991830,76.609550,-0.000000,8956.491898
1129.992145,612.876398,-518.144159,9622.677246
1129.992461,1149.143247,-814.226536,9622.677246
1129.992777,1149.143247,-1110.308913,9622.677246
1129.993093,1762.019645,-0.000000,10140.821405
1129.993408,995.924147,-74.020594,8956.491898
1129.993724,1378.971896,-0.000000,9104.533087
1129.994040,1532.190996,-148.041188,9252.574275
1129.994356,1608.800546,222.061783,9326.594869
1129.994671,2068.457845,370.102971,9252.574275
1129.994987,1149.143247,-0.000000,9104.533087
1129.995303,766.095498,-444.123565,9178.553681
1129.995619,459.657299,-518.144159,9474.636058
1129.995934,766.095498,-740.205942,9178.553681
1129.996250,1072.533697,-740.205942,9844.739029
1129.996566,536.266849,-666.185348,9918.759623
1129.996882,0.000000,-1702.473667,9400.615463
1129.997197,0.000000,-1184.329507,9696.697840
1129.997513,383.047749,-1628.453072,10288.862594
1129.997829,689.485948,-0.000000,9252.574275
1129.998145,1072.533697,444.123565,8290.306550
1129.998460,919.314598,592.164754,8438.347739
1129.998776,1532.190996,222.061783,8586.388927
1129.999092,919.314598,-148.041188,8290.306550
1129.999408,766.095498,-222.061783,8808.450710
1129.999723,689.485948,-296.082377,9326.594869
1130.000039,766.095498,296.082377,8808.450710
1130.000355,612.876398,-222.061783,9178.553681
1130.000671,0.000000,-592.164754,9030.512492
1130.000986,0.000000,-1036.288319,10066.800811
1130.001302,-612.876398,-222.061783,9844.739029
1130.001618,-612.876398,370.102971,9400.615463
1130.001934,-306.438199,592.164754,9844.739029
1130.002249,-229.828649,-0.000000,9400.615463
1130.002565,-536.266849,222.061783,9252.574275
1130.002881,-1072.533697,-518.144159,9918.759623
1130.003197,-995.924147,-962.267725,9844.739029
1130.003512,-766.095498,-592.164754,10066.800811
1130.003828,-766.095498,-370.102971,10066.800811
1130.004144,-536.266849,-518.144159,10288.862594
1130.004460,-306.438199,-0.000000,9844.739029
1130.004775,-229.828649,666.185348,9548.656652
1130.005091,153.219100,888.247130,9326.594869
1130.005407,383.047749,888.247130,9622.677246
1130.005722,1149.143247,-74.020594,9474.636058
1130.006038,919.314598,-296.082377,9474.636058
1130.006354,459.657299,-666.185348,9474.636058
1130.006670,459.657299,-1184.329507,10510.924376
1130.006985,536.266849,-740.205942,10288.862594
1130.007301,995.924147,-0.000000,9770.718434
1130.007617,612.876398,-0.000000,9696.697840
1130.007933,459.657299,-148.041188,10214.842000
1130.008248,153.219100,-666.185348,9548.656652
1130.008564,612.876398,-888.247130,9992.780217
1130.008880,995.924147,-888.247130,10214.842000
1130.009196,919.314598,-296.082377,9548.656652
1130.009511,1302.362347,74.020594,9622.677246
1130.009827,842.705048,-0.000000,9178.553681
1130.010143,612.876398,814.226536,8956.491898
1130.010459,1149.143247,222.061783,9474.636058
1130.010774,919.314598,-0.000000,8882.471304
1130.011090,919.314598,-0.000000,9770.718434
1130.011406,1302.362347,-814.226536,9474.636058
1130.011722,995.924147,-666.185348,9622.677246
1130.012037,612.876398,-518.144159,9252.574275
1130.012353,1302.362347,222.061783,9178.553681
1130.012669,1225.752797,-0.000000,8808.450710
1130.012985,995.924147,592.164754,9474.636058
1130.013300,689.485948,814.226536,8512.368333
1130.013616,383.047749,-444.123565,9400.615463
1130.013932,306.438199,-592.164754,9252.574275
1130.014248,76.609550,-148.041188,9178.553681
1130.014563,766.095498,-0.000000,8956.491898
1130.014879,1149.143247,-740.205942,9474.636058
1130.015195,306.438199,-740.205942,9770.718434
1130.015511,0.000000,-1036.288319,9252.574275
1130.015826,153.219100,-1036.288319,9548.656652
1130.016142,-153.219100,-666.185348,9548.656652
1130.016458,689.485948,-0.000000,9696.697840
1130.016774,919.314598,-0.000000,9030.512492
1130.017089,766.095498,148.041188,9178.553681
1130.017405,536.266849,-0.000000,8290.306550
1130.017721,536.266849,-148.041188,8734.430116
1130.018037,689.485948,-222.061783,9178.553681
1130.018352,689.485948,222.061783,9696.697840
1130.018668,459.657299,-148.041188,9400.615463
1130.018984,153.219100,-444.123565,9474.636058
1130.019300,-229.828649,-370.102971,9400.615463
1130.019615,-995.924147,-74.020594,9326.594869
1130.019931,-229.828649,370.102971,9548.656652
1130.020247,-383.047749,296.082377,9474.636058
1130.020563,-383.047749,-0.000000,9622.677246
1130.020878,-383.047749,148.041188,9178.553681
1130.021194,-842.705048,-148.041188,9178.553681
1130.021510,-306.438199,-1036.288319,10658.965565
1130.021826,0.000000,-518.144159,9992.780217
1130.022141,-306.438199,222.061783,9252.574275
1130.022457,-153.219100,-148.041188,9548.656652
1130.022773,0.000000,-666.185348,10214.842000
1130.023089,0.000000,-666.185348,9622.677246
1130.023404,306.438199,-222.061783,10214.842000
1130.023720,459.657299,-0.000000,9474.636058
1130.024036,842.705048,-74.020594,9992.780217
1130.024352,1072.533697,-370.102971,10140.821405
1130.024667,306.438199,-222.061783,9252.574275
1130.024983,1072.533697,222.061783,10066.800811
1130.025299,766.095498,296.082377,8882.471304
1130.025615,766.095498,296.082377,9474.636058
1130.025930,1149.143247,-296.082377,10214.842000
1130.026246,383.047749,-592.164754,9474.636058
1130.026562,76.609550,-1258.350101,9474.636058
1130.026878,-306.438199,-1332.370696,10288.862594
1130.027193,-153.219100,-1628.453072,10362.883188
1130.027509,0.000000,-1776.494261,10288.862594
1130.027825,0.000000,-1628.453072,10807.006753
1130.028141,0.000000,-1702.473667,10732.986159
1130.028456,-689.485948,-1702.473667,10214.842000
1130.028772,-612.876398,-1480.411884,10066.800811
1130.029088,-153.219100,-1258.350101,9696.697840
1130.029404,766.095498,-1184.329507,10214.842000
1130.029719,1378.971896,-666.185348,9548.656652
1130.030035,1302.362347,-1110.308913,8660.409521
1130.030351,1838.629195,-1480.411884,9474.636058
1130.030667,1838.629195,-1702.473667,9030.512492
1130.030982,2298.286494,-962.267725,9104.533087
1130.031298,2604.724693,-518.144159,9104.533087
1130.031614,2604.724693,-1258.350101,9252.574275
1130.031930,2681.334243,-1480.411884,9326.594869
1130.032245,1915.238745,-1480.411884,9474.636058
1130.032561,1685.410096,-962.267725,9104.533087
1130.032877,1991.848295,-1406.391290,9178.553681
1130.033193,2221.676944,-1110.308913,9696.697840
1130.033508,1685.410096,-1110.308913,9326.594869
1130.033824,1915.238745,-2072.576638,9326.594869
1130.034140,1455.581446,-2812.782580,9326.594869
1130.034455,1455.581446,-2664.741391,9104.533087
1130.034771,2451.505594,-2590.720797,9548.656652
1130.035087,2374.896044,-2072.576638,9400.615463
1130.035403,3064.381992,-1184.329507,9326.594869
1130.035718,3447.429741,-1628.453072,8364.327145
1130.036034,3370.820191,-2146.597232,7846.182985
1130.036350,3370.820191,-1406.391290,8512.368333
1130.036665,3907.087040,-1480.411884,7994.224174
1130.036981,4213.525239,-1480.411884,8290.306550
1130.037297,3830.477490,-1258.350101,8438.347739
1130.037613,3140.991542,-1702.473667,8956.491898
1130.037928,2681.334243,-1776.494261,9030.512492
1130.038244,1532.190996,-1480.411884,9178.553681
1130.038560,1149.143247,-814.226536,8956.491898
1130.038876,1455.581446,-1406.391290,9548.656652
1130.039191,1302.362347,-1332.370696,10066.800811
1130.039507,689.485948,-1924.535449,10214.842000
1130.039823,-153.219100,-2886.803174,9918.759623
1130.040138,229.828649,-2886.803174,10214.842000
1130.040454,689.485948,-2146.597232,10510.924376
1130.040770,919.314598,-1702.473667,10510.924376
1130.041086,2298.286494,-1554.432478,10510.924376
1130.041401,1915.238745,-1406.391290,10362.883188
1130.041717,2451.505594,-1406.391290,9770.718434
1130.042033,2757.943793,-1776.494261,9474.636058
1130.042348,3064.381992,-1628.453072,9622.677246
1130.042664,3830.477490,-592.164754,9622.677246
1130.042980,4213.525239,-592.164754,9252.574275
1130.043296,4366.744339,-814.226536,9548.656652
1130.043611,3907.087040,-962.267725,9770.718434
1130.043927,3370.820191,-1554.432478,9400.615463
1130.044243,3753.867940,-1924.535449,9992.780217
1130.044559,3524.039291,-1776.494261,9696.697840
1130.044874,2911.162892,-1480.411884,9770.718434
1130.045190,2374.896044,-1998.556043,9770.718434
1130.045506,2451.505594,-3034.844362,10510.924376
1130.045821,1685.410096,-3182.885551,10510.924376
1130.046137,1455.581446,-3034.844362,10362.883188
1130.046453,1685.410096,-3404.947333,10584.944971
1130.046769,1532.190996,-3701.029710,10807.006753
1130.047084,2374.896044,-3478.967927,11029.068536
1130.047400,2528.115143,-3256.906145,10807.006753
1130.047716,2757.943793,-2442.679609,9696.697840
1130.048032,3370.820191,-1850.514855,9252.574275
1130.048347,4290.134789,-1554.432478,8512.368333
1130.048663,4749.792088,-814.226536,8142.265362
1130.048979,4290.134789,-1110.308913,7624.121203
1130.049294,4290.134789,-1480.411884,8364.327145
1130.049610,4213.525239,-1258.350101,7920.203579
1130.049926,3524.039291,-2072.576638,7624.121203
1130.050242,2374.896044,-2368.659014,9030.512492
1130.050557,1915.238745,-2664.741391,9474.636058
1130.050873,1455.581446,-3108.864956,9696.697840
1130.051189,919.314598,-3182.885551,10066.800811
1130.051504,306.438199,-3627.009116,9622.677246
1130.051820,229.828649,-3404.947333,9622.677246
1130.052136,612.876398,-3330.926739,9548.656652
1130.052452,1149.143247,-2886.803174,9474.636058
1130.052767,995.924147,-2442.679609,9178.553681
1130.053083,1608.800546,-2738.761985,9474.636058
1130.053399,1378.971896,-3404.947333,9622.677246
1130.053715,2834.553343,-3108.864956,8734.430116
1130.054030,3217.601092,-2294.638420,8142.265362
1130.054346,3447.429741,-1998.556043,7920.203579
1130.054662,4136.915689,-1998.556043,7994.224174
1130.054977,4673.182538,-1554.432478,8586.388927
1130.055293,4596.572988,-1036.288319,8586.388927
1130.055609,4136.915689,-962.267725,8364.327145
1130.055925,3447.429741,-1184.329507,8512.368333
1130.056240,3524.039291,-2294.638420,9696.697840
1130.056556,2757.943793,-3034.844362,10140.821405
1130.056872,2528.115143,-2812.782580,10288.862594
1130.057187,2374.896044,-2960.823768,9844.739029
1130.057503,1455.581446,-2516.700203,9622.677246
1130.057819,1532.190996,-2368.659014,9918.759623
1130.058135,1685.410096,-1776.494261,9622.677246
1130.058450,1685.410096,-1406.391290,9770.718434
1130.058766,1378.971896,-1554.432478,10140.821405
1130.059082,1532.190996,-2886.803174,10362.883188
1130.059398,1838.629195,-3404.947333,11103.089130
1130.059713,2068.457845,-3849.070898,10881.027347
1130.060029,3140.991542,-3034.844362,10214.842000
1130.060345,3600.648841,-2146.597232,9474.636058
1130.060660,4136.915689,-1628.453072,9252.574275
1130.060976,4290.134789,-1258.350101,8956.491898
1130.061292,4290.134789,-740.205942,8512.368333
1130.061608,4290.134789,-0.000000,8512.368333
1130.061923,3753.867940,296.082377,8586.388927
1130.062239,3753.867940,-222.061783,8586.388927
1130.062555,3217.601092,-1554.432478,10066.800811
1130.062871,2451.505594,-2886.803174,10214.842000
1130.063186,1608.800546,-3849.070898,10955.047942
1130.063502,995.924147,-4219.173869,10881.027347
1130.063818,1072.533697,-4367.215058,11251.130318
1130.064133,766.095498,-3997.112087,11399.171507
1130.064449,995.924147,-2738.761985,11325.150913
1130.064765,995.924147,-1628.453072,10362.883188
1130.065081,1455.581446,-1036.288319,9474.636058
1130.065396,2221.676944,-592.164754,8956.491898
1130.065712,2451.505594,-518.144159,8216.285956
1130.066028,3447.429741,-222.061783,8216.285956
1130.066343,3600.648841,-1184.329507,8364.327145
1130.066659,3830.477490,-2442.679609,8734.430116
1130.066975,3753.867940,-3923.091493,9548.656652
1130.067291,3217.601092,-4219.173869,9918.759623
1130.067606,3064.381992,-4071.132681,10362.883188
1130.067922,3064.381992,-3330.926739,10140.821405
1130.068238,3140.991542,-2516.700203,9548.656652
1130.068554,3294.210641,-1850.514855,9178.553681
1130.068869,3140.991542,-1554.432478,9326.594869
1130.069185,3294.210641,-1406.391290,8142.265362
1130.069501,3064.381992,-1184.329507,7994.224174
1130.069816,2604.724693,-1258.350101,7846.182985
1130.070132,1991.848295,-2146.597232,8290.306550
1130.070448,1762.019645,-2294.638420,8734.430116
1130.070764,1149.143247,-2516.700203,9252.574275
1130.071079,689.485948,-2886.803174,9548.656652
1130.071395,0.000000,-3330.926739,10288.862594
1130.071711,0.000000,-3701.029710,10584.944971
1130.072026,612.876398,-4145.153275,10955.047942
1130.072342,1302.362347,-3701.029710,10584.944971
1130.072658,2298.286494,-2960.823768,9696.697840
1130.072974,3294.210641,-2516.700203,9400.615463
1130.073289,3753.867940,-2294.638420,8808.450710
1130.073605,4213.525239,-1480.411884,8290.306550
1130.073921,4673.182538,-518.144159,7698.141797
1130.074237,4673.182538,-0.000000,7402.059420
1130.074552,4519.963438,-0.000000,7328.038826
1130.074868,3983.696590,-444.123565,8142.265362
1130.075184,3447.429741,-1332.370696,8808.450710
1130.075499,3064.381992,-2072.576638,9326.594869
1130.075815,2145.067394,-3108.864956,9844.739029
1130.076131,1455.581446,-4441.235652,11029.068536
1130.076447,919.314598,-4515.256246,11621.233289
1130.076762,689.485948,-4219.173869,11547.212695
1130.077078,459.657299,-3478.967927,11325.150913
1130.077394,459.657299,-2738.761985,10807.006753
1130.077710,842.705048,-2590.720797,10214.842000
1130.078025,1685.410096,-2294.638420,9696.697840
1130.078341,2068.457845,-1702.473667,9474.636058
1130.078657,2681.334243,-1110.308913,8660.409521
1130.078972,3370.820191,-962.267725,8512.368333
1130.079288,3830.477490,-1406.391290,8808.450710
1130.079604,4136.915689,-1998.556043,9030.512492
1130.079920,3753.867940,-2368.659014,9474.636058
1130.080235,3370.820191,-2294.638420,9696.697840
1130.080551,2528.115143,-2442.679609,9992.780217
1130.080867,2374.896044,-2146.597232,9918.759623
1130.081182,2068.457845,-1702.473667,10362.883188
1130.081498,1915.238745,-1332.370696,10066.800811
1130.081814,1762.019645,-1258.350101,9844.739029
1130.082130,2068.457845,-1628.453072,9918.759623
1130.082445,2145.067394,-2294.638420,9770.718434
1130.082761,2298.286494,-2442.679609,9770.718434
1130.083077,2451.505594,-2368.659014,9474.636058
1130.083393,2757.943793,-2368.659014,9474.636058
1130.083708,2604.724693,-1850.514855,9252.574275
1130.084024,2528.115143,-1628.453072,9474.636058
1130.084340,2757.943793,-1480.411884,9400.615463
1130.084655,2298.286494,-1480.411884,9622.677246
1130.084971,2298.286494,-1628.453072,9474.636058
1130.085287,2374.896044,-1406.391290,9400.615463
1130.085603,2068.457845,-1406.391290,9178.553681
1130.085918,1991.848295,-1184.329507,9104.533087
1130.086234,1685.410096,-962.267725,8734.430116
1130.086550,1532.190996,-814.226536,8660.409521
1130.086865,1455.581446,-1258.350101,8734.430116
1130.087181,766.095498,-1628.453072,8808.450710
1130.087497,612.876398,-1628.453072,9400.615463
1130.087813,536.266849,-1924.535449,9548.656652
1130.088128,919.314598,-2368.659014,9918.759623
1130.088444,1225.752797,-2442.679609,10214.842000
1130.088760,1302.362347,-2886.803174,10214.842000
1130.089076,1685.410096,-2960.823768,10214.842000
1130.089391,2221.676944,-2294.638420,10066.800811
1130.089707,2681.334243,-1776.494261,9622.677246
1130.090023,3370.820191,-1184.329507,9104.533087
1130.090338,3600.648841,-444.123565,8734.430116
1130.090654,3830.477490,-370.102971,8364.327145
1130.090970,3447.429741,-592.164754,8512.368333
1130.091286,3753.867940,-962.267725,8660.409521
1130.091601,3753.867940,-1480.411884,9030.512492
1130.091917,3753.867940,-1924.535449,9400.615463
1130.092233,3370.820191,-2812.782580,9770.718434
1130.092549,3140.991542,-3552.988522,10510.924376
1130.092864,3370.820191,-4071.132681,10436.903782
1130.093180,3140.991542,-4071.132681,10881.027347
1130.093496,2757.943793,-3404.947333,10807.006753
1130.093811,2757.943793,-3182.885551,10584.944971
1130.094127,2757.943793,-3108.864956,10436.903782
1130.094443,2911.162892,-2516.700203,9918.759623
1130.094759,3064.381992,-2072.576638,9548.656652
1130.095074,3294.210641,-2294.638420,9326.594869
1130.095390,3447.429741,-2294.638420,8956.491898
1130.095706,3753.867940,-2294.638420,8882.471304
1130.096021,3753.867940,-2886.803174,9030.512492
1130.096337,3600.648841,-2590.720797,9252.574275
1130.096653,2911.162892,-2960.823768,9326.594869
1130.096969,2911.162892,-3182.885551,9992.780217
1130.097284,2451.505594,-3775.050304,10140.821405
1130.097600,2221.676944,-3627.009116,10214.842000
1130.097916,2068.457845,-3849.070898,10362.883188
1130.098232,1991.848295,-3552.988522,9992.780217
1130.098547,1915.238745,-2886.803174,9696.697840
1130.098863,2298.286494,-2886.803174,9326.594869
1130.099179,2451.505594,-2590.720797,9252.574275
1130.099494,2451.505594,-2590.720797,8808.450710
1130.099810,2604.724693,-2738.761985,9178.553681
1130.100126,2681.334243,-3552.988522,9104.533087
1130.100442,3064.381992,-3404.947333,9918.759623
1130.100757,3447.429741,-3701.029710,9770.718434
1130.101073,2987.772442,-3997.112087,9178.553681
1130.101389,3370.820191,-3701.029710,9770.718434
1130.101704,3447.429741,-3627.009116,9252.574275
1130.102020,3753.867940,-2886.803174,8956.491898
1130.102336,3677.258390,-1924.535449,8290.306550
1130.102652,3294.210641,-1332.370696,7772.162391
1130.102967,2681.334243,-1110.308913,7846.182985
1130.103283,2604.724693,-1110.308913,8142.265362
1130.103599,1685.410096,-1776.494261,7772.162391
1130.103915,612.876398,-1924.535449,8586.388927
1130.104230,306.438199,-2664.741391,9252.574275
1130.104546,0.000000,-3775.050304,9992.780217
1130.104862,153.219100,-4515.256246,10658.965565
1130.105177,383.047749,-4811.338623,10955.047942
1130.105493,766.095498,-4811.338623,11103.089130
1130.105809,1608.800546,-4589.276840,10955.047942
1130.106125,2145.067394,-3627.009116,10362.883188
1130.106440,2604.724693,-1998.556043,9696.697840
1130.106756,4060.306139,-222.061783,8734.430116
1130.107072,4443.353888,518.144159,7846.182985
1130.107388,4903.011187,1332.370696,7105.977043
1130.107703,4826.401637,1628.453072,6735.874072
1130.108019,4443.353888,1332.370696,6883.915261
1130.108335,3524.039291,1110.308913,7476.080014
1130.108650,2451.505594,-0.000000,8364.327145
1130.108966,1225.752797,-1110.308913,9474.636058
1130.109282,76.609550,-2368.659014,10807.006753
1130.109598,-995.924147,-3775.050304,11843.295072
1130.109913,-1149.143247,-4737.318029,12879.583391
1130.110229,-1225.752797,-4737.318029,13027.624579
1130.110545,-842.705048,-4367.215058,12731.542202
1130.110860,536.266849,-3404.947333,11917.315666
1130.111176,1455.581446,-2368.659014,11029.068536
1130.111492,2911.162892,-1554.432478,9770.718434
1130.111808,4596.572988,-444.123565,8660.409521
1130.112123,5592.497135,1036.288319,7624.121203
1130.112439,6128.763984,2368.659014,7179.997637
1130.112755,6511.811733,2146.597232,6957.935855
1130.113071,6128.763984,1850.514855,7105.977043
1130.113386,5132.839837,370.102971,8068.244768
1130.113702,3983.696590,-1258.350101,9326.594869
1130.114018,3217.601092,-2738.761985,10732.986159
1130.114333,2298.286494,-3849.070898,11843.295072
1130.114649,995.924147,-3997.112087,11991.336260
1130.114965,306.438199,-3552.988522,12213.398043
1130.115281,383.047749,-2960.823768,11917.315666
1130.115596,536.266849,-1924.535449,11251.130318
1130.115912,1378.971896,-1702.473667,10584.944971
1130.116228,1685.410096,-1480.411884,9696.697840
1130.116543,2451.505594,-1702.473667,9474.636058
1130.116859,3217.601092,-2294.638420,9252.574275
1130.117175,4749.792088,-1924.535449,9252.574275
1130.117491,4826.401637,-2442.679609,9030.512492
1130.117806,4749.792088,-2516.700203,9030.512492
1130.118122,4596.572988,-2812.782580,9326.594869
1130.118438,4979.620737,-3108.864956,9178.553681
1130.118754,5056.230287,-2368.659014,8808.450710
1130.119069,4826.401637,-1480.411884,8882.471304
1130.119385,4136.915689,-1480.411884,8586.388927
1130.119701,2987.772442,-1406.391290,8882.471304
1130.120016,2757.943793,-2294.638420,9474.636058
1130.120332,2374.896044,-2812.782580,9770.718434
1130.120648,1225.752797,-3404.947333,9326.594869
1130.120964,1149.143247,-4441.235652,9548.656652
1130.121279,1378.971896,-4737.318029,9844.739029
1130.121595,1532.190996,-4737.318029,9474.636058
1130.121911,919.314598,-3330.926739,9696.697840
1130.122227,612.876398,-3552.988522,9622.677246
1130.122542,919.314598,-3923.091493,10214.842000
1130.122858,1149.143247,-3552.988522,9992.780217
1130.123174,1378.971896,-3701.029710,9918.759623
1130.123489,2145.067394,-3552.988522,9474.636058
1130.123805,2451.505594,-3108.864956,8956.491898
1130.124121,3294.210641,-2738.761985,8364.327145
1130.124437,3370.820191,-2368.659014,7846.182985
1130.124752,3217.601092,-2442.679609,7994.224174
1130.125068,3217.601092,-2442.679609,7994.224174
1130.125384,2834.553343,-1998.556043,7698.141797
1130.125699,3064.381992,-1850.514855,7846.182985
1130.126015,3064.381992,-1776.494261,8364.327145
1130.126331,3140.991542,-2220.617826,8956.491898
1130.126647,2221.676944,-2590.720797,8438.347739
1130.126962,1302.362347,-2368.659014,8438.347739
1130.127278,689.485948,-3108.864956,9326.594869
1130.127594,76.609550,-3256.906145,10362.883188
1130.127910,-842.705048,-3849.070898,10881.027347
1130.128225,-995.924147,-3701.029710,11103.089130
1130.128541,-306.438199,-3404.947333,11103.089130
1130.128857,0.000000,-2886.803174,10436.903782
1130.129172,1149.143247,-2294.638420,10066.800811
1130.129488,2145.067394,-1776.494261,10066.800811
1130.129804,3064.381992,-962.267725,9104.533087
1130.130120,4519.963438,-0.000000,8364.327145
1130.130435,5669.106685,-0.000000,7994.224174
1130.130751,5975.544884,222.061783,7476.080014
1130.131067,5822.325785,592.164754,7994.224174
1130.131382,5745.716235,148.041188,8882.471304
1130.131698,5132.839837,-222.061783,9326.594869
1130.132014,4060.306139,-0.000000,9770.718434
1130.132330,3217.601092,592.164754,10140.821405
1130.132645,2604.724693,-74.020594,10140.821405
1130.132961,1762.019645,-666.185348,10658.965565
1130.133277,919.314598,-740.205942,11177.109724
1130.133592,383.047749,-1554.432478,11399.171507
1130.133908,306.438199,-1332.370696,11547.212695
1130.134224,0.000000,-1110.308913,11473.192101
1130.134540,459.657299,-1480.411884,11325.150913
1130.134855,919.314598,-666.185348,10214.842000
1130.135171,1072.533697,-222.061783,10066.800811
1130.135487,1302.362347,-74.020594,9474.636058
1130.135802,1991.848295,-370.102971,9474.636058
1130.136118,1991.848295,-0.000000,9252.574275
1130.136434,2451.505594,222.061783,9548.656652
1130.136749,2374.896044,-814.226536,9474.636058
1130.137065,2145.067394,518.144159,8882.471304
1130.137381,1762.019645,296.082377,8734.430116
1130.137697,1455.581446,-74.020594,9696.697840
1130.138012,919.314598,444.123565,9548.656652
1130.138328,842.705048,592.164754,9474.636058
1130.138644,842.705048,-370.102971,9104.533087
1130.138959,0.000000,-962.267725,10362.883188
1130.139275,0.000000,-1110.308913,9474.636058
1130.139591,-306.438199,-888.247130,9548.656652
1130.139906,-229.828649,-370.102971,9474.636058
1130.140222,536.266849,-666.185348,10066.800811
1130.140538,0.000000,-1258.350101,8586.388927
1130.140854,-383.047749,-1036.288319,9252.574275
1130.141169,0.000000,-1702.473667,9696.697840
1130.141485,0.000000,-1332.370696,8660.409521
1130.141801,0.000000,296.082377,8956.491898
1130.142116,153.219100,592.164754,8586.388927
1130.142432,383.047749,-0.000000,8216.285956
1130.142748,689.485948,-370.102971,8660.409521
1130.143063,383.047749,-1184.329507,8956.491898
1130.143379,995.924147,-1036.288319,8438.347739
1130.143695,995.924147,-1184.329507,8808.450710
1130.144011,1378.971896,-296.082377,8882.471304
1130.144326,1608.800546,-0.000000,9178.553681
1130.144642,306.438199,-222.061783,8512.368333
1130.144958,383.047749,-740.205942,8734.430116
1130.145273,-306.438199,-814.226536,9104.533087
1130.145589,-459.657299,-592.164754,9622.677246
1130.145905,-536.266849,74.020594,9992.780217
1130.146220,-612.876398,-444.123565,9622.677246
1130.146536,-1072.533697,-740.205942,9918.759623
1130.146852,-1608.800546,-1184.329507,9622.677246
1130.147167,-1532.190996,-1406.391290,10362.883188
1130.147483,-766.095498,-1184.329507,10066.800811
1130.147799,0.000000,-888.247130,11325.150913
1130.148115,0.000000,-1184.329507,9918.759623
1130.148430,-153.219100,-1406.391290,10140.821405
1130.148746,383.047749,-1036.288319,9918.759623
1130.149062,689.485948,-1110.308913,9474.636058
1130.149377,1149.143247,148.041188,9326.594869
1130.149693,1685.410096,888.247130,8956.491898
1130.150009,2145.067394,666.185348,8956.491898
1130.150324,1378.971896,222.061783,9104.533087
1130.150640,459.657299,-518.144159,9178.553681
1130.150956,383.047749,-1406.391290,9400.615463
1130.151272,995.924147,-1924.535449,10288.862594
1130.151587,0.000000,-1480.411884,10658.965565
1130.151903,0.000000,-1850.514855,11029.068536
1130.152219,-612.876398,-2368.659014,10955.047942
1130.152534,-689.485948,-888.247130,10510.924376
1130.152850,0.000000,-592.164754,10140.821405
1130.153166,1149.143247,-0.000000,9696.697840
1130.153481,1149.143247,666.185348,9252.574275
1130.153797,1685.410096,666.185348,9474.636058
1130.154113,1685.410096,370.102971,8882.471304
1130.154429,1455.581446,-296.082377,9474.636058
1130.154744,1302.362347,-148.041188,9178.553681
1130.155060,2068.457845,1036.288319,8660.409521
1130.155376,2374.896044,888.247130,8660.409521
1130.155691,1608.800546,296.082377,8586.388927
1130.156007,1302.362347,-592.164754,9992.780217
1130.156323,919.314598,-296.082377,9474.636058
1130.156638,612.876398,-0.000000,9178.553681
1130.156954,995.924147,-0.000000,9696.697840
1130.157270,842.705048,-0.000000,9400.615463
1130.157586,229.828649,592.164754,9178.553681
1130.157901,0.000000,-370.102971,9030.512492
1130.158217,-383.047749,-1036.288319,9104.533087
1130.158533,0.000000,-2442.679609,10066.800811
1130.158848,-383.047749,-1332.370696,10140.821405
1130.159164,-536.266849,-888.247130,9178.553681
1130.159480,-153.219100,-666.185348,8956.491898
1130.159795,0.000000,-740.205942,9474.636058
1130.160111,306.438199,-666.185348,9326.594869
1130.160427,995.924147,-0.000000,8438.347739
1130.160742,995.924147,666.185348,8438.347739
1130.161058,919.314598,444.123565,8438.347739
1130.161374,766.095498,296.082377,8808.450710
1130.161690,612.876398,-148.041188,8808.450710
1130.162005,306.438199,-0.000000,9474.636058
1130.162321,536.266849,-0.000000,9474.636058
1130.162637,306.438199,518.144159,9548.656652
1130.162952,306.438199,592.164754,9252.574275
1130.163268,0.000000,-0.000000,9178.553681
1130.163584,0.000000,-74.020594,9844.739029
1130.163899,-689.485948,-0.000000,9696.697840
1130.164215,-383.047749,888.247130,10214.842000
1130.164531,76.609550,1110.308913,9548.656652
1130.164847,-153.219100,1332.370696,9326.594869
1130.165162,-612.876398,740.205942,9178.553681
1130.165478,-459.657299,222.061783,9770.718434
1130.165794,0.000000,-148.041188,9918.759623
1130.166109,536.266849,-0.000000,9918.759623
1130.166425,689.485948,-444.123565,10436.903782
1130.166741,306.438199,-592.164754,10140.821405
1130.167056,842.705048,-222.061783,9844.739029
1130.167372,995.924147,666.185348,9474.636058
1130.167688,1072.533697,1628.453072,8956.491898
1130.168004,1838.629195,1554.432478,9400.615463
1130.168319,1762.019645,1258.350101,8882.471304
1130.168635,1072.533697,370.102971,8734.430116
1130.168951,459.657299,-370.102971,9474.636058
1130.169266,76.609550,-1036.288319,10140.821405
1130.169582,0.000000,-1480.411884,10436.903782
1130.169898,689.485948,-1036.288319,10658.965565
1130.170213,-153.219100,-592.164754,10288.862594
1130.170529,-536.266849,-814.226536,10584.944971
1130.170845,-383.047749,-1184.329507,10362.883188
1130.171161,0.000000,-592.164754,9548.656652
1130.171476,0.000000,-370.102971,9844.739029
1130.171792,612.876398,-74.020594,10362.883188
1130.172108,459.657299,-0.000000,9474.636058
1130.172423,383.047749,-0.000000,8660.409521
1130.172739,536.266849,-222.061783,9030.512492
1130.173055,459.657299,-814.226536,8882.471304
1130.173370,383.047749,-740.205942,9622.677246
1130.173686,536.266849,-888.247130,9770.718434
1130.174002,76.609550,-1332.370696,10214.842000
