#time,accel_x,accel_y,accel_z
890.638337,-1072.533697,518.144159,9326.594869
890.638653,-766.095498,740.205942,9104.533087
890.638968,-306.438199,592.164754,9178.553681
890.639284,0.000000,814.226536,9252.574275
890.639600,0.000000,592.164754,9400.615463
890.639915,0.000000,1184.329507,9326.594869
890.640231,153.219100,962.267725,9622.677246
890.640546,306.438199,1258.350101,9548.656652
890.640862,0.000000,1702.473667,9104.533087
890.641177,229.828649,1702.473667,8734.430116
890.641493,536.266849,1702.473667,9030.512492
890.641809,536.266849,1406.391290,8586.388927
890.642124,383.047749,1332.370696,9030.512492
890.642440,229.828649,962.267725,9178.553681
890.642755,229.828649,740.205942,9844.739029
890.643071,0.000000,962.267725,10140.821405
890.643387,306.438199,518.144159,10140.821405
890.643702,0.000000,888.247130,9992.780217
890.644018,153.219100,1110.308913,9770.718434
890.644333,459.657299,1258.350101,9474.636058
890.644649,612.876398,1776.494261,9474.636058
890.644965,459.657299,1924.535449,8956.491898
890.645280,689.485948,1776.494261,8808.450710
890.645596,689.485948,1554.432478,9104.533087
890.645911,229.828649,1332.370696,9104.533087
890.646227,306.438199,1036.288319,9400.615463
890.646543,459.657299,518.144159,9696.697840
890.646858,76.609550,370.102971,9844.739029
890.647174,-383.047749,222.061783,10140.821405
890.647489,-306.438199,-74.020594,9992.780217
890.647805,-689.485948,-222.061783,9992.780217
890.648121,-766.095498,-74.020594,10066.800811
890.648436,-766.095498,-148.041188,9992.780217
890.648752,-995.924147,-444.123565,9918.759623
890.649067,-995.924147,-370.102971,10140.821405
890.649383,-1149.143247,-444.123565,9844.739029
890.649699,-1072.533697,-740.205942,9622.677246
890.650014,-995.924147,-592.164754,9474.636058
890.650330,-842.705048,-814.226536,9622.677246
890.650645,-689.485948,-1036.288319,9548.656652
890.650961,-536.266849,-1480.411884,9622.677246
890.651277,-383.047749,-962.267725,9696.697840
890.651592,-153.219100,-370.102971,9548.656652
890.651908,-229.828649,-370.102971,9104.533087
890.652223,-153.219100,-222.061783,8956.491898
890.652539,766.095498,222.061783,8956.491898
890.652855,153.219100,222.061783,9030.512492
890.653170,229.828649,222.061783,8808.450710
890.653486,536.266849,-0.000000,8808.450710
890.653801,612.876398,370.102971,8808.450710
890.654117,0.000000,-0.000000,9104.533087
890.654433,153.219100,296.082377,9030.512492
890.654748,306.438199,222.061783,9030.512492
890.655064,76.609550,296.082377,9104.533087
890.655379,229.828649,444.123565,9104.533087
890.655695,229.828649,-0.000000,9400.615463
890.656010,-229.828649,370.102971,9326.594869
890.656326,0.000000,296.082377,9104.533087
890.656642,229.828649,444.123565,9104.533087
890.656957,76.609550,296.082377,9326.594869
890.657273,0.000000,296.082377,9178.553681
890.657588,153.219100,444.123565,9178.553681
890.657904,153.219100,592.164754,9400.615463
890.658220,306.438199,444.123565,9252.574275
890.658535,919.314598,518.144159,9178.553681
890.658851,766.095498,296.082377,9326.594869
890.659166,612.876398,-0.000000,9548.656652
890.659482,919.314598,-296.082377,9622.677246
890.659798,995.924147,-444.123565,9696.697840
890.660113,842.705048,-666.185348,9918.759623
890.660429,842.705048,-148.041188,10214.842000
890.660744,919.314598,-148.041188,9992.780217
890.661060,842.705048,-0.000000,9696.697840
890.661376,842.705048,148.041188,9770.718434
890.661691,842.705048,-0.000000,9622.677246
890.662007,612.876398,-0.000000,9770.718434
890.662322,229.828649,-0.000000,10214.842000
890.662638,229.828649,-148.041188,10214.842000
890.662954,383.047749,-518.144159,10288.862594
890.663269,536.266849,-0.000000,10510.924376
890.663585,459.657299,-740.205942,10362.883188
890.663901,536.266849,-814.226536,10288.862594
890.664216,995.924147,-444.123565,10214.842000
890.664532,1149.143247,-518.144159,9696.697840
890.664848,1149.143247,-148.041188,9474.636058
890.665164,1225.752797,-0.000000,9400.615463
890.665479,1532.190996,148.041188,9400.615463
890.665795,1072.533697,370.102971,9030.512492
890.666111,1149.143247,370.102971,9104.533087
890.666427,1225.752797,518.144159,9326.594869
890.666742,995.924147,222.061783,9178.553681
890.667058,689.485948,222.061783,9252.574275
890.667374,536.266849,-0.000000,9474.636058
890.667689,459.657299,-296.082377,9252.574275
890.668005,383.047749,-74.020594,9252.574275
890.668321,76.609550,-222.061783,9326.594869
890.668637,-229.828649,-370.102971,9474.636058
890.668952,76.609550,-148.041188,9696.697840
890.669268,0.000000,-518.144159,9326.594869
890.669584,0.000000,-592.164754,9400.615463
890.669900,229.828649,-592.164754,9326.594869
890.670215,0.000000,-444.123565,9326.594869
890.670531,229.828649,-444.123565,9178.553681
890.670847,766.095498,-592.164754,8956.491898
890.671163,536.266849,-296.082377,8808.450710
890.671478,459.657299,-296.082377,8808.450710
890.671794,306.438199,-370.102971,9104.533087
890.672110,306.438199,-444.123565,9030.512492
890.672426,0.000000,-888.247130,9400.615463
890.672741,229.828649,-1184.329507,9252.574275
890.673057,153.219100,-1554.432478,9474.636058
890.673373,76.609550,-1554.432478,9400.615463
890.673688,0.000000,-1628.453072,9622.677246
890.674004,383.047749,-1850.514855,9474.636058
890.674320,76.609550,-1628.453072,9770.718434
890.674636,612.876398,-1332.370696,9696.697840
890.674951,536.266849,-962.267725,9474.636058
890.675267,995.924147,-296.082377,9104.533087
890.675583,919.314598,-296.082377,8956.491898
890.675899,1072.533697,-0.000000,8882.471304
890.676214,995.924147,-148.041188,8956.491898
890.676530,995.924147,-0.000000,9252.574275
890.676846,995.924147,-444.123565,9400.615463
890.677162,536.266849,-444.123565,9770.718434
890.677477,536.266849,-370.102971,9844.739029
890.677793,612.876398,-518.144159,9770.718434
890.678109,229.828649,-74.020594,9992.780217
890.678424,689.485948,74.020594,9844.739029
890.678740,995.924147,370.102971,9770.718434
890.679056,842.705048,518.144159,9474.636058
890.679372,1072.533697,740.205942,9400.615463
890.679687,1455.581446,814.226536,9474.636058
890.680003,995.924147,740.205942,9326.594869
890.680319,1302.362347,962.267725,9104.533087
890.680635,1072.533697,1110.308913,9400.615463
890.680950,995.924147,666.185348,9030.512492
890.681266,689.485948,740.205942,9622.677246
890.681582,766.095498,518.144159,9696.697840
890.681898,383.047749,296.082377,9918.759623
890.682213,306.438199,-0.000000,9992.780217
890.682529,383.047749,-0.000000,9992.780217
890.682845,153.219100,-222.061783,9992.780217
890.683161,0.000000,-0.000000,10066.800811
890.683476,0.000000,-0.000000,9992.780217
890.683792,383.047749,-0.000000,9696.697840
890.684108,306.438199,222.061783,9548.656652
890.684423,229.828649,-0.000000,9474.636058
890.684739,76.609550,222.061783,9548.656652
890.685055,306.438199,296.082377,9474.636058
890.685371,76.609550,222.061783,9474.636058
890.685686,0.000000,-0.000000,9400.615463
890.686002,0.000000,-148.041188,9548.656652
890.686318,153.219100,-74.020594,9622.677246
890.686634,-153.219100,-148.041188,9696.697840
890.686949,-459.657299,-296.082377,9696.697840
890.687265,-306.438199,-666.185348,9844.739029
890.687581,-153.219100,-296.082377,9992.780217
890.687897,0.000000,-592.164754,9770.718434
890.688212,0.000000,-666.185348,9844.739029
890.688528,306.438199,-518.144159,9696.697840
890.688844,459.657299,-666.185348,9326.594869
890.689159,536.266849,-0.000000,8956.491898
890.689475,612.876398,296.082377,8882.471304
890.689791,612.876398,518.144159,8734.430116
890.690107,766.095498,592.164754,8586.388927
890.690422,1149.143247,592.164754,8808.450710
890.690738,612.876398,518.144159,8956.491898
890.691054,0.000000,-0.000000,9104.533087
890.691370,0.000000,-296.082377,9474.636058
890.691685,-383.047749,-666.185348,9622.677246
890.692001,0.000000,-666.185348,9844.739029
890.692317,-459.657299,-444.123565,10066.800811
890.692633,-383.047749,-444.123565,9844.739029
890.692948,0.000000,-370.102971,9696.697840
890.693264,153.219100,-222.061783,9548.656652
890.693580,842.705048,-296.082377,9326.594869
890.693896,536.266849,148.041188,9178.553681
890.694211,1149.143247,518.144159,8956.491898
890.694527,919.314598,444.123565,8956.491898
890.694843,1149.143247,296.082377,8808.450710
890.695158,919.314598,-0.000000,9252.574275
890.695474,842.705048,-296.082377,9030.512492
890.695790,612.876398,-296.082377,9326.594869
890.696106,459.657299,-592.164754,9474.636058
890.696421,459.657299,-740.205942,9696.697840
890.696737,0.000000,-1110.308913,9918.759623
890.697053,0.000000,-740.205942,9770.718434
890.697369,-153.219100,-1258.350101,9696.697840
890.697684,76.609550,-1110.308913,9992.780217
890.698000,0.000000,-1184.329507,9844.739029
890.698316,153.219100,-1110.308913,9770.718434
890.698632,383.047749,-518.144159,9474.636058
890.698947,459.657299,-370.102971,9474.636058
890.699263,612.876398,-222.061783,9400.615463
890.699579,459.657299,-296.082377,9326.594869
890.699894,1072.533697,-222.061783,9326.594869
890.700210,919.314598,-0.000000,9252.574275
890.700526,689.485948,-74.020594,9548.656652
890.700842,766.095498,-148.041188,9474.636058
890.701157,842.705048,-222.061783,9622.677246
890.701473,536.266849,-814.226536,9622.677246
890.701789,689.485948,-888.247130,9696.697840
890.702105,766.095498,-888.247130,9844.739029
890.702420,459.657299,-888.247130,10066.800811
890.702736,842.705048,-666.185348,9770.718434
890.703052,766.095498,-296.082377,9622.677246
890.703368,995.924147,-74.020594,9474.636058
890.703683,1072.533697,74.020594,9326.594869
890.703999,919.314598,222.061783,9178.553681
890.704315,459.657299,-0.000000,9252.574275
890.704630,766.095498,296.082377,9030.512492
890.704946,536.266849,-0.000000,9178.553681
890.705262,229.828649,-370.102971,9326.594869
890.705578,0.000000,-666.185348,9696.697840
890.705893,76.609550,-666.185348,9918.759623
890.706209,-306.438199,-740.205942,9918.759623
890.706525,0.000000,-666.185348,9770.718434
890.706841,0.000000,-814.226536,9548.656652
890.707156,76.609550,-444.123565,9548.656652
890.707472,153.219100,-148.041188,9326.594869
890.707788,536.266849,-0.000000,9030.512492
890.708104,612.876398,-0.000000,9030.512492
890.708419,383.047749,148.041188,9030.512492
890.708735,612.876398,370.102971,8956.491898
890.709051,459.657299,-0.000000,9252.574275
890.709367,459.657299,-0.000000,9104.533087
890.709682,0.000000,-74.020594,9178.553681
890.709998,0.000000,-370.102971,9474.636058
890.710314,-229.828649,-592.164754,9104.533087
890.710629,-306.438199,-370.102971,9770.718434
890.710945,-459.657299,-222.061783,9770.718434
890.711261,-383.047749,-296.082377,9770.718434
890.711577,-459.657299,-444.123565,9622.677246
890.711892,-153.219100,-74.020594,9696.697840
890.712208,153.219100,-74.020594,9548.656652
890.712524,229.828649,148.041188,9400.615463
890.712840,76.609550,370.102971,9030.512492
890.713155,383.047749,296.082377,9104.533087
890.713471,459.657299,518.144159,9474.636058
890.713787,383.047749,592.164754,9104.533087
890.714103,306.438199,592.164754,9252.574275
890.714418,383.047749,518.144159,9548.656652
890.714734,612.876398,-0.000000,9548.656652
890.715050,383.047749,518.144159,9400.615463
890.715365,383.047749,222.061783,9844.739029
890.715681,612.876398,-0.000000,9622.677246
890.715997,306.438199,-74.020594,9770.718434
890.716313,612.876398,-74.020594,9770.718434
890.716628,842.705048,-0.000000,9992.780217
890.716944,689.485948,296.082377,9696.697840
890.717260,842.705048,370.102971,9548.656652
890.717576,995.924147,592.164754,9326.594869
890.717891,1149.143247,666.185348,9548.656652
890.718207,1072.533697,814.226536,9252.574275
890.718523,995.924147,666.185348,9252.574275
890.718839,919.314598,296.082377,9548.656652
890.719154,842.705048,-74.020594,9474.636058
890.719470,306.438199,-148.041188,9696.697840
890.719786,153.219100,-444.123565,9918.759623
890.720102,153.219100,-666.185348,10214.842000
890.720417,0.000000,-888.247130,9992.780217
890.720733,383.047749,-962.267725,10140.821405
890.721049,306.438199,-666.185348,9992.780217
890.721364,689.485948,-444.123565,9770.718434
890.721680,612.876398,-222.061783,9548.656652
890.721996,995.924147,-148.041188,9326.594869
890.722312,1225.752797,-370.102971,9030.512492
890.722627,995.924147,-0.000000,8882.471304
890.722943,995.924147,-148.041188,9030.512492
890.723259,995.924147,-296.082377,9104.533087
890.723575,766.095498,-370.102971,9326.594869
890.723890,612.876398,-370.102971,9104.533087
890.724206,536.266849,-592.164754,9474.636058
890.724522,306.438199,-666.185348,9474.636058
890.724838,229.828649,-962.267725,9474.636058
890.725153,0.000000,-1110.308913,9992.780217
890.725469,0.000000,-1184.329507,9696.697840
890.725785,459.657299,-1036.288319,9474.636058
890.726100,383.047749,-962.267725,9252.574275
890.726416,459.657299,-1036.288319,9178.553681
890.726732,842.705048,-740.205942,9178.553681
890.727048,995.924147,-518.144159,9104.533087
890.727363,995.924147,-370.102971,8808.450710
890.727679,919.314598,-74.020594,8956.491898
890.727995,842.705048,-296.082377,8956.491898
890.728311,689.485948,-518.144159,8660.409521
890.728626,1072.533697,-370.102971,9474.636058
890.728942,536.266849,-814.226536,9326.594869
890.729258,612.876398,-888.247130,9326.594869
890.729574,459.657299,-962.267725,9474.636058
890.729889,1072.533697,-1184.329507,9548.656652
890.730205,383.047749,-1332.370696,9696.697840
890.730521,229.828649,-1258.350101,9844.739029
890.730837,842.705048,-1110.308913,9474.636058
890.731152,766.095498,-740.205942,9548.656652
890.731468,995.924147,-518.144159,9474.636058
890.731784,689.485948,-370.102971,9252.574275
890.732099,842.705048,-0.000000,8956.491898
890.732415,995.924147,-0.000000,8956.491898
890.732731,919.314598,296.082377,9030.512492
890.733047,459.657299,-148.041188,9474.636058
890.733362,153.219100,-74.020594,9548.656652
890.733678,0.000000,-592.164754,9696.697840
890.733994,-306.438199,-518.144159,10066.800811
890.734310,-459.657299,-888.247130,10214.842000
890.734625,-766.095498,-888.247130,10140.821405
890.734941,-459.657299,-962.267725,10214.842000
890.735257,0.000000,-222.061783,9918.759623
890.735573,153.219100,-148.041188,9696.697840
890.735888,306.438199,222.061783,9474.636058
890.736204,1225.752797,148.041188,9326.594869
890.736520,459.657299,814.226536,9178.553681
890.736835,612.876398,740.205942,9104.533087
890.737151,612.876398,888.247130,9252.574275
890.737467,689.485948,666.185348,9178.553681
890.737783,995.924147,740.205942,9474.636058
890.738098,153.219100,518.144159,9474.636058
890.738414,0.000000,518.144159,9844.739029
890.738730,0.000000,296.082377,9918.759623
890.739046,0.000000,370.102971,9992.780217
890.739361,-229.828649,-74.020594,9918.759623
890.739677,-229.828649,148.041188,9918.759623
890.739993,0.000000,296.082377,9844.739029
890.740309,0.000000,370.102971,9622.677246
890.740624,459.657299,666.185348,9918.759623
890.740940,0.000000,666.185348,9474.636058
890.741256,536.266849,814.226536,9178.553681
890.741572,459.657299,592.164754,9474.636058
890.741887,459.657299,666.185348,9326.594869
890.742203,306.438199,666.185348,9326.594869
890.742519,306.438199,518.144159,9474.636058
890.742834,229.828649,296.082377,9474.636058
890.743150,153.219100,222.061783,9696.697840
890.743466,229.828649,-0.000000,9696.697840
890.743782,76.609550,-74.020594,9696.697840
890.744097,153.219100,-592.164754,9548.656652
890.744413,229.828649,-296.082377,9548.656652
890.744729,153.219100,-666.185348,9918.759623
890.745045,383.047749,-296.082377,9622.677246
890.745360,459.657299,-444.123565,9474.636058
890.745676,612.876398,-0.000000,9474.636058
890.745992,536.266849,222.061783,9104.533087
890.746308,612.876398,296.082377,8882.471304
890.746623,689.485948,296.082377,8956.491898
890.746939,612.876398,222.061783,8956.491898
890.747255,459.657299,-0.000000,9326.594869
890.747570,383.047749,-0.000000,9178.553681
890.747886,76.609550,-444.123565,9622.677246
890.748202,0.000000,-888.247130,9770.718434
890.748518,-229.828649,-888.247130,10066.800811
890.748833,-383.047749,-888.247130,9918.759623
890.749149,0.000000,-962.267725,9918.759623
890.749465,0.000000,-814.226536,9696.697840
890.749781,0.000000,-592.164754,9770.718434
890.750096,0.000000,-592.164754,9178.553681
890.750412,842.705048,-0.000000,9104.533087
890.750728,689.485948,-0.000000,9104.533087
890.751044,1072.533697,-0.000000,8956.491898
890.751359,995.924147,-0.000000,8956.491898
890.751675,1072.533697,-74.020594,8956.491898
890.751991,919.314598,-74.020594,9030.512492
890.752306,919.314598,-0.000000,9252.574275
890.752622,459.657299,-296.082377,9548.656652
890.752938,306.438199,-666.185348,9178.553681
890.753254,229.828649,-518.144159,9622.677246
890.753569,76.609550,-1036.288319,9918.759623
890.753885,0.000000,-962.267725,9770.718434
890.754201,76.609550,-888.247130,9918.759623
890.754517,766.095498,-1036.288319,9918.759623
890.754832,383.047749,-518.144159,9770.718434
890.755148,612.876398,-444.123565,9400.615463
890.755464,689.485948,-444.123565,9252.574275
890.755780,842.705048,-296.082377,9252.574275
890.756095,842.705048,-74.020594,9400.615463
890.756411,459.657299,-296.082377,9252.574275
890.756727,536.266849,-148.041188,9474.636058
890.757043,689.485948,-296.082377,9178.553681
890.757358,766.095498,-444.123565,9548.656652
890.757674,766.095498,-1036.288319,9548.656652
890.757990,383.047749,-666.185348,9844.739029
890.758305,689.485948,-888.247130,9918.759623
890.758621,383.047749,-1036.288319,9844.739029
890.758937,383.047749,-1184.329507,10066.800811
890.759253,842.705048,-962.267725,9844.739029
890.759568,766.095498,-370.102971,9622.677246
890.759884,1149.143247,-0.000000,9548.656652
890.760200,1072.533697,-74.020594,9178.553681
890.760516,1455.581446,-74.020594,9030.512492
890.760831,766.095498,444.123565,8956.491898
890.761147,766.095498,148.041188,8956.491898
890.761463,689.485948,222.061783,9178.553681
890.761779,229.828649,-148.041188,9474.636058
890.762094,76.609550,-444.123565,9696.697840
890.762410,0.000000,-518.144159,9770.718434
890.762726,-306.438199,-888.247130,9992.780217
890.763041,-306.438199,-666.185348,9844.739029
890.763357,306.438199,-370.102971,9844.739029
890.763673,306.438199,-370.102971,9770.718434
890.763989,306.438199,-0.000000,9548.656652
890.764304,766.095498,-0.000000,9326.594869
890.764620,459.657299,222.061783,9104.533087
890.764936,842.705048,518.144159,9326.594869
890.765251,919.314598,592.164754,8956.491898
890.765567,842.705048,592.164754,9030.512492
890.765883,689.485948,444.123565,8882.471304
890.766199,536.266849,222.061783,9400.615463
890.766514,229.828649,-0.000000,9548.656652
890.766830,229.828649,-148.041188,9326.594869
890.767146,0.000000,-0.000000,9770.718434
890.767461,0.000000,-370.102971,9696.697840
890.767777,-383.047749,-444.123565,10066.800811
890.768093,0.000000,-444.123565,9622.677246
890.768408,0.000000,-296.082377,9548.656652
890.768724,76.609550,-222.061783,9400.615463
890.769040,153.219100,-0.000000,9400.615463
890.769355,306.438199,-0.000000,9400.615463
890.769671,153.219100,370.102971,9104.533087
890.769987,842.705048,370.102971,9178.553681
890.770302,459.657299,148.041188,9104.533087
890.770618,536.266849,222.061783,9326.594869
890.770934,459.657299,444.123565,9622.677246
890.771250,459.657299,-0.000000,9696.697840
890.771565,306.438199,-148.041188,9474.636058
890.771881,306.438199,-0.000000,9696.697840
890.772197,0.000000,-296.082377,9622.677246
890.772512,229.828649,-592.164754,9770.718434
890.772828,536.266849,-666.185348,9844.739029
890.773144,229.828649,-518.144159,9992.780217
890.773459,766.095498,-74.020594,9844.739029
890.773775,689.485948,-0.000000,9622.677246
890.774091,766.095498,-0.000000,9474.636058
890.774406,1072.533697,296.082377,9252.574275
890.774722,1225.752797,444.123565,9178.553681
890.775038,1225.752797,444.123565,9104.533087
890.775353,766.095498,-0.000000,9104.533087
890.775669,612.876398,-0.000000,9474.636058
890.775985,459.657299,-444.123565,9548.656652
890.776301,0.000000,-740.205942,9918.759623
890.776616,383.047749,-592.164754,9918.759623
890.776932,76.609550,-888.247130,10066.800811
890.777248,612.876398,-666.185348,10140.821405
890.777563,459.657299,-740.205942,9696.697840
890.777879,536.266849,-444.123565,9696.697840
890.778195,842.705048,-74.020594,9474.636058
890.778510,995.924147,-74.020594,9178.553681
890.778826,689.485948,-0.000000,9178.553681
890.779142,1378.971896,-0.000000,9104.533087
890.779457,1149.143247,-74.020594,8956.491898
890.779773,1072.533697,-0.000000,9030.512492
890.780089,766.095498,-370.102971,8956.491898
890.780404,1225.752797,-518.144159,9178.553681
890.780720,536.266849,-592.164754,9252.574275
890.781036,76.609550,-444.123565,9696.697840
890.781351,0.000000,-444.123565,9622.677246
890.781667,153.219100,-592.164754,9918.759623
890.781983,0.000000,-814.226536,9844.739029
890.782299,76.609550,-592.164754,9696.697840
890.782614,383.047749,-592.164754,9548.656652
890.782930,383.047749,-444.123565,9400.615463
890.783246,536.266849,-222.061783,9252.574275
890.783561,536.266849,-74.020594,9474.636058
890.783877,612.876398,-0.000000,8956.491898
890.784193,842.705048,-0.000000,9104.533087
890.784508,612.876398,148.041188,9104.533087
890.784824,689.485948,-0.000000,9178.553681
890.785140,229.828649,-74.020594,9178.553681
890.785455,153.219100,-0.000000,9474.636058
890.785771,612.876398,-74.020594,9474.636058
890.786087,76.609550,-518.144159,9696.697840
890.786402,153.219100,-740.205942,9770.718434
890.786718,153.219100,-962.267725,9770.718434
890.787034,76.609550,-814.226536,9696.697840
890.787350,306.438199,-666.185348,9770.718434
890.787665,612.876398,-370.102971,9548.656652
890.787981,459.657299,-370.102971,9326.594869
890.788297,919.314598,-0.000000,9178.553681
890.788612,766.095498,222.061783,9030.512492
890.788928,689.485948,222.061783,8808.450710
890.789244,766.095498,666.185348,8956.491898
890.789559,459.657299,444.123565,9030.512492
890.789875,612.876398,-0.000000,9400.615463
890.790191,0.000000,-148.041188,9548.656652
890.790506,-76.609550,-148.041188,9918.759623
890.790822,-76.609550,-666.185348,10140.821405
890.791138,-229.828649,-962.267725,10214.842000
890.791453,0.000000,-962.267725,10066.800811
890.791769,0.000000,-370.102971,10140.821405
890.792085,153.219100,-74.020594,9622.677246
890.792401,153.219100,-74.020594,9548.656652
890.792716,383.047749,370.102971,9400.615463
890.793032,459.657299,222.061783,9178.553681
890.793348,536.266849,370.102971,9178.553681
890.793663,689.485948,518.144159,9178.553681
890.793979,536.266849,370.102971,9178.553681
890.794295,536.266849,444.123565,9400.615463
890.794610,306.438199,-0.000000,9622.677246
890.794926,0.000000,-296.082377,9474.636058
890.795242,0.000000,-0.000000,9992.780217
890.795557,-153.219100,-444.123565,9844.739029
890.795873,-153.219100,-296.082377,10288.862594
890.796189,-153.219100,-370.102971,9770.718434
890.796504,0.000000,-148.041188,9696.697840
890.796820,0.000000,-0.000000,9622.677246
890.797136,229.828649,148.041188,9474.636058
890.797452,612.876398,-148.041188,9178.553681
890.797767,612.876398,370.102971,9252.574275
890.798083,229.828649,148.041188,9252.574275
890.798399,459.657299,148.041188,9178.553681
890.798714,536.266849,222.061783,9400.615463
890.799030,383.047749,296.082377,9252.574275
890.799346,229.828649,148.041188,9696.697840
890.799661,0.000000,-148.041188,9474.636058
890.799977,229.828649,-74.020594,9622.677246
890.800293,229.828649,-148.041188,9548.656652
890.800608,459.657299,-740.205942,9474.636058
890.800924,459.657299,-888.247130,9770.718434
890.801240,229.828649,-740.205942,9548.656652
890.801555,459.657299,-592.164754,9770.718434
890.801871,766.095498,-444.123565,9474.636058
890.802187,689.485948,-148.041188,9178.553681
890.802502,995.924147,-148.041188,9104.533087
890.802818,919.314598,296.082377,9178.553681
890.803134,766.095498,296.082377,8808.450710
890.803450,1149.143247,222.061783,8734.430116
890.803765,536.266849,-0.000000,8956.491898
890.804081,153.219100,-0.000000,9178.553681
890.804397,76.609550,-518.144159,9622.677246
890.804712,0.000000,-888.247130,9770.718434
890.805028,0.000000,-592.164754,9918.759623
890.805344,-306.438199,-962.267725,10066.800811
890.805659,-383.047749,-962.267725,10066.800811
890.805975,0.000000,-888.247130,9918.759623
890.806291,153.219100,-740.205942,9696.697840
890.806606,459.657299,-296.082377,9400.615463
890.806922,766.095498,-0.000000,9252.574275
890.807238,612.876398,-0.000000,9030.512492
890.807553,1072.533697,148.041188,9104.533087
890.807869,1072.533697,-0.000000,9104.533087
890.808185,1225.752797,-0.000000,9104.533087
890.808501,842.705048,-222.061783,8956.491898
890.808816,612.876398,-222.061783,9326.594869
890.809132,306.438199,-370.102971,9474.636058
890.809448,536.266849,-0.000000,9992.780217
890.809763,-229.828649,-666.185348,9844.739029
890.810079,76.609550,-666.185348,9992.780217
890.810395,76.609550,-740.205942,9992.780217
890.810710,76.609550,-666.185348,9918.759623
890.811026,0.000000,-592.164754,9622.677246
890.811342,459.657299,-518.144159,9400.615463
890.811657,842.705048,-370.102971,9326.594869
890.811973,766.095498,-0.000000,9400.615463
890.812289,766.095498,222.061783,9326.594869
890.812604,995.924147,-0.000000,9178.553681
890.812920,919.314598,-0.000000,9178.553681
890.813236,459.657299,-0.000000,9252.574275
890.813552,842.705048,-0.000000,9400.615463
890.813867,1072.533697,-444.123565,9622.677246
890.814183,612.876398,-370.102971,9622.677246
890.814499,459.657299,-370.102971,9770.718434
890.814814,536.266849,-592.164754,9844.739029
890.815130,766.095498,-740.205942,9844.739029
890.815446,459.657299,-888.247130,9918.759623
890.815761,536.266849,-666.185348,9844.739029
890.816077,766.095498,-444.123565,9844.739029
890.816393,842.705048,-148.041188,9474.636058
890.816708,1302.362347,-0.000000,9030.512492
890.817024,1302.362347,-0.000000,9474.636058
890.817340,842.705048,-0.000000,9178.553681
890.817655,1072.533697,444.123565,9252.574275
890.817971,536.266849,222.061783,9326.594869
890.818287,459.657299,-0.000000,9474.636058
890.818603,229.828649,-518.144159,9622.677246
890.818918,0.000000,-740.205942,9770.718434
890.819234,0.000000,-1110.308913,9844.739029
890.819550,0.000000,-1110.308913,9622.677246
890.819865,229.828649,-814.226536,9992.780217
890.820181,229.828649,-666.185348,9696.697840
890.820497,76.609550,-296.082377,9770.718434
890.820812,612.876398,148.041188,9326.594869
890.821128,689.485948,-0.000000,9178.553681
890.821444,842.705048,518.144159,9178.553681
890.821759,842.705048,222.061783,8956.491898
890.822075,842.705048,444.123565,8882.471304
890.822391,612.876398,370.102971,8882.471304
890.822706,612.876398,148.041188,9030.512492
890.823022,383.047749,-148.041188,9178.553681
890.823338,76.609550,-0.000000,9474.636058
890.823653,-306.438199,-222.061783,9548.656652
890.823969,-153.219100,-0.000000,9622.677246
890.824285,0.000000,-222.061783,9770.718434
890.824601,0.000000,-296.082377,9696.697840
890.824916,0.000000,-74.020594,9770.718434
890.825232,229.828649,-74.020594,9474.636058
890.825548,383.047749,148.041188,9400.615463
890.825863,306.438199,296.082377,9252.574275
890.826179,612.876398,296.082377,9252.574275
890.826495,383.047749,-0.000000,9104.533087
890.826810,383.047749,296.082377,9400.615463
890.827126,306.438199,-0.000000,9326.594869
890.827442,229.828649,296.082377,9252.574275
890.827757,459.657299,592.164754,9770.718434
890.828073,383.047749,-0.000000,9622.677246
890.828389,153.219100,-74.020594,9770.718434
890.828704,153.219100,-370.102971,9474.636058
890.829020,229.828649,-296.082377,9844.739029
890.829336,153.219100,-740.205942,10140.821405
890.829652,459.657299,-222.061783,9992.780217
890.829967,306.438199,-370.102971,9770.718434
890.830283,689.485948,-0.000000,9622.677246
890.830599,842.705048,-0.000000,9400.615463
890.830914,612.876398,370.102971,9326.594869
890.831230,842.705048,518.144159,9178.553681
890.831546,842.705048,666.185348,9252.574275
890.831861,766.095498,592.164754,9326.594869
890.832177,383.047749,296.082377,9400.615463
890.832493,229.828649,-0.000000,9474.636058
890.832808,0.000000,-74.020594,10066.800811
890.833124,0.000000,-592.164754,9844.739029
890.833440,0.000000,-666.185348,9992.780217
890.833755,0.000000,-592.164754,10066.800811
890.834071,383.047749,-444.123565,9696.697840
890.834387,229.828649,-296.082377,9696.697840
890.834703,459.657299,-0.000000,9548.656652
890.835018,689.485948,148.041188,9178.553681
890.835334,842.705048,-0.000000,9104.533087
890.835650,1072.533697,-296.082377,9252.574275
890.835965,919.314598,-0.000000,8956.491898
890.836281,766.095498,-0.000000,9104.533087
890.836597,766.095498,-0.000000,9252.574275
890.836912,612.876398,-222.061783,9326.594869
890.837228,766.095498,-370.102971,9474.636058
890.837544,229.828649,-592.164754,9400.615463
890.837859,229.828649,-444.123565,9622.677246
890.838175,0.000000,-740.205942,9548.656652
890.838491,153.219100,-666.185348,9474.636058
890.838806,689.485948,-888.247130,9622.677246
890.839122,76.609550,-1036.288319,9622.677246
890.839438,383.047749,-592.164754,9844.739029
890.839753,612.876398,-740.205942,9400.615463
890.840069,689.485948,-444.123565,9178.553681
890.840385,689.485948,-222.061783,9104.533087
890.840701,689.485948,-74.020594,9252.574275
890.841016,766.095498,-74.020594,8956.491898
890.841332,689.485948,-74.020594,9400.615463
890.841648,766.095498,-444.123565,9178.553681
890.841963,459.657299,-518.144159,9400.615463
890.842279,383.047749,-444.123565,9696.697840
890.842595,306.438199,-740.205942,9622.677246
890.842910,229.828649,-1184.329507,9696.697840
890.843226,383.047749,-1258.350101,9474.636058
890.843542,229.828649,-1184.329507,9696.697840
890.843857,153.219100,-962.267725,9770.718434
890.844173,536.266849,-888.247130,9622.677246
890.844489,1072.533697,-666.185348,9400.615463
890.844804,1225.752797,-148.041188,9622.677246
890.845120,995.924147,-0.000000,9030.512492
890.845436,1225.752797,-0.000000,8660.409521
890.845752,612.876398,222.061783,8882.471304
890.846067,536.266849,148.041188,9104.533087
890.846383,459.657299,-0.000000,9474.636058
890.846699,153.219100,-222.061783,9548.656652
890.847014,0.000000,-592.164754,9696.697840
890.847330,-153.219100,-888.247130,9844.739029
890.847646,0.000000,-1184.329507,10066.800811
890.847961,-229.828649,-888.247130,10066.800811
890.848277,153.219100,-518.144159,9770.718434
890.848593,306.438199,-222.061783,9622.677246
890.848908,383.047749,-148.041188,9474.636058
890.849224,229.828649,148.041188,9474.636058
890.849540,689.485948,222.061783,9252.574275
890.849855,689.485948,296.082377,9030.512492
890.850171,612.876398,370.102971,8956.491898
890.850487,536.266849,222.061783,8956.491898
890.850803,306.438199,-0.000000,9030.512492
890.851118,306.438199,-0.000000,9178.553681
890.851434,0.000000,-148.041188,9548.656652
890.851750,76.609550,-0.000000,9548.656652
890.852065,0.000000,-74.020594,9770.718434
890.852381,0.000000,-222.061783,9770.718434
890.852697,-229.828649,-296.082377,9696.697840
890.853012,0.000000,-74.020594,9622.677246
890.853328,76.609550,-148.041188,9548.656652
890.853644,612.876398,-0.000000,9400.615463
890.853959,229.828649,-0.000000,9474.636058
890.854275,306.438199,296.082377,9326.594869
890.854591,306.438199,296.082377,9400.615463
890.854906,536.266849,444.123565,9030.512492
890.855222,383.047749,444.123565,9326.594869
890.855538,459.657299,222.061783,9474.636058
890.855854,306.438199,-0.000000,9474.636058
890.856169,153.219100,222.061783,9474.636058
890.856485,459.657299,-0.000000,9548.656652
890.856801,76.609550,-0.000000,9474.636058
890.857116,229.828649,-222.061783,9696.697840
890.857432,459.657299,-74.020594,9548.656652
890.857748,153.219100,-222.061783,9844.739029
890.858063,612.876398,-296.082377,9918.759623
890.858379,766.095498,-0.000000,9622.677246
890.858695,995.924147,-0.000000,9548.656652
890.859010,995.924147,296.082377,9474.636058
890.859326,995.924147,370.102971,9252.574275
890.859642,995.924147,296.082377,9178.553681
890.859957,919.314598,518.144159,9104.533087
890.860273,689.485948,666.185348,9400.615463
890.860589,459.657299,-0.000000,9474.636058
890.860904,-229.828649,-74.020594,9548.656652
890.861220,76.609550,-444.123565,9992.780217
890.861536,0.000000,-888.247130,10214.842000
890.861852,0.000000,-592.164754,10214.842000
890.862167,76.609550,-740.205942,10066.800811
890.862483,0.000000,-518.144159,9992.780217
890.862799,383.047749,-444.123565,9400.615463
890.863114,536.266849,-222.061783,9474.636058
890.863430,1149.143247,-0.000000,9252.574275
890.863746,995.924147,-0.000000,8882.471304
890.864061,1149.143247,148.041188,9178.553681
890.864377,1608.800546,-0.000000,9326.594869
890.864693,1149.143247,-0.000000,9178.553681
890.865008,1225.752797,-0.000000,9104.533087
890.865324,766.095498,-222.061783,9400.615463
890.865640,612.876398,-666.185348,9326.594869
890.865956,459.657299,-592.164754,9844.739029
890.866271,76.609550,-444.123565,9770.718434
890.866587,76.609550,-888.247130,9844.739029
890.866903,0.000000,-888.247130,9696.697840
890.867218,229.828649,-888.247130,9992.780217
890.867534,612.876398,-814.226536,9548.656652
890.867850,536.266849,-666.185348,9474.636058
890.868166,536.266849,-666.185348,9400.615463
890.868481,842.705048,-296.082377,9326.594869
890.868797,842.705048,-74.020594,9104.533087
890.869113,1072.533697,-74.020594,8882.471304
890.869428,689.485948,-0.000000,9104.533087
890.869744,612.876398,-74.020594,9178.553681
890.870060,766.095498,-222.061783,9178.553681
890.870376,536.266849,-296.082377,9400.615463
890.870691,536.266849,-814.226536,9400.615463
890.871007,612.876398,-592.164754,9474.636058
890.871323,306.438199,-666.185348,9474.636058
890.871639,153.219100,-888.247130,9622.677246
890.871954,306.438199,-888.247130,9844.739029
890.872270,536.266849,-962.267725,9918.759623
890.872586,612.876398,-592.164754,9770.718434
890.872901,842.705048,-148.041188,9474.636058
890.873217,919.314598,-74.020594,9400.615463
890.873533,1225.752797,-148.041188,9030.512492
890.873849,536.266849,296.082377,8882.471304
890.874164,842.705048,222.061783,9252.574275
890.874480,919.314598,-0.000000,8956.491898
890.874796,459.657299,-0.000000,9400.615463
890.875111,0.000000,-74.020594,9696.697840
890.875427,76.609550,-592.164754,9844.739029
890.875743,0.000000,-666.185348,9992.780217
890.876059,-306.438199,-962.267725,9992.780217
890.876374,0.000000,-888.247130,10214.842000
890.876690,0.000000,-444.123565,9770.718434
890.877006,0.000000,-296.082377,9622.677246
890.877322,536.266849,-0.000000,9400.615463
890.877637,459.657299,222.061783,9326.594869
890.877953,689.485948,296.082377,9104.533087
890.878269,536.266849,222.061783,9178.553681
890.878584,766.095498,296.082377,9178.553681
890.878900,689.485948,518.144159,9104.533087
890.879216,306.438199,296.082377,9178.553681
890.879532,153.219100,296.082377,9326.594869
890.879847,153.219100,-0.000000,9770.718434
890.880163,76.609550,-0.000000,9992.780217
890.880479,-229.828649,-0.000000,9844.739029
890.880795,-153.219100,-74.020594,9696.697840
890.881110,0.000000,-148.041188,9770.718434
890.881426,153.219100,-444.123565,9696.697840
890.881742,76.609550,-0.000000,9622.677246
890.882057,153.219100,222.061783,9548.656652
890.882373,459.657299,148.041188,9252.574275
890.882689,229.828649,148.041188,9326.594869
890.883005,306.438199,444.123565,9252.574275
890.883320,229.828649,296.082377,9326.594869
890.883636,153.219100,296.082377,9252.574275
890.883952,306.438199,296.082377,9252.574275
890.884267,0.000000,-0.000000,9622.677246
890.884583,229.828649,-0.000000,9770.718434
890.884899,229.828649,-0.000000,9548.656652
890.885215,0.000000,-148.041188,9696.697840
890.885530,153.219100,-370.102971,9696.697840
890.885846,76.609550,-0.000000,9770.718434
890.886162,689.485948,-518.144159,9770.718434
890.886478,153.219100,-370.102971,9696.697840
890.886793,612.876398,-148.041188,9548.656652
890.887109,536.266849,-0.000000,9474.636058
890.887425,919.314598,296.082377,9252.574275
890.887740,689.485948,296.082377,9104.533087
890.888056,842.705048,518.144159,9104.533087
890.888372,536.266849,444.123565,8956.491898
890.888688,153.219100,148.041188,9326.594869
890.889003,153.219100,-222.061783,9474.636058
890.889319,153.219100,-666.185348,9770.718434
890.889635,0.000000,-814.226536,9770.718434
890.889950,0.000000,-740.205942,10288.862594
890.890266,-153.219100,-814.226536,9918.759623
890.890582,153.219100,-592.164754,10066.800811
890.890898,0.000000,-592.164754,9844.739029
890.891213,383.047749,-222.061783,9474.636058
890.891529,919.314598,-222.061783,9178.553681
890.891845,766.095498,-0.000000,9104.533087
890.892161,919.314598,-0.000000,9326.594869
890.892476,1225.752797,-0.000000,9030.512492
890.892792,766.095498,-74.020594,9030.512492
890.893108,536.266849,-0.000000,9326.594869
890.893423,689.485948,-74.020594,9474.636058
890.893739,842.705048,-370.102971,9104.533087
890.894055,306.438199,-296.082377,9474.636058
890.894371,229.828649,-518.144159,9548.656652
890.894686,383.047749,-666.185348,9770.718434
890.895002,459.657299,-814.226536,9770.718434
890.895318,306.438199,-888.247130,9622.677246
890.895633,306.438199,-814.226536,9474.636058
890.895949,153.219100,-814.226536,9548.656652
890.896265,459.657299,-518.144159,9326.594869
890.896581,612.876398,-148.041188,9178.553681
890.896896,766.095498,-296.082377,9178.553681
890.897212,842.705048,-0.000000,9030.512492
890.897528,842.705048,-0.000000,9252.574275
890.897844,612.876398,-0.000000,9178.553681
890.898159,766.095498,-370.102971,9178.553681
890.898475,766.095498,-222.061783,9844.739029
890.898791,536.266849,-518.144159,9622.677246
890.899106,612.876398,-740.205942,9622.677246
890.899422,536.266849,-888.247130,9696.697840
890.899738,459.657299,-1036.288319,9992.780217
890.900054,612.876398,-962.267725,9844.739029
890.900369,383.047749,-814.226536,9918.759623
890.900685,689.485948,-518.144159,9622.677246
890.901001,1072.533697,-518.144159,9178.553681
890.901316,1149.143247,-74.020594,9178.553681
890.901632,919.314598,-148.041188,8956.491898
890.901948,842.705048,148.041188,9030.512492
890.902264,1072.533697,222.061783,8956.491898
890.902579,842.705048,296.082377,9178.553681
890.902895,306.438199,-0.000000,9326.594869
890.903211,76.609550,-222.061783,9474.636058
890.903527,-306.438199,-444.123565,9770.718434
890.903842,-229.828649,-740.205942,9622.677246
890.904158,-153.219100,-740.205942,9696.697840
890.904474,0.000000,-1036.288319,10140.821405
890.904789,0.000000,-592.164754,9918.759623
890.905105,-76.609550,-370.102971,9696.697840
890.905421,153.219100,-222.061783,9474.636058
890.905737,612.876398,74.020594,9326.594869
890.906052,383.047749,296.082377,9030.512492
890.906368,612.876398,518.144159,9178.553681
890.906684,689.485948,444.123565,8956.491898
890.906999,459.657299,370.102971,9030.512492
890.907315,536.266849,222.061783,9474.636058
890.907631,76.609550,296.082377,9326.594869
890.907947,306.438199,-0.000000,9474.636058
890.908262,153.219100,-74.020594,9548.656652
890.908578,76.609550,-296.082377,9622.677246
890.908894,0.000000,-74.020594,9622.677246
890.909210,0.000000,-148.041188,9696.697840
890.909525,0.000000,-148.041188,9770.718434
890.909841,153.219100,-0.000000,9696.697840
890.910157,76.609550,-74.020594,9696.697840
890.910472,459.657299,222.061783,9474.636058
890.910788,383.047749,222.061783,9252.574275
890.911104,689.485948,222.061783,9104.533087
890.911420,689.485948,296.082377,9252.574275
890.911735,536.266849,296.082377,9400.615463
890.912051,153.219100,296.082377,9474.636058
890.912367,459.657299,296.082377,9178.553681
890.912682,383.047749,-0.000000,9474.636058
890.912998,229.828649,-0.000000,9770.718434
890.913314,383.047749,-296.082377,9992.780217
890.913630,306.438199,-444.123565,9696.697840
890.913945,229.828649,-370.102971,9622.677246
890.914261,306.438199,-518.144159,9770.718434
890.914577,459.657299,-370.102971,9696.697840
890.914893,919.314598,-370.102971,9770.718434
890.915208,995.924147,-148.041188,9474.636058
890.915524,995.924147,148.041188,9178.553681
890.915840,919.314598,370.102971,9252.574275
890.916155,1072.533697,666.185348,9252.574275
890.916471,229.828649,592.164754,9400.615463
890.916787,536.266849,370.102971,9104.533087
890.917103,153.219100,222.061783,9326.594869
890.917418,229.828649,-370.102971,9474.636058
890.917734,0.000000,-370.102971,9696.697840
890.918050,383.047749,-1258.350101,9770.718434
890.918366,0.000000,-740.205942,10214.842000
890.918681,0.000000,-592.164754,10066.800811
890.918997,383.047749,-370.102971,9992.780217
890.919313,229.828649,-444.123565,9696.697840
890.919628,383.047749,-518.144159,9548.656652
890.919944,842.705048,-148.041188,9252.574275
890.920260,995.924147,-0.000000,9104.533087
890.920576,919.314598,148.041188,9030.512492
890.920891,1149.143247,148.041188,8882.471304
890.921207,1302.362347,-222.061783,8956.491898
890.921523,766.095498,-0.000000,9104.533087
890.921838,689.485948,-296.082377,9326.594869
890.922154,536.266849,-296.082377,9326.594869
890.922470,229.828649,-592.164754,9474.636058
890.922786,153.219100,-814.226536,9622.677246
890.923101,0.000000,-740.205942,9622.677246
890.923417,0.000000,-740.205942,9844.739029
890.923733,229.828649,-444.123565,9770.718434
890.924049,0.000000,-666.185348,9474.636058
890.924364,536.266849,-296.082377,9548.656652
890.924680,459.657299,-444.123565,9178.553681
890.924996,842.705048,-148.041188,9252.574275
890.925311,612.876398,-222.061783,9104.533087
890.925627,919.314598,-296.082377,9030.512492
890.925943,766.095498,-74.020594,9178.553681
890.926259,536.266849,-0.000000,9326.594869
890.926574,459.657299,-74.020594,9400.615463
890.926890,306.438199,-148.041188,9400.615463
890.927206,229.828649,-370.102971,9622.677246
890.927521,383.047749,-592.164754,9696.697840
890.927837,459.657299,-518.144159,9622.677246
890.928153,229.828649,-814.226536,9622.677246
890.928469,383.047749,-888.247130,9622.677246
890.928784,0.000000,-1036.288319,9992.780217
890.929100,536.266849,-666.185348,9844.739029
890.929416,995.924147,-296.082377,9474.636058
890.929732,766.095498,-148.041188,9252.574275
890.930047,842.705048,-0.000000,9030.512492
890.930363,919.314598,-0.000000,9178.553681
890.930679,383.047749,-0.000000,9030.512492
890.930994,536.266849,-0.000000,9326.594869
890.931310,536.266849,-148.041188,9474.636058
890.931626,76.609550,-296.082377,9622.677246
890.931942,0.000000,-444.123565,10140.821405
890.932257,-229.828649,-666.185348,9918.759623
890.932573,0.000000,-888.247130,9918.759623
890.932889,0.000000,-740.205942,9992.780217
890.933204,76.609550,-666.185348,9844.739029
890.933520,919.314598,-370.102971,9474.636058
890.933836,306.438199,-74.020594,9548.656652
890.934152,842.705048,296.082377,9178.553681
890.934467,919.314598,370.102971,9178.553681
890.934783,766.095498,370.102971,9030.512492
890.935099,612.876398,518.144159,9178.553681
890.935415,536.266849,222.061783,9030.512492
890.935730,383.047749,148.041188,9178.553681
890.936046,612.876398,-0.000000,9326.594869
890.936362,-383.047749,-74.020594,9252.574275
890.936677,0.000000,-74.020594,10066.800811
890.936993,0.000000,-0.000000,9696.697840
890.937309,0.000000,-222.061783,9770.718434
890.937625,-153.219100,-296.082377,9696.697840
890.937940,229.828649,-222.061783,9548.656652
890.938256,0.000000,-222.061783,9326.594869
890.938572,383.047749,-0.000000,9474.636058
890.938887,306.438199,-0.000000,9326.594869
890.939203,153.219100,148.041188,9252.574275
890.939519,383.047749,148.041188,9252.574275
890.939835,229.828649,-0.000000,9252.574275
890.940150,229.828649,-0.000000,9252.574275
890.940466,153.219100,296.082377,9178.553681
890.940782,0.000000,222.061783,9400.615463
890.941098,383.047749,-74.020594,9474.636058
890.941413,76.609550,-74.020594,9474.636058
890.941729,0.000000,-222.061783,9696.697840
890.942045,76.609550,-296.082377,9696.697840
890.942360,76.609550,-592.164754,9696.697840
890.942676,229.828649,-592.164754,9844.739029
890.942992,612.876398,-370.102971,9770.718434
890.943308,536.266849,-444.123565,9622.677246
890.943623,689.485948,-74.020594,9252.574275
890.943939,842.705048,-0.000000,9104.533087
890.944255,689.485948,-0.000000,9326.594869
890.944570,842.705048,518.144159,9252.574275
890.944886,536.266849,370.102971,9178.553681
890.945202,612.876398,-0.000000,9178.553681
890.945518,306.438199,-74.020594,9696.697840
890.945833,229.828649,-740.205942,9770.718434
890.946149,0.000000,-666.185348,9918.759623
890.946465,229.828649,-592.164754,9992.780217
890.946781,0.000000,-814.226536,9918.759623
890.947096,229.828649,-518.144159,9992.780217
890.947412,536.266849,-370.102971,10066.800811
890.947728,612.876398,-74.020594,9548.656652
890.948043,612.876398,-0.000000,9252.574275
890.948359,919.314598,148.041188,9178.553681
890.948675,1149.143247,-0.000000,8956.491898
890.948991,1225.752797,-148.041188,9030.512492
890.949306,1072.533697,-0.000000,8956.491898
890.949622,919.314598,-0.000000,9400.615463
890.949938,995.924147,-74.020594,9178.553681
890.950253,766.095498,-370.102971,9400.615463
890.950569,612.876398,-148.041188,9548.656652
890.950885,153.219100,-518.144159,9548.656652
890.951201,0.000000,-518.144159,9696.697840
890.951516,306.438199,-592.164754,9696.697840
890.951832,459.657299,-814.226536,9622.677246
890.952148,383.047749,-666.185348,9622.677246
890.952464,612.876398,-444.123565,9474.636058
890.952779,766.095498,-370.102971,9400.615463
890.953095,766.095498,-222.061783,9400.615463
890.953411,842.705048,-370.102971,9326.594869
890.953726,1072.533697,-370.102971,9030.512492
890.954042,919.314598,-0.000000,9252.574275
890.954358,689.485948,-74.020594,9030.512492
890.954674,76.609550,-296.082377,9252.574275
890.954989,766.095498,-296.082377,9400.615463
890.955305,459.657299,-296.082377,9326.594869
890.955621,306.438199,-592.164754,9622.677246
890.955936,76.609550,-888.247130,9400.615463
890.956252,306.438199,-962.267725,9696.697840
890.956568,153.219100,-1110.308913,9844.739029
890.956884,536.266849,-888.247130,9918.759623
890.957199,536.266849,-740.205942,9844.739029
890.957515,995.924147,-1036.288319,9770.718434
890.957831,995.924147,-222.061783,9326.594869
890.958147,919.314598,-0.000000,9252.574275
890.958462,1072.533697,444.123565,9104.533087
890.958778,766.095498,370.102971,9030.512492
890.959094,766.095498,444.123565,9104.533087
890.959409,383.047749,148.041188,9178.553681
890.959725,383.047749,-0.000000,9696.697840
890.960041,0.000000,-444.123565,9622.677246
890.960357,0.000000,-222.061783,9770.718434
890.960672,0.000000,-666.185348,9918.759623
890.960988,0.000000,-740.205942,9844.739029
890.961304,0.000000,-444.123565,10214.842000
890.961620,0.000000,-370.102971,9770.718434
890.961935,153.219100,-370.102971,9622.677246
890.962251,306.438199,-0.000000,9400.615463
890.962567,995.924147,370.102971,9252.574275
890.962882,536.266849,444.123565,9030.512492
890.963198,842.705048,518.144159,9104.533087
890.963514,842.705048,370.102971,9400.615463
890.963830,459.657299,370.102971,9030.512492
890.964145,459.657299,148.041188,9252.574275
890.964461,306.438199,-0.000000,9474.636058
890.964777,76.609550,-74.020594,9696.697840
890.965092,0.000000,74.020594,9992.780217
890.965408,0.000000,-148.041188,9474.636058
890.965724,0.000000,-296.082377,9992.780217
890.966040,0.000000,-148.041188,9696.697840
890.966355,0.000000,-74.020594,9622.677246
890.966671,383.047749,-0.000000,9622.677246
890.966987,306.438199,148.041188,9400.615463
890.967303,383.047749,74.020594,9400.615463
890.967619,536.266849,444.123565,9252.574275
890.967934,842.705048,370.102971,9252.574275
890.968250,842.705048,-0.000000,9474.636058
890.968566,459.657299,148.041188,9252.574275
890.968882,229.828649,-148.041188,9400.615463
890.969198,153.219100,148.041188,9844.739029
890.969513,306.438199,-0.000000,9622.677246
890.969829,306.438199,-74.020594,9400.615463
890.970145,383.047749,-444.123565,9622.677246
890.970461,459.657299,-370.102971,9622.677246
890.970777,383.047749,-444.123565,9844.739029
890.971092,612.876398,-518.144159,9844.739029
890.971408,459.657299,-444.123565,9474.636058
890.971724,612.876398,-74.020594,9400.615463
890.972040,995.924147,148.041188,9252.574275
890.972356,995.924147,222.061783,9178.553681
890.972671,1455.581446,444.123565,9252.574275
890.972987,1225.752797,370.102971,8956.491898
890.973303,766.095498,370.102971,9104.533087
890.973619,383.047749,370.102971,9400.615463
890.973935,153.219100,-0.000000,9622.677246
890.974250,153.219100,-370.102971,9696.697840
890.974566,-306.438199,-740.205942,10066.800811
890.974882,-306.438199,-592.164754,10214.842000
890.975198,0.000000,-666.185348,10066.800811
890.975514,0.000000,-666.185348,9918.759623
890.975829,383.047749,-370.102971,9844.739029
890.976145,383.047749,-74.020594,9548.656652
890.976461,612.876398,-0.000000,9178.553681
890.976777,995.924147,222.061783,9030.512492
890.977093,1455.581446,148.041188,9030.512492
890.977408,1072.533697,-0.000000,8882.471304
890.977724,842.705048,-0.000000,8808.450710
890.978040,689.485948,-0.000000,9104.533087
890.978356,612.876398,-74.020594,9252.574275
890.978672,229.828649,-148.041188,9474.636058
890.978987,76.609550,-444.123565,9770.718434
890.979303,0.000000,-592.164754,9696.697840
890.979619,-153.219100,-740.205942,9622.677246
890.979935,-229.828649,-740.205942,9770.718434
890.980251,153.219100,-666.185348,9844.739029
890.980566,-459.657299,-518.144159,9696.697840
890.980882,76.609550,-740.205942,9622.677246
890.981198,383.047749,-370.102971,9400.615463
890.981514,383.047749,-296.082377,9400.615463
890.981830,383.047749,-222.061783,9474.636058
890.982145,766.095498,-222.061783,9104.533087
890.982461,536.266849,-0.000000,9178.553681
890.982777,766.095498,-0.000000,9104.533087
890.983093,536.266849,-222.061783,9326.594869
890.983409,459.657299,-370.102971,9326.594869
890.983724,76.609550,-592.164754,9696.697840
890.984040,153.219100,-444.123565,9844.739029
890.984356,306.438199,-814.226536,9696.697840
890.984672,383.047749,-814.226536,9844.739029
890.984988,689.485948,-962.267725,9400.615463
890.985303,612.876398,-888.247130,9770.718434
890.985619,612.876398,-518.144159,9770.718434
890.985935,842.705048,-296.082377,9400.615463
890.986251,1072.533697,-0.000000,9474.636058
890.986567,842.705048,148.041188,9252.574275
890.986882,1072.533697,444.123565,8956.491898
890.987198,1072.533697,296.082377,8734.430116
890.987514,612.876398,370.102971,8956.491898
890.987830,766.095498,-296.082377,9252.574275
890.988146,306.438199,-0.000000,9770.718434
890.988461,0.000000,-444.123565,9918.759623
890.988777,0.000000,-740.205942,9992.780217
890.989093,-153.219100,-740.205942,10066.800811
890.989409,-153.219100,-518.144159,10214.842000
890.989725,0.000000,-888.247130,10140.821405
890.990041,229.828649,-222.061783,9844.739029
890.990356,383.047749,-74.020594,9474.636058
890.990672,919.314598,-0.000000,9252.574275
890.990988,383.047749,296.082377,9178.553681
890.991304,689.485948,370.102971,9030.512492
890.991620,612.876398,444.123565,9178.553681
890.991935,842.705048,296.082377,8956.491898
890.992251,536.266849,148.041188,9474.636058
890.992567,229.828649,148.041188,9326.594869
890.992883,306.438199,-0.000000,9474.636058
890.993199,76.609550,-0.000000,9548.656652
890.993514,229.828649,-370.102971,9918.759623
890.993830,0.000000,-296.082377,9918.759623
890.994146,0.000000,-222.061783,9770.718434
890.994462,-153.219100,-222.061783,9548.656652
890.994778,76.609550,-74.020594,9770.718434
890.995093,153.219100,-74.020594,9548.656652
890.995409,306.438199,148.041188,9622.677246
890.995725,383.047749,296.082377,9474.636058
890.996041,459.657299,148.041188,9252.574275
890.996357,383.047749,370.102971,9326.594869
890.996672,229.828649,296.082377,9178.553681
890.996988,0.000000,-0.000000,9178.553681
890.997304,383.047749,222.061783,9326.594869
890.997620,153.219100,-0.000000,9326.594869
890.997936,229.828649,-0.000000,9548.656652
890.998251,153.219100,-74.020594,9844.739029
890.998567,229.828649,-666.185348,9770.718434
890.998883,306.438199,-370.102971,9770.718434
890.999199,153.219100,-444.123565,9918.759623
890.999515,612.876398,-296.082377,9622.677246
890.999830,612.876398,-222.061783,9474.636058
891.000146,919.314598,-444.123565,9400.615463
891.000462,919.314598,-0.000000,9400.615463
891.000778,459.657299,222.061783,9104.533087
891.001094,536.266849,666.185348,9178.553681
891.001409,689.485948,370.102971,9030.512492
891.001725,459.657299,-296.082377,9326.594869
891.002041,306.438199,-74.020594,9400.615463
891.002357,153.219100,-444.123565,9696.697840
891.002673,0.000000,-666.185348,9770.718434
891.002988,-459.657299,-740.205942,9844.739029
891.003304,0.000000,-740.205942,9918.759623
891.003620,153.219100,-296.082377,10140.821405
891.003936,459.657299,-444.123565,9622.677246
891.004252,383.047749,-444.123565,9548.656652
891.004567,612.876398,-222.061783,9326.594869
891.004883,1378.971896,-148.041188,9178.553681
891.005199,995.924147,-0.000000,9030.512492
891.005515,919.314598,148.041188,9030.512492
891.005831,995.924147,222.061783,8956.491898
891.006146,1072.533697,-0.000000,9030.512492
891.006462,1072.533697,-0.000000,9548.656652
891.006778,612.876398,-74.020594,9326.594869
891.007094,229.828649,-370.102971,9400.615463
891.007410,536.266849,-370.102971,9622.677246
891.007725,306.438199,-666.185348,9548.656652
891.008041,0.000000,-814.226536,9770.718434
891.008357,153.219100,-666.185348,9696.697840
891.008673,306.438199,-518.144159,9622.677246
891.008989,306.438199,-518.144159,9474.636058
891.009304,612.876398,-0.000000,9400.615463
891.009620,689.485948,-0.000000,9770.718434
891.009936,1225.752797,-0.000000,9474.636058
891.010252,919.314598,-0.000000,9400.615463
891.010568,1149.143247,-74.020594,9178.553681
891.010883,919.314598,-148.041188,9104.533087
891.011199,842.705048,-74.020594,9696.697840
891.011515,612.876398,-0.000000,9474.636058
891.011831,536.266849,-222.061783,9696.697840
891.012147,536.266849,-148.041188,9622.677246
891.012462,383.047749,-814.226536,9548.656652
891.012778,0.000000,-1184.329507,9400.615463
891.013094,612.876398,-1110.308913,9918.759623
891.013410,766.095498,-740.205942,9844.739029
891.013726,689.485948,-888.247130,9622.677246
891.014041,842.705048,-518.144159,9622.677246
891.014357,919.314598,-592.164754,9474.636058
891.014673,995.924147,-0.000000,9104.533087
891.014989,1072.533697,-0.000000,9104.533087
891.015305,842.705048,-0.000000,9030.512492
891.015620,766.095498,148.041188,8956.491898
891.015936,766.095498,-148.041188,9474.636058
891.016252,306.438199,-370.102971,9252.574275
891.016568,0.000000,-962.267725,9622.677246
891.016884,-229.828649,-888.247130,9918.759623
891.017200,-153.219100,-814.226536,10214.842000
891.017515,-459.657299,-1036.288319,10214.842000
891.017831,-153.219100,-814.226536,9918.759623
891.018147,229.828649,-740.205942,9696.697840
891.018463,306.438199,-296.082377,9474.636058
891.018779,842.705048,-148.041188,9326.594869
891.019094,1302.362347,-0.000000,9326.594869
891.019410,919.314598,370.102971,8882.471304
891.019726,689.485948,148.041188,8882.471304
891.020042,766.095498,148.041188,9178.553681
891.020358,459.657299,-0.000000,9178.553681
891.020673,383.047749,-370.102971,9326.594869
891.020989,76.609550,-0.000000,9252.574275
891.021305,0.000000,-0.000000,9622.677246
891.021621,-229.828649,-222.061783,9622.677246
891.021937,-536.266849,-148.041188,9696.697840
891.022252,0.000000,-370.102971,9770.718434
891.022568,0.000000,-74.020594,9696.697840
891.022884,0.000000,-148.041188,9474.636058
891.023200,153.219100,-0.000000,9474.636058
891.023516,229.828649,-0.000000,9104.533087
891.023831,612.876398,-74.020594,9178.553681
891.024147,612.876398,370.102971,9252.574275
891.024463,536.266849,296.082377,9178.553681
891.024779,536.266849,444.123565,9178.553681
891.025095,306.438199,370.102971,9252.574275
891.025410,153.219100,518.144159,9178.553681
891.025726,153.219100,222.061783,9400.615463
891.026042,153.219100,-74.020594,9770.718434
891.026358,229.828649,-0.000000,9844.739029
891.026674,0.000000,-222.061783,9770.718434
891.026989,459.657299,-518.144159,9474.636058
891.027305,229.828649,-296.082377,9918.759623
891.027621,459.657299,-370.102971,9992.780217
891.027937,383.047749,-222.061783,9770.718434
891.028253,842.705048,-148.041188,9622.677246
891.028568,995.924147,-0.000000,9474.636058
891.028884,919.314598,296.082377,9326.594869
891.029200,995.924147,592.164754,9178.553681
891.029516,995.924147,518.144159,9178.553681
891.029832,842.705048,444.123565,9326.594869
891.030147,536.266849,296.082377,9474.636058
891.030463,229.828649,-0.000000,9622.677246
891.030779,76.609550,-222.061783,10066.800811
891.031095,153.219100,-740.205942,9770.718434
891.031411,-153.219100,-740.205942,10140.821405
891.031726,-383.047749,-740.205942,10362.883188
891.032042,0.000000,-666.185348,10066.800811
891.032358,153.219100,-518.144159,10140.821405
891.032674,229.828649,-370.102971,9622.677246
891.032990,459.657299,-74.020594,9326.594869
891.033305,689.485948,-222.061783,9326.594869
891.033621,995.924147,-0.000000,9252.574275
891.033937,919.314598,222.061783,9178.553681
891.034253,919.314598,-0.000000,9178.553681
891.034569,766.095498,-0.000000,9178.553681
891.034884,995.924147,-518.144159,9326.594869
891.035200,766.095498,-444.123565,9326.594869
891.035516,536.266849,-296.082377,9474.636058
891.035832,229.828649,-666.185348,9474.636058
891.036148,153.219100,-666.185348,9696.697840
891.036463,153.219100,-1036.288319,9622.677246
891.036779,153.219100,-740.205942,9696.697840
891.037095,153.219100,-740.205942,9326.594869
891.037411,383.047749,-740.205942,9548.656652
891.037727,1149.143247,-592.164754,9326.594869
891.038042,766.095498,-74.020594,9326.594869
891.038358,766.095498,-296.082377,9030.512492
891.038674,536.266849,-370.102971,8660.409521
891.038990,612.876398,-148.041188,9178.553681
891.039306,536.266849,-222.061783,9030.512492
891.039621,536.266849,-444.123565,9030.512492
891.039937,536.266849,-444.123565,8956.491898
891.040253,306.438199,-518.144159,9400.615463
891.040569,229.828649,-740.205942,9474.636058
891.040885,306.438199,-1036.288319,9474.636058
891.041200,76.609550,-888.247130,9548.656652
891.041516,383.047749,-962.267725,9474.636058
891.041832,459.657299,-1110.308913,9844.739029
891.042148,612.876398,-814.226536,9622.677246
891.042464,766.095498,-518.144159,9400.615463
891.042779,1072.533697,-370.102971,9400.615463
891.043095,995.924147,-0.000000,9104.533087
891.043411,995.924147,296.082377,9104.533087
891.043727,842.705048,-0.000000,9104.533087
891.044043,689.485948,296.082377,9104.533087
891.044358,842.705048,222.061783,9474.636058
891.044674,612.876398,-148.041188,9474.636058
891.044990,76.609550,-666.185348,9622.677246
891.045306,0.000000,-740.205942,9992.780217
891.045622,0.000000,-962.267725,10066.800811
891.045938,306.438199,-666.185348,10140.821405
891.046253,76.609550,-444.123565,10140.821405
891.046569,229.828649,-296.082377,9992.780217
891.046885,153.219100,-74.020594,9622.677246
891.047201,689.485948,222.061783,9474.636058
891.047517,612.876398,444.123565,8956.491898
891.047832,612.876398,74.020594,9030.512492
891.048148,1072.533697,666.185348,9104.533087
891.048464,689.485948,592.164754,9326.594869
891.048780,536.266849,444.123565,9178.553681
891.049096,766.095498,-74.020594,9326.594869
891.049411,76.609550,222.061783,9474.636058
891.049727,229.828649,-0.000000,9696.697840
891.050043,76.609550,-0.000000,9992.780217
891.050359,153.219100,-222.061783,9844.739029
891.050675,536.266849,-148.041188,9844.739029
891.050990,0.000000,-222.061783,9844.739029
891.051306,0.000000,-0.000000,9918.759623
891.051622,0.000000,-0.000000,9548.656652
891.051938,153.219100,-0.000000,9400.615463
891.052254,612.876398,370.102971,9104.533087
891.052569,229.828649,296.082377,9252.574275
891.052885,536.266849,444.123565,9326.594869
891.053201,306.438199,444.123565,9252.574275
891.053517,306.438199,444.123565,9474.636058
891.053833,536.266849,444.123565,9474.636058
891.054148,153.219100,-0.000000,9474.636058
891.054464,153.219100,-0.000000,9844.739029
891.054780,383.047749,-148.041188,9622.677246
891.055096,76.609550,-296.082377,9474.636058
891.055412,536.266849,-444.123565,9992.780217
891.055727,383.047749,-296.082377,9474.636058
891.056043,612.876398,-444.123565,9696.697840
891.056359,612.876398,-740.205942,9548.656652
891.056675,842.705048,-148.041188,9252.574275
891.056991,919.314598,-0.000000,9400.615463
891.057306,919.314598,148.041188,9252.574275
891.057622,766.095498,222.061783,9252.574275
891.057938,689.485948,222.061783,9104.533087
891.058254,766.095498,518.144159,9400.615463
891.058570,229.828649,-74.020594,9474.636058
891.058885,306.438199,-370.102971,9696.697840
891.059201,76.609550,-444.123565,9918.759623
891.059517,0.000000,-814.226536,9918.759623
891.059833,76.609550,-962.267725,9918.759623
891.060149,153.219100,-888.247130,9696.697840
891.060464,153.219100,-814.226536,9548.656652
891.060780,459.657299,-518.144159,9474.636058
891.061096,612.876398,-148.041188,9326.594869
891.061412,689.485948,-0.000000,9474.636058
891.061728,1149.143247,-222.061783,8956.491898
891.062043,919.314598,-0.000000,9104.533087
891.062359,1072.533697,-0.000000,8808.450710
891.062675,995.924147,-0.000000,9104.533087
891.062991,1378.971896,-0.000000,9030.512492
891.063307,383.047749,-296.082377,9326.594869
891.063622,383.047749,-444.123565,9474.636058
891.063938,229.828649,-518.144159,9622.677246
891.064254,76.609550,-666.185348,9696.697840
891.064570,76.609550,-962.267725,9622.677246
891.064886,306.438199,-592.164754,9844.739029
891.065201,306.438199,-592.164754,9548.656652
891.065517,383.047749,-666.185348,9400.615463
891.065833,612.876398,-592.164754,9548.656652
891.066149,383.047749,-592.164754,9252.574275
891.066465,689.485948,-222.061783,9178.553681
891.066780,766.095498,-222.061783,9178.553681
891.067096,766.095498,-222.061783,9030.512492
891.067412,919.314598,-74.020594,9104.533087
891.067728,766.095498,-0.000000,9178.553681
891.068043,459.657299,-74.020594,9326.594869
891.068359,766.095498,-0.000000,9400.615463
891.068675,612.876398,-370.102971,9622.677246
891.068991,536.266849,-666.185348,9622.677246
891.069306,383.047749,-740.205942,9548.656652
891.069622,536.266849,-592.164754,9992.780217
891.069938,536.266849,-1036.288319,10066.800811
891.070253,459.657299,-962.267725,9992.780217
891.070569,995.924147,-592.164754,9696.697840
891.070885,842.705048,-444.123565,9548.656652
891.071201,842.705048,-0.000000,9252.574275
891.071516,689.485948,222.061783,9104.533087
891.071832,842.705048,296.082377,9104.533087
891.072148,919.314598,296.082377,9104.533087
891.072463,383.047749,296.082377,8956.491898
891.072779,536.266849,-0.000000,9622.677246
891.073095,76.609550,-444.123565,9548.656652
891.073411,76.609550,-666.185348,9918.759623
891.073726,-612.876398,-962.267725,10140.821405
891.074042,-229.828649,-962.267725,10066.800811
891.074358,0.000000,-592.164754,9992.780217
891.074674,0.000000,-370.102971,9770.718434
891.074989,229.828649,-222.061783,9474.636058
891.075305,536.266849,148.041188,9252.574275
891.075621,383.047749,222.061783,9400.615463
891.075936,689.485948,518.144159,9104.533087
891.076252,612.876398,296.082377,8882.471304
891.076568,612.876398,370.102971,8882.471304
891.076884,612.876398,222.061783,9178.553681
891.077199,383.047749,222.061783,9178.553681
891.077515,229.828649,-0.000000,9326.594869
891.077831,229.828649,-0.000000,9474.636058
891.078146,383.047749,-148.041188,9474.636058
891.078462,0.000000,-444.123565,9474.636058
891.078778,0.000000,-222.061783,9770.718434
891.079094,0.000000,-148.041188,9918.759623
891.079409,0.000000,-0.000000,9622.677246
891.079725,153.219100,-0.000000,9474.636058
891.080041,383.047749,-0.000000,9474.636058
891.080356,383.047749,-0.000000,9400.615463
891.080672,459.657299,222.061783,9252.574275
891.080988,306.438199,222.061783,9178.553681
891.081304,306.438199,222.061783,9400.615463
891.081619,536.266849,518.144159,9474.636058
891.081935,459.657299,222.061783,9326.594869
891.082251,306.438199,-0.000000,9400.615463
891.082566,153.219100,-0.000000,9622.677246
891.082882,229.828649,-148.041188,9474.636058
891.083198,306.438199,-296.082377,9770.718434
891.083514,383.047749,-444.123565,9696.697840
891.083829,536.266849,-296.082377,9770.718434
891.084145,919.314598,-444.123565,9844.739029
891.084461,536.266849,-518.144159,9992.780217
891.084776,536.266849,-370.102971,9548.656652
891.085092,536.266849,-0.000000,9474.636058
891.085408,766.095498,296.082377,9326.594869
891.085724,919.314598,296.082377,9178.553681
891.086039,842.705048,370.102971,8808.450710
891.086355,459.657299,592.164754,9178.553681
891.086671,383.047749,148.041188,9474.636058
891.086986,229.828649,-0.000000,9622.677246
891.087302,76.609550,-148.041188,9992.780217
891.087618,-459.657299,-814.226536,9770.718434
891.087934,0.000000,-444.123565,10066.800811
891.088249,-153.219100,-888.247130,9918.759623
891.088565,0.000000,-814.226536,10066.800811
891.088881,0.000000,-740.205942,9770.718434
891.089196,383.047749,-444.123565,9548.656652
891.089512,689.485948,-296.082377,9400.615463
891.089828,1072.533697,-222.061783,9252.574275
891.090144,995.924147,444.123565,9104.533087
891.090459,1072.533697,-0.000000,9178.553681
891.090775,766.095498,222.061783,9104.533087
891.091091,842.705048,-0.000000,9178.553681
891.091406,1072.533697,-0.000000,8956.491898
891.091722,995.924147,-370.102971,9178.553681
891.092038,459.657299,-222.061783,9400.615463
891.092354,153.219100,-370.102971,9474.636058
891.092669,0.000000,-444.123565,9696.697840
891.092985,153.219100,-888.247130,9622.677246
891.093301,153.219100,-222.061783,9770.718434
891.093616,153.219100,-666.185348,9696.697840
891.093932,153.219100,-592.164754,9622.677246
891.094248,459.657299,-370.102971,9474.636058
891.094564,842.705048,-370.102971,9326.594869
891.094879,842.705048,-148.041188,9474.636058
891.095195,995.924147,-0.000000,9104.533087
891.095511,766.095498,-222.061783,9178.553681
891.095826,612.876398,-222.061783,9104.533087
891.096142,842.705048,-0.000000,9104.533087
891.096458,536.266849,-518.144159,9474.636058
891.096774,536.266849,-370.102971,9400.615463
891.097089,383.047749,-444.123565,9474.636058
891.097405,383.047749,-814.226536,9622.677246
891.097721,842.705048,-666.185348,9548.656652
891.098036,689.485948,-888.247130,9696.697840
891.098352,76.609550,-1036.288319,9844.739029
891.098668,536.266849,-740.205942,9844.739029
891.098984,612.876398,-444.123565,9622.677246
891.099299,842.705048,-222.061783,9400.615463
891.099615,612.876398,-0.000000,9326.594869
891.099931,1072.533697,-0.000000,8956.491898
891.100246,919.314598,444.123565,9030.512492
891.100562,766.095498,296.082377,8882.471304
891.100878,842.705048,-0.000000,9030.512492
891.101194,842.705048,-148.041188,9770.718434
891.101509,0.000000,-592.164754,9622.677246
891.101825,0.000000,-740.205942,9918.759623
891.102141,0.000000,-814.226536,9844.739029
891.102456,0.000000,-814.226536,9844.739029
891.102772,0.000000,-444.123565,9992.780217
891.103088,76.609550,-592.164754,9770.718434
891.103404,306.438199,-0.000000,9622.677246
891.103719,536.266849,-0.000000,9474.636058
891.104035,612.876398,370.102971,9252.574275
891.104351,1149.143247,444.123565,9400.615463
891.104666,842.705048,444.123565,9474.636058
891.104982,919.314598,518.144159,9104.533087
891.105298,689.485948,296.082377,9030.512492
891.105614,306.438199,148.041188,9326.594869
891.105929,459.657299,-0.000000,9178.553681
891.106245,306.438199,-0.000000,9622.677246
891.106561,-76.609550,-0.000000,9770.718434
891.106876,0.000000,-148.041188,9696.697840
891.107192,-229.828649,-0.000000,9696.697840
891.107508,-612.876398,-740.205942,9548.656652
891.107824,76.609550,-148.041188,9696.697840
891.108139,383.047749,-0.000000,9622.677246
891.108455,76.609550,-0.000000,9474.636058
891.108771,306.438199,296.082377,9548.656652
891.109086,536.266849,148.041188,9104.533087
891.109402,306.438199,296.082377,9178.553681
891.109718,229.828649,296.082377,9400.615463
891.110034,306.438199,148.041188,9252.574275
891.110349,459.657299,222.061783,9252.574275
891.110665,766.095498,-0.000000,9622.677246
891.110981,612.876398,222.061783,9474.636058
891.111296,459.657299,-222.061783,9474.636058
891.111612,383.047749,-370.102971,9622.677246
891.111928,229.828649,-222.061783,9548.656652
891.112244,306.438199,-518.144159,9918.759623
891.112559,383.047749,-370.102971,9696.697840
891.112875,612.876398,-296.082377,9548.656652
891.113191,536.266849,-0.000000,9474.636058
891.113506,689.485948,370.102971,9400.615463
891.113822,995.924147,-0.000000,9178.553681
891.114138,995.924147,370.102971,9030.512492
891.114454,536.266849,296.082377,8956.491898
891.114769,689.485948,370.102971,9178.553681
891.115085,459.657299,-0.000000,9252.574275
891.115401,536.266849,-370.102971,9622.677246
891.115716,0.000000,-370.102971,9770.718434
891.116032,0.000000,-518.144159,9992.780217
891.116348,0.000000,-888.247130,9844.739029
891.116664,153.219100,-592.164754,10066.800811
891.116979,153.219100,-666.185348,9622.677246
891.117295,306.438199,-296.082377,9770.718434
891.117611,536.266849,-0.000000,9474.636058
891.117926,766.095498,-0.000000,9104.533087
891.118242,766.095498,-0.000000,9030.512492
891.118558,1149.143247,-0.000000,8956.491898
891.118874,1072.533697,148.041188,9178.553681
891.119189,995.924147,148.041188,9178.553681
891.119505,766.095498,-74.020594,9104.533087
891.119821,536.266849,-0.000000,9252.574275
891.120136,229.828649,-518.144159,9326.594869
891.120452,229.828649,-370.102971,9548.656652
891.120768,306.438199,-518.144159,9474.636058
891.121084,76.609550,-592.164754,9844.739029
891.121399,229.828649,-666.185348,9770.718434
891.121715,-153.219100,-814.226536,10066.800811
891.122031,0.000000,-666.185348,9696.697840
891.122347,383.047749,-518.144159,9622.677246
891.122662,536.266849,-518.144159,9400.615463
891.122978,612.876398,-370.102971,9178.553681
891.123294,306.438199,-222.061783,9400.615463
891.123609,536.266849,-148.041188,9326.594869
891.123925,1072.533697,-0.000000,9252.574275
891.124241,919.314598,-222.061783,9178.553681
891.124557,612.876398,-296.082377,9326.594869
891.124872,383.047749,-740.205942,9400.615463
891.125188,689.485948,-444.123565,9696.697840
891.125504,536.266849,-740.205942,9548.656652
891.125819,383.047749,-1036.288319,9622.677246
891.126135,306.438199,-814.226536,9622.677246
891.126451,536.266849,-814.226536,9696.697840
891.126767,612.876398,-888.247130,9770.718434
891.127082,612.876398,-666.185348,9622.677246
891.127398,689.485948,-444.123565,9474.636058
891.127714,919.314598,-222.061783,9400.615463
891.128029,995.924147,-0.000000,9178.553681
891.128345,919.314598,148.041188,8882.471304
891.128661,766.095498,222.061783,8956.491898
891.128977,612.876398,-0.000000,9030.512492
891.129292,689.485948,-444.123565,9326.594869
891.129608,0.000000,-666.185348,9474.636058
891.129924,153.219100,-666.185348,9844.739029
891.130239,76.609550,-888.247130,9918.759623
891.130555,0.000000,-1110.308913,9844.739029
891.130871,-689.485948,-1110.308913,10066.800811
891.131187,0.000000,-666.185348,9770.718434
891.131502,383.047749,-444.123565,9548.656652
891.131818,229.828649,-148.041188,9400.615463
891.132134,153.219100,222.061783,9326.594869
891.132449,842.705048,-0.000000,9104.533087
891.132765,612.876398,-0.000000,8882.471304
891.133081,383.047749,148.041188,8956.491898
891.133397,536.266849,222.061783,8956.491898
891.133712,383.047749,148.041188,9104.533087
891.134028,306.438199,-148.041188,9474.636058
891.134344,0.000000,-74.020594,9474.636058
891.134659,153.219100,-222.061783,9622.677246
891.134975,153.219100,-0.000000,9844.739029
891.135291,306.438199,-296.082377,9918.759623
891.135607,153.219100,-370.102971,9770.718434
891.135922,0.000000,-148.041188,9918.759623
891.136238,0.000000,-0.000000,9696.697840
891.136554,76.609550,-0.000000,9400.615463
891.136869,153.219100,222.061783,9400.615463
891.137185,306.438199,148.041188,9326.594869
891.137501,153.219100,222.061783,9400.615463
891.137817,612.876398,222.061783,9178.553681
891.138132,229.828649,444.123565,9252.574275
891.138448,76.609550,148.041188,9474.636058
891.138764,383.047749,-74.020594,9104.533087
891.139079,153.219100,-0.000000,9400.615463
891.139395,0.000000,-0.000000,9622.677246
891.139711,76.609550,-74.020594,9548.656652
891.140027,536.266849,-0.000000,9770.718434
891.140342,229.828649,-296.082377,9696.697840
891.140658,306.438199,-222.061783,9918.759623
891.140974,383.047749,-222.061783,9696.697840
891.141289,383.047749,-296.082377,9548.656652
891.141605,919.314598,-0.000000,9474.636058
891.141921,919.314598,222.061783,9474.636058
891.142237,842.705048,444.123565,9400.615463
891.142552,995.924147,518.144159,9104.533087
891.142868,689.485948,444.123565,9178.553681
891.143184,383.047749,370.102971,9178.553681
891.143499,306.438199,148.041188,9474.636058
891.143815,76.609550,-222.061783,9696.697840
891.144131,229.828649,-518.144159,9992.780217
891.144447,0.000000,-740.205942,9918.759623
891.144762,-383.047749,-888.247130,9992.780217
891.145078,-153.219100,-814.226536,10140.821405
891.145394,0.000000,-740.205942,9992.780217
891.145709,76.609550,-148.041188,9844.739029
891.146025,536.266849,-296.082377,9326.594869
891.146341,306.438199,222.061783,9326.594869
891.146657,995.924147,222.061783,9104.533087
891.146972,919.314598,-0.000000,8956.491898
891.147288,919.314598,148.041188,9030.512492
891.147604,689.485948,-0.000000,9400.615463
891.147919,995.924147,-74.020594,9400.615463
891.148235,612.876398,-296.082377,9326.594869
891.148551,612.876398,-74.020594,9400.615463
891.148867,536.266849,-592.164754,9770.718434
891.149182,306.438199,-370.102971,9696.697840
891.149498,76.609550,-740.205942,9696.697840
891.149814,306.438199,-888.247130,9696.697840
891.150129,76.609550,-666.185348,9622.677246
891.150445,0.000000,-592.164754,9548.656652
891.150761,536.266849,-592.164754,9400.615463
891.151077,612.876398,-444.123565,9252.574275
891.151392,383.047749,-444.123565,9104.533087
891.151708,842.705048,-222.061783,9030.512492
891.152024,459.657299,-148.041188,9178.553681
891.152339,612.876398,-370.102971,9252.574275
891.152655,766.095498,-222.061783,9178.553681
891.152971,383.047749,-296.082377,9178.553681
891.153287,459.657299,-444.123565,9474.636058
891.153602,459.657299,-814.226536,9400.615463
891.153918,536.266849,-888.247130,9474.636058
891.154234,536.266849,-518.144159,9548.656652
891.154549,766.095498,-962.267725,9326.594869
891.154865,689.485948,-814.226536,9548.656652
891.155181,612.876398,-1184.329507,9696.697840
891.155497,766.095498,-518.144159,9696.697840
891.155812,689.485948,-296.082377,9474.636058
891.156128,1072.533697,-222.061783,9178.553681
891.156444,995.924147,222.061783,9030.512492
891.156759,995.924147,-0.000000,8660.409521
891.157075,766.095498,222.061783,9104.533087
891.157391,766.095498,-0.000000,9326.594869
891.157707,459.657299,-222.061783,9622.677246
891.158022,536.266849,-518.144159,9918.759623
891.158338,0.000000,-814.226536,9918.759623
891.158654,0.000000,-888.247130,9918.759623
891.158969,0.000000,-814.226536,9770.718434
891.159285,-153.219100,-740.205942,9918.759623
891.159601,0.000000,-370.102971,10140.821405
891.159917,0.000000,-74.020594,9696.697840
891.160232,536.266849,148.041188,9474.636058
891.160548,383.047749,222.061783,9252.574275
891.160864,919.314598,222.061783,8734.430116
891.161179,459.657299,444.123565,9030.512492
891.161495,766.095498,296.082377,9252.574275
891.161811,612.876398,444.123565,9326.594869
891.162127,536.266849,148.041188,9104.533087
891.162442,229.828649,-0.000000,9474.636058
891.162758,306.438199,-0.000000,9770.718434
891.163074,0.000000,-0.000000,9622.677246
891.163389,0.000000,-148.041188,9696.697840
891.163705,0.000000,-148.041188,9770.718434
891.164021,-229.828649,-296.082377,9844.739029
891.164337,536.266849,-222.061783,9548.656652
891.164652,153.219100,-74.020594,9548.656652
891.164968,0.000000,-148.041188,9622.677246
891.165284,306.438199,222.061783,9474.636058
891.165599,383.047749,444.123565,9474.636058
891.165915,229.828649,592.164754,9252.574275
891.166231,229.828649,444.123565,9252.574275
891.166547,536.266849,296.082377,9326.594869
891.166862,383.047749,296.082377,9400.615463
891.167178,689.485948,74.020594,9400.615463
891.167494,306.438199,-296.082377,9548.656652
891.167809,306.438199,-0.000000,9622.677246
891.168125,0.000000,-74.020594,9474.636058
891.168441,229.828649,-222.061783,9844.739029
891.168757,536.266849,-296.082377,9844.739029
891.169072,536.266849,-740.205942,9918.759623
891.169388,689.485948,-296.082377,9474.636058
891.169704,459.657299,-0.000000,9548.656652
891.170019,766.095498,222.061783,9326.594869
891.170335,459.657299,148.041188,9326.594869
891.170651,995.924147,148.041188,9104.533087
891.170966,612.876398,296.082377,9178.553681
891.171282,229.828649,444.123565,9474.636058
891.171598,153.219100,296.082377,9474.636058
891.171914,229.828649,-148.041188,9548.656652
891.172229,0.000000,-740.205942,9622.677246
891.172545,0.000000,-740.205942,9844.739029
891.172861,0.000000,-814.226536,9918.759623
891.173176,0.000000,-814.226536,9844.739029
891.173492,76.609550,-518.144159,9918.759623
891.173808,766.095498,-666.185348,9696.697840
891.174123,536.266849,-370.102971,9548.656652
891.174439,153.219100,-0.000000,9326.594869
891.174755,689.485948,-0.000000,9326.594869
891.175071,842.705048,-0.000000,8882.471304
891.175386,1072.533697,-0.000000,8660.409521
891.175702,1072.533697,-0.000000,8882.471304
891.176018,689.485948,-222.061783,9104.533087
891.176333,612.876398,-370.102971,9400.615463
891.176649,383.047749,-518.144159,9400.615463
891.176965,306.438199,-518.144159,9474.636058
891.177280,153.219100,-592.164754,9770.718434
891.177596,0.000000,-740.205942,9696.697840
891.177912,383.047749,-740.205942,9770.718434
891.178227,459.657299,-814.226536,9770.718434
891.178543,459.657299,-814.226536,9622.677246
891.178859,459.657299,-592.164754,9548.656652
891.179175,612.876398,-296.082377,9474.636058
891.179490,766.095498,-444.123565,9178.553681
891.179806,766.095498,-148.041188,9252.574275
891.180122,1072.533697,-0.000000,9252.574275
891.180437,1072.533697,-74.020594,9104.533087
891.180753,995.924147,-74.020594,9030.512492
891.181069,689.485948,-296.082377,9326.594869
891.181384,919.314598,-666.185348,9474.636058
891.181700,536.266849,-518.144159,9474.636058
891.182016,383.047749,-518.144159,9622.677246
891.182331,383.047749,-740.205942,9622.677246
891.182647,459.657299,-814.226536,9696.697840
891.182963,612.876398,-1184.329507,10140.821405
891.183279,459.657299,-1036.288319,9474.636058
891.183594,766.095498,-740.205942,9696.697840
891.183910,766.095498,-370.102971,9548.656652
891.184226,919.314598,-222.061783,9104.533087
891.184541,919.314598,-444.123565,9178.553681
891.184857,842.705048,148.041188,9104.533087
891.185173,842.705048,296.082377,8956.491898
891.185488,689.485948,-0.000000,9104.533087
891.185804,612.876398,-0.000000,9400.615463
891.186120,306.438199,-222.061783,9474.636058
891.186436,0.000000,-740.205942,9696.697840
891.186751,0.000000,-592.164754,10066.800811
891.187067,0.000000,-814.226536,9992.780217
891.187383,0.000000,-666.185348,9918.759623
891.187698,0.000000,-740.205942,9918.759623
891.188014,76.609550,-222.061783,9622.677246
891.188330,306.438199,-148.041188,9474.636058
891.188645,612.876398,222.061783,9326.594869
891.188961,612.876398,-0.000000,9474.636058
891.189277,536.266849,222.061783,9178.553681
891.189592,536.266849,296.082377,8956.491898
891.189908,459.657299,444.123565,9104.533087
891.190224,459.657299,370.102971,9178.553681
891.190540,229.828649,222.061783,9474.636058
891.190855,76.609550,-74.020594,9474.636058
891.191171,0.000000,-148.041188,9474.636058
891.191487,0.000000,-222.061783,9622.677246
891.191802,0.000000,-222.061783,9770.718434
891.192118,-153.219100,-74.020594,9844.739029
891.192434,153.219100,-74.020594,9844.739029
891.192749,153.219100,-222.061783,9696.697840
891.193065,76.609550,-74.020594,9400.615463
891.193381,229.828649,296.082377,9326.594869
891.193696,306.438199,444.123565,9326.594869
891.194012,383.047749,296.082377,9326.594869
891.194328,689.485948,370.102971,9326.594869
891.194644,536.266849,518.144159,9400.615463
891.194959,612.876398,296.082377,9400.615463
891.195275,306.438199,296.082377,9474.636058
891.195591,153.219100,666.185348,9844.739029
891.195906,383.047749,-0.000000,9548.656652
891.196222,76.609550,-148.041188,9918.759623
891.196538,229.828649,-296.082377,9770.718434
891.196853,229.828649,-518.144159,9696.697840
891.197169,306.438199,-370.102971,9844.739029
891.197485,306.438199,-444.123565,9918.759623
891.197800,536.266849,-222.061783,9622.677246
891.198116,766.095498,-0.000000,9400.615463
891.198432,1072.533697,222.061783,9326.594869
891.198748,766.095498,444.123565,9326.594869
891.199063,995.924147,518.144159,9178.553681
891.199379,612.876398,518.144159,8956.491898
891.199695,766.095498,296.082377,9252.574275
891.200010,459.657299,-0.000000,9326.594869
891.200326,153.219100,-444.123565,9474.636058
891.200642,0.000000,-518.144159,9844.739029
891.200957,0.000000,-814.226536,9992.780217
891.201273,383.047749,-814.226536,9992.780217
891.201589,76.609550,-888.247130,9992.780217
891.201905,-229.828649,-962.267725,9696.697840
891.202220,306.438199,-666.185348,9770.718434
891.202536,612.876398,-222.061783,9474.636058
891.202852,995.924147,-74.020594,9104.533087
891.203167,995.924147,-222.061783,8882.471304
891.203483,919.314598,148.041188,8734.430116
891.203799,1225.752797,222.061783,8882.471304
891.204114,995.924147,148.041188,9030.512492
891.204430,766.095498,-74.020594,9474.636058
891.204746,766.095498,-444.123565,8882.471304
891.205061,459.657299,-222.061783,9400.615463
891.205377,306.438199,-444.123565,9770.718434
891.205693,153.219100,-592.164754,9622.677246
891.206009,459.657299,-814.226536,9770.718434
891.206324,76.609550,-888.247130,9474.636058
891.206640,76.609550,-962.267725,9474.636058
891.206956,153.219100,-740.205942,9326.594869
891.207271,306.438199,-592.164754,9326.594869
891.207587,383.047749,-444.123565,9178.553681
891.207903,536.266849,-444.123565,9400.615463
891.208218,766.095498,-0.000000,9178.553681
891.208534,689.485948,-296.082377,8882.471304
891.208850,689.485948,-74.020594,9104.533087
891.209165,842.705048,-148.041188,9252.574275
891.209481,612.876398,-296.082377,9400.615463
891.209797,766.095498,-296.082377,9326.594869
891.210113,459.657299,-296.082377,9622.677246
891.210428,306.438199,-444.123565,9770.718434
891.210744,459.657299,-666.185348,9844.739029
891.211060,459.657299,-888.247130,9622.677246
891.211375,306.438199,-1036.288319,9844.739029
891.211691,536.266849,-666.185348,9844.739029
891.212007,842.705048,-666.185348,9770.718434
891.212322,842.705048,-148.041188,9696.697840
891.212638,1072.533697,-0.000000,9252.574275
891.212954,1072.533697,148.041188,9178.553681
891.213270,995.924147,370.102971,9104.533087
891.213585,766.095498,296.082377,8808.450710
891.213901,536.266849,148.041188,9400.615463
891.214217,383.047749,-0.000000,9474.636058
891.214532,76.609550,-222.061783,9622.677246
891.214848,0.000000,-592.164754,9770.718434
891.215164,0.000000,-740.205942,9918.759623
891.215479,-229.828649,-740.205942,10066.800811
891.215795,-153.219100,-666.185348,10214.842000
891.216111,0.000000,-518.144159,9992.780217
891.216426,0.000000,-222.061783,9696.697840
891.216742,383.047749,-0.000000,9326.594869
891.217058,689.485948,296.082377,9178.553681
891.217374,689.485948,296.082377,9252.574275
891.217689,612.876398,370.102971,8956.491898
891.218005,766.095498,-0.000000,8956.491898
891.218321,612.876398,296.082377,9178.553681
891.218636,459.657299,222.061783,9104.533087
891.218952,459.657299,148.041188,9474.636058
891.219268,76.609550,-0.000000,9548.656652
891.219583,0.000000,-74.020594,9622.677246
891.219899,0.000000,-0.000000,9770.718434
891.220215,0.000000,-148.041188,9474.636058
891.220530,76.609550,-222.061783,9770.718434
891.220846,-153.219100,-370.102971,9622.677246
891.221162,306.438199,-222.061783,9918.759623
891.221478,229.828649,-0.000000,9326.594869
891.221793,229.828649,-0.000000,9104.533087
891.222109,459.657299,148.041188,9252.574275
891.222425,383.047749,-0.000000,9030.512492
891.222740,536.266849,370.102971,9326.594869
891.223056,306.438199,-0.000000,9252.574275
891.223372,383.047749,296.082377,9474.636058
891.223687,306.438199,-0.000000,9326.594869
891.224003,306.438199,-296.082377,9400.615463
891.224319,306.438199,-296.082377,9844.739029
891.224635,153.219100,-222.061783,9548.656652
891.224950,229.828649,-444.123565,9622.677246
891.225266,153.219100,-592.164754,9696.697840
891.225582,766.095498,-518.144159,9770.718434
891.225897,612.876398,-592.164754,9770.718434
891.226213,612.876398,-0.000000,9548.656652
891.226529,612.876398,222.061783,9326.594869
891.226844,766.095498,296.082377,9326.594869
891.227160,995.924147,370.102971,9030.512492
891.227476,689.485948,518.144159,8956.491898
891.227791,612.876398,444.123565,9030.512492
891.228107,536.266849,148.041188,9178.553681
891.228423,0.000000,-148.041188,9474.636058
891.228739,306.438199,-518.144159,9918.759623
891.229054,-153.219100,-814.226536,9918.759623
891.229370,0.000000,-740.205942,10066.800811
891.229686,0.000000,-666.185348,10066.800811
891.230001,0.000000,-518.144159,9992.780217
891.230317,459.657299,-370.102971,9696.697840
891.230633,536.266849,-296.082377,9474.636058
891.230948,689.485948,-0.000000,9400.615463
891.231264,766.095498,148.041188,9178.553681
891.231580,612.876398,-0.000000,9030.512492
891.231895,1149.143247,222.061783,9030.512492
891.232211,842.705048,296.082377,9030.512492
891.232527,842.705048,-0.000000,9104.533087
891.232843,612.876398,-74.020594,9326.594869
891.233158,306.438199,-74.020594,9474.636058
891.233474,536.266849,-222.061783,9622.677246
891.233790,76.609550,-296.082377,9770.718434
891.234105,153.219100,-444.123565,9622.677246
891.234421,0.000000,-888.247130,9770.718434
891.234737,76.609550,-592.164754,9844.739029
891.235052,459.657299,-814.226536,9696.697840
891.235368,306.438199,-444.123565,9548.656652
891.235684,536.266849,-296.082377,9474.636058
891.236000,842.705048,-148.041188,9400.615463
891.236315,842.705048,-74.020594,9474.636058
891.236631,1149.143247,-0.000000,8808.450710
891.236947,612.876398,-148.041188,9104.533087
891.237262,766.095498,-148.041188,9400.615463
891.237578,612.876398,-148.041188,9252.574275
891.237894,689.485948,-222.061783,9474.636058
891.238209,536.266849,-444.123565,9474.636058
891.238525,306.438199,-666.185348,9696.697840
891.238841,383.047749,-740.205942,9696.697840
891.239156,612.876398,-1184.329507,9548.656652
891.239472,536.266849,-1110.308913,9844.739029
891.239788,612.876398,-962.267725,9770.718434
891.240104,842.705048,-666.185348,9548.656652
891.240419,766.095498,-592.164754,9252.574275
891.240735,995.924147,-148.041188,9400.615463
891.241051,919.314598,-148.041188,9104.533087
891.241366,1072.533697,-148.041188,8734.430116
891.241682,842.705048,296.082377,9030.512492
891.241998,842.705048,222.061783,9104.533087
891.242313,383.047749,-74.020594,9178.553681
891.242629,0.000000,-74.020594,9474.636058
891.242945,-153.219100,-1184.329507,9548.656652
891.243260,-76.609550,-888.247130,9622.677246
891.243576,-229.828649,-962.267725,9844.739029
891.243892,-229.828649,-666.185348,9844.739029
891.244208,0.000000,-666.185348,9992.780217
891.244523,306.438199,-444.123565,9696.697840
891.244839,383.047749,-296.082377,9474.636058
891.245155,459.657299,-0.000000,9400.615463
891.245470,612.876398,296.082377,9104.533087
891.245786,766.095498,444.123565,9178.553681
891.246102,766.095498,370.102971,9030.512492
891.246417,612.876398,296.082377,9104.533087
891.246733,459.657299,-0.000000,9326.594869
891.247049,383.047749,-0.000000,9400.615463
891.247365,76.609550,-74.020594,9622.677246
891.247680,0.000000,-296.082377,9622.677246
891.247996,-153.219100,-74.020594,9696.697840
891.248312,0.000000,-222.061783,9696.697840
891.248627,-153.219100,-296.082377,9918.759623
891.248943,0.000000,-74.020594,9696.697840
891.249259,0.000000,-74.020594,9622.677246
891.249574,76.609550,222.061783,9474.636058
891.249890,536.266849,296.082377,9400.615463
891.250206,612.876398,592.164754,9400.615463
891.250521,842.705048,370.102971,9252.574275
891.250837,689.485948,296.082377,9252.574275
891.251153,459.657299,444.123565,9400.615463
891.251469,383.047749,296.082377,9400.615463
891.251784,536.266849,-0.000000,9474.636058
891.252100,459.657299,444.123565,9622.677246
891.252416,306.438199,-0.000000,9474.636058
891.252731,0.000000,-148.041188,9622.677246
891.253047,306.438199,-74.020594,9770.718434
891.253363,536.266849,-222.061783,9770.718434
891.253678,76.609550,-444.123565,9844.739029
891.253994,306.438199,-444.123565,9770.718434
891.254310,689.485948,-148.041188,9622.677246
891.254625,536.266849,-0.000000,9548.656652
891.254941,612.876398,-0.000000,9252.574275
891.255257,919.314598,370.102971,9178.553681
891.255573,1072.533697,222.061783,9252.574275
891.255888,612.876398,592.164754,8956.491898
891.256204,383.047749,296.082377,9178.553681
891.256520,842.705048,-0.000000,9400.615463
891.256835,229.828649,-148.041188,9770.718434
891.257151,0.000000,-444.123565,9918.759623
891.257467,76.609550,-814.226536,9992.780217
891.257782,0.000000,-740.205942,9992.780217
891.258098,0.000000,-888.247130,9770.718434
891.258414,229.828649,-444.123565,9770.718434
891.258729,459.657299,-518.144159,9474.636058
891.259045,842.705048,-74.020594,9548.656652
891.259361,842.705048,-0.000000,9104.533087
891.259677,919.314598,-0.000000,8956.491898
891.259992,995.924147,296.082377,8956.491898
891.260308,1149.143247,296.082377,9030.512492
891.260624,1149.143247,-0.000000,8808.450710
891.260939,995.924147,-74.020594,9030.512492
891.261255,612.876398,-148.041188,9104.533087
891.261571,612.876398,-148.041188,9474.636058
891.261886,153.219100,-740.205942,9474.636058
891.262202,0.000000,-814.226536,9770.718434
891.262518,0.000000,-592.164754,9918.759623
891.262834,0.000000,-962.267725,9622.677246
891.263149,0.000000,-740.205942,9548.656652
891.263465,76.609550,-518.144159,9622.677246
891.263781,229.828649,-1036.288319,9252.574275
891.264096,612.876398,-148.041188,9326.594869
891.264412,919.314598,-296.082377,9178.553681
891.264728,766.095498,-74.020594,9030.512492
891.265043,612.876398,-0.000000,8956.491898
891.265359,842.705048,-222.061783,9104.533087
891.265675,612.876398,-296.082377,9030.512492
891.265990,306.438199,-148.041188,9548.656652
891.266306,306.438199,-370.102971,9474.636058
891.266622,383.047749,-444.123565,9548.656652
891.266938,306.438199,-740.205942,9622.677246
891.267253,306.438199,-666.185348,9696.697840
891.267569,229.828649,-888.247130,9770.718434
891.267885,229.828649,-1036.288319,9770.718434
891.268201,459.657299,-666.185348,9770.718434
891.268516,383.047749,-666.185348,9918.759623
891.268832,995.924147,-296.082377,9474.636058
891.269148,1149.143247,-0.000000,9252.574275
891.269464,919.314598,-0.000000,9104.533087
891.269779,1149.143247,370.102971,9178.553681
891.270095,1149.143247,296.082377,8586.388927
891.270411,612.876398,222.061783,9400.615463
891.270727,612.876398,-0.000000,9474.636058
891.271042,229.828649,-296.082377,9474.636058
891.271358,76.609550,-740.205942,9844.739029
891.271674,153.219100,-888.247130,9918.759623
891.271990,0.000000,-740.205942,9992.780217
891.272305,0.000000,-666.185348,9992.780217
891.272621,153.219100,-518.144159,9770.718434
891.272937,229.828649,-518.144159,9474.636058
891.273253,689.485948,-0.000000,9844.739029
891.273568,612.876398,148.041188,9326.594869
891.273884,689.485948,444.123565,9104.533087
891.274200,766.095498,296.082377,9030.512492
891.274516,612.876398,444.123565,9030.512492
891.274831,689.485948,444.123565,9252.574275
891.275147,383.047749,148.041188,9252.574275
891.275463,459.657299,-0.000000,9326.594869
891.275779,229.828649,-0.000000,9474.636058
891.276094,153.219100,-296.082377,9548.656652
891.276410,0.000000,-148.041188,9770.718434
891.276726,-229.828649,-0.000000,9770.718434
891.277042,-229.828649,-370.102971,9696.697840
891.277357,0.000000,-74.020594,9696.697840
891.277673,0.000000,-148.041188,9770.718434
891.277989,0.000000,-148.041188,9622.677246
891.278305,383.047749,296.082377,9326.594869
891.278620,383.047749,-0.000000,9178.553681
891.278936,306.438199,222.061783,9252.574275
891.279252,842.705048,370.102971,9400.615463
891.279568,306.438199,370.102971,9252.574275
891.279883,153.219100,222.061783,9400.615463
891.280199,306.438199,296.082377,9474.636058
891.280515,229.828649,-0.000000,9474.636058
891.280831,229.828649,-0.000000,9622.677246
891.281146,0.000000,-222.061783,9770.718434
891.281462,229.828649,-74.020594,9548.656652
891.281778,153.219100,-370.102971,9770.718434
891.282094,306.438199,-370.102971,9622.677246
891.282409,919.314598,-222.061783,9918.759623
891.282725,459.657299,-74.020594,9474.636058
891.283041,612.876398,-0.000000,9326.594869
891.283357,919.314598,370.102971,9178.553681
891.283672,689.485948,296.082377,9104.533087
891.283988,995.924147,888.247130,9474.636058
891.284304,306.438199,370.102971,9104.533087
891.284620,229.828649,-0.000000,9400.615463
891.284935,153.219100,-74.020594,9548.656652
891.285251,-153.219100,-518.144159,9992.780217
891.285567,-229.828649,-962.267725,9918.759623
891.285883,-229.828649,-592.164754,9918.759623
891.286198,0.000000,-592.164754,10066.800811
891.286514,0.000000,-444.123565,10066.800811
891.286830,229.828649,-592.164754,10066.800811
891.287146,612.876398,-74.020594,9696.697840
891.287461,612.876398,-0.000000,9104.533087
891.287777,919.314598,-0.000000,9178.553681
891.288093,919.314598,296.082377,9030.512492
891.288409,1149.143247,148.041188,8956.491898
891.288724,995.924147,-0.000000,9030.512492
891.289040,919.314598,-0.000000,9030.512492
891.289356,689.485948,-0.000000,9326.594869
891.289672,689.485948,-222.061783,9400.615463
891.289987,306.438199,-296.082377,9474.636058
891.290303,383.047749,-296.082377,9918.759623
891.290619,0.000000,-740.205942,9844.739029
891.290935,0.000000,-666.185348,9844.739029
891.291250,229.828649,-592.164754,9844.739029
891.291566,76.609550,-740.205942,9696.697840
891.291882,383.047749,-592.164754,9474.636058
891.292198,383.047749,-444.123565,9622.677246
891.292513,766.095498,-222.061783,9326.594869
891.292829,766.095498,-296.082377,9178.553681
891.293145,1149.143247,-74.020594,9252.574275
891.293461,919.314598,-296.082377,9326.594869
891.293776,689.485948,-0.000000,9400.615463
891.294092,536.266849,-0.000000,9104.533087
891.294408,842.705048,-222.061783,9400.615463
891.294724,153.219100,-296.082377,9992.780217
891.295039,383.047749,-518.144159,9474.636058
891.295355,612.876398,-814.226536,9622.677246
891.295671,306.438199,-962.267725,9696.697840
891.295987,459.657299,-1036.288319,10066.800811
891.296302,459.657299,-1258.350101,9770.718434
891.296618,766.095498,-888.247130,9696.697840
891.296934,842.705048,-592.164754,9548.656652
891.297250,919.314598,-296.082377,9326.594869
891.297565,1072.533697,-0.000000,9178.553681
891.297881,766.095498,148.041188,9030.512492
891.298197,689.485948,518.144159,9104.533087
891.298513,689.485948,-0.000000,9178.553681
891.298828,536.266849,-0.000000,9104.533087
891.299144,229.828649,-222.061783,9918.759623
891.299460,0.000000,-222.061783,9622.677246
891.299776,0.000000,-814.226536,9992.780217
891.300091,-306.438199,-888.247130,9696.697840
891.300407,-76.609550,-888.247130,9918.759623
891.300723,766.095498,-592.164754,9696.697840
891.301039,229.828649,-518.144159,9622.677246
891.301354,76.609550,-370.102971,9474.636058
891.301670,383.047749,-74.020594,9400.615463
891.301986,612.876398,222.061783,9104.533087
891.302302,842.705048,222.061783,8956.491898
891.302617,536.266849,222.061783,9178.553681
891.302933,459.657299,296.082377,9030.512492
891.303249,383.047749,148.041188,9178.553681
891.303564,229.828649,-0.000000,9400.615463
891.303880,0.000000,-0.000000,9622.677246
891.304196,76.609550,-74.020594,9770.718434
891.304512,0.000000,-222.061783,9696.697840
891.304827,0.000000,-0.000000,9770.718434
891.305143,-459.657299,-0.000000,9918.759623
891.305459,0.000000,-148.041188,9918.759623
891.305775,153.219100,-0.000000,9622.677246
891.306090,76.609550,-222.061783,9548.656652
891.306406,306.438199,-0.000000,9326.594869
891.306722,459.657299,-0.000000,9178.553681
891.307038,383.047749,296.082377,9400.615463
891.307353,383.047749,296.082377,9400.615463
891.307669,383.047749,518.144159,9252.574275
891.307985,229.828649,370.102971,9400.615463
891.308301,229.828649,370.102971,9474.636058
891.308616,0.000000,148.041188,9622.677246
891.308932,0.000000,-0.000000,9696.697840
891.309248,383.047749,-0.000000,9696.697840
891.309564,536.266849,-0.000000,9918.759623
891.309879,229.828649,-148.041188,9770.718434
891.310195,459.657299,-148.041188,9918.759623
891.310511,229.828649,-444.123565,9918.759623
891.310827,689.485948,-148.041188,9918.759623
891.311142,766.095498,-0.000000,9548.656652
891.311458,919.314598,222.061783,9326.594869
891.311774,766.095498,370.102971,9474.636058
891.312090,1149.143247,370.102971,9030.512492
891.312405,689.485948,444.123565,9104.533087
891.312721,919.314598,814.226536,9622.677246
891.313037,459.657299,370.102971,9326.594869
891.313353,76.609550,-148.041188,9474.636058
891.313668,76.609550,-370.102971,9844.739029
891.313984,0.000000,-592.164754,9918.759623
891.314300,0.000000,-518.144159,10214.842000
891.314616,76.609550,-592.164754,10066.800811
891.314931,0.000000,-814.226536,9844.739029
891.315247,229.828649,-370.102971,9770.718434
891.315563,536.266849,-222.061783,9548.656652
891.315879,612.876398,-0.000000,9030.512492
891.316194,1072.533697,222.061783,9030.512492
891.316510,995.924147,-0.000000,8882.471304
891.316826,995.924147,-0.000000,9030.512492
891.317142,1225.752797,-0.000000,8808.450710
891.317457,842.705048,-148.041188,9030.512492
891.317773,536.266849,-148.041188,9252.574275
891.318089,306.438199,-296.082377,9400.615463
891.318405,306.438199,-592.164754,9474.636058
891.318720,229.828649,-740.205942,9474.636058
891.319036,766.095498,-888.247130,9548.656652
891.319352,-229.828649,-962.267725,9696.697840
891.319668,0.000000,-814.226536,9548.656652
891.319983,0.000000,-740.205942,9622.677246
891.320299,995.924147,-740.205942,9400.615463
891.320615,459.657299,-518.144159,9252.574275
891.320931,689.485948,-370.102971,9104.533087
891.321246,842.705048,-296.082377,9104.533087
891.321562,536.266849,-296.082377,8882.471304
891.321878,536.266849,-370.102971,9178.553681
891.322194,536.266849,-444.123565,9252.574275
891.322509,459.657299,-0.000000,9474.636058
891.322825,612.876398,-592.164754,9326.594869
891.323141,459.657299,-592.164754,9474.636058
891.323457,536.266849,-814.226536,9622.677246
891.323772,383.047749,-1036.288319,9696.697840
891.324088,383.047749,-740.205942,9770.718434
891.324404,383.047749,-888.247130,9548.656652
891.324720,459.657299,-962.267725,9844.739029
891.325035,612.876398,-888.247130,9770.718434
891.325351,612.876398,-666.185348,9474.636058
891.325667,919.314598,-148.041188,9400.615463
891.325983,995.924147,-0.000000,9252.574275
891.326298,1072.533697,148.041188,9030.512492
891.326614,1302.362347,518.144159,8882.471304
891.326930,766.095498,222.061783,9178.553681
891.327246,459.657299,-0.000000,9252.574275
891.327561,459.657299,-74.020594,9400.615463
891.327877,0.000000,-518.144159,9992.780217
891.328193,-153.219100,-740.205942,10140.821405
891.328509,-153.219100,-814.226536,10140.821405
891.328824,0.000000,-370.102971,9844.739029
891.329140,0.000000,-740.205942,10140.821405
891.329456,153.219100,-296.082377,9696.697840
891.329772,229.828649,-222.061783,9474.636058
891.330087,689.485948,148.041188,9326.594869
891.330403,689.485948,222.061783,9400.615463
891.330719,842.705048,444.123565,9030.512492
891.331035,766.095498,370.102971,9104.533087
891.331350,842.705048,222.061783,9400.615463
891.331666,536.266849,518.144159,9030.512492
891.331982,306.438199,370.102971,9178.553681
891.332298,153.219100,148.041188,9548.656652
891.332613,76.609550,-0.000000,9622.677246
891.332929,0.000000,-148.041188,9622.677246
891.333245,-229.828649,-148.041188,9622.677246
891.333561,-229.828649,-0.000000,9918.759623
891.333876,-229.828649,-222.061783,9622.677246
891.334192,229.828649,-148.041188,9770.718434
891.334508,0.000000,-0.000000,9474.636058
891.334824,383.047749,-0.000000,9400.615463
891.335139,459.657299,370.102971,9178.553681
891.335455,383.047749,370.102971,9030.512492
891.335771,459.657299,592.164754,9400.615463
891.336087,229.828649,296.082377,9178.553681
891.336402,229.828649,370.102971,9400.615463
891.336718,383.047749,296.082377,9474.636058
891.337034,153.219100,148.041188,9474.636058
891.337350,76.609550,370.102971,9770.718434
891.337665,0.000000,-74.020594,9992.780217
891.337981,153.219100,-0.000000,9918.759623
891.338297,76.609550,-296.082377,9622.677246
891.338613,229.828649,-370.102971,9696.697840
891.338928,229.828649,-518.144159,9918.759623
891.339244,612.876398,-0.000000,9622.677246
891.339560,612.876398,148.041188,9326.594869
891.339876,612.876398,444.123565,9178.553681
891.340191,766.095498,444.123565,9104.533087
891.340507,995.924147,296.082377,9030.512492
891.340823,842.705048,444.123565,9104.533087
891.341139,229.828649,222.061783,9252.574275
891.341454,229.828649,-0.000000,9474.636058
891.341770,0.000000,-518.144159,9622.677246
891.342086,-229.828649,-518.144159,9844.739029
891.342402,-153.219100,-666.185348,9918.759623
891.342717,-76.609550,-666.185348,9992.780217
891.343033,0.000000,-518.144159,9918.759623
891.343349,383.047749,-518.144159,9918.759623
891.343665,0.000000,-666.185348,9548.656652
891.343980,536.266849,-0.000000,9178.553681
891.344296,689.485948,74.020594,9104.533087
891.344612,1149.143247,-0.000000,9030.512492
891.344928,1072.533697,-0.000000,8882.471304
891.345243,1225.752797,148.041188,9178.553681
891.345559,995.924147,-0.000000,9030.512492
891.345875,842.705048,-296.082377,9030.512492
891.346191,766.095498,-74.020594,9474.636058
891.346506,689.485948,-148.041188,9400.615463
891.346822,306.438199,-592.164754,9622.677246
891.347138,383.047749,-370.102971,9548.656652
891.347454,76.609550,-740.205942,9770.718434
891.347769,383.047749,-962.267725,9622.677246
891.348085,612.876398,-888.247130,9474.636058
891.348401,229.828649,-666.185348,9548.656652
891.348717,919.314598,-666.185348,9474.636058
891.349032,766.095498,-444.123565,9474.636058
891.349348,995.924147,-222.061783,9178.553681
891.349664,459.657299,-148.041188,9252.574275
891.349980,689.485948,-148.041188,9252.574275
891.350295,842.705048,-74.020594,9252.574275
891.350611,689.485948,-222.061783,9104.533087
891.350927,689.485948,-370.102971,9178.553681
891.351243,612.876398,-444.123565,9474.636058
891.351558,612.876398,-666.185348,9474.636058
891.351874,689.485948,-888.247130,9548.656652
891.352190,459.657299,-1110.308913,9696.697840
891.352506,995.924147,-1332.370696,9474.636058
891.352821,459.657299,-1110.308913,9918.759623
891.353137,459.657299,-1110.308913,9992.780217
891.353453,842.705048,-666.185348,9474.636058
891.353769,1225.752797,-370.102971,9326.594869
891.354084,842.705048,-148.041188,8956.491898
891.354400,1072.533697,-0.000000,8808.450710
891.354716,919.314598,-0.000000,9030.512492
891.355032,842.705048,-0.000000,9030.512492
891.355347,153.219100,148.041188,9474.636058
891.355663,383.047749,-444.123565,9326.594869
891.355979,76.609550,-444.123565,9622.677246
891.356295,-229.828649,-740.205942,9918.759623
891.356610,0.000000,-814.226536,9992.780217
891.356926,-229.828649,-962.267725,9918.759623
891.357242,-459.657299,-740.205942,9844.739029
891.357558,0.000000,-592.164754,9696.697840
891.357873,153.219100,-222.061783,9474.636058
891.358189,612.876398,-0.000000,9252.574275
891.358505,306.438199,222.061783,9326.594869
891.358821,689.485948,444.123565,9178.553681
891.359136,766.095498,592.164754,8956.491898
891.359452,383.047749,518.144159,9030.512492
891.359768,306.438199,296.082377,9326.594869
891.360084,76.609550,-0.000000,9326.594869
891.360399,0.000000,222.061783,9326.594869
891.360715,153.219100,-0.000000,9474.636058
891.361031,0.000000,-74.020594,9844.739029
891.361346,0.000000,-74.020594,9622.677246
891.361662,-153.219100,-74.020594,9474.636058
891.361978,-153.219100,-0.000000,9770.718434
891.362294,0.000000,-0.000000,9696.697840
891.362609,76.609550,-0.000000,9548.656652
891.362925,229.828649,222.061783,9400.615463
891.363241,383.047749,148.041188,9474.636058
891.363557,766.095498,592.164754,9104.533087
891.363872,383.047749,148.041188,9326.594869
891.364188,383.047749,370.102971,9400.615463
891.364504,306.438199,518.144159,9474.636058
891.364820,153.219100,444.123565,9770.718434
891.365135,459.657299,222.061783,9474.636058
891.365451,306.438199,-0.000000,9548.656652
891.365767,229.828649,-0.000000,9770.718434
891.366083,0.000000,-0.000000,9918.759623
891.366398,-459.657299,-666.185348,9992.780217
891.366714,0.000000,-518.144159,9770.718434
891.367030,459.657299,-296.082377,9918.759623
891.367346,536.266849,-148.041188,9770.718434
891.367662,919.314598,-74.020594,9400.615463
891.367977,1149.143247,-0.000000,9030.512492
891.368293,1149.143247,296.082377,9252.574275
891.368609,995.924147,518.144159,9326.594869
891.368925,689.485948,444.123565,9104.533087
891.369240,689.485948,148.041188,9104.533087
891.369556,383.047749,-0.000000,9400.615463
891.369872,0.000000,-444.123565,9844.739029
891.370188,0.000000,-518.144159,9770.718434
891.370504,-229.828649,-962.267725,9992.780217
891.370819,0.000000,-814.226536,9992.780217
891.371135,0.000000,-1184.329507,10140.821405
891.371451,0.000000,-740.205942,9622.677246
891.371767,383.047749,-888.247130,9770.718434
891.372082,459.657299,-296.082377,9770.718434
891.372398,842.705048,-148.041188,9326.594869
891.372714,919.314598,-74.020594,9030.512492
891.373030,1149.143247,74.020594,8808.450710
891.373346,1302.362347,-0.000000,8512.368333
891.373661,1225.752797,-74.020594,8660.409521
891.373977,919.314598,-0.000000,9104.533087
891.374293,919.314598,-222.061783,8956.491898
891.374609,536.266849,-296.082377,9400.615463
891.374925,229.828649,-592.164754,9474.636058
891.375240,153.219100,-592.164754,9696.697840
891.375556,0.000000,-962.267725,9622.677246
891.375872,-153.219100,-1036.288319,9918.759623
891.376188,76.609550,-962.267725,9474.636058
891.376503,0.000000,-666.185348,9696.697840
891.376819,153.219100,-444.123565,9474.636058
891.377135,459.657299,-444.123565,9252.574275
891.377451,1072.533697,-518.144159,9030.512492
891.377767,689.485948,-74.020594,9104.533087
891.378082,766.095498,-222.061783,9104.533087
891.378398,842.705048,-0.000000,9104.533087
891.378714,612.876398,-0.000000,9104.533087
891.379030,1302.362347,-0.000000,9622.677246
891.379345,689.485948,-444.123565,9326.594869
891.379661,229.828649,-518.144159,9696.697840
891.379977,153.219100,-666.185348,9696.697840
891.380293,306.438199,-740.205942,9696.697840
891.380609,-229.828649,-1036.288319,9548.656652
891.380924,153.219100,-814.226536,9844.739029
891.381240,536.266849,-740.205942,9844.739029
891.381556,459.657299,-814.226536,9918.759623
891.381872,612.876398,-444.123565,9548.656652
891.382187,1225.752797,-148.041188,9474.636058
891.382503,766.095498,222.061783,9326.594869
891.382819,995.924147,-0.000000,9104.533087
891.383135,995.924147,296.082377,9104.533087
891.383451,919.314598,370.102971,9252.574275
891.383766,306.438199,296.082377,9178.553681
891.384082,459.657299,-74.020594,9474.636058
891.384398,0.000000,-518.144159,9770.718434
891.384714,0.000000,-666.185348,9844.739029
891.385030,0.000000,-592.164754,9992.780217
891.385345,383.047749,-222.061783,9844.739029
891.385661,306.438199,-444.123565,10066.800811
891.385977,229.828649,-370.102971,9770.718434
891.386293,383.047749,-74.020594,9474.636058
891.386608,612.876398,-0.000000,9326.594869
891.386924,1149.143247,-74.020594,9400.615463
891.387240,766.095498,296.082377,9104.533087
891.387556,689.485948,592.164754,9252.574275
891.387872,612.876398,370.102971,9104.533087
891.388187,689.485948,296.082377,9252.574275
891.388503,-153.219100,-0.000000,9400.615463
891.388819,76.609550,-148.041188,9622.677246
891.389135,0.000000,-74.020594,9770.718434
891.389450,76.609550,-148.041188,9696.697840
891.389766,0.000000,-222.061783,9696.697840
891.390082,153.219100,-222.061783,9770.718434
891.390398,0.000000,-148.041188,9696.697840
891.390714,76.609550,-74.020594,9548.656652
891.391029,229.828649,-74.020594,9252.574275
891.391345,459.657299,222.061783,9252.574275
891.391661,306.438199,296.082377,9474.636058
891.391977,536.266849,370.102971,9178.553681
891.392293,459.657299,370.102971,9104.533087
891.392608,153.219100,518.144159,9252.574275
891.392924,0.000000,-0.000000,9252.574275
891.393240,306.438199,296.082377,9326.594869
891.393556,0.000000,-0.000000,9474.636058
891.393871,0.000000,-148.041188,9696.697840
891.394187,153.219100,-74.020594,9622.677246
891.394503,-153.219100,-444.123565,9770.718434
891.394819,0.000000,-592.164754,9844.739029
891.395135,229.828649,-370.102971,9696.697840
891.395450,459.657299,-518.144159,9770.718434
891.395766,536.266849,-222.061783,9696.697840
891.396082,766.095498,74.020594,9400.615463
891.396398,536.266849,148.041188,9400.615463
891.396713,919.314598,296.082377,9104.533087
891.397029,1072.533697,222.061783,9030.512492
891.397345,842.705048,370.102971,8956.491898
891.397661,689.485948,444.123565,9474.636058
891.397977,536.266849,-0.000000,9326.594869
891.398292,153.219100,-222.061783,9622.677246
891.398608,0.000000,-444.123565,9770.718434
891.398924,-153.219100,-666.185348,9918.759623
891.399240,0.000000,-592.164754,10510.924376
891.399556,0.000000,-592.164754,10066.800811
891.399871,0.000000,-592.164754,10066.800811
891.400187,459.657299,-370.102971,9696.697840
891.400503,689.485948,-0.000000,9474.636058
891.400819,995.924147,-74.020594,9252.574275
891.401134,842.705048,-74.020594,9252.574275
891.401450,995.924147,148.041188,9178.553681
891.401766,1072.533697,-0.000000,8808.450710
891.402082,1072.533697,-0.000000,9326.594869
891.402398,766.095498,-0.000000,9400.615463
891.402713,689.485948,-222.061783,9474.636058
891.403029,383.047749,-518.144159,9474.636058
891.403345,153.219100,-518.144159,9696.697840
891.403661,153.219100,-666.185348,9548.656652
891.403976,229.828649,-740.205942,9622.677246
891.404292,76.609550,-444.123565,9918.759623
891.404608,766.095498,-592.164754,9622.677246
891.404924,383.047749,-740.205942,9474.636058
891.405240,383.047749,-518.144159,9400.615463
891.405555,995.924147,-296.082377,9326.594869
891.405871,919.314598,-370.102971,9178.553681
891.406187,842.705048,-222.061783,9030.512492
891.406503,919.314598,-148.041188,9252.574275
891.406819,1455.581446,-74.020594,9104.533087
891.407134,766.095498,-148.041188,9326.594869
891.407450,1149.143247,-74.020594,9252.574275
891.407766,689.485948,-592.164754,9400.615463
891.408082,459.657299,-518.144159,9622.677246
891.408397,689.485948,-888.247130,9474.636058
891.408713,383.047749,-962.267725,9474.636058
891.409029,383.047749,-814.226536,9844.739029
891.409345,306.438199,-1036.288319,9770.718434
891.409661,995.924147,-740.205942,9844.739029
891.409976,689.485948,-518.144159,9548.656652
891.410292,689.485948,-370.102971,9252.574275
891.410608,1072.533697,-74.020594,9104.533087
891.410924,919.314598,-0.000000,8882.471304
891.411239,995.924147,444.123565,8956.491898
891.411555,842.705048,222.061783,8660.409521
891.411871,612.876398,-0.000000,9178.553681
891.412187,229.828649,-74.020594,9178.553681
891.412503,0.000000,-518.144159,9696.697840
891.412818,0.000000,-740.205942,9918.759623
891.413134,-306.438199,-888.247130,10066.800811
891.413450,0.000000,-666.185348,10066.800811
891.413766,0.000000,-888.247130,10066.800811
891.414082,153.219100,-518.144159,9770.718434
891.414397,153.219100,-370.102971,9622.677246
891.414713,229.828649,-0.000000,9474.636058
891.415029,383.047749,222.061783,9178.553681
891.415345,306.438199,444.123565,9104.533087
891.415660,383.047749,518.144159,9030.512492
891.415976,689.485948,518.144159,9104.533087
891.416292,383.047749,370.102971,9030.512492
891.416608,0.000000,222.061783,9252.574275
891.416924,0.000000,-0.000000,9178.553681
891.417239,0.000000,-0.000000,9844.739029
891.417555,0.000000,-222.061783,9918.759623
891.417871,-229.828649,-0.000000,9548.656652
891.418187,-153.219100,-0.000000,9770.718434
891.418502,-153.219100,-0.000000,9770.718434
891.418818,0.000000,-74.020594,9770.718434
891.419134,76.609550,444.123565,9918.759623
891.419450,306.438199,296.082377,9474.636058
891.419766,153.219100,222.061783,9474.636058
891.420081,459.657299,592.164754,9474.636058
891.420397,689.485948,370.102971,9474.636058
891.420713,229.828649,296.082377,9326.594869
891.421029,76.609550,518.144159,9474.636058
891.421345,306.438199,296.082377,9548.656652
891.421660,229.828649,296.082377,9548.656652
891.421976,536.266849,222.061783,9844.739029
891.422292,229.828649,-0.000000,9844.739029
891.422608,536.266849,-222.061783,9548.656652
891.422923,153.219100,-444.123565,9770.718434
891.423239,919.314598,-518.144159,9992.780217
891.423555,383.047749,-296.082377,9844.739029
891.423871,612.876398,-296.082377,9770.718434
891.424187,995.924147,-148.041188,9622.677246
891.424502,995.924147,148.041188,9400.615463
891.424818,1149.143247,148.041188,9178.553681
891.425134,842.705048,370.102971,9252.574275
891.425450,995.924147,222.061783,8882.471304
891.425765,689.485948,296.082377,9030.512492
891.426081,459.657299,-0.000000,9252.574275
891.426397,76.609550,-666.185348,9474.636058
891.426713,0.000000,-592.164754,9770.718434
891.427029,0.000000,-888.247130,9992.780217
891.427344,0.000000,-962.267725,9918.759623
891.427660,-76.609550,-740.205942,9992.780217
891.427976,153.219100,-1036.288319,9918.759623
891.428292,229.828649,-666.185348,9548.656652
891.428608,459.657299,-296.082377,9474.636058
891.428923,689.485948,-148.041188,9104.533087
891.429239,919.314598,-0.000000,9474.636058
891.429555,1225.752797,-0.000000,8882.471304
891.429871,1225.752797,-0.000000,8808.450710
891.430186,1225.752797,-74.020594,9104.533087
891.430502,995.924147,-0.000000,8882.471304
891.430818,459.657299,-148.041188,9104.533087
891.431134,306.438199,-296.082377,9400.615463
891.431450,229.828649,-740.205942,9622.677246
891.431765,0.000000,-592.164754,9696.697840
891.432081,-153.219100,-592.164754,9696.697840
891.432397,0.000000,-888.247130,9770.718434
891.432713,0.000000,-1258.350101,9622.677246
891.433028,0.000000,-592.164754,9474.636058
891.433344,229.828649,-518.144159,9622.677246
891.433660,229.828649,-370.102971,9252.574275
891.433976,459.657299,-296.082377,9030.512492
891.434292,306.438199,-444.123565,9178.553681
891.434607,689.485948,-74.020594,8956.491898
891.434923,766.095498,-0.000000,9178.553681
891.435239,842.705048,-0.000000,9178.553681
891.435555,383.047749,-74.020594,9252.574275
891.435871,842.705048,-222.061783,9474.636058
891.436186,459.657299,-148.041188,9622.677246
891.436502,459.657299,-666.185348,9548.656652
891.436818,459.657299,-666.185348,9770.718434
891.437134,153.219100,-592.164754,9844.739029
891.437449,383.047749,-1110.308913,9548.656652
891.437765,536.266849,-814.226536,9770.718434
891.438081,459.657299,-592.164754,9844.739029
891.438397,612.876398,-296.082377,9548.656652
891.438713,995.924147,-0.000000,9400.615463
891.439028,1072.533697,-222.061783,9030.512492
891.439344,766.095498,74.020594,9104.533087
891.439660,919.314598,148.041188,9252.574275
891.439976,842.705048,370.102971,9104.533087
891.440291,689.485948,222.061783,9326.594869
891.440607,383.047749,-222.061783,9474.636058
891.440923,229.828649,-148.041188,9918.759623
891.441239,153.219100,-592.164754,9992.780217
891.441555,0.000000,-666.185348,10214.842000
891.441870,0.000000,-740.205942,10066.800811
891.442186,-306.438199,-888.247130,10140.821405
891.442502,0.000000,-740.205942,9992.780217
891.442818,459.657299,-148.041188,9770.718434
891.443134,612.876398,-0.000000,9400.615463
891.443449,766.095498,148.041188,9252.574275
891.443765,229.828649,-0.000000,9252.574275
891.444081,842.705048,666.185348,9104.533087
891.444397,842.705048,518.144159,9104.533087
891.444712,612.876398,296.082377,9178.553681
891.445028,306.438199,222.061783,9252.574275
891.445344,76.609550,-296.082377,9474.636058
891.445660,0.000000,-148.041188,9696.697840
891.445976,76.609550,-148.041188,9918.759623
891.446291,0.000000,-222.061783,9696.697840
891.446607,0.000000,-148.041188,9696.697840
891.446923,0.000000,-518.144159,9992.780217
891.447239,153.219100,-74.020594,9548.656652
891.447554,229.828649,-0.000000,9474.636058
891.447870,229.828649,-0.000000,9326.594869
891.448186,383.047749,-0.000000,9252.574275
891.448502,536.266849,-0.000000,9178.553681
891.448818,153.219100,222.061783,9104.533087
891.449133,383.047749,-0.000000,9400.615463
891.449449,306.438199,148.041188,9104.533087
891.449765,153.219100,-0.000000,9326.594869
891.450081,459.657299,-0.000000,9252.574275
891.450397,229.828649,-0.000000,9400.615463
891.450712,153.219100,-148.041188,9622.677246
891.451028,76.609550,-222.061783,9548.656652
891.451344,459.657299,-370.102971,9696.697840
891.451660,153.219100,-666.185348,9844.739029
891.451975,76.609550,-296.082377,9844.739029
891.452291,612.876398,-148.041188,9548.656652
891.452607,536.266849,-222.061783,9400.615463
891.452923,612.876398,-0.000000,9326.594869
891.453239,536.266849,222.061783,9326.594869
891.453554,766.095498,370.102971,9030.512492
891.453870,536.266849,444.123565,8956.491898
891.454186,229.828649,222.061783,9104.533087
891.454502,306.438199,-0.000000,9474.636058
891.454817,0.000000,-296.082377,9696.697840
891.455133,0.000000,-444.123565,9770.718434
891.455449,0.000000,-592.164754,9918.759623
891.455765,0.000000,-518.144159,9918.759623
891.456081,76.609550,-888.247130,9770.718434
891.456396,919.314598,-444.123565,9696.697840
891.456712,306.438199,-222.061783,9770.718434
891.457028,536.266849,-148.041188,9400.615463
891.457344,689.485948,222.061783,9030.512492
891.457660,842.705048,296.082377,9178.553681
891.457975,1149.143247,-74.020594,9252.574275
891.458291,1225.752797,222.061783,9030.512492
891.458607,766.095498,222.061783,8956.491898
891.458923,612.876398,-222.061783,9326.594869
891.459238,459.657299,-74.020594,9474.636058
891.459554,229.828649,-370.102971,9696.697840
891.459870,229.828649,-370.102971,9770.718434
891.460186,383.047749,-444.123565,9918.759623
891.460502,76.609550,-666.185348,9770.718434
891.460817,153.219100,-740.205942,9696.697840
891.461133,383.047749,-296.082377,10066.800811
891.461449,459.657299,-518.144159,9548.656652
891.461765,689.485948,-666.185348,9696.697840
891.462080,919.314598,-222.061783,9400.615463
891.462396,919.314598,-74.020594,9252.574275
891.462712,919.314598,-0.000000,9400.615463
891.463028,995.924147,-74.020594,9030.512492
891.463344,919.314598,-74.020594,9178.553681
891.463659,842.705048,-0.000000,9178.553681
891.463975,842.705048,-148.041188,9326.594869
891.464291,995.924147,-444.123565,9474.636058
891.464607,766.095498,-666.185348,9474.636058
891.464923,153.219100,-962.267725,9696.697840
891.465238,383.047749,-1036.288319,9770.718434
891.465554,229.828649,-962.267725,9918.759623
891.465870,383.047749,-1554.432478,9770.718434
891.466186,383.047749,-1332.370696,9696.697840
891.466501,459.657299,-740.205942,9474.636058
891.466817,689.485948,-444.123565,9400.615463
891.467133,919.314598,-148.041188,9178.553681
891.467449,995.924147,-74.020594,9178.553681
891.467765,995.924147,-0.000000,8956.491898
891.468080,842.705048,-0.000000,8882.471304
891.468396,766.095498,-0.000000,8808.450710
891.468711,766.095498,-370.102971,9252.574275
891.469027,0.000000,-444.123565,9622.677246
891.469342,-153.219100,-962.267725,9622.677246
891.469658,-383.047749,-1110.308913,9770.718434
891.469974,-306.438199,-814.226536,9918.759623
891.470290,-459.657299,-888.247130,9844.739029
891.470606,0.000000,-814.226536,9622.677246
891.470921,0.000000,-222.061783,9696.697840
891.471237,459.657299,-0.000000,9252.574275
891.471553,229.828649,-0.000000,9030.512492
891.471869,536.266849,-0.000000,9252.574275
891.472185,766.095498,296.082377,9030.512492
891.472500,689.485948,222.061783,8882.471304
891.472816,383.047749,296.082377,9030.512492
891.473132,536.266849,-0.000000,9252.574275
891.473448,-153.219100,-370.102971,9474.636058
891.473764,229.828649,-74.020594,9474.636058
891.474079,-153.219100,-222.061783,9474.636058
891.474395,-383.047749,-370.102971,9696.697840
891.474711,0.000000,-74.020594,9992.780217
891.475027,-229.828649,-444.123565,9548.656652
891.475343,0.000000,-0.000000,9622.677246
