#time,accel_x,accel_y,accel_z
861.286827,-689.485948,-0.000000,9104.533087
861.287143,-612.876398,-0.000000,9252.574275
861.287459,76.609550,-444.123565,9252.574275
861.287775,-383.047749,-74.020594,9474.636058
861.288090,-536.266849,-0.000000,9474.636058
861.288406,-306.438199,-148.041188,9400.615463
861.288722,-383.047749,148.041188,9178.553681
861.289038,0.000000,444.123565,9178.553681
861.289354,153.219100,518.144159,9030.512492
861.289670,306.438199,666.185348,9030.512492
861.289985,766.095498,518.144159,9030.512492
861.290301,459.657299,296.082377,9104.533087
861.290617,919.314598,-0.000000,9178.553681
861.290933,995.924147,222.061783,9326.594869
861.291249,766.095498,370.102971,9326.594869
861.291564,766.095498,666.185348,9326.594869
861.291880,766.095498,888.247130,9548.656652
861.292196,1149.143247,740.205942,9696.697840
861.292512,459.657299,814.226536,9474.636058
861.292828,153.219100,814.226536,9400.615463
861.293144,76.609550,814.226536,9548.656652
861.293459,459.657299,370.102971,9548.656652
861.293775,76.609550,148.041188,9474.636058
861.294091,0.000000,370.102971,9474.636058
861.294407,229.828649,148.041188,9844.739029
861.294723,76.609550,444.123565,9770.718434
861.295038,76.609550,592.164754,9770.718434
861.295354,306.438199,1110.308913,9474.636058
861.295670,306.438199,814.226536,9474.636058
861.295986,306.438199,888.247130,9548.656652
861.296302,459.657299,962.267725,9400.615463
861.296618,612.876398,148.041188,9548.656652
861.296933,383.047749,-0.000000,10066.800811
861.297249,153.219100,-148.041188,10140.821405
861.297565,153.219100,-74.020594,10140.821405
861.297881,0.000000,-74.020594,10214.842000
861.298197,229.828649,-74.020594,10140.821405
861.298512,383.047749,-0.000000,9918.759623
861.298828,383.047749,74.020594,9696.697840
861.299144,383.047749,592.164754,9400.615463
861.299460,612.876398,592.164754,8956.491898
861.299776,689.485948,296.082377,9104.533087
861.300092,229.828649,740.205942,9326.594869
861.300407,0.000000,296.082377,9474.636058
861.300723,0.000000,148.041188,9548.656652
861.301039,-306.438199,-0.000000,9696.697840
861.301355,-306.438199,-518.144159,10288.862594
861.301671,-459.657299,-222.061783,9770.718434
861.301986,-612.876398,-222.061783,9992.780217
861.302302,-459.657299,-222.061783,9844.739029
861.302618,0.000000,-0.000000,9548.656652
861.302934,-383.047749,-148.041188,9474.636058
861.303250,-306.438199,-370.102971,9548.656652
861.303565,-306.438199,-148.041188,9474.636058
861.303881,0.000000,-148.041188,9326.594869
861.304197,0.000000,-0.000000,9326.594869
861.304513,-306.438199,74.020594,9400.615463
861.304829,0.000000,74.020594,9178.553681
861.305145,0.000000,148.041188,8956.491898
861.305460,0.000000,-0.000000,9030.512492
861.305776,0.000000,148.041188,9030.512492
861.306092,0.000000,-222.061783,9178.553681
861.306408,76.609550,-444.123565,9178.553681
861.306724,0.000000,-296.082377,9326.594869
861.307039,-306.438199,-592.164754,9326.594869
861.307355,0.000000,-740.205942,9474.636058
861.307671,-306.438199,-740.205942,9474.636058
861.307987,-306.438199,-814.226536,9474.636058
861.308303,0.000000,-740.205942,9622.677246
861.308619,0.000000,-666.185348,9622.677246
861.308934,153.219100,-814.226536,9326.594869
861.309250,153.219100,-444.123565,9400.615463
861.309566,383.047749,-444.123565,9178.553681
861.309882,766.095498,-518.144159,9326.594869
861.310198,995.924147,-296.082377,9400.615463
861.310513,919.314598,-222.061783,8882.471304
861.310829,995.924147,-148.041188,9104.533087
861.311145,919.314598,-296.082377,8956.491898
861.311461,995.924147,-222.061783,8956.491898
861.311777,1378.971896,-148.041188,9326.594869
861.312093,1225.752797,-0.000000,9474.636058
861.312408,1378.971896,-148.041188,9252.574275
861.312724,1455.581446,-0.000000,9548.656652
861.313040,689.485948,-0.000000,10140.821405
861.313356,842.705048,-0.000000,9770.718434
861.313672,919.314598,-0.000000,9844.739029
861.313988,919.314598,296.082377,9770.718434
861.314304,995.924147,-0.000000,9548.656652
861.314620,689.485948,-0.000000,9844.739029
861.314936,689.485948,296.082377,9696.697840
861.315252,689.485948,-0.000000,9474.636058
861.315568,766.095498,444.123565,9622.677246
861.315884,1072.533697,222.061783,9548.656652
861.316200,1225.752797,222.061783,9400.615463
861.316516,1378.971896,370.102971,9474.636058
861.316832,995.924147,222.061783,9474.636058
861.317147,842.705048,444.123565,9696.697840
861.317463,919.314598,518.144159,9548.656652
861.317779,306.438199,-0.000000,9770.718434
861.318095,536.266849,370.102971,9548.656652
861.318411,459.657299,296.082377,9548.656652
861.318727,459.657299,-0.000000,9622.677246
861.319043,229.828649,-0.000000,9696.697840
861.319359,0.000000,-444.123565,9844.739029
861.319675,76.609550,-444.123565,9844.739029
861.319991,0.000000,-518.144159,9770.718434
861.320307,76.609550,-518.144159,9696.697840
861.320623,153.219100,-592.164754,9696.697840
861.320939,0.000000,-370.102971,9844.739029
861.321255,0.000000,-666.185348,9622.677246
861.321571,306.438199,-518.144159,9474.636058
861.321887,229.828649,-296.082377,9474.636058
861.322203,459.657299,-666.185348,9400.615463
861.322518,306.438199,-518.144159,9326.594869
861.322834,689.485948,-148.041188,9326.594869
861.323150,383.047749,-296.082377,9474.636058
861.323466,306.438199,-518.144159,9252.574275
861.323782,229.828649,-444.123565,9326.594869
861.324098,229.828649,-518.144159,9252.574275
861.324414,153.219100,-296.082377,9178.553681
861.324730,0.000000,-370.102971,9474.636058
861.325046,306.438199,-444.123565,9252.574275
861.325362,306.438199,-0.000000,9178.553681
861.325678,153.219100,-222.061783,9326.594869
861.325994,306.438199,-296.082377,9326.594869
861.326310,229.828649,-74.020594,9252.574275
861.326626,459.657299,-222.061783,9104.533087
861.326942,306.438199,-518.144159,8956.491898
861.327258,383.047749,-0.000000,9474.636058
861.327574,459.657299,-0.000000,9104.533087
861.327889,536.266849,-0.000000,8956.491898
861.328205,612.876398,-0.000000,9178.553681
861.328521,1149.143247,-0.000000,9252.574275
861.328837,766.095498,-74.020594,9400.615463
861.329153,766.095498,-74.020594,9252.574275
861.329469,842.705048,-296.082377,9104.533087
861.329785,842.705048,-148.041188,9252.574275
861.330101,842.705048,-296.082377,9326.594869
861.330417,536.266849,148.041188,9548.656652
861.330733,383.047749,-0.000000,9696.697840
861.331049,612.876398,-0.000000,9696.697840
861.331365,383.047749,-74.020594,9696.697840
861.331681,689.485948,-296.082377,9548.656652
861.331997,689.485948,-0.000000,9696.697840
861.332313,689.485948,-148.041188,9696.697840
861.332629,689.485948,-74.020594,9622.677246
861.332945,612.876398,-74.020594,9844.739029
861.333261,306.438199,-0.000000,9844.739029
861.333576,459.657299,-370.102971,9696.697840
861.333892,689.485948,-148.041188,9548.656652
861.334208,689.485948,-74.020594,9844.739029
861.334524,689.485948,-296.082377,9696.697840
861.334840,689.485948,-518.144159,9696.697840
861.335156,383.047749,-74.020594,9622.677246
861.335472,383.047749,-74.020594,9474.636058
861.335788,306.438199,-74.020594,9918.759623
861.336104,459.657299,-222.061783,9844.739029
861.336420,536.266849,-148.041188,9622.677246
861.336736,459.657299,-0.000000,9548.656652
861.337052,459.657299,-148.041188,9622.677246
861.337368,383.047749,-148.041188,9548.656652
861.337684,383.047749,-148.041188,9474.636058
861.338000,229.828649,-0.000000,9696.697840
861.338316,306.438199,-222.061783,9548.656652
861.338632,536.266849,-296.082377,9474.636058
861.338947,459.657299,-148.041188,9474.636058
861.339263,0.000000,-0.000000,9178.553681
861.339579,0.000000,-0.000000,9474.636058
861.339895,842.705048,222.061783,9104.533087
861.340211,459.657299,-0.000000,9178.553681
861.340527,383.047749,-74.020594,9252.574275
861.340843,459.657299,-222.061783,9104.533087
861.341159,383.047749,-74.020594,9326.594869
861.341475,0.000000,-296.082377,9326.594869
861.341791,-229.828649,-592.164754,9252.574275
861.342107,-306.438199,-592.164754,9474.636058
861.342423,-76.609550,-518.144159,9474.636058
861.342739,-306.438199,-888.247130,9400.615463
861.343055,-383.047749,-740.205942,9622.677246
861.343371,-229.828649,-814.226536,9326.594869
861.343687,-306.438199,-814.226536,9252.574275
861.344003,-306.438199,-814.226536,9548.656652
861.344318,-229.828649,-592.164754,9030.512492
861.344634,229.828649,-296.082377,9104.533087
861.344950,229.828649,-296.082377,9178.553681
861.345266,306.438199,-296.082377,9030.512492
861.345582,919.314598,-444.123565,8956.491898
861.345898,76.609550,-444.123565,9030.512492
861.346214,306.438199,-370.102971,8882.471304
861.346530,153.219100,-370.102971,9400.615463
861.346846,229.828649,-370.102971,9474.636058
861.347162,229.828649,-222.061783,9474.636058
861.347478,0.000000,-148.041188,9548.656652
861.347794,0.000000,-148.041188,9400.615463
861.348110,76.609550,-148.041188,9474.636058
861.348426,689.485948,-74.020594,9548.656652
861.348742,229.828649,-370.102971,9548.656652
861.349058,459.657299,-222.061783,9474.636058
861.349374,306.438199,-148.041188,9400.615463
861.349689,229.828649,-0.000000,9474.636058
861.350005,459.657299,-0.000000,9400.615463
861.350321,536.266849,-74.020594,9326.594869
861.350637,383.047749,222.061783,9474.636058
861.350953,766.095498,296.082377,9474.636058
861.351269,689.485948,296.082377,9548.656652
861.351585,766.095498,-0.000000,9474.636058
861.351901,766.095498,148.041188,9622.677246
861.352217,766.095498,296.082377,9622.677246
861.352533,612.876398,-0.000000,9622.677246
861.352849,383.047749,148.041188,9844.739029
861.353165,919.314598,-74.020594,9918.759623
861.353481,536.266849,-148.041188,9548.656652
861.353797,459.657299,-0.000000,9918.759623
861.354113,536.266849,148.041188,9992.780217
861.354429,459.657299,-0.000000,9696.697840
861.354745,306.438199,222.061783,9844.739029
861.355060,383.047749,222.061783,10214.842000
861.355376,842.705048,-0.000000,9844.739029
861.355692,612.876398,-0.000000,9548.656652
861.356008,689.485948,-222.061783,9474.636058
861.356324,689.485948,-74.020594,9622.677246
861.356640,306.438199,-74.020594,9548.656652
861.356956,536.266849,-0.000000,9622.677246
861.357272,306.438199,-296.082377,9548.656652
861.357588,1072.533697,-518.144159,9696.697840
861.357904,536.266849,-370.102971,9474.636058
861.358220,229.828649,-592.164754,9400.615463
861.358536,306.438199,-370.102971,9696.697840
861.358852,459.657299,-518.144159,9474.636058
861.359168,383.047749,-592.164754,9474.636058
861.359484,383.047749,-148.041188,9252.574275
861.359800,459.657299,-74.020594,9252.574275
861.360116,536.266849,-148.041188,9252.574275
861.360431,306.438199,-148.041188,9178.553681
861.360747,229.828649,-0.000000,9252.574275
861.361063,76.609550,-148.041188,9178.553681
861.361379,536.266849,-222.061783,8956.491898
861.361695,229.828649,-370.102971,9326.594869
861.362011,229.828649,-370.102971,9326.594869
861.362327,459.657299,-296.082377,9178.553681
861.362643,536.266849,-74.020594,9474.636058
861.362959,383.047749,-148.041188,9252.574275
861.363275,229.828649,-222.061783,9252.574275
861.363591,536.266849,-296.082377,9474.636058
861.363907,612.876398,-148.041188,9104.533087
861.364223,689.485948,-148.041188,9178.553681
861.364539,383.047749,-148.041188,9252.574275
861.364855,306.438199,-148.041188,9030.512492
861.365171,689.485948,-222.061783,9474.636058
861.365487,536.266849,-74.020594,9252.574275
861.365802,383.047749,-518.144159,9178.553681
861.366118,306.438199,-296.082377,9326.594869
861.366434,383.047749,-148.041188,9474.636058
861.366750,153.219100,-222.061783,9400.615463
861.367066,383.047749,-296.082377,9622.677246
861.367382,229.828649,-296.082377,9474.636058
861.367698,76.609550,-370.102971,9548.656652
861.368014,536.266849,-222.061783,9844.739029
861.368330,76.609550,-222.061783,9696.697840
861.368646,536.266849,-296.082377,9696.697840
861.368962,689.485948,-148.041188,9770.718434
861.369278,536.266849,-0.000000,9474.636058
861.369594,995.924147,-148.041188,9474.636058
861.369910,459.657299,-148.041188,9696.697840
861.370226,612.876398,-0.000000,9548.656652
861.370542,536.266849,-222.061783,9696.697840
861.370858,766.095498,-0.000000,9844.739029
861.371173,689.485948,222.061783,9622.677246
861.371489,612.876398,-444.123565,9918.759623
861.371805,383.047749,-0.000000,9696.697840
861.372121,383.047749,-296.082377,9844.739029
861.372437,689.485948,-222.061783,9696.697840
861.372753,459.657299,-148.041188,9622.677246
861.373069,842.705048,-296.082377,9918.759623
861.373385,766.095498,-296.082377,9622.677246
861.373701,766.095498,-0.000000,9696.697840
861.374017,919.314598,-74.020594,9548.656652
861.374333,842.705048,-222.061783,9696.697840
861.374649,1455.581446,-74.020594,9622.677246
861.374965,1302.362347,-0.000000,9400.615463
861.375281,689.485948,-222.061783,9178.553681
861.375597,766.095498,-74.020594,9474.636058
861.375913,689.485948,-148.041188,9326.594869
861.376229,459.657299,-296.082377,9252.574275
861.376545,383.047749,-0.000000,9400.615463
861.376860,0.000000,-370.102971,9474.636058
861.377176,76.609550,-444.123565,9474.636058
861.377492,76.609550,-666.185348,9548.656652
861.377808,383.047749,-740.205942,9474.636058
861.378124,0.000000,-666.185348,9622.677246
861.378440,229.828649,-370.102971,9696.697840
861.378756,153.219100,-666.185348,9252.574275
861.379072,306.438199,-444.123565,9400.615463
861.379388,383.047749,-370.102971,9400.615463
861.379704,153.219100,-296.082377,9104.533087
861.380020,383.047749,-296.082377,9178.553681
861.380336,383.047749,-222.061783,9104.533087
861.380652,229.828649,-74.020594,8882.471304
861.380968,689.485948,-592.164754,9252.574275
861.381284,383.047749,-370.102971,9030.512492
861.381600,229.828649,-222.061783,9400.615463
861.381916,229.828649,-444.123565,9252.574275
861.382231,0.000000,-296.082377,9474.636058
861.382547,76.609550,-592.164754,9474.636058
861.382863,0.000000,-222.061783,9474.636058
861.383179,0.000000,-222.061783,9400.615463
861.383495,0.000000,-296.082377,9326.594869
861.383811,229.828649,-296.082377,9252.574275
861.384127,459.657299,-148.041188,9400.615463
861.384443,153.219100,-370.102971,9252.574275
861.384759,0.000000,-0.000000,9548.656652
861.385075,76.609550,-148.041188,9400.615463
861.385391,459.657299,-0.000000,9400.615463
861.385707,995.924147,296.082377,9326.594869
861.386023,306.438199,148.041188,9474.636058
861.386339,306.438199,74.020594,9548.656652
861.386655,383.047749,148.041188,9548.656652
861.386971,459.657299,370.102971,9474.636058
861.387287,306.438199,-370.102971,9844.739029
861.387602,612.876398,-0.000000,9696.697840
861.387918,383.047749,-0.000000,9474.636058
861.388234,459.657299,-74.020594,9844.739029
861.388550,306.438199,-0.000000,9770.718434
861.388866,383.047749,-444.123565,9474.636058
861.389182,459.657299,-0.000000,9622.677246
861.389498,306.438199,-0.000000,9770.718434
861.389814,153.219100,-0.000000,9918.759623
861.390130,536.266849,-0.000000,9696.697840
861.390446,229.828649,-74.020594,9918.759623
861.390762,459.657299,-0.000000,9770.718434
861.391078,383.047749,-148.041188,9696.697840
861.391394,612.876398,-0.000000,9696.697840
861.391710,459.657299,-222.061783,9770.718434
861.392026,383.047749,-0.000000,9696.697840
861.392342,459.657299,-0.000000,9770.718434
861.392658,383.047749,-148.041188,9474.636058
861.392973,306.438199,-0.000000,9844.739029
861.393289,383.047749,-296.082377,9548.656652
861.393605,459.657299,-0.000000,9548.656652
861.393921,229.828649,-148.041188,9622.677246
861.394237,536.266849,-148.041188,9474.636058
861.394553,229.828649,-74.020594,9400.615463
861.394869,612.876398,-740.205942,9622.677246
861.395185,459.657299,-0.000000,9474.636058
861.395501,229.828649,-74.020594,9474.636058
861.395817,229.828649,-74.020594,9474.636058
861.396133,306.438199,-74.020594,9400.615463
861.396449,306.438199,-370.102971,9400.615463
861.396765,76.609550,-74.020594,8956.491898
861.397081,153.219100,-518.144159,9400.615463
861.397397,306.438199,-0.000000,9326.594869
861.397713,383.047749,-296.082377,9178.553681
861.398029,306.438199,-222.061783,9474.636058
861.398344,229.828649,-296.082377,9252.574275
861.398660,153.219100,-370.102971,9400.615463
861.398976,383.047749,-222.061783,9252.574275
861.399292,229.828649,-518.144159,9104.533087
861.399608,229.828649,-0.000000,9326.594869
861.399924,536.266849,-296.082377,9252.574275
861.400240,76.609550,-222.061783,9178.553681
861.400556,229.828649,-296.082377,9252.574275
861.400872,153.219100,-148.041188,9326.594869
861.401188,306.438199,-370.102971,9252.574275
861.401504,306.438199,-296.082377,9326.594869
861.401820,76.609550,-74.020594,9326.594869
861.402136,153.219100,-444.123565,9474.636058
861.402452,153.219100,-370.102971,9400.615463
861.402768,612.876398,-74.020594,9548.656652
861.403084,383.047749,-148.041188,9474.636058
861.403400,536.266849,-0.000000,9400.615463
861.403715,383.047749,-296.082377,9400.615463
861.404031,383.047749,-148.041188,9622.677246
861.404347,459.657299,-222.061783,9326.594869
861.404663,459.657299,-74.020594,9548.656652
861.404979,383.047749,-370.102971,9474.636058
861.405295,536.266849,-148.041188,9474.636058
861.405611,536.266849,-222.061783,9104.533087
861.405927,229.828649,-370.102971,9474.636058
861.406243,459.657299,-148.041188,9992.780217
861.406559,153.219100,-296.082377,9696.697840
861.406875,536.266849,-222.061783,9622.677246
861.407191,689.485948,-296.082377,9918.759623
861.407507,536.266849,-222.061783,9696.697840
861.407823,612.876398,-296.082377,9548.656652
861.408139,766.095498,-222.061783,9770.718434
861.408455,536.266849,-222.061783,9622.677246
861.408771,612.876398,-222.061783,9622.677246
861.409086,842.705048,-370.102971,9770.718434
861.409402,919.314598,-148.041188,9770.718434
861.409718,689.485948,-296.082377,9548.656652
861.410034,995.924147,-296.082377,9548.656652
861.410350,1149.143247,-592.164754,9252.574275
861.410666,1149.143247,-74.020594,9474.636058
861.410982,919.314598,-74.020594,9474.636058
861.411298,919.314598,-74.020594,9252.574275
861.411614,766.095498,-74.020594,9400.615463
861.411930,689.485948,222.061783,9400.615463
861.412246,536.266849,-296.082377,9474.636058
861.412562,689.485948,-370.102971,9474.636058
861.412878,229.828649,-370.102971,9548.656652
861.413194,153.219100,-666.185348,9622.677246
861.413510,0.000000,-592.164754,9844.739029
861.413831,0.000000,-666.185348,9474.636058
861.414146,153.219100,-666.185348,9548.656652
861.414462,229.828649,-296.082377,9474.636058
861.414778,459.657299,-518.144159,9474.636058
861.415093,383.047749,-222.061783,9326.594869
861.415409,536.266849,-222.061783,9252.574275
861.415725,229.828649,-148.041188,9252.574275
861.416040,536.266849,-444.123565,9030.512492
861.416356,612.876398,-148.041188,9030.512492
861.416672,383.047749,-296.082377,9104.533087
861.416987,153.219100,-444.123565,9326.594869
861.417303,383.047749,-74.020594,9252.574275
861.417619,0.000000,-222.061783,9104.533087
861.417934,0.000000,-296.082377,9104.533087
861.418250,76.609550,-0.000000,9474.636058
861.418566,153.219100,-148.041188,9474.636058
861.418881,76.609550,-370.102971,9326.594869
861.419197,0.000000,-222.061783,9474.636058
861.419513,0.000000,-592.164754,9548.656652
861.419828,153.219100,-148.041188,9326.594869
861.420144,306.438199,-74.020594,9400.615463
861.420460,229.828649,-74.020594,9548.656652
861.420776,229.828649,-0.000000,9474.636058
861.421091,995.924147,-0.000000,9474.636058
861.421407,383.047749,-148.041188,9178.553681
861.421723,766.095498,-0.000000,9252.574275
861.422038,459.657299,222.061783,9474.636058
861.422354,612.876398,148.041188,9474.636058
861.422670,919.314598,-0.000000,9474.636058
861.422985,459.657299,-0.000000,9622.677246
861.423301,612.876398,-148.041188,9622.677246
861.423617,459.657299,-0.000000,9844.739029
861.423932,766.095498,-0.000000,9770.718434
861.424248,536.266849,-0.000000,9622.677246
861.424564,689.485948,-74.020594,9844.739029
861.424879,306.438199,-148.041188,9844.739029
861.425195,536.266849,-0.000000,9918.759623
861.425511,612.876398,-222.061783,9844.739029
861.425826,459.657299,-74.020594,9696.697840
861.426142,383.047749,-0.000000,9696.697840
861.426458,689.485948,148.041188,9844.739029
861.426774,689.485948,-0.000000,9548.656652
861.427089,536.266849,222.061783,9622.677246
861.427405,306.438199,-0.000000,9770.718434
861.427721,536.266849,222.061783,9622.677246
861.428036,383.047749,-0.000000,9548.656652
861.428352,919.314598,-222.061783,9548.656652
861.428668,766.095498,-0.000000,9622.677246
861.428983,689.485948,-0.000000,9548.656652
861.429299,612.876398,-74.020594,9696.697840
861.429615,536.266849,-74.020594,9622.677246
861.429930,383.047749,-74.020594,9770.718434
861.430246,689.485948,-0.000000,9400.615463
861.430562,383.047749,-0.000000,9548.656652
861.430877,459.657299,-148.041188,9400.615463
861.431193,459.657299,-0.000000,9548.656652
861.431509,612.876398,-148.041188,9474.636058
861.431824,612.876398,-222.061783,9178.553681
861.432140,383.047749,-222.061783,9400.615463
861.432456,459.657299,-296.082377,9326.594869
861.432771,229.828649,-518.144159,9474.636058
861.433087,383.047749,-296.082377,9326.594869
861.433403,153.219100,-222.061783,9474.636058
861.433719,76.609550,-222.061783,9252.574275
861.434034,153.219100,-222.061783,9474.636058
861.434350,459.657299,-148.041188,9104.533087
861.434666,306.438199,-518.144159,8808.450710
861.434981,459.657299,-74.020594,9030.512492
861.435297,76.609550,-222.061783,9252.574275
861.435613,306.438199,-222.061783,9252.574275
861.435928,306.438199,-148.041188,9326.594869
861.436244,153.219100,-222.061783,9400.615463
861.436560,153.219100,-148.041188,9474.636058
861.436875,153.219100,-444.123565,9178.553681
861.437191,0.000000,-148.041188,9474.636058
861.437507,0.000000,-296.082377,9474.636058
861.437822,76.609550,-222.061783,9178.553681
861.438138,-153.219100,-370.102971,9400.615463
861.438454,76.609550,-148.041188,9400.615463
861.438769,76.609550,-74.020594,9474.636058
861.439085,842.705048,-74.020594,9474.636058
861.439401,153.219100,-222.061783,9474.636058
861.439716,229.828649,-296.082377,9474.636058
861.440032,306.438199,-0.000000,9548.656652
861.440348,229.828649,-74.020594,9474.636058
861.440664,383.047749,-0.000000,9548.656652
861.440979,459.657299,-0.000000,9844.739029
861.441295,76.609550,-222.061783,9474.636058
861.441611,76.609550,-0.000000,9548.656652
861.441926,383.047749,-0.000000,9548.656652
861.442242,689.485948,-296.082377,9548.656652
861.442558,383.047749,-0.000000,9548.656652
861.442873,536.266849,-148.041188,9696.697840
861.443189,536.266849,-74.020594,9844.739029
861.443505,536.266849,-74.020594,9696.697840
861.443820,1072.533697,-222.061783,9844.739029
861.444136,459.657299,-148.041188,9844.739029
861.444452,766.095498,-0.000000,9622.677246
861.444767,766.095498,-74.020594,9918.759623
861.445083,842.705048,-222.061783,9474.636058
861.445399,842.705048,-222.061783,9696.697840
861.445714,842.705048,-0.000000,9622.677246
861.446030,766.095498,-148.041188,9400.615463
861.446346,766.095498,-0.000000,9548.656652
861.446662,689.485948,-74.020594,9474.636058
861.446977,306.438199,-222.061783,9178.553681
861.447293,459.657299,-296.082377,9474.636058
861.447609,76.609550,-370.102971,9474.636058
861.447924,153.219100,-444.123565,9696.697840
861.448240,76.609550,-518.144159,9770.718434
861.448556,76.609550,-666.185348,9400.615463
861.448871,229.828649,-296.082377,9696.697840
861.449187,153.219100,-444.123565,9474.636058
861.449503,306.438199,-370.102971,9400.615463
861.449818,306.438199,-222.061783,9252.574275
861.450134,536.266849,-740.205942,9252.574275
861.450450,383.047749,-370.102971,9400.615463
861.450765,383.047749,-296.082377,9326.594869
861.451081,383.047749,-74.020594,9252.574275
861.451397,306.438199,-370.102971,9030.512492
861.451712,383.047749,-370.102971,9548.656652
861.452028,153.219100,-296.082377,9326.594869
861.452344,153.219100,-370.102971,9474.636058
861.452659,76.609550,-370.102971,9400.615463
861.452975,0.000000,-592.164754,9326.594869
861.453291,536.266849,-444.123565,9400.615463
861.453607,0.000000,-592.164754,9548.656652
861.453922,0.000000,-370.102971,9474.636058
861.454238,76.609550,-296.082377,9474.636058
861.454554,229.828649,-370.102971,9252.574275
861.454869,306.438199,-518.144159,9326.594869
861.455185,229.828649,-222.061783,9400.615463
861.455501,459.657299,-296.082377,9326.594869
861.455816,383.047749,-222.061783,9252.574275
861.456132,1072.533697,-592.164754,9326.594869
861.456448,229.828649,-296.082377,9474.636058
861.456763,689.485948,-74.020594,9178.553681
861.457079,459.657299,-296.082377,9326.594869
861.457395,383.047749,-148.041188,9474.636058
861.457710,536.266849,-74.020594,9400.615463
861.458026,612.876398,-74.020594,9474.636058
861.458342,536.266849,-74.020594,9474.636058
861.458657,459.657299,-222.061783,9400.615463
861.458973,459.657299,-0.000000,9474.636058
861.459289,612.876398,-0.000000,9696.697840
861.459604,689.485948,-148.041188,9696.697840
861.459920,919.314598,-74.020594,9622.677246
861.460236,306.438199,-370.102971,9696.697840
861.460552,689.485948,-222.061783,9548.656652
861.460867,612.876398,-74.020594,10140.821405
861.461183,459.657299,-222.061783,9770.718434
861.461499,612.876398,-0.000000,9696.697840
861.461814,536.266849,-74.020594,9400.615463
861.462130,689.485948,-0.000000,9548.656652
861.462446,995.924147,-74.020594,9548.656652
861.462761,612.876398,-148.041188,9548.656652
861.463077,842.705048,-0.000000,9474.636058
861.463393,766.095498,-296.082377,9474.636058
861.463708,612.876398,-0.000000,9770.718434
861.464024,612.876398,-370.102971,9770.718434
861.464340,842.705048,-148.041188,9622.677246
861.464655,766.095498,-0.000000,9770.718434
861.464971,459.657299,-296.082377,9622.677246
861.465287,229.828649,-0.000000,9474.636058
861.465602,1072.533697,-74.020594,9548.656652
861.465918,766.095498,-0.000000,9474.636058
861.466234,689.485948,-0.000000,9474.636058
861.466550,612.876398,148.041188,9326.594869
861.466865,842.705048,-0.000000,9252.574275
861.467181,612.876398,-0.000000,9474.636058
861.467497,536.266849,-0.000000,9400.615463
861.467812,459.657299,-296.082377,9548.656652
861.468128,536.266849,-74.020594,9400.615463
861.468444,383.047749,-296.082377,9474.636058
861.468759,76.609550,-296.082377,9252.574275
861.469075,229.828649,-296.082377,9400.615463
861.469391,536.266849,-74.020594,9400.615463
861.469706,229.828649,-148.041188,9474.636058
861.470022,536.266849,-148.041188,9622.677246
861.470338,383.047749,-222.061783,9252.574275
861.470653,306.438199,-296.082377,9252.574275
861.470969,153.219100,-148.041188,9178.553681
861.471285,153.219100,-74.020594,9326.594869
861.471600,383.047749,-148.041188,9326.594869
861.471916,0.000000,-444.123565,9326.594869
861.472232,0.000000,-296.082377,9474.636058
861.472547,306.438199,-148.041188,9252.574275
861.472863,306.438199,-222.061783,9548.656652
861.473179,76.609550,-444.123565,9474.636058
861.473495,76.609550,-148.041188,9474.636058
861.473810,383.047749,-370.102971,9474.636058
861.474126,306.438199,-222.061783,9548.656652
861.474442,612.876398,-370.102971,9474.636058
861.474757,459.657299,-0.000000,9696.697840
861.475073,612.876398,-74.020594,9326.594869
861.475389,612.876398,-0.000000,9252.574275
861.475704,306.438199,-296.082377,9400.615463
861.476020,766.095498,-0.000000,9548.656652
861.476336,459.657299,-0.000000,9474.636058
861.476651,459.657299,-0.000000,9474.636058
861.476967,459.657299,-296.082377,9474.636058
861.477283,459.657299,-0.000000,9622.677246
861.477598,612.876398,-370.102971,9622.677246
861.477914,459.657299,-148.041188,9548.656652
861.478230,536.266849,-0.000000,9770.718434
861.478545,842.705048,-0.000000,9548.656652
861.478861,536.266849,-148.041188,9548.656652
861.479177,766.095498,-0.000000,9622.677246
861.479493,612.876398,-222.061783,9770.718434
861.479808,766.095498,-148.041188,9696.697840
861.480124,612.876398,-148.041188,9622.677246
861.480440,919.314598,-0.000000,9696.697840
861.480755,766.095498,-148.041188,9548.656652
861.481071,689.485948,-148.041188,9474.636058
861.481387,995.924147,-0.000000,9474.636058
861.481702,766.095498,-0.000000,9474.636058
861.482018,766.095498,-0.000000,9474.636058
861.482334,612.876398,-0.000000,9326.594869
861.482649,689.485948,-0.000000,9474.636058
861.482965,229.828649,-148.041188,9548.656652
861.483281,229.828649,-370.102971,9696.697840
861.483596,153.219100,-370.102971,9770.718434
861.483912,76.609550,-740.205942,9696.697840
861.484228,153.219100,-666.185348,9918.759623
861.484543,306.438199,-592.164754,9548.656652
861.484859,0.000000,-296.082377,9696.697840
861.485175,76.609550,-444.123565,9622.677246
861.485490,383.047749,-74.020594,9252.574275
861.485806,153.219100,-148.041188,9326.594869
861.486122,383.047749,-74.020594,9252.574275
861.486438,612.876398,-148.041188,9326.594869
861.486753,689.485948,-0.000000,9548.656652
861.487069,383.047749,-222.061783,9104.533087
861.487385,459.657299,-296.082377,9104.533087
861.487700,306.438199,-296.082377,9252.574275
861.488016,76.609550,-222.061783,9252.574275
861.488332,229.828649,-0.000000,9770.718434
861.488647,306.438199,-370.102971,9252.574275
861.488963,-306.438199,-592.164754,9326.594869
861.489279,-153.219100,-296.082377,9326.594869
861.489594,76.609550,-370.102971,9252.574275
861.489910,0.000000,-518.144159,9474.636058
861.490226,153.219100,-222.061783,9326.594869
861.490541,76.609550,-222.061783,9400.615463
861.490857,229.828649,-148.041188,9474.636058
861.491173,459.657299,-148.041188,9326.594869
861.491488,153.219100,-592.164754,9252.574275
861.491804,459.657299,-148.041188,9178.553681
861.492120,0.000000,-296.082377,9326.594869
861.492435,459.657299,-74.020594,9400.615463
861.492751,383.047749,-0.000000,9252.574275
861.493067,306.438199,-0.000000,9400.615463
861.493383,459.657299,-0.000000,9326.594869
861.493698,459.657299,-0.000000,9622.677246
861.494014,229.828649,-148.041188,9400.615463
861.494330,229.828649,-148.041188,9622.677246
861.494645,76.609550,-148.041188,9770.718434
861.494961,153.219100,-518.144159,9696.697840
861.495277,153.219100,-0.000000,9918.759623
861.495592,153.219100,-74.020594,9696.697840
861.495908,536.266849,-222.061783,9474.636058
861.496224,536.266849,-444.123565,9992.780217
861.496539,612.876398,-74.020594,9696.697840
861.496855,383.047749,-222.061783,9622.677246
861.497171,612.876398,-222.061783,9844.739029
861.497486,689.485948,-148.041188,9474.636058
861.497802,536.266849,-0.000000,9918.759623
861.498118,842.705048,-74.020594,9696.697840
861.498433,689.485948,-0.000000,9474.636058
861.498749,842.705048,-148.041188,9474.636058
861.499065,995.924147,148.041188,9622.677246
861.499381,919.314598,-0.000000,9622.677246
861.499696,689.485948,-74.020594,9548.656652
861.500012,766.095498,-148.041188,9474.636058
861.500328,536.266849,-148.041188,9474.636058
861.500643,766.095498,-148.041188,9696.697840
861.500959,536.266849,-74.020594,9474.636058
861.501275,383.047749,-444.123565,9548.656652
861.501590,229.828649,-148.041188,9474.636058
861.501906,229.828649,-0.000000,9474.636058
861.502222,612.876398,-222.061783,9548.656652
861.502537,383.047749,-148.041188,9548.656652
861.502853,383.047749,-222.061783,9474.636058
861.503169,459.657299,-222.061783,9252.574275
861.503484,306.438199,-296.082377,9400.615463
861.503800,459.657299,-296.082377,9400.615463
861.504116,229.828649,-518.144159,9474.636058
861.504431,459.657299,-370.102971,9400.615463
861.504747,459.657299,-74.020594,9400.615463
861.505063,612.876398,-0.000000,9400.615463
861.505378,459.657299,-296.082377,9400.615463
861.505694,383.047749,-0.000000,9252.574275
861.506010,306.438199,-148.041188,9252.574275
861.506326,306.438199,-222.061783,9474.636058
861.506641,383.047749,-370.102971,9178.553681
861.506957,536.266849,-444.123565,9326.594869
861.507273,76.609550,-814.226536,9400.615463
861.507588,0.000000,-370.102971,9326.594869
861.507904,0.000000,-444.123565,9474.636058
861.508220,0.000000,-296.082377,9548.656652
861.508535,306.438199,-296.082377,9474.636058
861.508851,153.219100,-444.123565,9548.656652
861.509167,229.828649,-222.061783,9474.636058
861.509482,306.438199,-0.000000,9326.594869
861.509798,383.047749,-296.082377,9400.615463
861.510114,612.876398,-0.000000,9400.615463
861.510429,383.047749,-148.041188,9104.533087
861.510745,459.657299,-74.020594,9326.594869
861.511061,459.657299,-148.041188,9400.615463
861.511376,536.266849,-148.041188,9326.594869
861.511692,229.828649,-0.000000,9474.636058
861.512008,459.657299,-0.000000,9474.636058
861.512323,689.485948,-74.020594,9474.636058
861.512639,459.657299,-0.000000,9548.656652
861.512955,766.095498,-148.041188,9770.718434
861.513271,536.266849,74.020594,9474.636058
861.513586,459.657299,-148.041188,9696.697840
861.513902,689.485948,-0.000000,9622.677246
861.514218,689.485948,-0.000000,9770.718434
861.514533,919.314598,-370.102971,9400.615463
861.514849,766.095498,-0.000000,9844.739029
861.515164,766.095498,-148.041188,9696.697840
861.515480,766.095498,-148.041188,9474.636058
861.515796,842.705048,-148.041188,9548.656652
861.516111,536.266849,-74.020594,9622.677246
861.516427,919.314598,-0.000000,9474.636058
861.516742,1149.143247,-0.000000,9326.594869
861.517058,766.095498,-0.000000,9326.594869
861.517374,766.095498,148.041188,9400.615463
861.517689,612.876398,-666.185348,9474.636058
861.518005,459.657299,-74.020594,9400.615463
861.518320,229.828649,-74.020594,9770.718434
861.518636,153.219100,-222.061783,9770.718434
861.518952,76.609550,-296.082377,9696.697840
861.519267,306.438199,-740.205942,9844.739029
861.519583,76.609550,-444.123565,9696.697840
861.519898,229.828649,-370.102971,9474.636058
861.520214,153.219100,-518.144159,9400.615463
861.520530,459.657299,-370.102971,9474.636058
861.520845,229.828649,-518.144159,9400.615463
861.521161,229.828649,-148.041188,9252.574275
861.521476,306.438199,-74.020594,9400.615463
861.521792,459.657299,-222.061783,9252.574275
861.522107,536.266849,-74.020594,9104.533087
861.522423,459.657299,-148.041188,9252.574275
861.522739,459.657299,-296.082377,9252.574275
861.523054,229.828649,-296.082377,9400.615463
861.523370,229.828649,-222.061783,9326.594869
861.523685,0.000000,-148.041188,9474.636058
861.524001,153.219100,-296.082377,9400.615463
861.524317,153.219100,-444.123565,9474.636058
861.524632,0.000000,-222.061783,9326.594869
861.524948,153.219100,-518.144159,9252.574275
861.525263,153.219100,-148.041188,9474.636058
861.525579,76.609550,-370.102971,9252.574275
861.525895,459.657299,-296.082377,9178.553681
861.526210,229.828649,-370.102971,9178.553681
861.526526,229.828649,-444.123565,9252.574275
861.526841,306.438199,-370.102971,9474.636058
861.527157,459.657299,-74.020594,9178.553681
861.527473,612.876398,-0.000000,9400.615463
861.527788,536.266849,-0.000000,9326.594869
861.528104,459.657299,-74.020594,9326.594869
861.528419,459.657299,-0.000000,9474.636058
861.528735,459.657299,-0.000000,9696.697840
861.529050,536.266849,-0.000000,9548.656652
861.529366,229.828649,-148.041188,9548.656652
861.529682,306.438199,-222.061783,9474.636058
861.529997,383.047749,-222.061783,9622.677246
861.530313,306.438199,-148.041188,9474.636058
861.530628,383.047749,-296.082377,9474.636058
861.530944,306.438199,-370.102971,9548.656652
861.531260,306.438199,-518.144159,9770.718434
861.531575,536.266849,-296.082377,9400.615463
861.531891,229.828649,-296.082377,9548.656652
861.532206,536.266849,-0.000000,9622.677246
861.532522,536.266849,-74.020594,9696.697840
861.532838,536.266849,-0.000000,9696.697840
861.533153,612.876398,-74.020594,9622.677246
861.533469,459.657299,-0.000000,9622.677246
861.533784,383.047749,-0.000000,9770.718434
861.534100,612.876398,-148.041188,9622.677246
861.534416,689.485948,-370.102971,9548.656652
861.534731,612.876398,-296.082377,9548.656652
861.535047,306.438199,-518.144159,9474.636058
861.535362,536.266849,-296.082377,9548.656652
861.535678,919.314598,-444.123565,9844.739029
861.535993,766.095498,-222.061783,9474.636058
861.536309,536.266849,-74.020594,9474.636058
861.536625,383.047749,-0.000000,9548.656652
861.536940,459.657299,-0.000000,9474.636058
861.537256,612.876398,-0.000000,9474.636058
861.537571,536.266849,-74.020594,9400.615463
861.537887,229.828649,-0.000000,9474.636058
861.538203,153.219100,-148.041188,9474.636058
861.538518,459.657299,-296.082377,9474.636058
861.538834,459.657299,-370.102971,9622.677246
861.539149,76.609550,-518.144159,9400.615463
861.539465,383.047749,-370.102971,9474.636058
861.539781,459.657299,-222.061783,9474.636058
861.540096,536.266849,-222.061783,9400.615463
861.540412,229.828649,-296.082377,9326.594869
861.540727,153.219100,-74.020594,9474.636058
861.541043,536.266849,-222.061783,9326.594869
861.541359,306.438199,-296.082377,9326.594869
861.541674,383.047749,-0.000000,9400.615463
861.541990,153.219100,-518.144159,9474.636058
861.542305,383.047749,-222.061783,9474.636058
861.542621,383.047749,-296.082377,9474.636058
861.542936,153.219100,-518.144159,9326.594869
861.543252,153.219100,-518.144159,9400.615463
861.543568,306.438199,-296.082377,9326.594869
861.543883,0.000000,-222.061783,9474.636058
861.544199,229.828649,-296.082377,9474.636058
861.544514,76.609550,-444.123565,9474.636058
861.544830,536.266849,-592.164754,9104.533087
861.545146,229.828649,-444.123565,9474.636058
861.545461,383.047749,-148.041188,9474.636058
861.545777,383.047749,-222.061783,9326.594869
861.546092,306.438199,-222.061783,9326.594869
861.546408,383.047749,-222.061783,9474.636058
861.546724,306.438199,-74.020594,9474.636058
861.547039,459.657299,-74.020594,9400.615463
861.547355,459.657299,-0.000000,9400.615463
861.547670,536.266849,-148.041188,9548.656652
861.547986,536.266849,-148.041188,9474.636058
861.548302,383.047749,-0.000000,9770.718434
861.548617,612.876398,-0.000000,9622.677246
861.548933,612.876398,-222.061783,9474.636058
861.549248,383.047749,-296.082377,9474.636058
861.549564,612.876398,-296.082377,9770.718434
861.549879,689.485948,-296.082377,9474.636058
861.550195,766.095498,-222.061783,9548.656652
861.550511,766.095498,-222.061783,9474.636058
861.550826,842.705048,-296.082377,9548.656652
861.551142,612.876398,-370.102971,9622.677246
861.551457,612.876398,-444.123565,9844.739029
861.551773,995.924147,-0.000000,9548.656652
861.552089,995.924147,-0.000000,9474.636058
861.552404,689.485948,-0.000000,9474.636058
861.552720,1072.533697,-0.000000,9474.636058
861.553035,766.095498,-0.000000,9548.656652
861.553351,612.876398,148.041188,9474.636058
861.553667,306.438199,-0.000000,9548.656652
861.553982,383.047749,-148.041188,9696.697840
861.554298,306.438199,-370.102971,9622.677246
861.554613,229.828649,-592.164754,9992.780217
861.554929,76.609550,-444.123565,9548.656652
861.555245,153.219100,-592.164754,9770.718434
861.555560,0.000000,-592.164754,9696.697840
861.555876,0.000000,-518.144159,9770.718434
861.556191,76.609550,-296.082377,9548.656652
861.556507,229.828649,-74.020594,9474.636058
861.556823,459.657299,-0.000000,9474.636058
861.557138,459.657299,-0.000000,9252.574275
861.557454,459.657299,-74.020594,9252.574275
861.557769,229.828649,-0.000000,9400.615463
861.558085,689.485948,-0.000000,9030.512492
861.558400,536.266849,-0.000000,9030.512492
861.558716,306.438199,-296.082377,9326.594869
861.559032,536.266849,-222.061783,9252.574275
861.559347,153.219100,-148.041188,9252.574275
861.559663,0.000000,-222.061783,9400.615463
861.559978,76.609550,-0.000000,9548.656652
861.560294,689.485948,-222.061783,9474.636058
861.560610,76.609550,-296.082377,9400.615463
861.560925,153.219100,-444.123565,9400.615463
861.561241,383.047749,-0.000000,9474.636058
861.561556,383.047749,-296.082377,9400.615463
861.561872,229.828649,-74.020594,9400.615463
861.562188,306.438199,-0.000000,9474.636058
861.562503,229.828649,-0.000000,9326.594869
861.562819,459.657299,-148.041188,9326.594869
861.563134,459.657299,-0.000000,9178.553681
861.563450,612.876398,-148.041188,9252.574275
861.563766,383.047749,-0.000000,9400.615463
861.564081,536.266849,222.061783,9474.636058
861.564397,689.485948,-148.041188,9474.636058
861.564712,459.657299,-148.041188,9474.636058
861.565028,842.705048,-518.144159,9548.656652
861.565343,383.047749,-370.102971,9548.656652
861.565659,459.657299,-296.082377,9474.636058
861.565975,306.438199,-222.061783,9844.739029
861.566290,612.876398,-74.020594,9622.677246
861.566606,689.485948,-74.020594,9696.697840
861.566921,383.047749,-0.000000,9622.677246
861.567237,459.657299,-0.000000,9844.739029
861.567553,612.876398,-148.041188,9474.636058
861.567868,612.876398,-0.000000,9474.636058
861.568184,612.876398,-74.020594,9844.739029
861.568499,536.266849,-148.041188,9548.656652
861.568815,689.485948,-74.020594,9548.656652
861.569131,459.657299,-148.041188,9474.636058
861.569446,536.266849,-74.020594,9548.656652
861.569762,766.095498,-148.041188,9622.677246
861.570077,536.266849,-222.061783,9696.697840
861.570393,536.266849,-296.082377,9696.697840
861.570709,842.705048,-222.061783,9548.656652
861.571024,689.485948,-222.061783,9474.636058
861.571340,766.095498,-74.020594,9548.656652
861.571655,766.095498,-74.020594,9548.656652
861.571971,459.657299,-0.000000,9474.636058
861.572286,612.876398,-0.000000,9622.677246
861.572602,612.876398,-0.000000,9770.718434
861.572918,459.657299,-370.102971,9474.636058
861.573233,766.095498,-0.000000,9474.636058
861.573549,459.657299,-74.020594,9252.574275
861.573864,306.438199,-148.041188,9548.656652
861.574180,306.438199,-296.082377,9400.615463
861.574496,306.438199,-222.061783,9548.656652
861.574811,459.657299,-444.123565,9400.615463
861.575127,459.657299,-370.102971,9548.656652
861.575442,459.657299,-296.082377,9474.636058
861.575758,383.047749,-222.061783,9548.656652
861.576074,459.657299,-370.102971,9252.574275
861.576389,459.657299,-74.020594,9400.615463
861.576705,459.657299,-148.041188,9252.574275
861.577020,229.828649,-0.000000,9326.594869
861.577336,229.828649,-296.082377,9104.533087
861.577652,153.219100,-74.020594,9252.574275
861.577967,306.438199,-370.102971,9252.574275
861.578283,76.609550,-148.041188,9326.594869
861.578598,76.609550,-518.144159,9474.636058
861.578914,153.219100,-592.164754,9400.615463
861.579229,153.219100,-518.144159,9474.636058
861.579545,153.219100,-370.102971,9622.677246
861.579861,0.000000,-444.123565,9474.636058
861.580176,306.438199,-444.123565,9326.594869
861.580492,0.000000,-74.020594,9474.636058
861.580807,459.657299,-74.020594,9326.594869
861.581123,459.657299,-222.061783,9178.553681
861.581439,383.047749,-148.041188,9326.594869
861.581754,459.657299,222.061783,9696.697840
861.582070,306.438199,-222.061783,9400.615463
861.582385,76.609550,-148.041188,9474.636058
861.582701,306.438199,-148.041188,9474.636058
861.583017,153.219100,-148.041188,9548.656652
861.583332,536.266849,-0.000000,9474.636058
861.583648,536.266849,-0.000000,9622.677246
861.583963,306.438199,-222.061783,9548.656652
861.584279,459.657299,-74.020594,9474.636058
861.584595,229.828649,-222.061783,9696.697840
861.584910,766.095498,-74.020594,9770.718434
861.585226,689.485948,-148.041188,9548.656652
861.585541,536.266849,-222.061783,9548.656652
861.585857,459.657299,-0.000000,9622.677246
861.586172,536.266849,148.041188,9770.718434
861.586488,995.924147,-74.020594,9474.636058
861.586804,766.095498,-74.020594,9474.636058
861.587119,842.705048,-0.000000,9326.594869
861.587435,842.705048,-0.000000,9326.594869
861.587750,689.485948,-0.000000,9326.594869
861.588066,612.876398,-0.000000,9326.594869
861.588382,536.266849,-148.041188,9622.677246
861.588697,306.438199,-222.061783,9474.636058
861.589013,459.657299,-0.000000,9770.718434
861.589328,0.000000,-370.102971,9918.759623
861.589644,306.438199,-444.123565,9844.739029
861.589960,153.219100,-592.164754,9696.697840
861.590275,76.609550,-444.123565,9696.697840
861.590591,153.219100,-444.123565,9696.697840
861.590906,229.828649,-444.123565,9548.656652
861.591222,229.828649,-222.061783,9474.636058
861.591538,383.047749,-370.102971,9400.615463
861.591853,459.657299,-222.061783,9400.615463
861.592169,536.266849,-74.020594,9400.615463
861.592484,383.047749,-0.000000,9400.615463
861.592800,306.438199,-370.102971,9178.553681
861.593115,459.657299,-148.041188,9178.553681
861.593431,306.438199,-74.020594,9400.615463
861.593747,383.047749,-148.041188,9474.636058
861.594062,612.876398,-0.000000,9548.656652
861.594378,76.609550,-444.123565,9400.615463
861.594693,76.609550,-296.082377,9400.615463
861.595009,153.219100,-222.061783,9326.594869
861.595325,0.000000,-296.082377,9474.636058
861.595640,306.438199,-518.144159,9030.512492
861.595956,76.609550,-444.123565,9104.533087
861.596271,153.219100,-296.082377,9622.677246
861.596587,76.609550,-296.082377,9474.636058
861.596903,383.047749,-148.041188,9474.636058
861.597218,612.876398,-888.247130,9548.656652
861.597534,306.438199,-296.082377,9030.512492
861.597849,612.876398,-222.061783,9104.533087
861.598165,306.438199,-222.061783,9400.615463
861.598481,612.876398,-148.041188,9178.553681
861.598796,459.657299,74.020594,9400.615463
861.599112,612.876398,-222.061783,9252.574275
861.599427,689.485948,-74.020594,9326.594869
861.599743,459.657299,-222.061783,9474.636058
861.600059,766.095498,-0.000000,9548.656652
861.600374,383.047749,-370.102971,9548.656652
861.600690,459.657299,-296.082377,9474.636058
861.601005,383.047749,-222.061783,9548.656652
861.601321,306.438199,-222.061783,9474.636058
861.601636,842.705048,-370.102971,9548.656652
861.601952,459.657299,-74.020594,9622.677246
861.602268,229.828649,-444.123565,9548.656652
861.602583,536.266849,-74.020594,9548.656652
861.602899,459.657299,-222.061783,9474.636058
861.603214,919.314598,-296.082377,9474.636058
861.603530,612.876398,-0.000000,9622.677246
861.603846,459.657299,-74.020594,9400.615463
861.604161,536.266849,-0.000000,9474.636058
861.604477,536.266849,-74.020594,9474.636058
861.604792,689.485948,-0.000000,9548.656652
861.605108,766.095498,-148.041188,9622.677246
861.605424,536.266849,-148.041188,9474.636058
861.605739,612.876398,-222.061783,9622.677246
861.606055,536.266849,-148.041188,9696.697840
861.606370,766.095498,-148.041188,9844.739029
861.606686,459.657299,-222.061783,9548.656652
861.607002,612.876398,-74.020594,9474.636058
861.607317,459.657299,-222.061783,9474.636058
861.607633,919.314598,-0.000000,9474.636058
861.607948,842.705048,-148.041188,9770.718434
861.608264,689.485948,-0.000000,9548.656652
861.608579,689.485948,-0.000000,9474.636058
861.608895,536.266849,-0.000000,9548.656652
861.609211,536.266849,-0.000000,9474.636058
861.609526,612.876398,-444.123565,9474.636058
861.609842,383.047749,-296.082377,9548.656652
861.610157,383.047749,-296.082377,9326.594869
861.610473,459.657299,-370.102971,9326.594869
861.610789,536.266849,-148.041188,9326.594869
861.611104,536.266849,-0.000000,9548.656652
861.611420,306.438199,-370.102971,9400.615463
861.611735,229.828649,-74.020594,9400.615463
861.612051,306.438199,-296.082377,9326.594869
861.612367,766.095498,-222.061783,9178.553681
861.612682,76.609550,-148.041188,9252.574275
861.612998,76.609550,-296.082377,9326.594869
861.613313,459.657299,-222.061783,9474.636058
861.613629,76.609550,-296.082377,9474.636058
861.613945,153.219100,-148.041188,9474.636058
861.614260,459.657299,-370.102971,9252.574275
861.614576,306.438199,-296.082377,9400.615463
861.614891,153.219100,-296.082377,9326.594869
861.615207,153.219100,-74.020594,9474.636058
861.615522,689.485948,-148.041188,9326.594869
861.615838,383.047749,-222.061783,9400.615463
861.616154,536.266849,-0.000000,9474.636058
861.616470,459.657299,-74.020594,9326.594869
861.616785,612.876398,-0.000000,9252.574275
861.617101,536.266849,148.041188,9474.636058
861.617417,153.219100,-0.000000,9548.656652
861.617733,229.828649,-148.041188,9400.615463
861.618048,229.828649,-0.000000,9474.636058
861.618364,459.657299,-296.082377,9622.677246
861.618680,536.266849,-74.020594,9622.677246
861.618996,383.047749,-296.082377,9474.636058
861.619311,459.657299,-296.082377,9622.677246
861.619627,612.876398,-296.082377,9548.656652
861.619943,536.266849,-370.102971,9474.636058
861.620259,306.438199,-0.000000,9770.718434
861.620574,842.705048,-0.000000,9622.677246
861.620890,842.705048,-222.061783,9326.594869
861.621206,1072.533697,-148.041188,9696.697840
861.621522,995.924147,-0.000000,9622.677246
861.621837,995.924147,-222.061783,9548.656652
861.622153,919.314598,-148.041188,9474.636058
861.622469,842.705048,148.041188,9548.656652
861.622785,995.924147,-0.000000,9474.636058
861.623100,1225.752797,-0.000000,9474.636058
861.623416,459.657299,-0.000000,9474.636058
861.623732,536.266849,-0.000000,9474.636058
861.624048,612.876398,-148.041188,9548.656652
861.624363,612.876398,-74.020594,9622.677246
861.624679,76.609550,-592.164754,9844.739029
861.624995,153.219100,-222.061783,9918.759623
861.625311,76.609550,-518.144159,9696.697840
861.625626,229.828649,-518.144159,9770.718434
861.625942,76.609550,-666.185348,9622.677246
861.626258,229.828649,-444.123565,9474.636058
861.626574,0.000000,-444.123565,9696.697840
861.626889,229.828649,-74.020594,9474.636058
861.627205,153.219100,-296.082377,9252.574275
861.627521,536.266849,-74.020594,9178.553681
861.627837,383.047749,-74.020594,9548.656652
861.628152,536.266849,-0.000000,9104.533087
861.628468,612.876398,-148.041188,9474.636058
861.628784,306.438199,-370.102971,9178.553681
861.629100,459.657299,-148.041188,9252.574275
861.629415,0.000000,-370.102971,9326.594869
861.629731,76.609550,-444.123565,9548.656652
861.630047,153.219100,-222.061783,9474.636058
861.630363,-153.219100,-296.082377,9474.636058
861.630678,153.219100,-148.041188,9474.636058
861.630994,0.000000,-444.123565,9178.553681
861.631310,0.000000,-444.123565,9400.615463
861.631626,229.828649,-444.123565,9474.636058
861.631941,229.828649,-296.082377,9252.574275
861.632257,536.266849,-444.123565,9326.594869
861.632573,459.657299,-74.020594,9178.553681
861.632889,153.219100,-74.020594,9252.574275
861.633204,383.047749,-222.061783,9252.574275
861.633520,459.657299,-148.041188,9326.594869
861.633836,383.047749,-0.000000,9326.594869
861.634152,383.047749,-0.000000,9400.615463
861.634467,306.438199,-74.020594,9178.553681
861.634783,383.047749,-74.020594,9252.574275
861.635099,383.047749,-222.061783,9326.594869
861.635415,306.438199,-222.061783,9474.636058
861.635730,229.828649,-0.000000,9474.636058
861.636046,536.266849,-296.082377,9696.697840
861.636362,306.438199,-370.102971,9548.656652
861.636678,536.266849,-740.205942,9548.656652
861.636993,842.705048,-222.061783,9696.697840
861.637309,306.438199,-222.061783,9696.697840
861.637625,229.828649,-148.041188,9696.697840
861.637941,536.266849,-148.041188,9548.656652
861.638256,459.657299,-222.061783,9918.759623
861.638572,536.266849,-0.000000,9474.636058
861.638888,612.876398,-74.020594,9474.636058
861.639204,536.266849,-148.041188,9474.636058
861.639519,766.095498,-74.020594,9548.656652
861.639835,766.095498,-74.020594,9844.739029
861.640151,766.095498,-0.000000,9696.697840
861.640467,459.657299,-222.061783,9548.656652
861.640782,689.485948,-74.020594,9696.697840
861.641098,612.876398,-222.061783,9548.656652
861.641414,766.095498,-444.123565,9770.718434
861.641730,612.876398,-148.041188,9474.636058
861.642045,383.047749,-74.020594,9548.656652
861.642361,383.047749,-0.000000,9400.615463
861.642677,459.657299,-74.020594,9622.677246
861.642993,536.266849,-0.000000,9474.636058
861.643308,766.095498,-0.000000,9548.656652
861.643624,459.657299,-148.041188,9548.656652
861.643940,459.657299,-0.000000,9400.615463
861.644256,536.266849,-222.061783,9400.615463
861.644571,-153.219100,-0.000000,9696.697840
861.644887,306.438199,-222.061783,9474.636058
861.645203,536.266849,-296.082377,9252.574275
861.645519,459.657299,-222.061783,9474.636058
861.645834,383.047749,-296.082377,9400.615463
861.646150,0.000000,-296.082377,9474.636058
861.646466,536.266849,-444.123565,9326.594869
861.646782,306.438199,-148.041188,9178.553681
861.647097,536.266849,-222.061783,9252.574275
861.647413,383.047749,-148.041188,9326.594869
861.647729,459.657299,-444.123565,9400.615463
861.648045,383.047749,-74.020594,9252.574275
861.648360,76.609550,-370.102971,9326.594869
861.648676,76.609550,-370.102971,9252.574275
861.648992,153.219100,-370.102971,9104.533087
861.649308,153.219100,-370.102971,9474.636058
861.649623,153.219100,-296.082377,9474.636058
861.649939,229.828649,-296.082377,9548.656652
861.650255,306.438199,-296.082377,9548.656652
861.650571,689.485948,-666.185348,9252.574275
861.650886,153.219100,-444.123565,9400.615463
861.651202,229.828649,-296.082377,9474.636058
861.651518,229.828649,-222.061783,9326.594869
861.651834,306.438199,-0.000000,9474.636058
861.652149,229.828649,-148.041188,9400.615463
861.652465,229.828649,-0.000000,9252.574275
861.652781,229.828649,-296.082377,9400.615463
861.653097,459.657299,-74.020594,9326.594869
861.653412,383.047749,-0.000000,9474.636058
861.653728,689.485948,222.061783,9548.656652
861.654044,459.657299,-0.000000,9474.636058
861.654360,383.047749,-74.020594,9474.636058
861.654675,536.266849,-0.000000,9548.656652
861.654991,383.047749,-0.000000,9622.677246
861.655307,689.485948,-0.000000,9770.718434
861.655623,612.876398,-74.020594,9622.677246
861.655938,536.266849,-222.061783,9474.636058
861.656254,689.485948,-0.000000,9622.677246
861.656570,612.876398,-74.020594,9696.697840
861.656886,689.485948,-148.041188,9770.718434
861.657201,766.095498,-0.000000,9770.718434
861.657517,766.095498,-74.020594,9770.718434
861.657833,919.314598,-74.020594,9548.656652
861.658148,383.047749,-0.000000,9548.656652
861.658464,536.266849,-0.000000,9474.636058
861.658780,689.485948,222.061783,9622.677246
861.659096,459.657299,-0.000000,9548.656652
861.659411,153.219100,-0.000000,9474.636058
861.659727,383.047749,-0.000000,9622.677246
861.660043,229.828649,-444.123565,9622.677246
861.660359,153.219100,-444.123565,9770.718434
861.660674,383.047749,-592.164754,9622.677246
861.660990,153.219100,-296.082377,9770.718434
861.661306,0.000000,-518.144159,9918.759623
861.661622,306.438199,-296.082377,9548.656652
861.661937,383.047749,-148.041188,9474.636058
861.662253,229.828649,-296.082377,9474.636058
861.662569,153.219100,-74.020594,9400.615463
861.662885,153.219100,-222.061783,9400.615463
861.663200,536.266849,-148.041188,9474.636058
861.663516,459.657299,-148.041188,9252.574275
861.663832,689.485948,-148.041188,9178.553681
861.664148,383.047749,-222.061783,9104.533087
861.664463,459.657299,-296.082377,9252.574275
861.664779,459.657299,-518.144159,9400.615463
861.665095,306.438199,-148.041188,9400.615463
861.665411,76.609550,-74.020594,9400.615463
861.665726,153.219100,-222.061783,9400.615463
861.666042,153.219100,-444.123565,9400.615463
861.666358,76.609550,-370.102971,9326.594869
861.666674,76.609550,-296.082377,9326.594869
861.666989,229.828649,-296.082377,9326.594869
861.667305,383.047749,-148.041188,9474.636058
861.667621,306.438199,-0.000000,9474.636058
861.667937,536.266849,-148.041188,9326.594869
861.668252,153.219100,-74.020594,9400.615463
861.668568,536.266849,-0.000000,9252.574275
861.668884,459.657299,-0.000000,9474.636058
861.669200,383.047749,-0.000000,9178.553681
861.669515,459.657299,-0.000000,9252.574275
861.669831,536.266849,-222.061783,9326.594869
861.670147,459.657299,-222.061783,9474.636058
861.670463,1072.533697,-444.123565,9474.636058
861.670778,383.047749,-370.102971,9548.656652
861.671094,306.438199,-0.000000,9622.677246
861.671410,459.657299,-74.020594,9474.636058
861.671726,306.438199,-222.061783,9696.697840
861.672041,306.438199,-74.020594,9548.656652
861.672357,459.657299,-222.061783,9474.636058
861.672673,306.438199,-222.061783,9474.636058
861.672989,459.657299,-222.061783,9622.677246
861.673304,536.266849,-296.082377,9474.636058
861.673620,459.657299,-296.082377,9696.697840
861.673936,459.657299,-148.041188,9696.697840
861.674252,689.485948,-0.000000,9474.636058
861.674567,459.657299,-74.020594,9548.656652
861.674883,689.485948,-0.000000,9548.656652
861.675199,459.657299,-0.000000,9622.677246
861.675515,612.876398,-148.041188,9696.697840
861.675830,689.485948,-148.041188,9696.697840
861.676146,536.266849,-0.000000,9696.697840
861.676462,612.876398,-370.102971,9622.677246
861.676778,536.266849,-148.041188,9844.739029
861.677093,459.657299,-370.102971,9770.718434
861.677409,536.266849,-296.082377,9696.697840
861.677725,612.876398,-148.041188,9474.636058
861.678041,383.047749,-222.061783,9474.636058
861.678356,459.657299,-74.020594,9770.718434
861.678672,459.657299,-0.000000,9474.636058
861.678988,459.657299,-0.000000,9400.615463
861.679304,383.047749,-74.020594,9474.636058
861.679619,612.876398,-370.102971,9474.636058
861.679935,383.047749,-222.061783,9474.636058
861.680251,383.047749,-296.082377,9474.636058
861.680567,153.219100,-444.123565,9622.677246
861.680882,306.438199,-296.082377,9474.636058
861.681198,229.828649,-222.061783,9548.656652
861.681514,459.657299,-296.082377,9474.636058
861.681830,536.266849,-148.041188,9474.636058
861.682145,536.266849,-296.082377,9252.574275
861.682461,459.657299,-222.061783,9326.594869
861.682777,306.438199,-148.041188,9326.594869
861.683093,383.047749,-0.000000,9474.636058
861.683408,536.266849,-222.061783,9178.553681
861.683724,459.657299,-222.061783,9252.574275
861.684040,306.438199,-592.164754,9474.636058
861.684356,153.219100,-222.061783,9548.656652
861.684671,153.219100,-518.144159,9474.636058
861.684987,76.609550,-222.061783,9548.656652
861.685303,76.609550,-444.123565,9474.636058
861.685619,229.828649,-962.267725,9696.697840
861.685934,383.047749,-444.123565,9326.594869
861.686250,153.219100,-296.082377,9326.594869
861.686566,536.266849,-148.041188,9474.636058
861.686882,306.438199,-222.061783,9252.574275
861.687197,689.485948,-148.041188,9326.594869
861.687513,459.657299,-0.000000,9474.636058
861.687829,612.876398,-148.041188,9326.594869
861.688145,536.266849,148.041188,9474.636058
861.688460,459.657299,-0.000000,9474.636058
861.688776,229.828649,-222.061783,9474.636058
861.689092,306.438199,-148.041188,9474.636058
861.689408,459.657299,-0.000000,9474.636058
861.689723,383.047749,-0.000000,9622.677246
861.690039,459.657299,-148.041188,9548.656652
861.690355,459.657299,-148.041188,9696.697840
861.690671,766.095498,-148.041188,9622.677246
861.690986,383.047749,-0.000000,9770.718434
861.691302,612.876398,-0.000000,9548.656652
861.691618,612.876398,-74.020594,9474.636058
861.691934,995.924147,-222.061783,9992.780217
861.692249,766.095498,-148.041188,9696.697840
861.692565,612.876398,-222.061783,9474.636058
861.692881,1072.533697,-222.061783,9622.677246
861.693197,1072.533697,-0.000000,9548.656652
861.693512,306.438199,-148.041188,9548.656652
861.693828,766.095498,-0.000000,9252.574275
861.694144,689.485948,-0.000000,9474.636058
861.694460,536.266849,-0.000000,9400.615463
861.694775,459.657299,-0.000000,9474.636058
861.695091,766.095498,-592.164754,9474.636058
861.695407,0.000000,-296.082377,9548.656652
861.695723,76.609550,-222.061783,9474.636058
861.696038,76.609550,-370.102971,9770.718434
861.696354,153.219100,-370.102971,9622.677246
861.696670,153.219100,-518.144159,9844.739029
861.696986,0.000000,-740.205942,9622.677246
861.697301,76.609550,-370.102971,9474.636058
861.697617,153.219100,-148.041188,9474.636058
861.697933,229.828649,-148.041188,9622.677246
861.698249,76.609550,-74.020594,9474.636058
861.698564,459.657299,-74.020594,9030.512492
861.698880,612.876398,-74.020594,9326.594869
861.699196,536.266849,-0.000000,9178.553681
861.699512,459.657299,-222.061783,9030.512492
861.699827,536.266849,-0.000000,9178.553681
861.700143,536.266849,-222.061783,9326.594869
861.700459,459.657299,-148.041188,9326.594869
861.700775,229.828649,-0.000000,9548.656652
861.701090,306.438199,-74.020594,9252.574275
861.701406,153.219100,-296.082377,9400.615463
861.701722,306.438199,-222.061783,9474.636058
861.702038,229.828649,-148.041188,9474.636058
861.702353,153.219100,-296.082377,9326.594869
861.702669,229.828649,-296.082377,9252.574275
861.702985,306.438199,-148.041188,9178.553681
861.703301,0.000000,-222.061783,9400.615463
861.703616,459.657299,-0.000000,9548.656652
861.703932,459.657299,-0.000000,9326.594869
861.704248,383.047749,-0.000000,9992.780217
861.704564,459.657299,-74.020594,9326.594869
861.704879,536.266849,-74.020594,9252.574275
861.705195,383.047749,-74.020594,9178.553681
861.705511,383.047749,-0.000000,9326.594869
861.705826,306.438199,-296.082377,9400.615463
861.706142,766.095498,-148.041188,9474.636058
861.706458,612.876398,-0.000000,9474.636058
861.706774,306.438199,-0.000000,9622.677246
861.707089,459.657299,-0.000000,9622.677246
861.707405,612.876398,-518.144159,9622.677246
861.707721,459.657299,-222.061783,9622.677246
861.708037,229.828649,-148.041188,9474.636058
861.708352,612.876398,-296.082377,9696.697840
861.708668,459.657299,-296.082377,9770.718434
861.708984,612.876398,-444.123565,9474.636058
861.709300,766.095498,-0.000000,9548.656652
861.709615,536.266849,-0.000000,9474.636058
861.709931,536.266849,-0.000000,9474.636058
861.710247,536.266849,-148.041188,9548.656652
861.710563,459.657299,-0.000000,9548.656652
861.710878,459.657299,-222.061783,9474.636058
861.711194,612.876398,-0.000000,9474.636058
861.711510,842.705048,-74.020594,9548.656652
861.711826,383.047749,-222.061783,9474.636058
861.712141,689.485948,-74.020594,9844.739029
861.712457,536.266849,-0.000000,9696.697840
861.712773,919.314598,-148.041188,9474.636058
861.713089,612.876398,-148.041188,9474.636058
861.713404,689.485948,-0.000000,9548.656652
861.713720,536.266849,-222.061783,9474.636058
861.714036,536.266849,-148.041188,9474.636058
861.714352,306.438199,-296.082377,9548.656652
861.714667,229.828649,-148.041188,9474.636058
861.714983,0.000000,-74.020594,9548.656652
861.715299,612.876398,-148.041188,9474.636058
861.715615,383.047749,-222.061783,9326.594869
861.715930,459.657299,-296.082377,9474.636058
861.716246,383.047749,-296.082377,9622.677246
861.716562,306.438199,-0.000000,9474.636058
861.716878,459.657299,-148.041188,9474.636058
861.717193,306.438199,-222.061783,9400.615463
861.717509,536.266849,-296.082377,9400.615463
861.717825,766.095498,-222.061783,9400.615463
861.718141,76.609550,-222.061783,9178.553681
861.718457,153.219100,-370.102971,9104.533087
861.718772,76.609550,-518.144159,9474.636058
861.719088,153.219100,-296.082377,9474.636058
861.719404,76.609550,-518.144159,9474.636058
861.719720,0.000000,-222.061783,9326.594869
861.720035,76.609550,-518.144159,9474.636058
861.720351,0.000000,-370.102971,9400.615463
861.720667,76.609550,-444.123565,9474.636058
861.720983,229.828649,-74.020594,9400.615463
861.721299,0.000000,-592.164754,9326.594869
861.721614,383.047749,-148.041188,9326.594869
861.721930,229.828649,-148.041188,9474.636058
861.722246,306.438199,-296.082377,9326.594869
861.722562,459.657299,222.061783,9622.677246
861.722877,459.657299,-0.000000,9400.615463
861.723193,383.047749,-0.000000,9474.636058
861.723509,306.438199,-0.000000,9474.636058
861.723825,459.657299,-0.000000,9474.636058
861.724141,459.657299,-148.041188,9400.615463
861.724456,536.266849,-0.000000,9696.697840
861.724772,536.266849,-0.000000,9474.636058
861.725088,383.047749,-148.041188,9474.636058
861.725404,229.828649,-74.020594,9548.656652
861.725719,612.876398,-0.000000,9548.656652
861.726035,536.266849,-0.000000,9474.636058
861.726351,459.657299,-0.000000,9622.677246
861.726667,766.095498,-74.020594,9474.636058
861.726982,766.095498,-148.041188,9474.636058
861.727298,919.314598,-296.082377,9770.718434
861.727614,459.657299,-74.020594,9770.718434
861.727930,995.924147,-0.000000,9474.636058
861.728246,1072.533697,-0.000000,9622.677246
861.728561,919.314598,-74.020594,9548.656652
861.728877,842.705048,-0.000000,9548.656652
861.729193,689.485948,148.041188,9474.636058
861.729509,536.266849,-0.000000,9548.656652
861.729824,612.876398,148.041188,9622.677246
861.730140,0.000000,-222.061783,9474.636058
861.730456,229.828649,-296.082377,9548.656652
861.730772,229.828649,-222.061783,9622.677246
861.731088,306.438199,-296.082377,9918.759623
861.731403,153.219100,-592.164754,9622.677246
861.731719,0.000000,-518.144159,9696.697840
861.732035,153.219100,-518.144159,9770.718434
861.732351,0.000000,-296.082377,9770.718434
861.732666,306.438199,-148.041188,9548.656652
861.732982,383.047749,-444.123565,9178.553681
861.733298,229.828649,-148.041188,9474.636058
861.733614,383.047749,-74.020594,9400.615463
861.733930,383.047749,-0.000000,9400.615463
861.734245,459.657299,-148.041188,9252.574275
861.734561,229.828649,-444.123565,9400.615463
861.734877,612.876398,-222.061783,9474.636058
861.735193,306.438199,-518.144159,9474.636058
861.735508,306.438199,-222.061783,9400.615463
861.735824,229.828649,-222.061783,9474.636058
861.736140,76.609550,-0.000000,9622.677246
861.736456,76.609550,-74.020594,9400.615463
861.736771,76.609550,-0.000000,9474.636058
861.737087,153.219100,-148.041188,9474.636058
861.737403,0.000000,-370.102971,9400.615463
861.737719,153.219100,-370.102971,9252.574275
861.738035,229.828649,-222.061783,9326.594869
861.738350,229.828649,-222.061783,9178.553681
861.738666,383.047749,-444.123565,9326.594869
861.738982,229.828649,-370.102971,9252.574275
861.739298,689.485948,-518.144159,9326.594869
861.739613,459.657299,-0.000000,9252.574275
861.739929,459.657299,-0.000000,9326.594869
861.740245,536.266849,-0.000000,9326.594869
861.740561,383.047749,-0.000000,9400.615463
861.740877,153.219100,-74.020594,9696.697840
861.741192,536.266849,-74.020594,9400.615463
861.741508,536.266849,-296.082377,9622.677246
861.741824,383.047749,-296.082377,9474.636058
861.742140,459.657299,-444.123565,9622.677246
861.742455,76.609550,-444.123565,9548.656652
861.742771,536.266849,-222.061783,9474.636058
861.743087,383.047749,-296.082377,9548.656652
861.743403,459.657299,-148.041188,9622.677246
861.743719,306.438199,-222.061783,9474.636058
861.744034,612.876398,-222.061783,9548.656652
861.744350,766.095498,-148.041188,9400.615463
861.744666,383.047749,-148.041188,9696.697840
861.744982,459.657299,-222.061783,9548.656652
861.745297,612.876398,-0.000000,9548.656652
861.745613,919.314598,-0.000000,9622.677246
861.745929,842.705048,-0.000000,9548.656652
861.746245,689.485948,-74.020594,9548.656652
861.746561,459.657299,-148.041188,9696.697840
861.746876,689.485948,-148.041188,9696.697840
861.747192,766.095498,-148.041188,9548.656652
861.747508,689.485948,-222.061783,9696.697840
861.747824,842.705048,-296.082377,9548.656652
861.748139,536.266849,-0.000000,9844.739029
861.748455,612.876398,-222.061783,9844.739029
861.748771,536.266849,-0.000000,9474.636058
861.749087,612.876398,-74.020594,9400.615463
861.749402,612.876398,-222.061783,9400.615463
861.749718,459.657299,-74.020594,9474.636058
861.750034,536.266849,-444.123565,9548.656652
861.750350,536.266849,-74.020594,9252.574275
861.750666,766.095498,-0.000000,9178.553681
861.750981,306.438199,-296.082377,9474.636058
861.751297,383.047749,-370.102971,9326.594869
861.751613,689.485948,-296.082377,9400.615463
861.751929,536.266849,-222.061783,9400.615463
861.752244,383.047749,-222.061783,9400.615463
861.752560,459.657299,-296.082377,9252.574275
861.752876,383.047749,-148.041188,9400.615463
861.753192,306.438199,-370.102971,9474.636058
861.753508,306.438199,-296.082377,9474.636058
861.753823,459.657299,-296.082377,9474.636058
861.754139,229.828649,-296.082377,9252.574275
861.754455,383.047749,-222.061783,9326.594869
861.754771,153.219100,-592.164754,9474.636058
861.755086,0.000000,-296.082377,9400.615463
861.755402,229.828649,-370.102971,9474.636058
861.755718,153.219100,-296.082377,9326.594869
861.756034,229.828649,-370.102971,9178.553681
861.756350,76.609550,-296.082377,9474.636058
861.756665,306.438199,-148.041188,9326.594869
861.756981,306.438199,-296.082377,9474.636058
861.757297,306.438199,-222.061783,9548.656652
861.757613,306.438199,-222.061783,9326.594869
861.757928,536.266849,-0.000000,9474.636058
861.758244,536.266849,-222.061783,9326.594869
861.758560,459.657299,-0.000000,9474.636058
861.758876,306.438199,-74.020594,9400.615463
861.759191,536.266849,-296.082377,9474.636058
861.759507,383.047749,-74.020594,9770.718434
861.759823,229.828649,-0.000000,9548.656652
861.760139,229.828649,-0.000000,9474.636058
861.760455,459.657299,-0.000000,9548.656652
861.760770,689.485948,-0.000000,9622.677246
861.761086,459.657299,-148.041188,9474.636058
861.761402,459.657299,-148.041188,9474.636058
861.761718,536.266849,-74.020594,9548.656652
861.762033,842.705048,-148.041188,9622.677246
861.762349,1072.533697,-0.000000,9844.739029
861.762665,689.485948,-222.061783,9622.677246
861.762981,766.095498,-148.041188,9918.759623
861.763297,1225.752797,-74.020594,9474.636058
861.763612,919.314598,-222.061783,9474.636058
861.763928,842.705048,-296.082377,9622.677246
861.764244,766.095498,-0.000000,9474.636058
861.764560,842.705048,-0.000000,9400.615463
861.764875,842.705048,-0.000000,9400.615463
861.765191,766.095498,-148.041188,9326.594869
861.765507,459.657299,-0.000000,9474.636058
861.765823,459.657299,-222.061783,9622.677246
861.766139,76.609550,-370.102971,9696.697840
861.766454,0.000000,-296.082377,9770.718434
861.766770,0.000000,-370.102971,9844.739029
861.767086,76.609550,-444.123565,9770.718434
861.767402,0.000000,-444.123565,9696.697840
861.767717,76.609550,-444.123565,9696.697840
861.768033,0.000000,-296.082377,9770.718434
861.768349,76.609550,-370.102971,9474.636058
861.768665,229.828649,-222.061783,9474.636058
861.768980,459.657299,-0.000000,9474.636058
861.769296,536.266849,-74.020594,9104.533087
861.769612,612.876398,222.061783,9326.594869
861.769928,536.266849,-74.020594,9326.594869
861.770244,306.438199,-148.041188,9178.553681
861.770559,459.657299,-74.020594,9178.553681
861.770875,229.828649,-296.082377,9326.594869
861.771191,153.219100,-74.020594,9474.636058
861.771507,153.219100,-444.123565,9696.697840
861.771822,0.000000,-370.102971,9474.636058
861.772138,0.000000,-296.082377,9696.697840
861.772454,0.000000,-222.061783,9178.553681
861.772770,229.828649,-148.041188,9400.615463
861.773086,-153.219100,-74.020594,9400.615463
861.773401,229.828649,-148.041188,9400.615463
861.773717,153.219100,-296.082377,9252.574275
861.774033,306.438199,-148.041188,9400.615463
861.774349,383.047749,-74.020594,9326.594869
861.774664,536.266849,-0.000000,9252.574275
861.774980,612.876398,-0.000000,9474.636058
861.775296,689.485948,-74.020594,9400.615463
861.775612,459.657299,-0.000000,9474.636058
861.775928,536.266849,-0.000000,9326.594869
861.776243,153.219100,-444.123565,9548.656652
861.776559,612.876398,-0.000000,9474.636058
861.776875,459.657299,-0.000000,9474.636058
861.777191,459.657299,-148.041188,9474.636058
861.777506,383.047749,-222.061783,9474.636058
861.777822,459.657299,-222.061783,9548.656652
861.778138,0.000000,-444.123565,9696.697840
861.778454,536.266849,-148.041188,9696.697840
861.778769,383.047749,-74.020594,9696.697840
861.779085,459.657299,-0.000000,9622.677246
861.779401,459.657299,-148.041188,9770.718434
861.779717,536.266849,-74.020594,9548.656652
861.780033,306.438199,-74.020594,9548.656652
861.780348,306.438199,-0.000000,9548.656652
861.780664,766.095498,-370.102971,9696.697840
861.780980,229.828649,-222.061783,9622.677246
861.781296,536.266849,-74.020594,9622.677246
861.781611,612.876398,-0.000000,9548.656652
861.781927,459.657299,-0.000000,9622.677246
861.782243,842.705048,-370.102971,9770.718434
861.782559,689.485948,-0.000000,9696.697840
861.782875,766.095498,-222.061783,9696.697840
861.783190,459.657299,-222.061783,9696.697840
861.783506,842.705048,-148.041188,9622.677246
861.783822,766.095498,-74.020594,9474.636058
861.784138,612.876398,-0.000000,9474.636058
861.784453,459.657299,-222.061783,9326.594869
861.784769,612.876398,-0.000000,9474.636058
861.785085,459.657299,-74.020594,9474.636058
861.785401,459.657299,-74.020594,9548.656652
861.785717,306.438199,-518.144159,9400.615463
861.786032,383.047749,-74.020594,9474.636058
861.786348,383.047749,-370.102971,9474.636058
861.786664,306.438199,-222.061783,9474.636058
861.786980,459.657299,-148.041188,9474.636058
861.787295,229.828649,-296.082377,9400.615463
861.787611,229.828649,-74.020594,9548.656652
861.787927,153.219100,-148.041188,9474.636058
861.788243,842.705048,-370.102971,9548.656652
861.788558,0.000000,-444.123565,9400.615463
861.788874,612.876398,-222.061783,9252.574275
861.789190,76.609550,-444.123565,9252.574275
861.789506,153.219100,-222.061783,9400.615463
861.789822,383.047749,-296.082377,9474.636058
861.790137,306.438199,-370.102971,9104.533087
861.790453,76.609550,-370.102971,9252.574275
861.790769,0.000000,-370.102971,9178.553681
861.791085,0.000000,-370.102971,9178.553681
861.791400,0.000000,-370.102971,9400.615463
861.791716,76.609550,-222.061783,9474.636058
861.792032,0.000000,-444.123565,9326.594869
861.792348,153.219100,-222.061783,9474.636058
861.792664,306.438199,-296.082377,9326.594869
861.792979,229.828649,-296.082377,9474.636058
861.793295,383.047749,-148.041188,9474.636058
861.793611,459.657299,-74.020594,9178.553681
861.793927,383.047749,-74.020594,9400.615463
861.794242,459.657299,-0.000000,9400.615463
861.794558,459.657299,-0.000000,9548.656652
861.794874,842.705048,-0.000000,9474.636058
861.795190,383.047749,-296.082377,9474.636058
861.795506,612.876398,-74.020594,9400.615463
861.795821,1225.752797,-0.000000,9474.636058
861.796137,536.266849,-0.000000,9400.615463
861.796453,459.657299,-0.000000,9548.656652
861.796769,459.657299,-0.000000,9696.697840
861.797084,536.266849,-148.041188,9622.677246
861.797400,766.095498,-296.082377,9474.636058
861.797716,995.924147,-74.020594,9844.739029
861.798032,689.485948,-222.061783,9474.636058
861.798347,766.095498,-148.041188,9770.718434
861.798663,919.314598,-0.000000,9696.697840
861.798979,1225.752797,-148.041188,9622.677246
861.799295,919.314598,-0.000000,9622.677246
861.799611,689.485948,222.061783,9474.636058
861.799926,612.876398,-0.000000,9474.636058
861.800242,689.485948,222.061783,9474.636058
861.800558,536.266849,-148.041188,9474.636058
861.800874,306.438199,-0.000000,9474.636058
861.801189,0.000000,-296.082377,9622.677246
861.801505,229.828649,-222.061783,9696.697840
861.801821,229.828649,-370.102971,9622.677246
861.802137,459.657299,-444.123565,9770.718434
861.802453,306.438199,-444.123565,9696.697840
861.802768,153.219100,-296.082377,9696.697840
861.803084,76.609550,-444.123565,9548.656652
861.803400,229.828649,-444.123565,9696.697840
861.803716,536.266849,-0.000000,9770.718434
861.804031,536.266849,-0.000000,9474.636058
861.804347,0.000000,-222.061783,9400.615463
861.804663,536.266849,-222.061783,9252.574275
861.804979,459.657299,-0.000000,9252.574275
861.805295,306.438199,-740.205942,9326.594869
861.805610,306.438199,-0.000000,9252.574275
861.805926,459.657299,-222.061783,9400.615463
861.806242,153.219100,-148.041188,9326.594869
861.806558,383.047749,-74.020594,9474.636058
861.806873,76.609550,-444.123565,9400.615463
861.807189,0.000000,-370.102971,9326.594869
861.807505,0.000000,-444.123565,9400.615463
861.807821,306.438199,-222.061783,9474.636058
861.808136,229.828649,-222.061783,9622.677246
861.808452,0.000000,-444.123565,9400.615463
861.808768,153.219100,-370.102971,9474.636058
861.809084,229.828649,-222.061783,9474.636058
861.809400,536.266849,-148.041188,9474.636058
861.809715,306.438199,-148.041188,9178.553681
861.810031,459.657299,-0.000000,9622.677246
861.810347,689.485948,-0.000000,9400.615463
861.810663,766.095498,-0.000000,9104.533087
861.810978,612.876398,-0.000000,9326.594869
861.811294,766.095498,-0.000000,9326.594869
861.811610,689.485948,370.102971,9474.636058
861.811926,689.485948,-74.020594,9548.656652
861.812242,612.876398,-148.041188,9474.636058
861.812557,459.657299,-74.020594,9474.636058
861.812873,459.657299,-370.102971,9696.697840
861.813189,536.266849,-148.041188,9474.636058
861.813505,306.438199,-222.061783,9696.697840
861.813820,306.438199,-148.041188,9696.697840
861.814136,306.438199,-74.020594,9622.677246
861.814452,306.438199,-74.020594,9622.677246
861.814768,306.438199,-296.082377,9548.656652
861.815084,536.266849,-222.061783,9770.718434
861.815399,459.657299,-74.020594,9622.677246
861.815715,536.266849,-0.000000,9696.697840
861.816031,459.657299,-74.020594,9474.636058
861.816347,612.876398,-74.020594,9474.636058
861.816662,612.876398,-148.041188,9400.615463
861.816978,383.047749,-148.041188,9474.636058
861.817294,536.266849,-222.061783,9622.677246
861.817610,536.266849,-74.020594,9696.697840
861.817926,689.485948,-296.082377,9770.718434
861.818241,459.657299,-222.061783,9696.697840
861.818557,536.266849,-148.041188,9770.718434
861.818873,459.657299,-148.041188,9770.718434
861.819189,842.705048,-148.041188,9474.636058
861.819505,536.266849,-74.020594,9770.718434
861.819821,536.266849,222.061783,9696.697840
861.820136,459.657299,-0.000000,9474.636058
861.820452,306.438199,-222.061783,9104.533087
861.820768,689.485948,-296.082377,9474.636058
861.821084,383.047749,-222.061783,9548.656652
861.821400,229.828649,-296.082377,9474.636058
861.821715,536.266849,-444.123565,9326.594869
861.822031,229.828649,-148.041188,9548.656652
861.822347,229.828649,-370.102971,9474.636058
861.822663,229.828649,-444.123565,9548.656652
861.822979,153.219100,-222.061783,9548.656652
861.823295,229.828649,-370.102971,9326.594869
861.823610,459.657299,-148.041188,9326.594869
861.823926,459.657299,-222.061783,9400.615463
861.824242,306.438199,-148.041188,9326.594869
861.824558,459.657299,-296.082377,9252.574275
861.824874,229.828649,-148.041188,9326.594869
861.825190,383.047749,-296.082377,9548.656652
861.825505,76.609550,-444.123565,9252.574275
861.825821,383.047749,-444.123565,9178.553681
861.826137,229.828649,-444.123565,9696.697840
861.826453,306.438199,-444.123565,9474.636058
861.826769,76.609550,-370.102971,9400.615463
861.827085,153.219100,-370.102971,9548.656652
861.827400,306.438199,-444.123565,9326.594869
861.827716,229.828649,-74.020594,9400.615463
861.828032,306.438199,-222.061783,9474.636058
861.828348,306.438199,-296.082377,9400.615463
861.828664,536.266849,-74.020594,9104.533087
861.828980,383.047749,-74.020594,9252.574275
861.829295,383.047749,-296.082377,9474.636058
861.829611,536.266849,-74.020594,9326.594869
861.829927,612.876398,-148.041188,9622.677246
861.830243,612.876398,-0.000000,9474.636058
861.830559,459.657299,-0.000000,9474.636058
861.830874,689.485948,-222.061783,9400.615463
861.831190,383.047749,-148.041188,9400.615463
861.831506,0.000000,-222.061783,9474.636058
861.831822,383.047749,-74.020594,9622.677246
861.832138,536.266849,-0.000000,9474.636058
861.832454,459.657299,-148.041188,9622.677246
861.832769,383.047749,-74.020594,9622.677246
861.833085,689.485948,-222.061783,9474.636058
861.833401,766.095498,-148.041188,9622.677246
861.833717,459.657299,-148.041188,9548.656652
861.834033,689.485948,-148.041188,9474.636058
861.834349,995.924147,-370.102971,9548.656652
861.834664,1072.533697,-74.020594,9548.656652
861.834980,919.314598,-0.000000,9400.615463
861.835296,842.705048,-148.041188,9474.636058
861.835612,919.314598,-0.000000,9326.594869
861.835928,536.266849,-0.000000,9622.677246
861.836244,536.266849,-0.000000,9400.615463
861.836559,612.876398,-74.020594,9474.636058
861.836875,0.000000,-148.041188,9474.636058
861.837191,153.219100,-518.144159,9548.656652
861.837507,0.000000,-370.102971,9770.718434
861.837823,0.000000,-370.102971,9770.718434
861.838139,76.609550,-518.144159,9844.739029
861.838454,76.609550,-666.185348,9696.697840
861.838770,76.609550,-888.247130,9844.739029
861.839086,-229.828649,-444.123565,9844.739029
861.839402,229.828649,-296.082377,9696.697840
861.839718,153.219100,-74.020594,9400.615463
861.840033,383.047749,-296.082377,9178.553681
861.840349,229.828649,-74.020594,9622.677246
861.840665,612.876398,-74.020594,9104.533087
861.840981,612.876398,-222.061783,9030.512492
861.841297,612.876398,-0.000000,9104.533087
861.841613,536.266849,-74.020594,9326.594869
861.841928,536.266849,-0.000000,9696.697840
861.842244,306.438199,-222.061783,9326.594869
861.842560,76.609550,-296.082377,9548.656652
861.842876,76.609550,-148.041188,9400.615463
861.843192,0.000000,-148.041188,9474.636058
861.843508,459.657299,-296.082377,9770.718434
861.843823,0.000000,-222.061783,9474.636058
861.844139,153.219100,-0.000000,9326.594869
861.844455,229.828649,-148.041188,9252.574275
861.844771,229.828649,-222.061783,9400.615463
861.845087,76.609550,-444.123565,9400.615463
861.845403,612.876398,-74.020594,9474.636058
861.845718,612.876398,-518.144159,9474.636058
861.846034,383.047749,-0.000000,9326.594869
861.846350,306.438199,-74.020594,9400.615463
861.846666,689.485948,-0.000000,9326.594869
861.846982,612.876398,-0.000000,9252.574275
861.847298,153.219100,-296.082377,9400.615463
861.847613,536.266849,-148.041188,9548.656652
861.847929,689.485948,-74.020594,9474.636058
861.848245,459.657299,-0.000000,9548.656652
861.848561,536.266849,-222.061783,9474.636058
861.848877,383.047749,-74.020594,9474.636058
861.849192,536.266849,-74.020594,9548.656652
861.849508,612.876398,-222.061783,9548.656652
861.849824,383.047749,-148.041188,9622.677246
861.850140,306.438199,-148.041188,9548.656652
861.850456,612.876398,-148.041188,9622.677246
861.850772,459.657299,-148.041188,9548.656652
861.851087,612.876398,-222.061783,9696.697840
861.851403,612.876398,-148.041188,9696.697840
861.851719,383.047749,-0.000000,9400.615463
861.852035,612.876398,-74.020594,9770.718434
861.852351,766.095498,-0.000000,9770.718434
861.852667,153.219100,-296.082377,9622.677246
861.852982,612.876398,-222.061783,9548.656652
861.853298,689.485948,-222.061783,9548.656652
861.853614,842.705048,-0.000000,9622.677246
861.853930,919.314598,-74.020594,9622.677246
861.854246,766.095498,-222.061783,9326.594869
861.854562,459.657299,-148.041188,9770.718434
861.854877,536.266849,-0.000000,9474.636058
861.855193,536.266849,-0.000000,9474.636058
861.855509,459.657299,-0.000000,9474.636058
861.855825,-153.219100,-0.000000,9622.677246
861.856141,153.219100,-296.082377,9474.636058
861.856457,383.047749,-148.041188,9548.656652
861.856772,229.828649,-222.061783,9622.677246
861.857088,383.047749,-296.082377,9474.636058
861.857404,229.828649,-666.185348,9326.594869
861.857720,153.219100,-444.123565,9400.615463
861.858036,383.047749,-296.082377,9474.636058
861.858351,383.047749,-444.123565,9252.574275
861.858667,383.047749,-222.061783,9474.636058
861.858983,536.266849,-222.061783,9548.656652
861.859299,229.828649,-370.102971,9326.594869
861.859615,459.657299,-74.020594,9326.594869
861.859931,459.657299,-74.020594,9252.574275
861.860246,306.438199,-0.000000,9474.636058
861.860562,459.657299,-74.020594,9844.739029
861.860878,459.657299,-222.061783,9252.574275
861.861194,0.000000,-296.082377,9400.615463
861.861510,153.219100,-370.102971,9326.594869
861.861826,0.000000,-518.144159,9474.636058
861.862141,76.609550,-592.164754,9326.594869
861.862457,153.219100,-518.144159,9400.615463
861.862773,229.828649,-296.082377,9474.636058
861.863089,153.219100,-296.082377,9548.656652
861.863405,306.438199,-296.082377,9178.553681
861.863721,306.438199,-296.082377,9326.594869
861.864036,766.095498,-0.000000,9326.594869
861.864352,459.657299,-0.000000,9474.636058
861.864668,383.047749,-74.020594,9400.615463
861.864984,689.485948,296.082377,9326.594869
861.865300,612.876398,-74.020594,9326.594869
861.865616,459.657299,-0.000000,9474.636058
861.865931,153.219100,-0.000000,9696.697840
861.866247,459.657299,-74.020594,9400.615463
861.866563,306.438199,-74.020594,9622.677246
861.866879,536.266849,-148.041188,9400.615463
861.867195,383.047749,-74.020594,9474.636058
861.867510,612.876398,-0.000000,9474.636058
861.867826,536.266849,-148.041188,9622.677246
861.868142,995.924147,-370.102971,9474.636058
861.868458,689.485948,-74.020594,9622.677246
861.868774,612.876398,-74.020594,9548.656652
861.869090,612.876398,-74.020594,9474.636058
861.869405,1532.190996,-0.000000,9548.656652
861.869721,1072.533697,-148.041188,9400.615463
861.870037,842.705048,148.041188,9770.718434
861.870353,919.314598,296.082377,9474.636058
861.870669,766.095498,-0.000000,9400.615463
861.870985,612.876398,-0.000000,9326.594869
861.871300,536.266849,-0.000000,9622.677246
861.871616,306.438199,-74.020594,9474.636058
861.871932,229.828649,-148.041188,9696.697840
861.872248,229.828649,-222.061783,9918.759623
861.872564,0.000000,-444.123565,9622.677246
861.872880,76.609550,-518.144159,9770.718434
861.873195,0.000000,-518.144159,9918.759623
861.873511,383.047749,-296.082377,9548.656652
861.873827,76.609550,-74.020594,9696.697840
861.874143,-306.438199,-444.123565,9622.677246
861.874459,229.828649,-148.041188,9474.636058
861.874775,229.828649,-74.020594,9474.636058
861.875090,153.219100,-148.041188,9326.594869
861.875406,459.657299,-0.000000,9400.615463
861.875722,536.266849,-148.041188,9252.574275
861.876038,689.485948,-296.082377,9178.553681
861.876354,689.485948,-222.061783,9178.553681
861.876669,0.000000,-370.102971,9178.553681
861.876985,459.657299,-148.041188,9400.615463
861.877301,0.000000,-444.123565,9474.636058
861.877617,0.000000,-148.041188,9400.615463
861.877933,0.000000,-222.061783,9400.615463
861.878249,153.219100,-222.061783,9474.636058
861.878564,-229.828649,-444.123565,9326.594869
861.878880,-306.438199,-148.041188,9622.677246
861.879196,0.000000,-444.123565,9400.615463
861.879512,76.609550,-296.082377,9622.677246
861.879828,153.219100,-296.082377,9326.594869
861.880144,306.438199,-0.000000,9770.718434
861.880459,306.438199,-0.000000,9400.615463
861.880775,459.657299,-0.000000,9474.636058
861.881091,306.438199,-148.041188,9474.636058
861.881407,383.047749,-0.000000,9178.553681
861.881723,842.705048,-148.041188,9326.594869
861.882039,612.876398,-0.000000,9178.553681
861.882354,766.095498,-0.000000,9178.553681
861.882670,383.047749,-222.061783,9252.574275
861.882986,689.485948,-370.102971,9474.636058
861.883302,536.266849,-370.102971,9474.636058
861.883618,229.828649,-148.041188,9696.697840
861.883934,383.047749,-296.082377,9474.636058
861.884249,536.266849,-296.082377,9548.656652
861.884565,383.047749,-370.102971,9622.677246
861.884881,536.266849,-148.041188,9622.677246
861.885197,306.438199,-74.020594,9474.636058
861.885513,383.047749,-148.041188,9622.677246
861.885829,229.828649,-74.020594,9622.677246
861.886144,459.657299,-0.000000,9770.718434
861.886460,306.438199,-296.082377,9918.759623
861.886776,766.095498,-148.041188,9548.656652
861.887092,689.485948,-74.020594,9474.636058
861.887408,689.485948,-0.000000,9622.677246
861.887723,459.657299,-296.082377,9770.718434
861.888039,536.266849,-74.020594,9548.656652
861.888355,612.876398,-148.041188,9622.677246
861.888671,383.047749,-222.061783,9696.697840
861.888987,689.485948,-148.041188,9548.656652
861.889303,536.266849,-444.123565,9474.636058
861.889618,536.266849,-148.041188,9474.636058
861.889934,612.876398,-74.020594,9178.553681
861.890250,383.047749,-0.000000,9548.656652
861.890566,612.876398,-0.000000,9548.656652
861.890882,842.705048,-74.020594,9696.697840
861.891198,612.876398,-0.000000,9548.656652
861.891513,306.438199,-148.041188,9474.636058
861.891829,459.657299,-370.102971,9474.636058
861.892145,383.047749,-222.061783,9622.677246
861.892461,76.609550,-592.164754,9474.636058
861.892777,383.047749,-518.144159,9474.636058
861.893093,76.609550,-148.041188,9400.615463
861.893408,229.828649,-222.061783,9474.636058
861.893724,612.876398,-148.041188,9400.615463
861.894040,76.609550,-518.144159,9622.677246
861.894356,536.266849,-370.102971,9326.594869
861.894672,459.657299,-296.082377,9252.574275
861.894988,306.438199,-148.041188,9252.574275
861.895303,536.266849,-222.061783,9104.533087
861.895619,153.219100,-444.123565,9326.594869
861.895935,-153.219100,-518.144159,9326.594869
861.896251,536.266849,-296.082377,9474.636058
861.896567,229.828649,-444.123565,9326.594869
861.896882,153.219100,-296.082377,9548.656652
861.897198,306.438199,-740.205942,9400.615463
861.897514,383.047749,-370.102971,9400.615463
861.897830,153.219100,-296.082377,9326.594869
861.898146,306.438199,-148.041188,9474.636058
861.898462,383.047749,-370.102971,9326.594869
861.898777,689.485948,-148.041188,9622.677246
861.899093,229.828649,-296.082377,9474.636058
861.899409,459.657299,-148.041188,9622.677246
861.899725,383.047749,-370.102971,9400.615463
861.900041,612.876398,-74.020594,9548.656652
861.900357,306.438199,-222.061783,9474.636058
861.900672,306.438199,-148.041188,9474.636058
861.900988,383.047749,-74.020594,9474.636058
861.901304,383.047749,-0.000000,9474.636058
861.901620,229.828649,-74.020594,9400.615463
861.901936,306.438199,-0.000000,9696.697840
861.902252,459.657299,-74.020594,9548.656652
861.902567,536.266849,-0.000000,9548.656652
861.902883,612.876398,-148.041188,9474.636058
861.903199,612.876398,-74.020594,9548.656652
861.903515,459.657299,-296.082377,9696.697840
861.903831,689.485948,-444.123565,9474.636058
861.904147,689.485948,-370.102971,9548.656652
861.904462,995.924147,-296.082377,9622.677246
861.904778,766.095498,-74.020594,9548.656652
861.905094,1149.143247,-148.041188,9770.718434
861.905410,766.095498,-74.020594,9474.636058
861.905726,766.095498,-0.000000,9474.636058
861.906041,919.314598,-0.000000,9548.656652
861.906357,842.705048,-222.061783,9474.636058
861.906673,919.314598,-74.020594,9474.636058
861.906989,459.657299,-0.000000,9622.677246
861.907305,229.828649,-74.020594,9474.636058
861.907621,229.828649,-370.102971,9548.656652
861.907936,0.000000,-666.185348,9770.718434
861.908252,153.219100,-592.164754,10066.800811
861.908568,229.828649,-370.102971,9770.718434
861.908884,0.000000,-444.123565,9918.759623
861.909200,0.000000,-444.123565,9844.739029
861.909516,0.000000,-370.102971,9844.739029
861.909831,153.219100,-370.102971,9400.615463
861.910147,76.609550,-222.061783,9474.636058
861.910463,536.266849,-74.020594,9474.636058
861.910779,689.485948,-0.000000,9104.533087
861.911095,1072.533697,592.164754,9178.553681
861.911411,229.828649,-0.000000,9400.615463
861.911726,536.266849,-370.102971,9252.574275
861.912042,383.047749,-222.061783,9400.615463
861.912358,153.219100,-74.020594,9326.594869
861.912674,-383.047749,-444.123565,9474.636058
861.912990,76.609550,-0.000000,9474.636058
861.913306,0.000000,-222.061783,9474.636058
861.913621,0.000000,-148.041188,9474.636058
861.913937,0.000000,-370.102971,9474.636058
861.914253,229.828649,-74.020594,9548.656652
861.914569,0.000000,-222.061783,9622.677246
861.914885,383.047749,-0.000000,9178.553681
861.915200,306.438199,-222.061783,9252.574275
861.915516,306.438199,-148.041188,9474.636058
861.915832,306.438199,-0.000000,9252.574275
861.916148,306.438199,-74.020594,9252.574275
861.916464,459.657299,-0.000000,9252.574275
861.916780,459.657299,148.041188,9326.594869
861.917095,766.095498,370.102971,9474.636058
861.917411,459.657299,296.082377,9400.615463
861.917727,612.876398,-0.000000,9178.553681
861.918043,536.266849,74.020594,9548.656652
861.918359,459.657299,-74.020594,9474.636058
861.918675,306.438199,-0.000000,9474.636058
861.918990,383.047749,-296.082377,9622.677246
861.919306,536.266849,-0.000000,9696.697840
861.919622,383.047749,-370.102971,9696.697840
861.919938,229.828649,-0.000000,9770.718434
861.920254,76.609550,-148.041188,9992.780217
861.920569,153.219100,-370.102971,9548.656652
861.920885,459.657299,-370.102971,9696.697840
861.921201,536.266849,-0.000000,9770.718434
861.921517,536.266849,-0.000000,9474.636058
861.921832,536.266849,-74.020594,9696.697840
861.922148,766.095498,-222.061783,9548.656652
861.922464,459.657299,-0.000000,9474.636058
861.922780,536.266849,-0.000000,9474.636058
861.923096,536.266849,-0.000000,9548.656652
861.923411,536.266849,-0.000000,9474.636058
861.923727,459.657299,-74.020594,9548.656652
861.924043,536.266849,222.061783,9844.739029
861.924359,536.266849,-74.020594,9622.677246
861.924675,459.657299,-74.020594,9696.697840
861.924990,1378.971896,-0.000000,9548.656652
861.925306,689.485948,-74.020594,9474.636058
861.925622,459.657299,-222.061783,9474.636058
861.925938,689.485948,-74.020594,9474.636058
861.926254,536.266849,-74.020594,9474.636058
861.926569,229.828649,-592.164754,9548.656652
861.926885,306.438199,-148.041188,9474.636058
861.927201,689.485948,-0.000000,9326.594869
861.927517,459.657299,-148.041188,9548.656652
861.927832,153.219100,-222.061783,9548.656652
861.928148,536.266849,-518.144159,9622.677246
861.928464,306.438199,-370.102971,9474.636058
861.928780,459.657299,-370.102971,9474.636058
861.929096,612.876398,-296.082377,9474.636058
861.929411,612.876398,-444.123565,9104.533087
861.929727,153.219100,-444.123565,9326.594869
861.930043,383.047749,-222.061783,9178.553681
861.930359,306.438199,-296.082377,9400.615463
861.930675,383.047749,-148.041188,9252.574275
861.930990,536.266849,-370.102971,9252.574275
861.931306,153.219100,-222.061783,9326.594869
861.931622,153.219100,-370.102971,9252.574275
861.931938,153.219100,-296.082377,9326.594869
861.932254,0.000000,-444.123565,9326.594869
861.932569,0.000000,-444.123565,9844.739029
861.932885,0.000000,-592.164754,9548.656652
861.933201,0.000000,-370.102971,9548.656652
861.933517,229.828649,-296.082377,9622.677246
861.933832,76.609550,-370.102971,9326.594869
861.934148,536.266849,-0.000000,9400.615463
861.934464,306.438199,-0.000000,9326.594869
861.934780,459.657299,-74.020594,9474.636058
861.935096,306.438199,-296.082377,9326.594869
861.935411,459.657299,-222.061783,9400.615463
861.935727,536.266849,-148.041188,9400.615463
861.936043,689.485948,-148.041188,9326.594869
861.936359,153.219100,-74.020594,9104.533087
861.936675,536.266849,-0.000000,9474.636058
861.936990,459.657299,-0.000000,9474.636058
861.937306,459.657299,-0.000000,9400.615463
861.937622,612.876398,-0.000000,9548.656652
861.937938,459.657299,-0.000000,9474.636058
861.938254,612.876398,-74.020594,9548.656652
861.938569,1302.362347,-222.061783,9770.718434
861.938885,766.095498,-74.020594,9696.697840
861.939201,383.047749,-74.020594,9622.677246
861.939517,766.095498,-0.000000,9696.697840
861.939832,536.266849,-148.041188,9696.697840
861.940148,1149.143247,-296.082377,9474.636058
861.940464,919.314598,-0.000000,9548.656652
861.940780,689.485948,-0.000000,9400.615463
861.941096,766.095498,-74.020594,9474.636058
861.941411,766.095498,-0.000000,9474.636058
861.941727,383.047749,-0.000000,9548.656652
861.942043,612.876398,-0.000000,9474.636058
861.942359,536.266849,-0.000000,9696.697840
861.942675,459.657299,-296.082377,9474.636058
861.942990,689.485948,-518.144159,9548.656652
861.943306,153.219100,-444.123565,9622.677246
861.943622,306.438199,-370.102971,9770.718434
861.943938,153.219100,-370.102971,9548.656652
861.944254,383.047749,-370.102971,9622.677246
861.944569,306.438199,-518.144159,9770.718434
861.944885,229.828649,-296.082377,9548.656652
861.945201,76.609550,-148.041188,9326.594869
861.945517,229.828649,-296.082377,9400.615463
861.945832,229.828649,-74.020594,9474.636058
861.946148,383.047749,-0.000000,9474.636058
861.946464,536.266849,-0.000000,9474.636058
861.946780,536.266849,-0.000000,9178.553681
861.947096,459.657299,-0.000000,9252.574275
861.947411,383.047749,-74.020594,9474.636058
861.947727,229.828649,-370.102971,9252.574275
861.948043,76.609550,-74.020594,9474.636058
861.948359,0.000000,-74.020594,9326.594869
861.948675,229.828649,-148.041188,9474.636058
861.948990,0.000000,-222.061783,9474.636058
861.949306,76.609550,-444.123565,9326.594869
861.949622,229.828649,-0.000000,9622.677246
861.949938,229.828649,-148.041188,9548.656652
861.950254,76.609550,-0.000000,9474.636058
861.950569,229.828649,-296.082377,9474.636058
861.950885,459.657299,-296.082377,9326.594869
861.951201,229.828649,-74.020594,9400.615463
861.951517,153.219100,-0.000000,9178.553681
861.951832,306.438199,-0.000000,9326.594869
861.952148,459.657299,-0.000000,9474.636058
861.952464,536.266849,-0.000000,9178.553681
861.952780,536.266849,-0.000000,9178.553681
861.953096,536.266849,-74.020594,9400.615463
861.953411,459.657299,-296.082377,9696.697840
861.953727,459.657299,-222.061783,9400.615463
861.954043,229.828649,-296.082377,9474.636058
861.954359,383.047749,-148.041188,9622.677246
861.954675,306.438199,-222.061783,9696.697840
861.954990,459.657299,-296.082377,9548.656652
861.955306,612.876398,-296.082377,9696.697840
861.955622,536.266849,-518.144159,9844.739029
861.955938,536.266849,-222.061783,9474.636058
861.956254,689.485948,-148.041188,9696.697840
861.956569,536.266849,-222.061783,9622.677246
861.956885,689.485948,-222.061783,9400.615463
861.957201,689.485948,-74.020594,9696.697840
861.957517,689.485948,-0.000000,9548.656652
861.957832,383.047749,-222.061783,9622.677246
861.958148,536.266849,-74.020594,9548.656652
861.958464,459.657299,-0.000000,9622.677246
861.958780,459.657299,-296.082377,9548.656652
861.959096,459.657299,-222.061783,9696.697840
861.959411,612.876398,-296.082377,9622.677246
861.959727,689.485948,-148.041188,9696.697840
861.960043,689.485948,-222.061783,9696.697840
861.960359,612.876398,-0.000000,9548.656652
861.960675,536.266849,-296.082377,9548.656652
861.960990,459.657299,-148.041188,9474.636058
861.961306,766.095498,-0.000000,9474.636058
861.961622,536.266849,-74.020594,9400.615463
861.961938,459.657299,-296.082377,9400.615463
861.962254,459.657299,-0.000000,9474.636058
861.962569,536.266849,-148.041188,9474.636058
861.962885,229.828649,-222.061783,9548.656652
861.963201,383.047749,-518.144159,9474.636058
861.963517,612.876398,-518.144159,9474.636058
861.963832,383.047749,-444.123565,9474.636058
861.964148,459.657299,-222.061783,9400.615463
861.964464,459.657299,-74.020594,9474.636058
861.964780,383.047749,-666.185348,9400.615463
861.965096,459.657299,-370.102971,9326.594869
861.965411,536.266849,-296.082377,9252.574275
861.965727,306.438199,-148.041188,9400.615463
861.966043,153.219100,-148.041188,9400.615463
861.966359,1225.752797,-592.164754,9326.594869
861.966675,536.266849,-370.102971,9326.594869
861.966990,306.438199,-296.082377,9326.594869
861.967306,229.828649,-222.061783,9400.615463
861.967622,76.609550,-296.082377,9474.636058
861.967938,306.438199,-296.082377,9474.636058
861.968254,153.219100,-444.123565,9178.553681
861.968569,153.219100,-444.123565,9400.615463
861.968885,0.000000,-296.082377,9474.636058
861.969201,383.047749,-296.082377,9400.615463
861.969517,229.828649,-370.102971,9104.533087
861.969832,459.657299,-74.020594,9400.615463
861.970148,536.266849,-74.020594,9400.615463
861.970464,383.047749,-0.000000,9474.636058
861.970780,612.876398,-74.020594,9400.615463
861.971096,459.657299,-74.020594,9474.636058
861.971411,459.657299,-0.000000,9474.636058
861.971727,459.657299,-74.020594,9400.615463
861.972043,459.657299,-74.020594,9474.636058
861.972359,459.657299,-0.000000,9548.656652
861.972675,689.485948,-296.082377,9622.677246
861.972990,612.876398,-222.061783,9474.636058
861.973306,612.876398,-74.020594,9696.697840
861.973622,536.266849,-148.041188,9548.656652
861.973938,842.705048,-148.041188,9696.697840
861.974254,919.314598,-222.061783,9770.718434
861.974569,536.266849,-222.061783,9400.615463
861.974885,689.485948,-370.102971,9474.636058
861.975201,612.876398,-444.123565,9548.656652
861.975517,766.095498,-222.061783,9548.656652
861.975832,995.924147,-370.102971,9548.656652
861.976148,995.924147,-0.000000,9548.656652
861.976464,995.924147,-0.000000,9474.636058
861.976780,766.095498,-0.000000,9400.615463
861.977096,766.095498,-0.000000,9474.636058
861.977411,536.266849,-0.000000,9770.718434
861.977727,383.047749,-0.000000,9400.615463
861.978043,383.047749,-0.000000,9400.615463
861.978359,76.609550,-222.061783,9622.677246
861.978675,459.657299,-444.123565,9992.780217
861.978990,76.609550,-518.144159,9770.718434
861.979306,0.000000,-592.164754,9770.718434
861.979622,153.219100,-592.164754,9770.718434
861.979938,0.000000,-370.102971,9622.677246
861.980254,0.000000,-296.082377,9548.656652
861.980569,306.438199,-296.082377,9696.697840
861.980885,536.266849,-0.000000,9400.615463
861.981201,229.828649,-74.020594,9326.594869
861.981517,459.657299,-0.000000,9178.553681
861.981832,689.485948,-370.102971,9178.553681
861.982148,689.485948,-0.000000,9104.533087
861.982464,383.047749,-74.020594,9326.594869
861.982780,459.657299,-0.000000,9178.553681
861.983096,383.047749,-222.061783,9252.574275
861.983411,0.000000,-148.041188,8882.471304
861.983727,76.609550,-296.082377,9400.615463
861.984043,0.000000,-148.041188,9622.677246
861.984359,0.000000,-444.123565,9400.615463
861.984675,76.609550,-296.082377,9474.636058
861.984990,306.438199,-222.061783,9326.594869
861.985306,0.000000,-370.102971,9474.636058
861.985622,76.609550,-74.020594,9474.636058
861.985938,229.828649,-74.020594,9474.636058
861.986254,612.876398,-74.020594,9252.574275
861.986569,306.438199,-0.000000,9326.594869
861.986885,383.047749,-0.000000,9400.615463
861.987201,612.876398,-0.000000,9178.553681
861.987517,459.657299,-0.000000,9104.533087
861.987832,689.485948,-0.000000,9252.574275
861.988148,306.438199,-0.000000,9474.636058
861.988464,459.657299,-0.000000,9400.615463
861.988780,612.876398,-74.020594,9400.615463
861.989096,459.657299,-0.000000,9474.636058
861.989411,229.828649,-296.082377,9696.697840
861.989727,689.485948,-148.041188,9474.636058
861.990043,383.047749,-222.061783,9474.636058
861.990359,536.266849,-148.041188,9548.656652
861.990675,229.828649,-148.041188,9622.677246
861.990990,76.609550,-444.123565,9770.718434
861.991306,383.047749,-222.061783,9622.677246
861.991622,229.828649,-148.041188,9474.636058
861.991938,306.438199,-0.000000,9770.718434
861.992254,306.438199,-370.102971,9622.677246
861.992569,0.000000,-0.000000,9696.697840
861.992885,612.876398,-148.041188,9474.636058
861.993201,842.705048,-74.020594,9474.636058
861.993517,766.095498,-74.020594,9548.656652
861.993832,536.266849,-148.041188,9622.677246
861.994148,689.485948,-0.000000,9622.677246
861.994464,766.095498,-222.061783,9474.636058
861.994780,689.485948,-148.041188,9474.636058
861.995096,689.485948,-0.000000,9622.677246
861.995411,842.705048,-74.020594,9326.594869
861.995727,689.485948,-0.000000,9474.636058
861.996043,612.876398,-222.061783,9474.636058
861.996359,536.266849,-222.061783,9548.656652
861.996675,689.485948,-74.020594,9474.636058
861.996990,76.609550,-0.000000,9474.636058
861.997306,612.876398,-148.041188,9326.594869
861.997622,459.657299,-222.061783,9474.636058
861.997938,153.219100,-222.061783,9622.677246
861.998254,76.609550,-222.061783,9474.636058
861.998569,306.438199,-296.082377,9622.677246
861.998885,459.657299,-518.144159,9326.594869
861.999201,459.657299,-370.102971,9474.636058
861.999517,153.219100,-370.102971,9326.594869
861.999833,153.219100,-222.061783,9400.615463
862.000148,459.657299,-222.061783,9474.636058
862.000464,383.047749,-296.082377,9548.656652
862.000780,229.828649,-148.041188,9326.594869
862.001096,383.047749,-148.041188,9252.574275
862.001411,612.876398,-222.061783,9178.553681
862.001727,536.266849,-222.061783,9474.636058
862.002043,306.438199,-222.061783,9326.594869
862.002359,0.000000,-444.123565,9252.574275
862.002675,536.266849,-370.102971,9252.574275
862.002990,-153.219100,-666.185348,9178.553681
862.003306,459.657299,-370.102971,9252.574275
862.003622,0.000000,-370.102971,9474.636058
862.003938,76.609550,-518.144159,9474.636058
862.004254,76.609550,-370.102971,9400.615463
862.004569,612.876398,-740.205942,9326.594869
862.004885,459.657299,-148.041188,9400.615463
862.005201,306.438199,-370.102971,9252.574275
862.005517,459.657299,-296.082377,9252.574275
862.005833,306.438199,-74.020594,9400.615463
862.006148,766.095498,222.061783,9474.636058
862.006464,306.438199,-0.000000,9548.656652
862.006780,306.438199,-0.000000,9104.533087
862.007096,459.657299,-0.000000,9474.636058
862.007411,229.828649,-0.000000,9622.677246
862.007727,459.657299,-222.061783,9770.718434
862.008043,383.047749,-222.061783,9696.697840
862.008359,229.828649,-0.000000,9770.718434
862.008675,306.438199,-74.020594,9548.656652
862.008990,612.876398,-148.041188,9696.697840
862.009306,306.438199,-444.123565,9474.636058
862.009622,919.314598,-74.020594,9622.677246
862.009938,459.657299,-148.041188,9844.739029
862.010254,689.485948,-222.061783,9400.615463
862.010569,919.314598,-148.041188,9622.677246
862.010885,612.876398,-148.041188,9696.697840
862.011201,766.095498,-0.000000,9474.636058
862.011517,842.705048,-0.000000,9474.636058
862.011833,612.876398,-0.000000,9474.636058
862.012148,612.876398,-0.000000,9474.636058
862.012464,612.876398,-0.000000,9622.677246
862.012780,383.047749,-0.000000,9622.677246
862.013096,229.828649,-148.041188,9548.656652
862.013411,0.000000,-148.041188,9622.677246
862.013727,76.609550,-222.061783,9770.718434
862.014043,689.485948,-444.123565,9992.780217
862.014359,0.000000,-296.082377,9844.739029
862.014675,229.828649,-148.041188,9696.697840
862.014990,76.609550,-370.102971,9548.656652
862.015306,229.828649,-444.123565,9474.636058
862.015622,306.438199,-222.061783,9326.594869
862.015938,383.047749,-74.020594,9326.594869
862.016254,306.438199,-0.000000,9474.636058
862.016569,383.047749,-0.000000,9326.594869
862.016885,1225.752797,-0.000000,9178.553681
862.017201,459.657299,-74.020594,9252.574275
862.017516,383.047749,-148.041188,9178.553681
862.017832,306.438199,-148.041188,9400.615463
862.018148,229.828649,-74.020594,9326.594869
862.018464,306.438199,-222.061783,9474.636058
862.018779,306.438199,-370.102971,9252.574275
862.019095,153.219100,-222.061783,9622.677246
862.019411,229.828649,-148.041188,9400.615463
862.019726,0.000000,-296.082377,9474.636058
862.020042,-459.657299,-148.041188,9622.677246
862.020358,153.219100,-370.102971,9326.594869
862.020673,76.609550,-444.123565,9326.594869
862.020989,383.047749,-222.061783,9178.553681
862.021305,306.438199,-222.061783,9474.636058
862.021620,536.266849,-222.061783,9252.574275
862.021936,383.047749,-0.000000,9474.636058
862.022252,689.485948,-0.000000,9252.574275
862.022568,612.876398,-0.000000,9252.574275
862.022883,383.047749,-0.000000,9326.594869
862.023199,1455.581446,-0.000000,9178.553681
862.023515,459.657299,-148.041188,9178.553681
862.023830,536.266849,-296.082377,9400.615463
862.024146,306.438199,-74.020594,9474.636058
862.024462,383.047749,-370.102971,9548.656652
862.024777,306.438199,-370.102971,9548.656652
862.025093,229.828649,-518.144159,9696.697840
862.025409,229.828649,-74.020594,9696.697840
862.025725,536.266849,-296.082377,9548.656652
862.026040,383.047749,-148.041188,9622.677246
862.026356,612.876398,-148.041188,9696.697840
862.026672,612.876398,-148.041188,9548.656652
862.026987,612.876398,-0.000000,9622.677246
862.027303,536.266849,-74.020594,9622.677246
862.027619,612.876398,-222.061783,9548.656652
862.027934,689.485948,-296.082377,9696.697840
862.028250,383.047749,-0.000000,9770.718434
862.028566,612.876398,-222.061783,9474.636058
862.028881,689.485948,-74.020594,9474.636058
862.029197,536.266849,-148.041188,9548.656652
862.029513,842.705048,296.082377,9548.656652
862.029829,536.266849,-74.020594,9474.636058
862.030144,612.876398,-74.020594,9548.656652
862.030460,689.485948,-148.041188,9696.697840
862.030776,766.095498,-296.082377,9474.636058
862.031091,842.705048,-296.082377,9548.656652
862.031407,383.047749,-296.082377,9548.656652
862.031723,536.266849,-0.000000,9474.636058
862.032038,459.657299,-222.061783,9696.697840
862.032354,383.047749,-74.020594,9474.636058
862.032670,383.047749,-296.082377,9548.656652
862.032986,536.266849,-74.020594,9474.636058
862.033301,459.657299,-296.082377,9400.615463
862.033617,459.657299,-148.041188,9400.615463
862.033933,0.000000,-518.144159,9104.533087
862.034248,383.047749,-148.041188,9548.656652
862.034564,306.438199,-148.041188,9622.677246
862.034880,766.095498,-74.020594,9326.594869
862.035195,459.657299,-222.061783,9178.553681
862.035511,383.047749,-222.061783,9326.594869
862.035827,383.047749,-0.000000,9400.615463
862.036142,383.047749,-222.061783,9400.615463
862.036458,153.219100,-148.041188,9326.594869
862.036774,229.828649,-296.082377,9252.574275
862.037090,153.219100,-222.061783,9400.615463
862.037405,306.438199,-222.061783,9178.553681
862.037721,229.828649,-296.082377,9474.636058
862.038037,229.828649,-296.082377,9474.636058
862.038352,0.000000,-370.102971,9400.615463
862.038668,-229.828649,-444.123565,9104.533087
862.038984,76.609550,-296.082377,9400.615463
862.039299,229.828649,-444.123565,9400.615463
862.039615,229.828649,-370.102971,9252.574275
862.039931,306.438199,-148.041188,9474.636058
862.040247,459.657299,-74.020594,9326.594869
862.040562,536.266849,-296.082377,9104.533087
862.040878,459.657299,-222.061783,9252.574275
862.041194,306.438199,-74.020594,9474.636058
862.041509,383.047749,-74.020594,9326.594869
862.041825,689.485948,-74.020594,9178.553681
862.042141,459.657299,-0.000000,9474.636058
862.042456,306.438199,-74.020594,9474.636058
862.042772,306.438199,-148.041188,9474.636058
862.043088,689.485948,-370.102971,9548.656652
862.043403,689.485948,-74.020594,9696.697840
862.043719,766.095498,-222.061783,9326.594869
862.044035,842.705048,-222.061783,9474.636058
862.044351,689.485948,-74.020594,9696.697840
862.044666,459.657299,-222.061783,9474.636058
862.044982,612.876398,-0.000000,9696.697840
862.045298,842.705048,-148.041188,9918.759623
862.045613,842.705048,-296.082377,9474.636058
862.045929,842.705048,-148.041188,9696.697840
862.046245,842.705048,-518.144159,9918.759623
862.046560,689.485948,-222.061783,9474.636058
862.046876,919.314598,-0.000000,9474.636058
862.047192,766.095498,-148.041188,9474.636058
862.047508,842.705048,-74.020594,9400.615463
862.047823,1225.752797,-0.000000,9400.615463
862.048139,459.657299,-0.000000,9326.594869
862.048455,536.266849,-0.000000,9474.636058
862.048770,383.047749,-0.000000,9548.656652
862.049086,459.657299,-296.082377,9548.656652
862.049402,229.828649,-296.082377,9992.780217
862.049717,76.609550,-296.082377,9770.718434
862.050033,0.000000,-740.205942,9474.636058
862.050349,153.219100,-592.164754,9696.697840
862.050664,0.000000,-370.102971,9696.697840
862.050980,76.609550,-592.164754,9844.739029
862.051296,229.828649,-296.082377,9474.636058
862.051612,229.828649,-74.020594,9548.656652
862.051927,383.047749,-0.000000,9252.574275
862.052243,536.266849,-0.000000,9178.553681
862.052559,383.047749,-148.041188,9326.594869
862.052874,459.657299,-0.000000,9326.594869
862.053190,536.266849,-0.000000,9030.512492
862.053506,536.266849,-148.041188,9178.553681
862.053821,459.657299,-296.082377,9326.594869
862.054137,229.828649,-296.082377,9474.636058
862.054453,0.000000,-148.041188,9474.636058
862.054769,0.000000,-222.061783,9474.636058
862.055084,76.609550,-222.061783,9474.636058
862.055400,306.438199,-0.000000,9474.636058
862.055716,-153.219100,-296.082377,9474.636058
862.056031,0.000000,-74.020594,9548.656652
862.056347,306.438199,-0.000000,9326.594869
862.056663,76.609550,-74.020594,9326.594869
862.056978,76.609550,-0.000000,9400.615463
862.057294,153.219100,-0.000000,9326.594869
862.057610,383.047749,-0.000000,9252.574275
862.057925,536.266849,-0.000000,9252.574275
862.058241,612.876398,518.144159,9474.636058
862.058557,459.657299,148.041188,9474.636058
862.058873,383.047749,-0.000000,9474.636058
862.059188,383.047749,-148.041188,9326.594869
862.059504,689.485948,-0.000000,9474.636058
862.059820,383.047749,-370.102971,9474.636058
862.060135,459.657299,-148.041188,9252.574275
862.060451,229.828649,-148.041188,9548.656652
862.060767,229.828649,-148.041188,9548.656652
862.061082,459.657299,-148.041188,9622.677246
862.061398,383.047749,-222.061783,9622.677246
862.061714,306.438199,-74.020594,9622.677246
862.062030,536.266849,-0.000000,9622.677246
862.062345,612.876398,-74.020594,9474.636058
862.062661,536.266849,-148.041188,9548.656652
862.062977,459.657299,-0.000000,9918.759623
862.063292,459.657299,-74.020594,9696.697840
862.063608,536.266849,-0.000000,9622.677246
862.063924,459.657299,-74.020594,9696.697840
862.064239,383.047749,-0.000000,9622.677246
862.064555,842.705048,-0.000000,9622.677246
862.064871,689.485948,-222.061783,9548.656652
862.065186,459.657299,-148.041188,9474.636058
862.065502,689.485948,-222.061783,9622.677246
862.065818,689.485948,-370.102971,9622.677246
862.066134,842.705048,-0.000000,9474.636058
862.066449,306.438199,-222.061783,9696.697840
862.066765,612.876398,-148.041188,9548.656652
862.067081,612.876398,-0.000000,9548.656652
862.067396,229.828649,-0.000000,9548.656652
862.067712,383.047749,-148.041188,9770.718434
862.068028,536.266849,-0.000000,9326.594869
862.068343,383.047749,-148.041188,9474.636058
862.068659,229.828649,-296.082377,9474.636058
862.068975,383.047749,-296.082377,9548.656652
862.069291,306.438199,-74.020594,9992.780217
862.069606,229.828649,-296.082377,9400.615463
862.069922,306.438199,-370.102971,9474.636058
862.070238,229.828649,-296.082377,9474.636058
862.070553,459.657299,-296.082377,9622.677246
862.070869,842.705048,-370.102971,9548.656652
862.071185,459.657299,-370.102971,9326.594869
862.071500,153.219100,-148.041188,9474.636058
862.071816,306.438199,-296.082377,9326.594869
862.072132,536.266849,-370.102971,9326.594869
862.072448,153.219100,-666.185348,9474.636058
862.072763,459.657299,-148.041188,9548.656652
862.073079,0.000000,-444.123565,9326.594869
862.073395,229.828649,-666.185348,9400.615463
862.073710,306.438199,-222.061783,9400.615463
862.074026,-306.438199,-444.123565,9696.697840
862.074342,76.609550,-444.123565,9474.636058
862.074657,0.000000,-222.061783,9474.636058
862.074973,153.219100,-296.082377,9474.636058
862.075289,383.047749,-370.102971,9178.553681
862.075604,76.609550,-444.123565,9400.615463
862.075920,306.438199,-74.020594,9474.636058
862.076236,536.266849,-0.000000,9326.594869
862.076552,536.266849,-222.061783,9252.574275
862.076867,459.657299,-0.000000,9474.636058
862.077183,536.266849,-148.041188,9400.615463
862.077499,306.438199,-74.020594,9622.677246
862.077814,459.657299,-222.061783,9548.656652
862.078130,689.485948,-0.000000,9548.656652
862.078446,459.657299,-222.061783,9474.636058
862.078761,459.657299,-148.041188,9696.697840
862.079077,536.266849,-296.082377,9474.636058
862.079393,383.047749,-0.000000,9622.677246
862.079709,689.485948,-74.020594,9548.656652
862.080024,766.095498,-222.061783,9844.739029
862.080340,766.095498,-0.000000,9622.677246
862.080656,766.095498,-0.000000,9622.677246
862.080971,689.485948,-74.020594,9622.677246
862.081287,766.095498,-222.061783,9696.697840
862.081603,766.095498,148.041188,9770.718434
862.081918,1225.752797,-0.000000,9622.677246
862.082234,842.705048,222.061783,9474.636058
862.082550,689.485948,-74.020594,9474.636058
862.082865,536.266849,148.041188,9474.636058
862.083181,842.705048,-296.082377,9030.512492
862.083497,612.876398,-0.000000,9326.594869
862.083813,306.438199,-0.000000,9474.636058
862.084128,229.828649,-74.020594,9622.677246
862.084444,153.219100,-370.102971,9696.697840
862.084760,0.000000,-740.205942,9474.636058
862.085075,229.828649,-518.144159,9770.718434
862.085391,0.000000,-370.102971,9696.697840
862.085707,229.828649,-296.082377,9548.656652
862.086022,153.219100,-370.102971,9474.636058
862.086338,0.000000,-296.082377,9770.718434
862.086654,153.219100,-222.061783,9326.594869
862.086970,306.438199,-0.000000,9326.594869
862.087285,229.828649,-148.041188,9474.636058
862.087601,383.047749,148.041188,9252.574275
862.087917,383.047749,-222.061783,9400.615463
862.088232,536.266849,296.082377,9178.553681
862.088548,536.266849,-0.000000,9178.553681
862.088864,383.047749,-0.000000,9178.553681
862.089179,153.219100,-222.061783,9326.594869
862.089495,306.438199,-148.041188,9400.615463
862.089811,153.219100,-296.082377,9400.615463
862.090126,229.828649,-148.041188,9474.636058
862.090442,229.828649,-370.102971,9400.615463
862.090758,536.266849,-222.061783,9474.636058
862.091074,306.438199,-296.082377,9400.615463
862.091389,76.609550,-296.082377,9400.615463
862.091705,383.047749,-74.020594,9252.574275
862.092021,536.266849,-148.041188,9326.594869
862.092336,459.657299,-222.061783,9252.574275
862.092652,229.828649,-148.041188,9400.615463
862.092968,612.876398,-0.000000,9252.574275
862.093283,766.095498,-0.000000,9178.553681
862.093599,766.095498,-0.000000,9400.615463
862.093915,612.876398,-148.041188,9326.594869
862.094231,383.047749,-222.061783,9474.636058
862.094546,383.047749,-74.020594,9474.636058
862.094862,689.485948,-148.041188,9326.594869
862.095178,459.657299,-148.041188,9548.656652
862.095493,536.266849,-444.123565,9400.615463
862.095809,229.828649,-222.061783,9474.636058
862.096125,536.266849,-296.082377,9548.656652
862.096440,383.047749,-444.123565,9696.697840
862.096756,383.047749,-74.020594,9622.677246
862.097072,689.485948,-148.041188,9548.656652
862.097387,536.266849,-296.082377,9400.615463
862.097703,383.047749,-296.082377,9474.636058
862.098019,612.876398,-0.000000,9622.677246
862.098335,689.485948,-148.041188,9548.656652
862.098650,842.705048,-444.123565,9474.636058
862.098966,383.047749,-74.020594,9548.656652
862.099282,459.657299,-296.082377,9474.636058
862.099597,536.266849,-74.020594,9474.636058
862.099913,919.314598,-0.000000,9548.656652
862.100229,766.095498,-370.102971,9548.656652
862.100544,536.266849,-222.061783,9622.677246
862.100860,612.876398,-74.020594,9696.697840
862.101176,689.485948,-148.041188,9696.697840
862.101492,459.657299,-74.020594,9622.677246
862.101807,612.876398,-444.123565,9474.636058
862.102123,536.266849,-74.020594,9548.656652
862.102439,612.876398,-0.000000,9548.656652
862.102754,612.876398,148.041188,9326.594869
862.103070,766.095498,148.041188,9474.636058
862.103386,153.219100,-74.020594,9400.615463
862.103701,153.219100,-0.000000,9770.718434
862.104017,76.609550,-296.082377,9474.636058
862.104333,383.047749,-370.102971,9474.636058
862.104648,229.828649,-148.041188,9474.636058
862.104964,383.047749,-222.061783,9400.615463
862.105280,536.266849,-296.082377,9548.656652
862.105596,229.828649,-296.082377,9474.636058
862.105911,459.657299,-370.102971,9326.594869
862.106227,689.485948,-296.082377,9474.636058
862.106543,459.657299,-296.082377,9474.636058
862.106858,153.219100,-444.123565,9400.615463
862.107174,306.438199,-370.102971,9548.656652
862.107490,612.876398,-148.041188,9178.553681
862.107805,919.314598,-74.020594,9252.574275
862.108121,229.828649,-370.102971,9178.553681
862.108437,153.219100,-222.061783,9474.636058
862.108753,153.219100,-444.123565,9178.553681
862.109068,229.828649,-296.082377,9474.636058
862.109384,-153.219100,-370.102971,9548.656652
862.109700,0.000000,-370.102971,9844.739029
862.110015,76.609550,-296.082377,9474.636058
862.110331,153.219100,-370.102971,9474.636058
862.110647,383.047749,-222.061783,9400.615463
862.110962,459.657299,-296.082377,9252.574275
862.111278,306.438199,-296.082377,9400.615463
862.111594,229.828649,-74.020594,9326.594869
862.111909,383.047749,-74.020594,9326.594869
862.112225,689.485948,-74.020594,9474.636058
862.112541,153.219100,-222.061783,9548.656652
862.112857,383.047749,-370.102971,9400.615463
862.113172,306.438199,-370.102971,9326.594869
862.113488,229.828649,-148.041188,9400.615463
862.113804,689.485948,-592.164754,9548.656652
862.114119,689.485948,-74.020594,9474.636058
862.114435,612.876398,-74.020594,9548.656652
862.114751,459.657299,-0.000000,9474.636058
862.115066,612.876398,-0.000000,9548.656652
862.115382,766.095498,-222.061783,9474.636058
862.115698,459.657299,-370.102971,9622.677246
862.116014,612.876398,-0.000000,9696.697840
862.116329,919.314598,-74.020594,9622.677246
862.116645,1225.752797,-296.082377,9844.739029
862.116961,612.876398,-74.020594,9844.739029
862.117276,842.705048,-148.041188,9474.636058
862.117592,995.924147,-222.061783,9474.636058
862.117908,919.314598,-0.000000,9474.636058
862.118223,842.705048,-296.082377,9622.677246
862.118539,766.095498,-0.000000,9474.636058
862.118855,689.485948,148.041188,9622.677246
862.119171,612.876398,-0.000000,9474.636058
862.119486,459.657299,-74.020594,9696.697840
862.119802,536.266849,-222.061783,9844.739029
862.120118,153.219100,-592.164754,9844.739029
862.120433,229.828649,-518.144159,9622.677246
862.120749,76.609550,-444.123565,9844.739029
862.121065,0.000000,-666.185348,9696.697840
862.121381,0.000000,-740.205942,10140.821405
862.121696,229.828649,-444.123565,9770.718434
862.122012,153.219100,-444.123565,9474.636058
862.122328,229.828649,-296.082377,9400.615463
862.122643,919.314598,-148.041188,9474.636058
862.122959,612.876398,222.061783,9104.533087
862.123275,536.266849,-0.000000,9178.553681
862.123591,612.876398,-74.020594,9178.553681
