#time,accel_x,accel_y,accel_z
1086.577866,459.657299,-148.041188,9474.636058
1086.578181,459.657299,-148.041188,9622.677246
1086.578497,306.438199,-222.061783,9474.636058
1086.578813,536.266849,-74.020594,9548.656652
1086.579129,459.657299,-148.041188,9696.697840
1086.579445,459.657299,-222.061783,9474.636058
1086.579761,766.095498,-370.102971,9696.697840
1086.580076,306.438199,-222.061783,9474.636058
1086.580392,459.657299,-444.123565,9548.656652
1086.580708,536.266849,-0.000000,9474.636058
1086.581024,612.876398,-222.061783,9474.636058
1086.581340,536.266849,-296.082377,9474.636058
1086.581656,459.657299,-370.102971,9622.677246
1086.581971,229.828649,-148.041188,9474.636058
1086.582287,306.438199,-0.000000,9474.636058
1086.582603,536.266849,-148.041188,9400.615463
1086.582919,536.266849,-148.041188,9252.574275
1086.583235,536.266849,-222.061783,9474.636058
1086.583551,536.266849,-148.041188,9474.636058
1086.583866,689.485948,-148.041188,9252.574275
1086.584182,383.047749,-0.000000,9622.677246
1086.584498,536.266849,-444.123565,9474.636058
1086.584814,383.047749,-148.041188,9548.656652
1086.585130,229.828649,-0.000000,9548.656652
1086.585446,229.828649,-296.082377,9326.594869
1086.585761,383.047749,-148.041188,9474.636058
1086.586077,383.047749,-444.123565,9622.677246
1086.586393,306.438199,-148.041188,9474.636058
1086.586709,306.438199,-222.061783,9622.677246
1086.587025,229.828649,-0.000000,9400.615463
1086.587341,383.047749,-0.000000,9696.697840
1086.587656,383.047749,-222.061783,9400.615463
1086.587972,383.047749,-0.000000,9474.636058
1086.588288,383.047749,-222.061783,9474.636058
1086.588604,306.438199,-0.000000,9474.636058
1086.588920,536.266849,-0.000000,9770.718434
1086.589236,459.657299,-74.020594,9548.656652
1086.589551,536.266849,-0.000000,9474.636058
1086.589867,459.657299,444.123565,9252.574275
1086.590183,383.047749,148.041188,9326.594869
1086.590499,766.095498,-148.041188,9400.615463
1086.590815,766.095498,296.082377,9178.553681
1086.591131,536.266849,444.123565,9104.533087
1086.591446,536.266849,296.082377,9400.615463
1086.591762,459.657299,296.082377,9326.594869
1086.592078,842.705048,-0.000000,9178.553681
1086.592394,842.705048,-0.000000,9548.656652
1086.592710,689.485948,370.102971,9548.656652
1086.593026,306.438199,370.102971,9400.615463
1086.593341,842.705048,592.164754,9474.636058
1086.593657,459.657299,296.082377,9622.677246
1086.593973,536.266849,740.205942,9326.594869
1086.594289,536.266849,1110.308913,9252.574275
1086.594605,153.219100,962.267725,9178.553681
1086.594921,383.047749,888.247130,9474.636058
1086.595237,0.000000,666.185348,9400.615463
1086.595552,0.000000,814.226536,9178.553681
1086.595868,0.000000,962.267725,9400.615463
1086.596184,0.000000,740.205942,9326.594869
1086.596500,0.000000,888.247130,9400.615463
1086.596816,-1149.143247,1184.329507,9400.615463
1086.597132,-689.485948,1036.288319,9104.533087
1086.597447,-919.314598,1406.391290,9474.636058
1086.597763,-1149.143247,1554.432478,9474.636058
1086.598079,-1378.971896,1332.370696,9696.697840
1086.598395,-2068.457845,1258.350101,9696.697840
1086.598711,-1991.848295,1406.391290,9770.718434
1086.599027,-2068.457845,1258.350101,9548.656652
1086.599342,-2221.676944,1332.370696,9622.677246
1086.599658,-1991.848295,1332.370696,9622.677246
1086.599974,-2374.896044,1554.432478,9622.677246
1086.600290,-1762.019645,1776.494261,9548.656652
1086.600606,-1915.238745,1554.432478,9178.553681
1086.600922,-1685.410096,2072.576638,9400.615463
1086.601237,-1532.190996,1702.473667,9474.636058
1086.601553,-1532.190996,1258.350101,9400.615463
1086.601869,-1455.581446,1702.473667,9400.615463
1086.602185,-1225.752797,1628.453072,9548.656652
1086.602501,-1225.752797,1702.473667,9622.677246
1086.602817,-1225.752797,1924.535449,9622.677246
1086.603132,-689.485948,1776.494261,9770.718434
1086.603448,-1149.143247,2220.617826,9400.615463
1086.603764,-1072.533697,2368.659014,9474.636058
1086.604080,-1378.971896,2220.617826,9178.553681
1086.604396,-1378.971896,2516.700203,9400.615463
1086.604712,-1532.190996,2220.617826,9622.677246
1086.605027,-1838.629195,1776.494261,9548.656652
1086.605343,-1991.848295,1332.370696,9844.739029
1086.605659,-1915.238745,1184.329507,9918.759623
1086.605975,-1991.848295,1110.308913,9992.780217
1086.606291,-2374.896044,1110.308913,9696.697840
1086.606607,-1991.848295,1406.391290,9844.739029
1086.606922,-1991.848295,1332.370696,9696.697840
1086.607238,-1915.238745,1332.370696,9696.697840
1086.607554,-2298.286494,1406.391290,9548.656652
1086.607870,-1838.629195,1480.411884,9696.697840
1086.608186,-1685.410096,1702.473667,9548.656652
1086.608502,-1378.971896,1776.494261,9252.574275
1086.608817,-1608.800546,1924.535449,9178.553681
1086.609133,-1838.629195,1776.494261,8956.491898
1086.609449,-2221.676944,2368.659014,9178.553681
1086.609765,-2221.676944,2442.679609,8882.471304
1086.610081,-2604.724693,2368.659014,9104.533087
1086.610397,-2604.724693,1998.556043,9400.615463
1086.610712,-2451.505594,1258.350101,9696.697840
1086.611028,-2987.772442,814.226536,9696.697840
1086.611344,-3064.381992,296.082377,10288.862594
1086.611660,-2604.724693,-74.020594,10436.903782
1086.611976,-2451.505594,-0.000000,10288.862594
1086.612292,-1685.410096,222.061783,10140.821405
1086.612607,-1608.800546,740.205942,9992.780217
1086.612923,-766.095498,1628.453072,9474.636058
1086.613239,0.000000,2072.576638,8882.471304
1086.613555,229.828649,2664.741391,8512.368333
1086.613871,689.485948,2886.803174,8068.244768
1086.614187,459.657299,2960.823768,7846.182985
1086.614502,459.657299,2812.782580,7772.162391
1086.614818,76.609550,2812.782580,7994.224174
1086.615134,-766.095498,2516.700203,8364.327145
1086.615450,-1685.410096,2368.659014,8512.368333
1086.615766,-2451.505594,1776.494261,9400.615463
1086.616082,-3140.991542,1554.432478,10214.842000
1086.616397,-3753.867940,1480.411884,10140.821405
1086.616713,-4136.915689,666.185348,10732.986159
1086.617029,-4213.525239,222.061783,11325.150913
1086.617345,-3524.039291,-0.000000,11177.109724
1086.617661,-2987.772442,222.061783,10955.047942
1086.617977,-1915.238745,592.164754,10214.842000
1086.618292,-1072.533697,740.205942,9696.697840
1086.618608,0.000000,1924.535449,9326.594869
1086.618924,919.314598,2738.761985,8512.368333
1086.619240,995.924147,3627.009116,8068.244768
1086.619556,1149.143247,4441.235652,7698.141797
1086.619872,1838.629195,4811.338623,7328.038826
1086.620187,536.266849,4737.318029,7179.997637
1086.620503,-153.219100,4737.318029,7254.018232
1086.620819,-1302.362347,3552.988522,8068.244768
1086.621135,-2604.724693,2664.741391,9474.636058
1086.621451,-3753.867940,814.226536,10584.944971
1086.621767,-4749.792088,-0.000000,11399.171507
1086.622082,-5132.839837,-888.247130,12065.356855
1086.622398,-5209.449386,-1776.494261,12805.562797
1086.622714,-5056.230287,-1702.473667,12805.562797
1086.623030,-4213.525239,-1258.350101,12435.459826
1086.623346,-2834.553343,-0.000000,11251.130318
1086.623662,-1455.581446,1924.535449,9992.780217
1086.623977,76.609550,3330.926739,8290.306550
1086.624293,1149.143247,4811.338623,6809.894666
1086.624609,1685.410096,5773.606348,6069.688724
1086.624925,1685.410096,5699.585753,6069.688724
1086.625241,1149.143247,5403.503377,6439.791695
1086.625557,459.657299,4219.173869,7476.080014
1086.625872,-536.266849,1998.556043,8882.471304
1086.626188,-2451.505594,1036.288319,9844.739029
1086.626504,-3677.258390,-370.102971,11399.171507
1086.626820,-4136.915689,-1184.329507,12287.418637
1086.627136,-4290.134789,-1406.391290,12657.521608
1086.627452,-4136.915689,-592.164754,12361.439231
1086.627767,-3907.087040,-0.000000,11251.130318
1086.628083,-3447.429741,1036.288319,10732.986159
1086.628399,-2221.676944,1628.453072,9622.677246
1086.628715,-689.485948,3034.844362,8660.409521
1086.629031,306.438199,4145.153275,7550.100608
1086.629347,766.095498,4441.235652,7402.059420
1086.629662,842.705048,3627.009116,7402.059420
1086.629978,766.095498,2664.741391,7846.182985
1086.630294,1225.752797,2146.597232,8438.347739
1086.630610,0.000000,1628.453072,8512.368333
1086.630926,-536.266849,1110.308913,8808.450710
1086.631242,-1302.362347,666.185348,9844.739029
1086.631557,-2145.067394,222.061783,10288.862594
1086.631873,-2604.724693,740.205942,11029.068536
1086.632189,-3370.820191,518.144159,10214.842000
1086.632505,-4060.306139,296.082377,10140.821405
1086.632821,-3753.867940,-148.041188,10288.862594
1086.633137,-3370.820191,-370.102971,10288.862594
1086.633452,-2604.724693,-0.000000,9918.759623
1086.633768,-2451.505594,888.247130,9252.574275
1086.634084,-1915.238745,1110.308913,8512.368333
1086.634400,-1532.190996,1480.411884,8586.388927
1086.634716,-1302.362347,1184.329507,8882.471304
1086.635032,-1378.971896,1628.453072,9104.533087
1086.635347,-1455.581446,1258.350101,9178.553681
1086.635663,-1302.362347,148.041188,9696.697840
1086.635979,-612.876398,-0.000000,9844.739029
1086.636295,-766.095498,-518.144159,9622.677246
1086.636611,-536.266849,-592.164754,9992.780217
1086.636927,-153.219100,-444.123565,9548.656652
1086.637242,0.000000,-0.000000,9400.615463
1086.637558,76.609550,370.102971,9104.533087
1086.637874,0.000000,518.144159,9474.636058
1086.638190,459.657299,1258.350101,9178.553681
1086.638506,766.095498,1998.556043,8734.430116
1086.638822,536.266849,2072.576638,8512.368333
1086.639137,689.485948,1406.391290,8586.388927
1086.639453,536.266849,1480.411884,8734.430116
1086.639769,383.047749,444.123565,9178.553681
1086.640085,-536.266849,-296.082377,9844.739029
1086.640401,-1072.533697,-814.226536,10584.944971
1086.640717,-842.705048,-1036.288319,11325.150913
1086.641032,-842.705048,-814.226536,11103.089130
1086.641348,-919.314598,-296.082377,10732.986159
1086.641664,-153.219100,-370.102971,10288.862594
1086.641980,842.705048,-148.041188,9548.656652
1086.642301,1762.019645,-0.000000,9252.574275
1086.642617,2221.676944,1110.308913,8512.368333
1086.642932,2681.334243,1332.370696,8216.285956
1086.643248,2834.553343,1332.370696,8438.347739
1086.643564,2604.724693,1628.453072,8142.265362
1086.643880,2298.286494,2368.659014,8364.327145
1086.644195,1532.190996,1998.556043,7994.224174
1086.644511,612.876398,1554.432478,8438.347739
1086.644827,-612.876398,666.185348,9474.636058
1086.645142,-1532.190996,-444.123565,10436.903782
1086.645458,-2068.457845,-1036.288319,11695.253884
1086.645774,-2145.067394,-1332.370696,11547.212695
1086.646090,-2604.724693,-1702.473667,11473.192101
1086.646405,-2528.115143,-2072.576638,11103.089130
1086.646721,-1532.190996,-2220.617826,10732.986159
1086.647037,-1302.362347,-1332.370696,10732.986159
1086.647352,0.000000,-740.205942,9622.677246
1086.647668,919.314598,-0.000000,9104.533087
1086.647984,1915.238745,370.102971,8882.471304
1086.648300,2604.724693,962.267725,8290.306550
1086.648615,2987.772442,1406.391290,7550.100608
1086.648931,3370.820191,1776.494261,7105.977043
1086.649247,3140.991542,1110.308913,7328.038826
1086.649562,2911.162892,1110.308913,8364.327145
1086.649878,2221.676944,592.164754,7994.224174
1086.650194,919.314598,296.082377,9548.656652
1086.650509,76.609550,-148.041188,10362.883188
1086.650825,-612.876398,-814.226536,10214.842000
1086.651141,-919.314598,-814.226536,10288.862594
1086.651457,-1608.800546,-2072.576638,11103.089130
1086.651772,-1532.190996,-1998.556043,10732.986159
1086.652088,-1608.800546,-1480.411884,10732.986159
1086.652404,-995.924147,-1258.350101,10584.944971
1086.652719,-306.438199,-888.247130,10362.883188
1086.653035,689.485948,666.185348,9548.656652
1086.653351,1225.752797,1036.288319,8734.430116
1086.653667,1685.410096,962.267725,8290.306550
1086.653982,2451.505594,1332.370696,8364.327145
1086.654298,2221.676944,1406.391290,7698.141797
1086.654614,1991.848295,1110.308913,8512.368333
1086.654929,2068.457845,370.102971,9104.533087
1086.655245,2145.067394,444.123565,8956.491898
1086.655561,1455.581446,-0.000000,9178.553681
1086.655877,1072.533697,-296.082377,9844.739029
1086.656192,919.314598,-962.267725,9400.615463
1086.656508,-229.828649,-814.226536,9400.615463
1086.656824,-842.705048,-888.247130,9844.739029
1086.657139,-612.876398,-1184.329507,10510.924376
1086.657455,-919.314598,-888.247130,10584.944971
1086.657771,-1455.581446,-518.144159,9992.780217
1086.658086,-995.924147,-518.144159,9696.697840
1086.658402,-995.924147,-740.205942,9474.636058
1086.658718,-842.705048,-444.123565,9622.677246
1086.659034,-689.485948,-74.020594,9474.636058
1086.659349,0.000000,-0.000000,9696.697840
1086.659665,0.000000,-222.061783,9696.697840
1086.659981,459.657299,-148.041188,9326.594869
1086.660296,842.705048,-296.082377,9252.574275
1086.660612,919.314598,-0.000000,9252.574275
1086.660928,1455.581446,-740.205942,9252.574275
1086.661244,1455.581446,-814.226536,9326.594869
1086.661559,1532.190996,-740.205942,9548.656652
1086.661875,1838.629195,-370.102971,9400.615463
1086.662191,2451.505594,-0.000000,9548.656652
1086.662506,1532.190996,444.123565,9178.553681
1086.662822,1455.581446,888.247130,8586.388927
1086.663138,1532.190996,1258.350101,8364.327145
1086.663454,536.266849,1110.308913,8734.430116
1086.663769,0.000000,814.226536,9326.594869
1086.664085,0.000000,518.144159,9400.615463
1086.664401,-383.047749,-0.000000,10140.821405
1086.664716,-1225.752797,-370.102971,9844.739029
1086.665032,-536.266849,-814.226536,10584.944971
1086.665348,-383.047749,-1480.411884,9844.739029
1086.665663,-306.438199,-740.205942,10140.821405
1086.665979,-153.219100,-74.020594,9918.759623
1086.666295,459.657299,-222.061783,9622.677246
1086.666611,1072.533697,370.102971,9918.759623
1086.666926,1225.752797,1110.308913,9030.512492
1086.667242,1302.362347,1036.288319,8512.368333
1086.667558,1915.238745,1184.329507,8660.409521
1086.667873,1608.800546,1332.370696,8438.347739
1086.668189,1762.019645,1480.411884,8364.327145
1086.668505,1149.143247,1258.350101,8438.347739
1086.668821,612.876398,370.102971,9104.533087
1086.669136,229.828649,-0.000000,9474.636058
1086.669452,-612.876398,-0.000000,10214.842000
1086.669768,-1455.581446,-592.164754,10288.862594
1086.670083,-1455.581446,-740.205942,10214.842000
1086.670399,-1608.800546,-1184.329507,10658.965565
1086.670715,-1991.848295,-1776.494261,10584.944971
1086.671031,-1685.410096,-1406.391290,10955.047942
1086.671346,-1608.800546,-1776.494261,10658.965565
1086.671662,-383.047749,-1036.288319,9992.780217
1086.671978,229.828649,-666.185348,9622.677246
1086.672293,1225.752797,-148.041188,9030.512492
1086.672609,1378.971896,296.082377,8142.265362
1086.672925,1838.629195,370.102971,8364.327145
1086.673240,1762.019645,888.247130,7994.224174
1086.673556,1838.629195,370.102971,9178.553681
1086.673872,1532.190996,592.164754,8808.450710
1086.674188,1149.143247,370.102971,8808.450710
1086.674503,919.314598,-370.102971,9696.697840
1086.674819,612.876398,-666.185348,9548.656652
1086.675135,-153.219100,-444.123565,9622.677246
1086.675450,-383.047749,-1110.308913,10140.821405
1086.675766,-689.485948,-1628.453072,10807.006753
1086.676082,-229.828649,-1036.288319,10732.986159
1086.676398,-383.047749,-370.102971,10436.903782
1086.676713,0.000000,-518.144159,9474.636058
1086.677029,536.266849,-296.082377,9622.677246
1086.677345,995.924147,-0.000000,8734.430116
1086.677660,1072.533697,518.144159,9104.533087
1086.677976,1302.362347,370.102971,8956.491898
1086.678292,1455.581446,148.041188,8808.450710
1086.678608,1762.019645,444.123565,9030.512492
1086.678923,1532.190996,-0.000000,8808.450710
1086.679239,1378.971896,-0.000000,8956.491898
1086.679555,995.924147,-0.000000,9326.594869
1086.679870,689.485948,-740.205942,9252.574275
1086.680186,766.095498,-888.247130,9548.656652
1086.680502,229.828649,-1332.370696,10436.903782
1086.680817,-229.828649,-962.267725,10066.800811
1086.681133,76.609550,-1184.329507,9918.759623
1086.681449,0.000000,-1184.329507,9918.759623
1086.681765,536.266849,-962.267725,10066.800811
1086.682080,76.609550,-518.144159,9178.553681
1086.682396,0.000000,370.102971,8808.450710
1086.682712,153.219100,222.061783,9474.636058
1086.683027,536.266849,-0.000000,9252.574275
1086.683343,612.876398,-0.000000,8734.430116
1086.683659,459.657299,-148.041188,8956.491898
1086.683975,383.047749,-814.226536,9178.553681
1086.684290,459.657299,-962.267725,9548.656652
1086.684606,842.705048,-962.267725,9696.697840
1086.684922,536.266849,-1258.350101,9844.739029
1086.685237,76.609550,-1258.350101,9992.780217
1086.685553,383.047749,-592.164754,9844.739029
1086.685869,842.705048,-74.020594,9252.574275
1086.686185,1072.533697,-148.041188,9030.512492
1086.686500,1302.362347,-222.061783,9400.615463
1086.686816,1302.362347,888.247130,8734.430116
1086.687132,1072.533697,1110.308913,8512.368333
1086.687447,1072.533697,1036.288319,9030.512492
1086.687763,612.876398,592.164754,8956.491898
1086.688079,459.657299,296.082377,9178.553681
1086.688394,459.657299,222.061783,9474.636058
1086.688710,0.000000,-222.061783,9696.697840
1086.689026,-306.438199,-0.000000,9622.677246
1086.689342,-306.438199,296.082377,10288.862594
1086.689657,-383.047749,-148.041188,10140.821405
1086.689973,0.000000,-148.041188,10066.800811
1086.690289,0.000000,148.041188,9696.697840
1086.690604,0.000000,-0.000000,9696.697840
1086.690920,919.314598,518.144159,9326.594869
1086.691236,766.095498,592.164754,9030.512492
1086.691552,459.657299,1110.308913,9252.574275
1086.691867,766.095498,1036.288319,9030.512492
1086.692183,766.095498,888.247130,9104.533087
1086.692499,459.657299,666.185348,9326.594869
1086.692814,153.219100,518.144159,9696.697840
1086.693130,153.219100,148.041188,9770.718434
1086.693446,-306.438199,296.082377,9844.739029
1086.693762,-612.876398,-222.061783,9696.697840
1086.694077,-1072.533697,-1110.308913,10658.965565
1086.694393,-766.095498,-1332.370696,10732.986159
1086.694709,-689.485948,-1776.494261,10881.027347
1086.695024,-766.095498,-666.185348,10362.883188
1086.695340,0.000000,-1184.329507,9918.759623
1086.695656,383.047749,-1332.370696,10140.821405
1086.695971,229.828649,222.061783,9252.574275
1086.696287,842.705048,-74.020594,8660.409521
1086.696603,1149.143247,222.061783,9622.677246
1086.696919,612.876398,-0.000000,8660.409521
1086.697234,1149.143247,370.102971,8586.388927
1086.697550,1378.971896,-0.000000,8956.491898
1086.697866,842.705048,-370.102971,9178.553681
1086.698181,612.876398,-814.226536,9770.718434
1086.698497,306.438199,-1258.350101,9622.677246
1086.698813,0.000000,-1850.514855,10140.821405
1086.699129,0.000000,-1924.535449,10510.924376
1086.699444,153.219100,-1702.473667,10510.924376
1086.699760,229.828649,-1036.288319,9918.759623
1086.700076,306.438199,-814.226536,9474.636058
1086.700391,766.095498,-518.144159,9178.553681
1086.700707,1225.752797,296.082377,8956.491898
1086.701023,1302.362347,296.082377,8290.306550
1086.701338,1378.971896,296.082377,8660.409521
1086.701654,1302.362347,-0.000000,8734.430116
1086.701970,1685.410096,-222.061783,9030.512492
1086.702286,1302.362347,-148.041188,8660.409521
1086.702601,1225.752797,-370.102971,9178.553681
1086.702917,995.924147,-592.164754,9400.615463
1086.703233,459.657299,-814.226536,9696.697840
1086.703548,383.047749,-1036.288319,9992.780217
1086.703864,536.266849,-814.226536,9770.718434
1086.704180,229.828649,-962.267725,9770.718434
1086.704496,383.047749,-962.267725,9992.780217
1086.704811,689.485948,-740.205942,9178.553681
1086.705127,306.438199,-222.061783,8956.491898
1086.705443,0.000000,-518.144159,9400.615463
1086.705758,383.047749,-1036.288319,9770.718434
1086.706074,612.876398,-962.267725,9770.718434
1086.706390,459.657299,-222.061783,9252.574275
1086.706706,842.705048,222.061783,8734.430116
1086.707021,766.095498,-296.082377,9178.553681
1086.707337,612.876398,-0.000000,8734.430116
1086.707653,306.438199,-0.000000,8882.471304
1086.707968,0.000000,-814.226536,9622.677246
1086.708284,76.609550,-962.267725,9770.718434
1086.708600,0.000000,-888.247130,9770.718434
1086.708915,153.219100,-666.185348,9548.656652
1086.709231,383.047749,-518.144159,9400.615463
1086.709547,459.657299,-296.082377,9400.615463
1086.709863,459.657299,444.123565,9178.553681
1086.710178,1149.143247,740.205942,8882.471304
1086.710494,919.314598,814.226536,9474.636058
1086.710810,766.095498,962.267725,9400.615463
1086.711125,306.438199,888.247130,9622.677246
1086.711441,689.485948,444.123565,9696.697840
1086.711757,536.266849,592.164754,9252.574275
1086.712073,0.000000,666.185348,9696.697840
1086.712388,-383.047749,814.226536,9992.780217
1086.712704,-153.219100,592.164754,9844.739029
1086.713020,0.000000,666.185348,10140.821405
1086.713335,-306.438199,888.247130,9992.780217
1086.713651,612.876398,592.164754,9474.636058
1086.713967,536.266849,222.061783,9770.718434
1086.714283,766.095498,444.123565,9474.636058
1086.714598,689.485948,1258.350101,9252.574275
1086.714914,995.924147,1110.308913,9326.594869
1086.715230,995.924147,888.247130,9400.615463
1086.715545,1302.362347,1258.350101,9178.553681
1086.715861,1225.752797,1406.391290,9104.533087
1086.716177,766.095498,1110.308913,9252.574275
1086.716492,0.000000,814.226536,9178.553681
1086.716808,-229.828649,296.082377,9696.697840
1086.717124,-1532.190996,-74.020594,9992.780217
1086.717440,-1762.019645,-592.164754,10584.944971
1086.717755,-1225.752797,-1184.329507,11029.068536
1086.718071,-1532.190996,-1406.391290,11177.109724
1086.718387,-1378.971896,-222.061783,10732.986159
1086.718702,-689.485948,-740.205942,10362.883188
1086.719018,0.000000,-814.226536,9770.718434
1086.719334,153.219100,-74.020594,9696.697840
1086.719650,995.924147,148.041188,9252.574275
1086.719965,1685.410096,-0.000000,8956.491898
1086.720281,1072.533697,1110.308913,8882.471304
1086.720597,1225.752797,1036.288319,8586.388927
1086.720912,1838.629195,518.144159,8216.285956
1086.721228,1762.019645,518.144159,8956.491898
1086.721544,995.924147,-74.020594,9400.615463
1086.721860,536.266849,-962.267725,9918.759623
1086.722175,306.438199,-1924.535449,10362.883188
1086.722491,0.000000,-1554.432478,10288.862594
1086.722807,0.000000,-962.267725,9918.759623
1086.723122,-229.828649,-1184.329507,9918.759623
1086.723438,0.000000,-1184.329507,10066.800811
1086.723754,383.047749,-296.082377,9326.594869
1086.724069,306.438199,-222.061783,8438.347739
1086.724385,689.485948,-740.205942,9178.553681
1086.724701,919.314598,-814.226536,8882.471304
1086.725017,1149.143247,-962.267725,8660.409521
1086.725332,1455.581446,-1184.329507,8956.491898
1086.725648,1072.533697,-1110.308913,9030.512492
1086.725964,1149.143247,-666.185348,9030.512492
1086.726279,995.924147,-222.061783,8882.471304
1086.726595,1149.143247,-370.102971,9400.615463
1086.726911,995.924147,-740.205942,9548.656652
1086.727227,1225.752797,-518.144159,9326.594869
1086.727542,1072.533697,-666.185348,8808.450710
1086.727858,1072.533697,-962.267725,9252.574275
1086.728174,995.924147,-1258.350101,9548.656652
1086.728489,919.314598,-592.164754,8660.409521
1086.728805,536.266849,-740.205942,9178.553681
1086.729121,306.438199,-592.164754,9770.718434
1086.729437,536.266849,-370.102971,9178.553681
1086.729752,306.438199,-74.020594,9030.512492
1086.730068,153.219100,-370.102971,9178.553681
1086.730384,0.000000,-370.102971,9326.594869
1086.730699,536.266849,-370.102971,9400.615463
1086.731015,0.000000,-0.000000,9400.615463
1086.731331,0.000000,-888.247130,9844.739029
1086.731646,383.047749,-1110.308913,9844.739029
1086.731962,229.828649,-962.267725,9696.697840
1086.732278,536.266849,-296.082377,9474.636058
1086.732594,459.657299,-222.061783,9178.553681
1086.732909,766.095498,-0.000000,9104.533087
1086.733225,459.657299,888.247130,9178.553681
1086.733541,689.485948,370.102971,9252.574275
1086.733856,689.485948,296.082377,9178.553681
1086.734172,229.828649,444.123565,9548.656652
1086.734488,306.438199,296.082377,9326.594869
1086.734804,229.828649,222.061783,9178.553681
1086.735119,76.609550,148.041188,9918.759623
1086.735435,76.609550,592.164754,9770.718434
1086.735751,-766.095498,-0.000000,10140.821405
1086.736066,-689.485948,-0.000000,10362.883188
1086.736382,-459.657299,592.164754,10214.842000
1086.736698,-689.485948,666.185348,10362.883188
1086.737014,0.000000,370.102971,9918.759623
1086.737329,153.219100,740.205942,9696.697840
1086.737645,153.219100,814.226536,9252.574275
1086.737961,229.828649,1110.308913,9178.553681
1086.738276,612.876398,814.226536,9770.718434
1086.738592,612.876398,1036.288319,9844.739029
1086.738908,536.266849,1258.350101,9178.553681
1086.739223,153.219100,1332.370696,9770.718434
1086.739539,153.219100,962.267725,9770.718434
1086.739855,0.000000,666.185348,9030.512492
1086.740171,-306.438199,518.144159,10288.862594
1086.740486,-689.485948,-370.102971,10510.924376
1086.740802,-153.219100,-666.185348,10732.986159
1086.741118,0.000000,-518.144159,10436.903782
1086.741433,0.000000,-222.061783,9622.677246
1086.741749,0.000000,-0.000000,10066.800811
1086.742065,766.095498,-592.164754,9474.636058
1086.742381,536.266849,-0.000000,9252.574275
1086.742696,766.095498,-0.000000,9770.718434
1086.743012,1302.362347,-148.041188,9030.512492
1086.743328,1072.533697,444.123565,9400.615463
1086.743644,842.705048,-0.000000,9104.533087
1086.743959,1302.362347,-0.000000,8734.430116
1086.744275,1225.752797,-222.061783,8882.471304
1086.744591,1225.752797,-592.164754,9104.533087
1086.744907,919.314598,-518.144159,9252.574275
1086.745223,766.095498,-1332.370696,9474.636058
1086.745538,689.485948,-1554.432478,10436.903782
1086.745854,689.485948,-1036.288319,9622.677246
1086.746170,306.438199,-1110.308913,9474.636058
1086.746486,536.266849,-666.185348,9178.553681
1086.746801,689.485948,-666.185348,9252.574275
1086.747117,995.924147,-148.041188,9178.553681
1086.747433,842.705048,-0.000000,8290.306550
1086.747749,1072.533697,-518.144159,9178.553681
1086.748065,766.095498,-888.247130,9548.656652
1086.748380,1149.143247,-444.123565,9030.512492
1086.748696,1225.752797,-888.247130,8882.471304
1086.749012,995.924147,-740.205942,9178.553681
1086.749328,459.657299,-296.082377,9104.533087
1086.749644,536.266849,-296.082377,9474.636058
1086.749959,612.876398,-1110.308913,9622.677246
1086.750275,766.095498,-814.226536,9844.739029
1086.750591,612.876398,-1110.308913,9474.636058
1086.750907,1072.533697,-814.226536,9326.594869
1086.751223,1072.533697,-1258.350101,9400.615463
1086.751538,1302.362347,-888.247130,9104.533087
1086.751854,995.924147,-888.247130,8956.491898
1086.752170,689.485948,-592.164754,9474.636058
1086.752486,536.266849,-518.144159,9992.780217
1086.752801,383.047749,-0.000000,9104.533087
1086.753117,76.609550,-0.000000,9474.636058
1086.753433,689.485948,-0.000000,9326.594869
1086.753749,536.266849,-222.061783,8734.430116
1086.754065,0.000000,-296.082377,9400.615463
1086.754380,153.219100,-1258.350101,10362.883188
1086.754696,229.828649,-1702.473667,10732.986159
1086.755012,76.609550,-888.247130,10140.821405
1086.755328,0.000000,-444.123565,9622.677246
1086.755644,459.657299,-296.082377,9474.636058
1086.755959,766.095498,-74.020594,9326.594869
1086.756275,766.095498,518.144159,9326.594869
1086.756591,919.314598,518.144159,9326.594869
1086.756907,842.705048,-0.000000,9992.780217
1086.757222,995.924147,444.123565,9474.636058
1086.757538,612.876398,666.185348,9030.512492
1086.757854,536.266849,444.123565,9104.533087
1086.758170,536.266849,296.082377,9696.697840
1086.758486,0.000000,518.144159,9400.615463
1086.758801,-536.266849,148.041188,9918.759623
1086.759117,-689.485948,-74.020594,10436.903782
1086.759433,0.000000,-0.000000,10214.842000
1086.759749,153.219100,444.123565,9548.656652
1086.760065,76.609550,518.144159,9696.697840
1086.760380,383.047749,222.061783,9326.594869
1086.760696,383.047749,444.123565,9474.636058
1086.761012,229.828649,592.164754,9548.656652
1086.761328,76.609550,370.102971,9474.636058
1086.761644,383.047749,740.205942,9252.574275
1086.761959,153.219100,592.164754,8808.450710
1086.762275,0.000000,740.205942,9326.594869
1086.762591,229.828649,370.102971,9474.636058
1086.762907,0.000000,222.061783,9400.615463
1086.763222,-536.266849,-0.000000,9400.615463
1086.763538,-612.876398,-74.020594,9918.759623
1086.763854,-383.047749,-444.123565,10066.800811
1086.764170,-459.657299,-222.061783,9770.718434
1086.764486,-306.438199,-148.041188,9400.615463
1086.764801,229.828649,-296.082377,9474.636058
1086.765117,383.047749,-740.205942,9326.594869
1086.765433,306.438199,-666.185348,9326.594869
1086.765749,229.828649,-148.041188,9178.553681
1086.766065,229.828649,148.041188,9400.615463
1086.766380,689.485948,148.041188,9474.636058
1086.766696,766.095498,592.164754,8808.450710
1086.767012,1302.362347,-370.102971,8586.388927
1086.767328,919.314598,-370.102971,9030.512492
1086.767644,919.314598,-814.226536,9178.553681
1086.767959,459.657299,-370.102971,9178.553681
1086.768275,689.485948,-444.123565,9770.718434
1086.768591,612.876398,-1036.288319,9696.697840
1086.768907,689.485948,-222.061783,9474.636058
1086.769222,459.657299,-370.102971,9474.636058
1086.769538,1149.143247,-592.164754,9326.594869
1086.769854,1225.752797,-370.102971,9474.636058
1086.770170,1532.190996,-0.000000,9474.636058
1086.770486,1302.362347,518.144159,8882.471304
1086.770801,1302.362347,296.082377,9326.594869
1086.771117,1225.752797,444.123565,9178.553681
1086.771433,1302.362347,518.144159,9178.553681
1086.771749,766.095498,148.041188,9844.739029
1086.772065,766.095498,-518.144159,9622.677246
1086.772380,229.828649,-518.144159,9696.697840
1086.772696,0.000000,-740.205942,9844.739029
1086.773012,306.438199,-1480.411884,10658.965565
1086.773328,383.047749,-1036.288319,10881.027347
1086.773644,-229.828649,-814.226536,10214.842000
1086.773959,0.000000,-592.164754,10288.862594
1086.774275,229.828649,-444.123565,9474.636058
1086.774591,612.876398,-222.061783,9030.512492
1086.774907,536.266849,-0.000000,9474.636058
1086.775222,459.657299,-592.164754,9918.759623
1086.775538,612.876398,-814.226536,9844.739029
1086.775854,842.705048,-444.123565,9474.636058
1086.776170,536.266849,-0.000000,9030.512492
1086.776486,842.705048,-444.123565,9178.553681
1086.776801,383.047749,-888.247130,9252.574275
1086.777117,306.438199,-592.164754,9400.615463
1086.777433,229.828649,-592.164754,9844.739029
1086.777749,383.047749,-888.247130,10584.944971
1086.778065,76.609550,-666.185348,9918.759623
1086.778380,153.219100,-518.144159,9548.656652
1086.778696,459.657299,-666.185348,9400.615463
1086.779012,306.438199,-592.164754,8956.491898
1086.779328,306.438199,-148.041188,9104.533087
1086.779644,76.609550,-0.000000,9252.574275
1086.779959,306.438199,-0.000000,9548.656652
1086.780275,459.657299,148.041188,9252.574275
1086.780591,612.876398,370.102971,8882.471304
1086.780907,229.828649,222.061783,9252.574275
1086.781222,536.266849,-0.000000,9030.512492
1086.781538,153.219100,518.144159,9252.574275
1086.781854,-153.219100,370.102971,9474.636058
1086.782170,-612.876398,148.041188,9178.553681
1086.782486,-306.438199,-148.041188,9474.636058
1086.782801,-383.047749,-370.102971,10140.821405
1086.783117,0.000000,-296.082377,9770.718434
1086.783433,0.000000,-74.020594,9844.739029
1086.783749,153.219100,148.041188,9400.615463
1086.784065,153.219100,888.247130,8808.450710
1086.784380,76.609550,1258.350101,9178.553681
1086.784696,229.828649,444.123565,9252.574275
1086.785012,383.047749,666.185348,9252.574275
1086.785328,153.219100,740.205942,9030.512492
1086.785644,306.438199,444.123565,9400.615463
1086.785959,-842.705048,-0.000000,9400.615463
1086.786275,-383.047749,148.041188,9622.677246
1086.786591,-306.438199,-0.000000,9696.697840
1086.786907,-459.657299,296.082377,10288.862594
1086.787222,-306.438199,-370.102971,10066.800811
1086.787538,0.000000,-666.185348,10436.903782
1086.787854,229.828649,-444.123565,10288.862594
1086.788170,689.485948,-222.061783,9474.636058
1086.788486,995.924147,-0.000000,8882.471304
1086.788801,995.924147,666.185348,9030.512492
1086.789117,1378.971896,666.185348,9474.636058
1086.789433,1378.971896,370.102971,9252.574275
1086.789749,919.314598,740.205942,8956.491898
1086.790065,1225.752797,-0.000000,8956.491898
1086.790380,995.924147,-296.082377,9178.553681
1086.790696,842.705048,-666.185348,9474.636058
1086.791012,689.485948,-814.226536,9844.739029
1086.791328,383.047749,-740.205942,10362.883188
1086.791644,612.876398,-888.247130,10436.903782
1086.791959,612.876398,-1036.288319,10214.842000
1086.792275,153.219100,-740.205942,9548.656652
1086.792591,919.314598,-518.144159,9548.656652
1086.792907,1455.581446,-888.247130,9252.574275
1086.793222,995.924147,-0.000000,8734.430116
1086.793538,1302.362347,-0.000000,9104.533087
1086.793854,1149.143247,-0.000000,9252.574275
1086.794170,1225.752797,-296.082377,9104.533087
1086.794486,1302.362347,222.061783,8956.491898
1086.794801,1149.143247,-148.041188,9104.533087
1086.795117,919.314598,-962.267725,9178.553681
1086.795433,612.876398,-1258.350101,9844.739029
1086.795749,612.876398,-814.226536,9622.677246
1086.796065,306.438199,-888.247130,9844.739029
1086.796380,0.000000,-666.185348,10288.862594
1086.796696,459.657299,-666.185348,10066.800811
1086.797012,0.000000,-296.082377,9474.636058
1086.797328,536.266849,-74.020594,9474.636058
1086.797644,689.485948,-444.123565,9030.512492
1086.797959,689.485948,-814.226536,9178.553681
1086.798275,459.657299,-814.226536,9252.574275
1086.798591,459.657299,-1036.288319,9622.677246
1086.798907,689.485948,-592.164754,9474.636058
1086.799222,153.219100,-370.102971,9252.574275
1086.799538,536.266849,-0.000000,9030.512492
1086.799854,229.828649,-370.102971,9178.553681
1086.800170,153.219100,-592.164754,9252.574275
1086.800486,0.000000,-1184.329507,9474.636058
1086.800801,0.000000,-1332.370696,9844.739029
1086.801117,153.219100,-1258.350101,10288.862594
1086.801433,153.219100,-740.205942,9474.636058
1086.801749,459.657299,-518.144159,9030.512492
1086.802065,1072.533697,-0.000000,9474.636058
1086.802380,842.705048,-148.041188,8882.471304
1086.802696,842.705048,-0.000000,8364.327145
1086.803012,766.095498,222.061783,9178.553681
1086.803328,766.095498,296.082377,9474.636058
1086.803643,689.485948,666.185348,9104.533087
1086.803959,919.314598,740.205942,8586.388927
1086.804275,459.657299,296.082377,8808.450710
1086.804591,306.438199,-370.102971,9474.636058
1086.804907,-153.219100,-74.020594,9474.636058
1086.805222,-459.657299,-74.020594,9770.718434
1086.805538,-766.095498,-518.144159,10658.965565
1086.805854,0.000000,-296.082377,10584.944971
1086.806170,-536.266849,-0.000000,9622.677246
1086.806486,0.000000,296.082377,9548.656652
1086.806801,383.047749,222.061783,9400.615463
1086.807117,689.485948,592.164754,9030.512492
1086.807433,766.095498,962.267725,8956.491898
1086.807749,459.657299,1036.288319,9104.533087
1086.808065,766.095498,962.267725,9474.636058
1086.808380,536.266849,1332.370696,9104.533087
1086.808696,-153.219100,1110.308913,8956.491898
1086.809012,0.000000,296.082377,9474.636058
1086.809328,153.219100,-74.020594,9696.697840
1086.809643,-536.266849,-0.000000,9992.780217
1086.809959,-306.438199,-666.185348,10732.986159
1086.810275,-459.657299,-666.185348,10807.006753
1086.810591,-229.828649,-666.185348,10140.821405
1086.810907,0.000000,-0.000000,9770.718434
1086.811222,536.266849,-370.102971,9474.636058
1086.811538,842.705048,-370.102971,9770.718434
1086.811854,919.314598,148.041188,8956.491898
1086.812170,612.876398,444.123565,9400.615463
1086.812486,919.314598,-0.000000,9844.739029
1086.812801,766.095498,296.082377,9474.636058
1086.813117,1149.143247,222.061783,9696.697840
1086.813433,1149.143247,-0.000000,9770.718434
1086.813749,995.924147,-444.123565,9400.615463
1086.814065,536.266849,-444.123565,9252.574275
1086.814380,612.876398,-370.102971,10288.862594
1086.814696,229.828649,-1554.432478,9696.697840
1086.815012,459.657299,-740.205942,10362.883188
1086.815328,459.657299,-1332.370696,9844.739029
1086.815643,766.095498,-666.185348,9400.615463
1086.815959,1685.410096,-1184.329507,9178.553681
1086.816275,995.924147,-444.123565,8808.450710
1086.816591,1072.533697,-370.102971,9252.574275
1086.816907,1225.752797,-0.000000,8734.430116
1086.817222,1455.581446,148.041188,8882.471304
1086.817538,842.705048,-0.000000,9104.533087
1086.817854,995.924147,-148.041188,9030.512492
1086.818170,842.705048,-370.102971,9030.512492
1086.818486,306.438199,-814.226536,9622.677246
1086.818801,0.000000,-666.185348,9622.677246
1086.819117,229.828649,-444.123565,9548.656652
1086.819433,0.000000,-740.205942,9696.697840
1086.819749,0.000000,-1110.308913,10214.842000
1086.820065,459.657299,-1184.329507,10214.842000
1086.820380,612.876398,-592.164754,8808.450710
1086.820696,459.657299,-666.185348,9474.636058
1086.821012,842.705048,-666.185348,9326.594869
1086.821328,842.705048,-0.000000,8364.327145
1086.821643,536.266849,296.082377,8660.409521
1086.821959,919.314598,-0.000000,9400.615463
1086.822275,995.924147,-666.185348,9178.553681
1086.822591,153.219100,-370.102971,8956.491898
1086.822907,383.047749,-962.267725,9030.512492
1086.823222,153.219100,-1110.308913,9326.594869
1086.823538,-306.438199,-962.267725,9548.656652
1086.823854,0.000000,-1406.391290,10140.821405
1086.824170,-536.266849,-1480.411884,10288.862594
1086.824486,0.000000,-1258.350101,10288.862594
1086.824801,383.047749,-888.247130,9400.615463
1086.825117,383.047749,-814.226536,9474.636058
1086.825433,1072.533697,-518.144159,8882.471304
1086.825749,689.485948,296.082377,8734.430116
1086.826065,842.705048,148.041188,8882.471304
1086.826380,1072.533697,222.061783,8808.450710
1086.826696,689.485948,888.247130,9178.553681
1086.827012,842.705048,1258.350101,9178.553681
1086.827328,842.705048,444.123565,9030.512492
1086.827643,459.657299,-74.020594,9326.594869
1086.827959,0.000000,148.041188,9622.677246
1086.828275,0.000000,-0.000000,10214.842000
1086.828591,-229.828649,-370.102971,10066.800811
1086.828907,-536.266849,296.082377,9918.759623
1086.829222,-536.266849,444.123565,10140.821405
1086.829538,0.000000,518.144159,9844.739029
1086.829854,459.657299,444.123565,9622.677246
1086.830170,229.828649,518.144159,9548.656652
1086.830486,0.000000,666.185348,9030.512492
1086.830801,76.609550,1406.391290,9400.615463
1086.831117,383.047749,592.164754,9844.739029
1086.831433,306.438199,1184.329507,10140.821405
1086.831749,306.438199,1554.432478,9252.574275
1086.832065,0.000000,1110.308913,9474.636058
1086.832380,0.000000,-148.041188,9844.739029
1086.832696,-229.828649,-296.082377,10066.800811
1086.833012,-536.266849,-0.000000,10288.862594
1086.833328,-306.438199,-296.082377,10510.924376
1086.833643,-229.828649,-888.247130,10658.965565
1086.833959,76.609550,-0.000000,9992.780217
1086.834275,229.828649,222.061783,9548.656652
1086.834591,919.314598,222.061783,9622.677246
1086.834907,842.705048,222.061783,9252.574275
1086.835222,766.095498,296.082377,9178.553681
1086.835538,766.095498,-0.000000,9326.594869
1086.835854,1532.190996,-222.061783,9844.739029
1086.836170,995.924147,-222.061783,8808.450710
1086.836486,306.438199,222.061783,8808.450710
1086.836801,536.266849,-592.164754,9474.636058
1086.837117,383.047749,-962.267725,9696.697840
1086.837433,383.047749,-370.102971,9474.636058
1086.837749,0.000000,-962.267725,9548.656652
1086.838065,306.438199,-1554.432478,9992.780217
1086.838380,459.657299,-1554.432478,10214.842000
1086.838696,459.657299,-814.226536,9252.574275
1086.839012,536.266849,-666.185348,9252.574275
1086.839328,842.705048,-740.205942,8808.450710
1086.839643,1378.971896,-0.000000,8808.450710
1086.839959,1302.362347,296.082377,8660.409521
1086.840275,1225.752797,296.082377,8808.450710
1086.840591,1378.971896,-0.000000,8734.430116
1086.840907,1225.752797,148.041188,8438.347739
1086.841222,842.705048,-0.000000,8882.471304
1086.841538,766.095498,-444.123565,9030.512492
1086.841854,383.047749,-666.185348,9252.574275
1086.842170,-306.438199,-1184.329507,9918.759623
1086.842486,-383.047749,-1480.411884,10288.862594
1086.842801,0.000000,-1406.391290,10584.944971
1086.843117,306.438199,-1110.308913,9770.718434
1086.843433,612.876398,-1036.288319,9696.697840
1086.843749,536.266849,-888.247130,9252.574275
1086.844065,689.485948,148.041188,8586.388927
1086.844380,1149.143247,-0.000000,8586.388927
1086.844696,842.705048,222.061783,8734.430116
1086.845011,1149.143247,-0.000000,8660.409521
1086.845327,612.876398,-148.041188,9178.553681
1086.845643,383.047749,74.020594,9030.512492
1086.845958,229.828649,-592.164754,9400.615463
1086.846274,76.609550,-518.144159,9696.697840
1086.846590,-76.609550,-962.267725,9770.718434
1086.846905,-306.438199,-1110.308913,10288.862594
1086.847221,-383.047749,-888.247130,10288.862594
1086.847537,-383.047749,-1406.391290,10807.006753
1086.847852,-229.828649,-1184.329507,10214.842000
1086.848168,306.438199,-888.247130,9770.718434
1086.848484,766.095498,-666.185348,9548.656652
1086.848799,919.314598,-74.020594,9474.636058
1086.849115,766.095498,740.205942,8660.409521
1086.849430,1149.143247,814.226536,9474.636058
1086.849746,1072.533697,592.164754,9104.533087
1086.850062,842.705048,370.102971,9030.512492
1086.850377,842.705048,666.185348,9474.636058
1086.850693,459.657299,370.102971,9178.553681
1086.851009,383.047749,-74.020594,9548.656652
1086.851324,0.000000,148.041188,9770.718434
1086.851640,0.000000,-74.020594,10140.821405
1086.851956,0.000000,-370.102971,10732.986159
1086.852271,76.609550,-296.082377,10362.883188
1086.852587,153.219100,296.082377,9844.739029
1086.852903,383.047749,592.164754,9696.697840
1086.853218,612.876398,518.144159,9474.636058
1086.853534,766.095498,814.226536,9178.553681
1086.853850,919.314598,1554.432478,9252.574275
1086.854165,689.485948,1036.288319,9252.574275
1086.854481,459.657299,1332.370696,9474.636058
1086.854796,229.828649,1184.329507,9104.533087
1086.855112,0.000000,962.267725,9326.594869
1086.855428,76.609550,-444.123565,9770.718434
1086.855743,-459.657299,-740.205942,9992.780217
1086.856059,-842.705048,-222.061783,10066.800811
1086.856375,-995.924147,-666.185348,10066.800811
1086.856690,-612.876398,-888.247130,10214.842000
1086.857006,0.000000,-592.164754,9844.739029
1086.857322,0.000000,-148.041188,9696.697840
1086.857637,229.828649,-148.041188,9326.594869
1086.857953,919.314598,-0.000000,9030.512492
1086.858269,919.314598,-74.020594,8734.430116
1086.858584,153.219100,-0.000000,8512.368333
1086.858900,1225.752797,-74.020594,8882.471304
1086.859216,1149.143247,296.082377,9400.615463
1086.859531,1149.143247,592.164754,8660.409521
1086.859847,689.485948,444.123565,8142.265362
1086.860162,919.314598,-592.164754,8882.471304
1086.860478,459.657299,-1184.329507,9622.677246
1086.860794,76.609550,-1850.514855,9770.718434
1086.861109,0.000000,-1184.329507,9918.759623
1086.861425,153.219100,-1776.494261,10214.842000
1086.861741,842.705048,-1850.514855,9844.739029
1086.862056,842.705048,-296.082377,8808.450710
1086.862372,1302.362347,-592.164754,8882.471304
1086.862688,1378.971896,-148.041188,8956.491898
1086.863003,1915.238745,-0.000000,8216.285956
1086.863319,1378.971896,222.061783,8364.327145
1086.863635,1455.581446,222.061783,9252.574275
1086.863950,1149.143247,-222.061783,8882.471304
1086.864266,995.924147,-74.020594,8734.430116
1086.864582,612.876398,-518.144159,9474.636058
1086.864897,383.047749,-888.247130,9548.656652
1086.865213,0.000000,-666.185348,9474.636058
1086.865528,0.000000,-814.226536,9696.697840
1086.865844,-306.438199,-1776.494261,10807.006753
1086.866160,842.705048,-1554.432478,11177.109724
1086.866475,306.438199,-666.185348,9474.636058
1086.866791,612.876398,-222.061783,9474.636058
1086.867107,1149.143247,-370.102971,9474.636058
1086.867422,1149.143247,444.123565,8734.430116
1086.867738,1225.752797,962.267725,9030.512492
1086.868054,919.314598,-0.000000,9178.553681
1086.868369,1149.143247,-0.000000,9326.594869
1086.868685,689.485948,-0.000000,9400.615463
1086.869001,612.876398,-0.000000,9178.553681
1086.869316,0.000000,-740.205942,9548.656652
1086.869632,-153.219100,-814.226536,9770.718434
1086.869948,-76.609550,-888.247130,10140.821405
1086.870263,-459.657299,-1406.391290,10732.986159
1086.870579,-536.266849,-1628.453072,10658.965565
1086.870894,-306.438199,-1554.432478,10584.944971
1086.871210,76.609550,-1110.308913,9992.780217
1086.871526,383.047749,-1036.288319,9992.780217
1086.871841,766.095498,-74.020594,9400.615463
1086.872157,1072.533697,444.123565,8956.491898
1086.872473,1072.533697,962.267725,8956.491898
1086.872788,1072.533697,1036.288319,8882.471304
1086.873104,1378.971896,1332.370696,8956.491898
1086.873420,995.924147,1332.370696,9178.553681
1086.873735,995.924147,1036.288319,9252.574275
1086.874051,919.314598,370.102971,9104.533087
1086.874367,0.000000,-74.020594,9474.636058
1086.874682,-383.047749,-222.061783,9696.697840
1086.874998,-229.828649,-518.144159,10214.842000
1086.875313,0.000000,-814.226536,10658.965565
1086.875629,-612.876398,-518.144159,10140.821405
1086.875945,0.000000,-148.041188,9474.636058
1086.876260,0.000000,-0.000000,9400.615463
1086.876576,459.657299,444.123565,8808.450710
1086.876892,0.000000,814.226536,8512.368333
1086.877207,-76.609550,962.267725,8586.388927
1086.877523,0.000000,592.164754,9252.574275
1086.877839,306.438199,592.164754,9030.512492
1086.878154,306.438199,740.205942,8734.430116
1086.878470,76.609550,370.102971,8882.471304
1086.878786,0.000000,-148.041188,9400.615463
1086.879101,-306.438199,148.041188,9622.677246
1086.879417,-459.657299,-296.082377,9992.780217
1086.879733,-383.047749,-740.205942,10584.944971
1086.880048,-536.266849,-370.102971,10288.862594
1086.880364,0.000000,-148.041188,9992.780217
1086.880679,459.657299,-74.020594,9548.656652
1086.880995,1378.971896,-74.020594,8882.471304
1086.881311,1149.143247,370.102971,8956.491898
1086.881626,766.095498,222.061783,9178.553681
1086.881942,1072.533697,296.082377,9178.553681
1086.882258,1072.533697,296.082377,9178.553681
1086.882573,1072.533697,148.041188,9326.594869
1086.882889,842.705048,222.061783,9104.533087
1086.883205,766.095498,-148.041188,9326.594869
1086.883520,766.095498,-518.144159,9696.697840
1086.883836,919.314598,-888.247130,9696.697840
1086.884152,229.828649,-1184.329507,10510.924376
1086.884467,536.266849,-1776.494261,10732.986159
1086.884783,536.266849,-1554.432478,10214.842000
1086.885099,766.095498,-1110.308913,9622.677246
1086.885414,919.314598,-814.226536,9326.594869
1086.885730,1608.800546,-1036.288319,9548.656652
1086.886045,1762.019645,-444.123565,9178.553681
1086.886361,1455.581446,444.123565,8808.450710
1086.886677,1915.238745,296.082377,9030.512492
1086.886992,1991.848295,-148.041188,8808.450710
1086.887308,1838.629195,444.123565,8882.471304
1086.887624,1455.581446,-0.000000,9178.553681
1086.887939,995.924147,-666.185348,9326.594869
1086.888255,229.828649,-740.205942,9696.697840
1086.888571,-306.438199,-962.267725,10214.842000
1086.888886,-229.828649,-2072.576638,10955.047942
1086.889202,-612.876398,-2072.576638,11103.089130
1086.889518,0.000000,-1184.329507,10658.965565
1086.889833,-306.438199,-1332.370696,9992.780217
1086.890149,459.657299,-1406.391290,9622.677246
1086.890465,842.705048,-888.247130,9252.574275
1086.890780,995.924147,-0.000000,9104.533087
1086.891096,766.095498,518.144159,8660.409521
1086.891411,995.924147,-0.000000,9030.512492
1086.891727,1378.971896,296.082377,8586.388927
1086.892043,1072.533697,-0.000000,8364.327145
1086.892358,766.095498,-370.102971,8882.471304
1086.892674,536.266849,-962.267725,9252.574275
1086.892990,0.000000,-1110.308913,9400.615463
1086.893305,-383.047749,-1258.350101,9844.739029
1086.893621,-229.828649,-1628.453072,10658.965565
1086.893937,-612.876398,-1332.370696,10288.862594
1086.894252,-153.219100,-370.102971,9400.615463
1086.894568,-153.219100,-222.061783,9622.677246
1086.894884,536.266849,-444.123565,9548.656652
1086.895199,536.266849,-370.102971,9104.533087
1086.895515,383.047749,148.041188,8512.368333
1086.895831,689.485948,370.102971,8216.285956
1086.896146,919.314598,740.205942,8512.368333
1086.896462,689.485948,814.226536,9030.512492
1086.896777,229.828649,1036.288319,8808.450710
1086.897093,383.047749,888.247130,8956.491898
1086.897409,306.438199,518.144159,9104.533087
1086.897724,-306.438199,-0.000000,9474.636058
1086.898040,-383.047749,-444.123565,9918.759623
1086.898356,-612.876398,-370.102971,10436.903782
1086.898671,-306.438199,-148.041188,10955.047942
1086.898987,0.000000,-0.000000,10140.821405
1086.899303,229.828649,962.267725,9622.677246
1086.899618,459.657299,1110.308913,9326.594869
1086.899934,689.485948,962.267725,9252.574275
1086.900250,459.657299,1554.432478,9030.512492
1086.900565,842.705048,1406.391290,9030.512492
1086.900881,689.485948,1332.370696,9400.615463
1086.901196,536.266849,1628.453072,9326.594869
1086.901512,383.047749,1184.329507,9178.553681
1086.901828,306.438199,962.267725,9400.615463
1086.902143,-229.828649,74.020594,9992.780217
1086.902459,-536.266849,-0.000000,10436.903782
1086.902775,-306.438199,-518.144159,11103.089130
1086.903090,-306.438199,-1110.308913,11029.068536
1086.903406,-306.438199,-814.226536,10732.986159
1086.903722,0.000000,-518.144159,9918.759623
1086.904037,612.876398,-296.082377,9918.759623
1086.904353,1149.143247,-0.000000,9474.636058
1086.904669,1072.533697,814.226536,9252.574275
1086.904984,1455.581446,962.267725,8808.450710
1086.905300,1762.019645,888.247130,9104.533087
1086.905616,1608.800546,370.102971,9178.553681
1086.905931,1149.143247,296.082377,9030.512492
1086.906247,1455.581446,-148.041188,9474.636058
1086.906562,919.314598,-296.082377,9474.636058
1086.906878,153.219100,-518.144159,10066.800811
1086.907194,0.000000,-740.205942,10214.842000
1086.907509,0.000000,-1036.288319,10436.903782
1086.907825,153.219100,-1036.288319,10214.842000
1086.908141,153.219100,-1036.288319,10066.800811
1086.908456,766.095498,-1036.288319,9770.718434
1086.908772,766.095498,-1332.370696,9622.677246
1086.909088,1302.362347,-666.185348,8956.491898
1086.909403,1378.971896,-296.082377,8882.471304
1086.909719,1532.190996,-0.000000,8882.471304
1086.910035,1685.410096,222.061783,8512.368333
1086.910350,1762.019645,148.041188,8586.388927
1086.910666,1532.190996,-0.000000,8512.368333
1086.910982,1455.581446,-592.164754,8956.491898
1086.911297,919.314598,-592.164754,8438.347739
1086.911613,-383.047749,-962.267725,9252.574275
1086.911928,-612.876398,-1480.411884,9918.759623
1086.912244,-459.657299,-1998.556043,9918.759623
1086.912560,-612.876398,-1998.556043,10436.903782
1086.912875,-536.266849,-1702.473667,9696.697840
1086.913191,-306.438199,-2146.597232,9474.636058
1086.913507,153.219100,-2368.659014,9400.615463
1086.913822,306.438199,-1036.288319,9104.533087
1086.914138,383.047749,-444.123565,8808.450710
1086.914454,612.876398,-518.144159,9030.512492
1086.914769,1072.533697,-0.000000,8438.347739
1086.915085,766.095498,370.102971,7698.141797
1086.915401,766.095498,148.041188,8068.244768
1086.915716,842.705048,-0.000000,8734.430116
1086.916032,459.657299,-148.041188,8142.265362
1086.916348,306.438199,-814.226536,9474.636058
1086.916663,-536.266849,-1554.432478,10066.800811
1086.916979,-536.266849,-1850.514855,10436.903782
1086.917294,-306.438199,-1258.350101,10140.821405
1086.917610,-306.438199,-592.164754,10066.800811
1086.917926,229.828649,-1036.288319,9622.677246
1086.918241,229.828649,-296.082377,9474.636058
1086.918557,536.266849,962.267725,8882.471304
1086.918873,612.876398,740.205942,8808.450710
1086.919188,1072.533697,296.082377,9030.512492
1086.919504,612.876398,814.226536,9030.512492
1086.919820,919.314598,592.164754,8882.471304
1086.920135,919.314598,592.164754,9326.594869
1086.920451,689.485948,518.144159,9252.574275
1086.920767,306.438199,592.164754,9252.574275
1086.921082,76.609550,296.082377,9918.759623
1086.921398,-306.438199,74.020594,10510.924376
1086.921714,76.609550,-0.000000,10732.986159
1086.922029,459.657299,-0.000000,10362.883188
1086.922345,76.609550,296.082377,9992.780217
1086.922660,383.047749,222.061783,9918.759623
1086.922976,766.095498,444.123565,9770.718434
1086.923292,306.438199,1110.308913,9326.594869
1086.923607,536.266849,1480.411884,9770.718434
1086.923923,766.095498,1406.391290,9548.656652
1086.924239,842.705048,1702.473667,9622.677246
1086.924554,536.266849,1480.411884,9252.574275
1086.924870,842.705048,962.267725,9474.636058
1086.925186,383.047749,592.164754,9770.718434
1086.925501,0.000000,740.205942,9770.718434
1086.925817,-842.705048,148.041188,10436.903782
1086.926133,-766.095498,-222.061783,10881.027347
1086.926448,-842.705048,-444.123565,10584.944971
1086.926764,-383.047749,-518.144159,10362.883188
1086.927080,-536.266849,-592.164754,9844.739029
1086.927395,0.000000,-814.226536,9992.780217
1086.927711,76.609550,-444.123565,9992.780217
1086.928026,766.095498,74.020594,9548.656652
1086.928342,689.485948,-148.041188,8660.409521
1086.928658,1149.143247,370.102971,9178.553681
1086.928973,1378.971896,592.164754,8808.450710
1086.929289,1302.362347,592.164754,8290.306550
1086.929605,1532.190996,-0.000000,8586.388927
1086.929920,1149.143247,-370.102971,8586.388927
1086.930236,689.485948,-814.226536,9178.553681
1086.930552,229.828649,-1036.288319,9770.718434
1086.930867,0.000000,-1110.308913,9844.739029
1086.931183,383.047749,-888.247130,9844.739029
1086.931499,919.314598,-888.247130,9844.739029
1086.931814,689.485948,-666.185348,9178.553681
1086.932130,536.266849,-1036.288319,9104.533087
1086.932445,919.314598,-1184.329507,9400.615463
1086.932761,1225.752797,-1258.350101,8956.491898
1086.933077,1072.533697,-814.226536,9030.512492
1086.933392,1532.190996,-0.000000,8882.471304
1086.933708,1149.143247,-0.000000,8142.265362
1086.934024,1225.752797,222.061783,8512.368333
1086.934339,919.314598,-370.102971,8586.388927
1086.934655,612.876398,-740.205942,8882.471304
1086.934971,0.000000,-1480.411884,9400.615463
1086.935286,0.000000,-1776.494261,9770.718434
1086.935602,0.000000,-1924.535449,10140.821405
1086.935918,0.000000,-1776.494261,9844.739029
1086.936233,0.000000,-1554.432478,9844.739029
1086.936549,612.876398,-1628.453072,9992.780217
1086.936865,76.609550,-740.205942,9400.615463
1086.937180,0.000000,222.061783,9104.533087
1086.937496,383.047749,-222.061783,9104.533087
1086.937811,612.876398,-814.226536,9104.533087
1086.938127,612.876398,-370.102971,9178.553681
1086.938443,689.485948,-148.041188,8882.471304
1086.938758,919.314598,-148.041188,8512.368333
1086.939074,919.314598,-518.144159,9326.594869
1086.939390,306.438199,-148.041188,9252.574275
1086.939705,153.219100,-518.144159,9770.718434
1086.940021,-229.828649,-1036.288319,10066.800811
1086.940337,-229.828649,-888.247130,10362.883188
1086.940652,0.000000,-592.164754,10436.903782
1086.940968,459.657299,-74.020594,9770.718434
1086.941284,536.266849,-148.041188,9178.553681
1086.941599,459.657299,-0.000000,9326.594869
1086.941915,612.876398,-148.041188,9918.759623
1086.942231,995.924147,-0.000000,9622.677246
1086.942546,919.314598,666.185348,9252.574275
1086.942862,995.924147,666.185348,9326.594869
1086.943178,766.095498,666.185348,9104.533087
1086.943494,1072.533697,740.205942,8956.491898
1086.943809,306.438199,888.247130,9326.594869
1086.944125,153.219100,518.144159,9696.697840
1086.944441,-153.219100,148.041188,10140.821405
1086.944757,383.047749,148.041188,9992.780217
1086.945072,229.828649,-296.082377,10288.862594
1086.945388,0.000000,-148.041188,9770.718434
1086.945704,459.657299,148.041188,9622.677246
1086.946019,229.828649,-74.020594,9548.656652
1086.946335,76.609550,370.102971,9622.677246
1086.946651,306.438199,370.102971,9844.739029
1086.946967,536.266849,518.144159,9326.594869
1086.947282,153.219100,1110.308913,9474.636058
1086.947598,153.219100,1184.329507,9770.718434
1086.947914,153.219100,666.185348,9474.636058
1086.948230,383.047749,222.061783,9474.636058
1086.948545,0.000000,148.041188,9548.656652
1086.948861,-689.485948,-0.000000,9918.759623
1086.949177,-689.485948,-222.061783,10288.862594
1086.949493,-383.047749,-444.123565,10214.842000
1086.949808,-306.438199,222.061783,9844.739029
1086.950124,0.000000,-222.061783,9844.739029
1086.950440,76.609550,-444.123565,9844.739029
1086.950756,383.047749,-370.102971,9770.718434
1086.951071,689.485948,148.041188,9622.677246
1086.951387,1149.143247,592.164754,8660.409521
1086.951703,1378.971896,444.123565,8660.409521
1086.952018,1225.752797,888.247130,9104.533087
1086.952334,1072.533697,370.102971,8734.430116
1086.952650,1378.971896,222.061783,9104.533087
1086.952966,766.095498,-370.102971,9326.594869
1086.953281,76.609550,-74.020594,8808.450710
1086.953597,0.000000,-370.102971,9474.636058
1086.953913,153.219100,-1332.370696,9770.718434
1086.954229,0.000000,-1406.391290,10436.903782
1086.954544,76.609550,-1036.288319,10066.800811
1086.954860,76.609550,-740.205942,9030.512492
1086.955176,383.047749,-1036.288319,9178.553681
1086.955492,689.485948,-1184.329507,9252.574275
1086.955807,612.876398,-444.123565,8734.430116
1086.956123,689.485948,-148.041188,9030.512492
1086.956439,1302.362347,-518.144159,9178.553681
1086.956755,1455.581446,-222.061783,8586.388927
1086.957070,919.314598,222.061783,8512.368333
1086.957386,1149.143247,-444.123565,8660.409521
1086.957702,1225.752797,-888.247130,9252.574275
1086.958017,689.485948,-444.123565,9400.615463
1086.958333,306.438199,-666.185348,9326.594869
1086.958649,76.609550,-1110.308913,10140.821405
1086.958965,-153.219100,-1332.370696,9844.739029
1086.959280,-153.219100,-888.247130,9918.759623
1086.959596,-306.438199,-888.247130,9844.739029
1086.959912,0.000000,-962.267725,9474.636058
1086.960228,0.000000,-518.144159,9918.759623
1086.960543,0.000000,-518.144159,9326.594869
1086.960859,0.000000,-740.205942,9474.636058
1086.961175,689.485948,-518.144159,9770.718434
1086.961491,689.485948,-0.000000,9030.512492
1086.961806,1149.143247,-74.020594,8882.471304
1086.962122,1532.190996,-74.020594,9178.553681
1086.962438,536.266849,-148.041188,9104.533087
1086.962754,459.657299,-296.082377,9696.697840
1086.963069,229.828649,-666.185348,9770.718434
1086.963385,76.609550,-74.020594,9696.697840
1086.963701,842.705048,-296.082377,10066.800811
1086.964017,229.828649,-518.144159,9622.677246
1086.964332,459.657299,-592.164754,9770.718434
1086.964648,612.876398,-222.061783,9474.636058
1086.964964,306.438199,370.102971,8882.471304
1086.965279,76.609550,-0.000000,9326.594869
1086.965595,766.095498,-444.123565,9992.780217
1086.965911,536.266849,-148.041188,9622.677246
1086.966227,536.266849,518.144159,9104.533087
1086.966542,612.876398,518.144159,9252.574275
1086.966858,306.438199,148.041188,8956.491898
1086.967174,76.609550,444.123565,9400.615463
1086.967490,383.047749,-0.000000,10214.842000
1086.967805,383.047749,-0.000000,9696.697840
1086.968121,383.047749,444.123565,9474.636058
1086.968437,153.219100,-0.000000,9696.697840
1086.968753,689.485948,-222.061783,9992.780217
1086.969068,1072.533697,-0.000000,9178.553681
1086.969384,536.266849,666.185348,9252.574275
1086.969700,612.876398,666.185348,9104.533087
1086.970016,612.876398,370.102971,9400.615463
1086.970331,153.219100,296.082377,9696.697840
1086.970647,306.438199,296.082377,9770.718434
1086.970963,153.219100,296.082377,9326.594869
1086.971278,76.609550,-0.000000,9326.594869
1086.971594,76.609550,-0.000000,9400.615463
1086.971910,-229.828649,-0.000000,9696.697840
1086.972226,-153.219100,-370.102971,9696.697840
1086.972541,0.000000,-888.247130,10362.883188
1086.972857,-689.485948,-518.144159,9992.780217
1086.973173,0.000000,-296.082377,9622.677246
1086.973489,76.609550,-148.041188,9252.574275
1086.973804,459.657299,148.041188,9178.553681
1086.974120,1225.752797,-296.082377,9252.574275
1086.974436,689.485948,444.123565,9104.533087
1086.974752,995.924147,296.082377,9178.553681
1086.975067,1072.533697,148.041188,9326.594869
1086.975383,1455.581446,370.102971,8956.491898
1086.975699,1302.362347,-518.144159,8882.471304
1086.976015,995.924147,-222.061783,9696.697840
1086.976330,536.266849,-222.061783,9178.553681
1086.976646,153.219100,-444.123565,9622.677246
1086.976962,229.828649,-518.144159,10140.821405
1086.977277,383.047749,-740.205942,9844.739029
1086.977593,0.000000,-0.000000,9696.697840
1086.977909,306.438199,-370.102971,9474.636058
1086.978225,995.924147,-1258.350101,9844.739029
1086.978540,1149.143247,-296.082377,9400.615463
1086.978856,842.705048,-592.164754,8956.491898
1086.979172,536.266849,-666.185348,9844.739029
1086.979488,766.095498,-666.185348,9622.677246
1086.979803,995.924147,-296.082377,9326.594869
1086.980119,1072.533697,-0.000000,8808.450710
1086.980435,1225.752797,148.041188,9326.594869
1086.980751,1225.752797,-444.123565,9326.594869
1086.981066,383.047749,-592.164754,9178.553681
1086.981382,229.828649,-962.267725,9622.677246
1086.981698,76.609550,-1332.370696,9992.780217
1086.982014,459.657299,-888.247130,9992.780217
1086.982329,383.047749,-518.144159,9622.677246
1086.982645,459.657299,-740.205942,9696.697840
1086.982961,459.657299,-666.185348,9326.594869
1086.983276,306.438199,-444.123565,9400.615463
1086.983592,383.047749,-814.226536,9474.636058
1086.983908,306.438199,-740.205942,9622.677246
1086.984224,229.828649,-666.185348,9622.677246
1086.984539,842.705048,-74.020594,9474.636058
1086.984855,459.657299,-518.144159,8808.450710
1086.985171,536.266849,-0.000000,8808.450710
1086.985487,153.219100,-222.061783,8956.491898
1086.985802,153.219100,-592.164754,9326.594869
1086.986118,0.000000,-592.164754,9844.739029
1086.986434,0.000000,-962.267725,10066.800811
1086.986750,459.657299,-1036.288319,10214.842000
1086.987065,0.000000,-740.205942,9474.636058
1086.987381,306.438199,-666.185348,9252.574275
1086.987697,689.485948,-370.102971,9326.594869
1086.988013,459.657299,222.061783,8882.471304
1086.988328,612.876398,444.123565,8882.471304
1086.988644,689.485948,-0.000000,8808.450710
1086.988960,842.705048,296.082377,9030.512492
1086.989276,459.657299,740.205942,9474.636058
1086.989591,459.657299,444.123565,8808.450710
1086.989907,766.095498,666.185348,9104.533087
1086.990223,536.266849,-0.000000,9326.594869
1086.990538,76.609550,-74.020594,9622.677246
1086.990854,383.047749,-444.123565,10362.883188
1086.991170,229.828649,-74.020594,9844.739029
1086.991486,459.657299,-0.000000,9844.739029
1086.991801,459.657299,148.041188,9696.697840
1086.992117,612.876398,888.247130,9326.594869
1086.992433,536.266849,740.205942,9326.594869
1086.992749,459.657299,1110.308913,9474.636058
1086.993064,536.266849,518.144159,9252.574275
1086.993380,383.047749,222.061783,9474.636058
1086.993696,612.876398,296.082377,9844.739029
1086.994012,612.876398,370.102971,9548.656652
1086.994327,306.438199,-0.000000,9770.718434
1086.994643,229.828649,-222.061783,9696.697840
1086.994959,-229.828649,-0.000000,9918.759623
1086.995275,0.000000,-0.000000,9474.636058
1086.995590,-229.828649,-370.102971,10510.924376
1086.995906,0.000000,-592.164754,10584.944971
1086.996222,-153.219100,-296.082377,10288.862594
1086.996537,76.609550,-74.020594,9992.780217
1086.996853,689.485948,-74.020594,9844.739029
1086.997169,689.485948,-370.102971,9104.533087
1086.997485,229.828649,-0.000000,9178.553681
1086.997800,689.485948,-0.000000,9844.739029
1086.998116,995.924147,-222.061783,9918.759623
1086.998432,842.705048,370.102971,9326.594869
1086.998748,995.924147,814.226536,9104.533087
1086.999063,919.314598,666.185348,9178.553681
1086.999379,1378.971896,-592.164754,9178.553681
1086.999695,383.047749,-0.000000,9326.594869
1087.000011,153.219100,-518.144159,9696.697840
1087.000326,306.438199,-888.247130,10066.800811
1087.000642,459.657299,-666.185348,9474.636058
1087.000958,459.657299,-518.144159,9844.739029
1087.001274,383.047749,-1184.329507,10066.800811
1087.001589,766.095498,-592.164754,9326.594869
1087.001905,306.438199,148.041188,9030.512492
1087.002221,383.047749,-0.000000,9252.574275
1087.002536,689.485948,-148.041188,8586.388927
1087.002852,612.876398,222.061783,8956.491898
1087.003168,689.485948,-148.041188,9400.615463
1087.003484,459.657299,-296.082377,9252.574275
1087.003799,689.485948,-666.185348,9178.553681
1087.004115,536.266849,-888.247130,9844.739029
1087.004431,229.828649,-592.164754,9474.636058
1087.004747,0.000000,-962.267725,9474.636058
1087.005062,306.438199,-518.144159,9770.718434
1087.005378,0.000000,-370.102971,9770.718434
1087.005694,0.000000,-222.061783,9178.553681
1087.006010,842.705048,-0.000000,9252.574275
1087.006325,612.876398,-222.061783,9030.512492
1087.006641,459.657299,-740.205942,9178.553681
1087.006957,459.657299,-370.102971,9474.636058
1087.007273,612.876398,-888.247130,9104.533087
1087.007588,612.876398,-518.144159,9326.594869
1087.007904,0.000000,-222.061783,9326.594869
1087.008220,306.438199,-148.041188,9252.574275
1087.008535,383.047749,-296.082377,8808.450710
1087.008851,0.000000,-370.102971,9400.615463
1087.009167,-153.219100,-888.247130,9696.697840
1087.009483,0.000000,-1110.308913,9992.780217
1087.009798,0.000000,-1036.288319,9918.759623
1087.010114,229.828649,-518.144159,9474.636058
1087.010430,1762.019645,-296.082377,8882.471304
1087.010746,1149.143247,-296.082377,8882.471304
1087.011061,919.314598,148.041188,8882.471304
1087.011377,842.705048,296.082377,8882.471304
1087.011693,689.485948,-0.000000,9030.512492
1087.012009,459.657299,222.061783,9770.718434
1087.012324,1149.143247,666.185348,9326.594869
1087.012640,995.924147,1036.288319,9030.512492
1087.012956,612.876398,370.102971,9326.594869
1087.013272,612.876398,-444.123565,10066.800811
1087.013587,0.000000,-444.123565,9918.759623
1087.013903,0.000000,222.061783,9844.739029
1087.014219,229.828649,-0.000000,10140.821405
1087.014535,153.219100,-148.041188,10584.944971
1087.014850,0.000000,-0.000000,9770.718434
1087.015166,76.609550,740.205942,9474.636058
1087.015482,842.705048,222.061783,9326.594869
1087.015797,459.657299,222.061783,9474.636058
1087.016113,536.266849,444.123565,9770.718434
1087.016429,536.266849,148.041188,9178.553681
1087.016745,536.266849,148.041188,10140.821405
1087.017060,229.828649,296.082377,9844.739029
1087.017376,76.609550,518.144159,9252.574275
1087.017692,-306.438199,-0.000000,9474.636058
1087.018008,-153.219100,-222.061783,9992.780217
1087.018323,-306.438199,-740.205942,10288.862594
1087.018639,-995.924147,-592.164754,10436.903782
1087.018955,-842.705048,-814.226536,10436.903782
1087.019271,0.000000,-592.164754,9992.780217
1087.019586,229.828649,-666.185348,9770.718434
1087.019902,229.828649,-666.185348,9474.636058
1087.020218,306.438199,-222.061783,9474.636058
1087.020534,383.047749,74.020594,9178.553681
1087.020849,229.828649,-0.000000,8808.450710
1087.021165,459.657299,-148.041188,9696.697840
1087.021481,306.438199,-0.000000,9474.636058
1087.021796,536.266849,518.144159,8808.450710
1087.022112,766.095498,-148.041188,9104.533087
1087.022428,383.047749,-666.185348,8808.450710
1087.022744,306.438199,-444.123565,9178.553681
1087.023059,383.047749,-370.102971,9696.697840
1087.023375,76.609550,-1184.329507,9918.759623
1087.023691,153.219100,-740.205942,9770.718434
1087.024007,153.219100,-1332.370696,9844.739029
1087.024322,689.485948,-814.226536,9474.636058
1087.024638,919.314598,-296.082377,9326.594869
1087.024954,842.705048,-0.000000,8438.347739
1087.025270,536.266849,-0.000000,8290.306550
1087.025585,842.705048,-296.082377,9178.553681
1087.025901,1072.533697,-148.041188,8808.450710
1087.026217,842.705048,-370.102971,8956.491898
1087.026533,1072.533697,-370.102971,8882.471304
1087.026848,689.485948,-814.226536,9178.553681
1087.027164,612.876398,-740.205942,8882.471304
1087.027480,536.266849,-518.144159,9474.636058
1087.027795,536.266849,-814.226536,9918.759623
1087.028111,76.609550,-814.226536,9622.677246
1087.028427,306.438199,-444.123565,9474.636058
1087.028743,76.609550,-444.123565,9992.780217
1087.029058,919.314598,-444.123565,9252.574275
1087.029374,689.485948,-592.164754,9696.697840
1087.029690,536.266849,-592.164754,9326.594869
1087.030006,383.047749,-296.082377,9474.636058
1087.030321,842.705048,-0.000000,9326.594869
1087.030637,842.705048,-0.000000,9326.594869
1087.030953,919.314598,740.205942,9474.636058
1087.031269,383.047749,296.082377,9104.533087
1087.031584,306.438199,-74.020594,9326.594869
1087.031900,153.219100,-592.164754,9770.718434
1087.032216,-306.438199,-592.164754,10510.924376
1087.032532,0.000000,-222.061783,9918.759623
1087.032847,229.828649,-518.144159,10140.821405
1087.033163,76.609550,-296.082377,10214.842000
1087.033479,383.047749,-296.082377,9474.636058
1087.033794,919.314598,-74.020594,9474.636058
1087.034110,1072.533697,-74.020594,9474.636058
1087.034426,842.705048,370.102971,8882.471304
1087.034742,766.095498,740.205942,9178.553681
1087.035057,842.705048,148.041188,9696.697840
1087.035373,766.095498,444.123565,9326.594869
1087.035689,459.657299,370.102971,9400.615463
1087.036005,766.095498,962.267725,9104.533087
1087.036320,536.266849,-0.000000,9696.697840
1087.036636,229.828649,222.061783,9622.677246
1087.036952,0.000000,-0.000000,10140.821405
1087.037268,459.657299,-148.041188,10288.862594
1087.037583,0.000000,-148.041188,9992.780217
1087.037899,0.000000,-74.020594,9844.739029
1087.038215,0.000000,-74.020594,9844.739029
1087.038531,842.705048,74.020594,9770.718434
1087.038846,689.485948,-0.000000,9104.533087
1087.039162,612.876398,666.185348,8882.471304
1087.039478,153.219100,518.144159,9400.615463
1087.039794,536.266849,148.041188,9548.656652
1087.040109,459.657299,370.102971,9252.574275
1087.040425,153.219100,518.144159,8882.471304
1087.040741,76.609550,-0.000000,9770.718434
1087.041056,0.000000,-148.041188,9400.615463
1087.041372,-459.657299,-148.041188,9326.594869
1087.041688,-612.876398,-888.247130,10658.965565
1087.042004,-153.219100,-1258.350101,10510.924376
1087.042319,-612.876398,-740.205942,10214.842000
1087.042635,-306.438199,-592.164754,10140.821405
1087.042951,229.828649,-888.247130,9178.553681
1087.043267,689.485948,-592.164754,8956.491898
1087.043582,689.485948,-370.102971,8956.491898
1087.043898,536.266849,-444.123565,8882.471304
1087.044214,689.485948,-666.185348,9474.636058
1087.044530,1149.143247,-0.000000,9252.574275
1087.044846,1072.533697,-0.000000,8586.388927
1087.045161,919.314598,-0.000000,8882.471304
1087.045477,766.095498,-296.082377,9326.594869
1087.045793,459.657299,-666.185348,9474.636058
1087.046109,612.876398,-666.185348,8956.491898
1087.046424,153.219100,-888.247130,9622.677246
1087.046740,153.219100,-1184.329507,10362.883188
1087.047056,842.705048,-814.226536,9992.780217
1087.047372,383.047749,-370.102971,9622.677246
1087.047687,842.705048,-592.164754,9474.636058
1087.048003,1685.410096,-0.000000,8734.430116
1087.048319,1685.410096,-148.041188,8734.430116
1087.048635,919.314598,74.020594,8586.388927
1087.048951,1149.143247,-444.123565,9104.533087
1087.049266,1532.190996,-370.102971,8882.471304
1087.049582,1225.752797,-74.020594,9326.594869
1087.049898,1225.752797,-518.144159,9474.636058
1087.050214,1149.143247,-1110.308913,8882.471304
1087.050529,842.705048,-740.205942,9326.594869
1087.050845,229.828649,-592.164754,9770.718434
1087.051161,306.438199,-1110.308913,10436.903782
1087.051477,383.047749,-962.267725,9992.780217
1087.051792,0.000000,-296.082377,9548.656652
1087.052108,536.266849,-666.185348,9474.636058
1087.052424,995.924147,-740.205942,9400.615463
1087.052740,536.266849,-222.061783,9178.553681
1087.053056,766.095498,-0.000000,8808.450710
1087.053371,766.095498,-0.000000,9030.512492
1087.053687,459.657299,-222.061783,9474.636058
1087.054003,536.266849,-222.061783,9844.739029
1087.054319,306.438199,-0.000000,9326.594869
1087.054634,153.219100,-296.082377,9622.677246
1087.054950,0.000000,-370.102971,9844.739029
1087.055266,76.609550,-148.041188,9548.656652
1087.055582,0.000000,-222.061783,9770.718434
1087.055898,0.000000,-814.226536,10140.821405
1087.056213,0.000000,-1036.288319,10214.842000
1087.056529,153.219100,-518.144159,9548.656652
1087.056845,306.438199,-0.000000,9548.656652
1087.057161,459.657299,-0.000000,9474.636058
1087.057476,459.657299,666.185348,9252.574275
1087.057792,76.609550,740.205942,8660.409521
1087.058108,229.828649,370.102971,9104.533087
1087.058424,459.657299,814.226536,9474.636058
1087.058739,306.438199,1110.308913,9252.574275
1087.059055,689.485948,-0.000000,9326.594869
1087.059371,459.657299,-0.000000,9104.533087
1087.059687,0.000000,-222.061783,9400.615463
1087.060003,-459.657299,-74.020594,9770.718434
1087.060318,-383.047749,-444.123565,10288.862594
1087.060634,-459.657299,-370.102971,10436.903782
1087.060950,0.000000,-0.000000,9992.780217
1087.061266,-76.609550,740.205942,9178.553681
1087.061581,459.657299,592.164754,9104.533087
1087.061897,459.657299,1110.308913,9104.533087
1087.062213,229.828649,1110.308913,8586.388927
1087.062529,383.047749,888.247130,8882.471304
1087.062844,306.438199,-0.000000,9400.615463
1087.063160,229.828649,-74.020594,9474.636058
1087.063476,-229.828649,370.102971,9474.636058
1087.063792,0.000000,-0.000000,9252.574275
1087.064108,-536.266849,-0.000000,9696.697840
1087.064423,-229.828649,-0.000000,9622.677246
1087.064739,-536.266849,-222.061783,9844.739029
1087.065055,-612.876398,-370.102971,9844.739029
1087.065371,0.000000,-1036.288319,10436.903782
1087.065686,76.609550,-1258.350101,9844.739029
1087.066002,459.657299,-814.226536,9548.656652
1087.066318,919.314598,-518.144159,9548.656652
1087.066634,842.705048,-74.020594,9030.512492
1087.066950,995.924147,-0.000000,8882.471304
1087.067265,919.314598,148.041188,8734.430116
1087.067581,842.705048,-148.041188,9252.574275
1087.067897,919.314598,-222.061783,9178.553681
1087.068213,995.924147,-444.123565,9474.636058
1087.068528,995.924147,-740.205942,9474.636058
1087.068844,995.924147,-518.144159,9400.615463
1087.069160,995.924147,-444.123565,9030.512492
1087.069476,459.657299,-1184.329507,9474.636058
1087.069791,229.828649,-1406.391290,10288.862594
1087.070107,1149.143247,-1480.411884,10288.862594
1087.070423,689.485948,-1036.288319,9474.636058
1087.070739,766.095498,-814.226536,9696.697840
1087.071055,1378.971896,-740.205942,9252.574275
1087.071370,1378.971896,-222.061783,8586.388927
1087.071686,1149.143247,-370.102971,9104.533087
1087.072002,1378.971896,-296.082377,9326.594869
1087.072318,1608.800546,148.041188,8882.471304
1087.072633,1378.971896,296.082377,8734.430116
1087.072949,995.924147,-222.061783,9104.533087
1087.073265,766.095498,-1036.288319,8808.450710
1087.073581,383.047749,-888.247130,9326.594869
1087.073896,0.000000,-1036.288319,9622.677246
1087.074212,-153.219100,-1332.370696,10510.924376
1087.074528,-383.047749,-1258.350101,10584.944971
1087.074844,-229.828649,-1184.329507,10288.862594
1087.075160,459.657299,-666.185348,9844.739029
1087.075475,536.266849,-444.123565,9474.636058
1087.075791,842.705048,-74.020594,8660.409521
1087.076107,766.095498,-222.061783,9178.553681
1087.076423,842.705048,-0.000000,9030.512492
1087.076738,229.828649,-74.020594,9326.594869
1087.077054,229.828649,-296.082377,9178.553681
1087.077370,229.828649,-0.000000,9178.553681
1087.077686,-459.657299,-148.041188,9622.677246
1087.078002,0.000000,-444.123565,9622.677246
1087.078317,0.000000,-666.185348,9548.656652
1087.078633,-766.095498,-814.226536,9770.718434
1087.078949,-383.047749,-1406.391290,10066.800811
1087.079265,-229.828649,-1332.370696,9770.718434
1087.079580,-306.438199,-666.185348,10288.862594
1087.079896,229.828649,-74.020594,9326.594869
1087.080212,612.876398,-0.000000,9474.636058
1087.080528,536.266849,518.144159,8364.327145
1087.080843,1225.752797,1110.308913,8808.450710
1087.081159,536.266849,962.267725,8956.491898
1087.081475,919.314598,740.205942,9030.512492
1087.081791,842.705048,1036.288319,9030.512492
1087.082107,995.924147,592.164754,9030.512492
1087.082422,612.876398,-0.000000,9252.574275
1087.082738,383.047749,444.123565,9548.656652
1087.083054,-153.219100,148.041188,9696.697840
1087.083370,-612.876398,148.041188,9992.780217
1087.083685,-306.438199,-0.000000,10214.842000
1087.084001,-229.828649,-0.000000,10214.842000
1087.084317,-153.219100,296.082377,10140.821405
1087.084633,536.266849,-0.000000,9548.656652
1087.084948,1072.533697,370.102971,9030.512492
1087.085264,1149.143247,1258.350101,9104.533087
1087.085580,1072.533697,1628.453072,8660.409521
1087.085896,995.924147,1554.432478,9252.574275
1087.086212,766.095498,962.267725,9400.615463
1087.086527,383.047749,1184.329507,9400.615463
1087.086843,306.438199,592.164754,9178.553681
1087.087159,0.000000,296.082377,9326.594869
1087.087475,-153.219100,-370.102971,10066.800811
1087.087790,-612.876398,-444.123565,9918.759623
1087.088106,-612.876398,-592.164754,10584.944971
1087.088422,-229.828649,-888.247130,10807.006753
1087.088738,-383.047749,-666.185348,10510.924376
1087.089054,0.000000,-148.041188,10140.821405
1087.089369,0.000000,-148.041188,9326.594869
1087.089685,612.876398,-148.041188,9548.656652
1087.090001,689.485948,-0.000000,9400.615463
1087.090317,689.485948,296.082377,9326.594869
1087.090632,919.314598,-0.000000,9474.636058
1087.090948,612.876398,-0.000000,9178.553681
1087.091264,995.924147,-0.000000,8734.430116
1087.091580,919.314598,-518.144159,9622.677246
1087.091895,842.705048,-888.247130,9992.780217
1087.092211,842.705048,-592.164754,9622.677246
1087.092527,306.438199,-814.226536,9696.697840
1087.092843,536.266849,-1332.370696,10362.883188
1087.093159,306.438199,-1480.411884,10288.862594
1087.093474,919.314598,-1036.288319,10066.800811
1087.093790,995.924147,-518.144159,9548.656652
1087.094106,1608.800546,-444.123565,9400.615463
1087.094422,1685.410096,-0.000000,8956.491898
1087.094737,1608.800546,-0.000000,8586.388927
1087.095053,1838.629195,-0.000000,8808.450710
1087.095369,1378.971896,-222.061783,9030.512492
1087.095685,1149.143247,-0.000000,8882.471304
1087.096000,995.924147,-148.041188,9178.553681
1087.096316,842.705048,-370.102971,9326.594869
1087.096632,689.485948,-740.205942,9474.636058
1087.096948,153.219100,-1110.308913,9474.636058
1087.097264,0.000000,-1406.391290,10066.800811
1087.097579,0.000000,-1998.556043,10510.924376
1087.097895,0.000000,-1702.473667,10584.944971
1087.098211,306.438199,-1258.350101,9770.718434
1087.098527,689.485948,-888.247130,9178.553681
1087.098842,995.924147,-592.164754,9030.512492
1087.099158,1378.971896,-148.041188,8364.327145
1087.099474,842.705048,-222.061783,9178.553681
1087.099790,1072.533697,-222.061783,8734.430116
1087.100106,766.095498,-296.082377,8956.491898
1087.100421,383.047749,-370.102971,9104.533087
1087.100737,459.657299,-592.164754,9178.553681
1087.101053,612.876398,-666.185348,9178.553681
1087.101369,0.000000,-592.164754,8956.491898
1087.101684,-383.047749,-518.144159,9474.636058
1087.102000,-306.438199,-1406.391290,10066.800811
1087.102316,-536.266849,-1258.350101,9770.718434
1087.102632,-383.047749,-1406.391290,10510.924376
1087.102947,0.000000,-740.205942,9696.697840
1087.103263,459.657299,-444.123565,9326.594869
1087.103579,689.485948,-222.061783,9178.553681
1087.103895,689.485948,296.082377,8660.409521
1087.104211,766.095498,666.185348,8956.491898
1087.104526,766.095498,814.226536,9030.512492
1087.104842,689.485948,962.267725,9030.512492
1087.105158,689.485948,1332.370696,9178.553681
1087.105474,306.438199,1110.308913,8808.450710
1087.105789,842.705048,962.267725,8882.471304
1087.106105,383.047749,-74.020594,9474.636058
1087.106421,0.000000,296.082377,10214.842000
1087.106737,-689.485948,-370.102971,10436.903782
1087.107052,-306.438199,-814.226536,10658.965565
1087.107368,-689.485948,592.164754,9918.759623
1087.107684,0.000000,1036.288319,9474.636058
1087.108000,766.095498,1036.288319,9622.677246
1087.108316,459.657299,814.226536,9696.697840
1087.108631,153.219100,1184.329507,9104.533087
1087.108947,612.876398,1184.329507,9104.533087
1087.109263,0.000000,888.247130,9326.594869
1087.109579,0.000000,1036.288319,10066.800811
1087.109894,0.000000,962.267725,9104.533087
1087.110210,0.000000,888.247130,9252.574275
1087.110526,-536.266849,518.144159,9918.759623
1087.110842,-842.705048,-444.123565,10510.924376
1087.111158,-612.876398,-962.267725,10807.006753
1087.111473,-1532.190996,-1110.308913,11177.109724
1087.111789,-766.095498,-370.102971,10732.986159
1087.112105,0.000000,-296.082377,10066.800811
1087.112421,153.219100,-0.000000,10140.821405
1087.112736,-383.047749,222.061783,9844.739029
1087.113052,842.705048,-0.000000,9474.636058
1087.113368,1072.533697,518.144159,9104.533087
1087.113684,919.314598,592.164754,9474.636058
1087.113999,1838.629195,370.102971,8956.491898
1087.114315,1378.971896,666.185348,8438.347739
1087.114631,1149.143247,888.247130,8734.430116
1087.114947,1685.410096,-0.000000,9326.594869
1087.115263,919.314598,-592.164754,9030.512492
1087.115578,0.000000,-592.164754,9844.739029
1087.115894,0.000000,-1332.370696,10288.862594
1087.116210,0.000000,-1776.494261,10288.862594
1087.116526,76.609550,-1480.411884,10140.821405
1087.116841,153.219100,-1554.432478,9992.780217
1087.117157,689.485948,-1850.514855,9770.718434
1087.117473,919.314598,-1554.432478,9326.594869
1087.117789,1378.971896,-740.205942,8808.450710
1087.118104,1838.629195,-148.041188,8512.368333
1087.118420,1838.629195,-74.020594,8734.430116
1087.118736,2068.457845,148.041188,8660.409521
1087.119052,1838.629195,518.144159,8216.285956
1087.119368,1838.629195,-0.000000,8142.265362
1087.119683,1608.800546,-296.082377,8512.368333
1087.119999,1149.143247,-518.144159,8734.430116
1087.120315,766.095498,-1184.329507,9474.636058
1087.120631,306.438199,-1406.391290,9770.718434
1087.120946,229.828649,-1554.432478,10140.821405
1087.121262,76.609550,-1628.453072,10066.800811
1087.121578,0.000000,-1554.432478,9992.780217
1087.121894,459.657299,-1998.556043,9622.677246
1087.122210,766.095498,-1184.329507,9400.615463
1087.122525,995.924147,-0.000000,8882.471304
1087.122841,919.314598,-74.020594,8734.430116
1087.123157,1072.533697,-148.041188,8956.491898
1087.123473,995.924147,296.082377,8734.430116
1087.123788,689.485948,148.041188,8586.388927
1087.124104,459.657299,-74.020594,9104.533087
1087.124420,0.000000,-888.247130,9252.574275
1087.124736,0.000000,-740.205942,9400.615463
1087.125051,-229.828649,-1184.329507,9622.677246
1087.125367,-919.314598,-1332.370696,10436.903782
1087.125683,-536.266849,-1998.556043,10436.903782
1087.125999,-383.047749,-1406.391290,10510.924376
1087.126315,383.047749,-1036.288319,9992.780217
1087.126630,612.876398,-370.102971,9104.533087
1087.126946,612.876398,148.041188,8808.450710
1087.127262,612.876398,444.123565,8808.450710
1087.127578,536.266849,1184.329507,8364.327145
1087.127893,919.314598,1258.350101,8808.450710
1087.128209,536.266849,1036.288319,8734.430116
1087.128525,459.657299,814.226536,9104.533087
1087.128841,383.047749,518.144159,9326.594869
1087.129156,306.438199,222.061783,9622.677246
1087.129472,-612.876398,444.123565,9622.677246
1087.129788,-995.924147,-0.000000,10510.924376
1087.130104,-766.095498,-0.000000,10584.944971
1087.130420,-919.314598,-0.000000,10881.027347
1087.130735,-459.657299,222.061783,10214.842000
1087.131051,0.000000,-148.041188,9992.780217
1087.131367,229.828649,296.082377,9548.656652
1087.131683,689.485948,666.185348,9622.677246
1087.131998,842.705048,1258.350101,9326.594869
1087.132314,995.924147,1184.329507,8882.471304
1087.132630,1225.752797,1110.308913,9400.615463
1087.132946,995.924147,1184.329507,8956.491898
1087.133262,1149.143247,1184.329507,8882.471304
1087.133577,1072.533697,888.247130,9696.697840
1087.133893,383.047749,222.061783,9400.615463
1087.134209,-229.828649,-148.041188,9474.636058
1087.134525,-459.657299,-888.247130,10362.883188
1087.134840,-536.266849,-1184.329507,10807.006753
1087.135156,-459.657299,-962.267725,10955.047942
1087.135472,-383.047749,-814.226536,10140.821405
1087.135788,0.000000,-222.061783,9548.656652
1087.136103,383.047749,-296.082377,9548.656652
1087.136419,612.876398,-0.000000,9474.636058
1087.136735,766.095498,296.082377,8808.450710
1087.137051,1149.143247,222.061783,9326.594869
1087.137367,1225.752797,518.144159,9178.553681
1087.137682,1378.971896,592.164754,8586.388927
1087.137998,1378.971896,518.144159,8734.430116
1087.138314,1225.752797,-148.041188,9030.512492
1087.138630,689.485948,-222.061783,9474.636058
1087.138945,306.438199,-444.123565,9844.739029
1087.139261,0.000000,-888.247130,10066.800811
1087.139577,76.609550,-1110.308913,10288.862594
1087.139893,383.047749,-888.247130,9548.656652
1087.140208,536.266849,-888.247130,9400.615463
1087.140524,995.924147,-814.226536,9770.718434
1087.140840,1302.362347,-962.267725,9400.615463
1087.141156,1302.362347,-666.185348,8586.388927
1087.141472,1455.581446,-0.000000,9252.574275
1087.141787,1685.410096,-0.000000,8364.327145
1087.142103,1685.410096,370.102971,8512.368333
1087.142419,1532.190996,444.123565,8512.368333
1087.142735,1532.190996,-74.020594,9104.533087
1087.143050,995.924147,-222.061783,9178.553681
1087.143366,459.657299,-518.144159,8512.368333
1087.143682,-76.609550,-1702.473667,9770.718434
1087.143998,-153.219100,-2368.659014,10732.986159
1087.144314,-306.438199,-2146.597232,10584.944971
1087.144629,-383.047749,-1184.329507,10140.821405
1087.144945,0.000000,-1628.453072,9696.697840
1087.145261,612.876398,-1480.411884,9178.553681
1087.145577,459.657299,-888.247130,9474.636058
1087.145893,-229.828649,-592.164754,9252.574275
1087.146208,689.485948,-296.082377,8956.491898
1087.146524,612.876398,-0.000000,8882.471304
1087.146840,612.876398,-0.000000,8808.450710
1087.147156,229.828649,-222.061783,8660.409521
1087.147472,612.876398,-592.164754,8956.491898
1087.147787,76.609550,-740.205942,8956.491898
1087.148103,-612.876398,-740.205942,9474.636058
1087.148419,-536.266849,-1258.350101,9918.759623
1087.148735,-766.095498,-1258.350101,10140.821405
1087.149051,-766.095498,-962.267725,10436.903782
1087.149367,-766.095498,-666.185348,9844.739029
1087.149682,0.000000,-444.123565,9474.636058
1087.149998,229.828649,-222.061783,9400.615463
1087.150314,153.219100,-296.082377,8882.471304
1087.150630,536.266849,296.082377,8882.471304
1087.150946,766.095498,370.102971,8586.388927
1087.151261,459.657299,370.102971,9400.615463
1087.151577,689.485948,740.205942,9400.615463
1087.151893,689.485948,1036.288319,8660.409521
1087.152209,842.705048,1036.288319,9178.553681
1087.152525,229.828649,814.226536,9326.594869
1087.152840,0.000000,296.082377,9474.636058
1087.153156,0.000000,-0.000000,10807.006753
1087.153472,0.000000,-74.020594,10584.944971
1087.153788,76.609550,148.041188,9844.739029
1087.154104,153.219100,444.123565,10288.862594
1087.154420,689.485948,-0.000000,9622.677246
1087.154735,612.876398,444.123565,9622.677246
1087.155051,459.657299,888.247130,9474.636058
1087.155367,689.485948,814.226536,9252.574275
1087.155683,995.924147,1110.308913,9548.656652
1087.155999,842.705048,1480.411884,9696.697840
1087.156314,766.095498,1554.432478,9178.553681
1087.156630,766.095498,962.267725,9104.533087
1087.156946,1072.533697,444.123565,9548.656652
1087.157262,76.609550,444.123565,9992.780217
1087.157578,-229.828649,-0.000000,10362.883188
1087.157893,-459.657299,-518.144159,10362.883188
1087.158209,-383.047749,-518.144159,10732.986159
1087.158525,-383.047749,-370.102971,10584.944971
1087.158841,0.000000,-444.123565,10288.862594
1087.159157,459.657299,-222.061783,9918.759623
1087.159472,459.657299,-0.000000,9474.636058
1087.159788,689.485948,148.041188,9474.636058
1087.160104,612.876398,370.102971,8882.471304
1087.160420,1302.362347,666.185348,9252.574275
1087.160736,1608.800546,370.102971,9178.553681
1087.161052,1302.362347,592.164754,8586.388927
1087.161367,1302.362347,-0.000000,8808.450710
1087.161683,1302.362347,-222.061783,9400.615463
1087.161999,842.705048,-148.041188,9474.636058
1087.162315,306.438199,-888.247130,9400.615463
1087.162631,229.828649,-444.123565,10214.842000
1087.162946,0.000000,-666.185348,9548.656652
1087.163262,536.266849,-296.082377,9548.656652
1087.163578,612.876398,-666.185348,9474.636058
1087.163894,383.047749,-1406.391290,9474.636058
1087.164210,766.095498,-814.226536,9770.718434
1087.164525,689.485948,-740.205942,9178.553681
1087.164841,1072.533697,-518.144159,9326.594869
1087.165157,995.924147,-296.082377,9474.636058
1087.165473,919.314598,-74.020594,8512.368333
1087.165789,1225.752797,370.102971,8512.368333
1087.166105,995.924147,-148.041188,8734.430116
1087.166420,689.485948,-296.082377,8882.471304
1087.166736,153.219100,-592.164754,9400.615463
1087.167052,-229.828649,-1258.350101,9474.636058
1087.167368,0.000000,-1332.370696,9992.780217
1087.167684,0.000000,-1332.370696,10140.821405
1087.167999,459.657299,-1110.308913,9252.574275
1087.168315,0.000000,-1480.411884,9474.636058
1087.168631,383.047749,-1480.411884,9548.656652
1087.168947,0.000000,-1184.329507,9400.615463
1087.169263,0.000000,-740.205942,9326.594869
1087.169578,536.266849,-666.185348,9696.697840
1087.169894,306.438199,-222.061783,9104.533087
1087.170210,306.438199,-0.000000,8808.450710
1087.170526,306.438199,-296.082377,8808.450710
1087.170842,689.485948,-888.247130,8808.450710
1087.171157,306.438199,-962.267725,9104.533087
1087.171473,-306.438199,-1258.350101,9622.677246
1087.171789,0.000000,-1554.432478,9992.780217
1087.172105,-459.657299,-1258.350101,9918.759623
1087.172421,0.000000,-444.123565,9992.780217
1087.172737,76.609550,-814.226536,9696.697840
1087.173052,459.657299,-222.061783,9252.574275
1087.173368,995.924147,148.041188,8956.491898
1087.173684,1149.143247,-0.000000,9030.512492
1087.174000,1302.362347,-74.020594,9400.615463
1087.174316,1608.800546,296.082377,9326.594869
1087.174631,1225.752797,814.226536,8438.347739
1087.174947,1225.752797,1036.288319,8660.409521
1087.175263,1072.533697,592.164754,8734.430116
1087.175579,1455.581446,370.102971,8364.327145
1087.175895,153.219100,814.226536,9252.574275
1087.176210,-229.828649,-0.000000,9696.697840
1087.176526,0.000000,-296.082377,10362.883188
1087.176842,306.438199,-0.000000,9918.759623
1087.177158,76.609550,296.082377,9770.718434
1087.177474,306.438199,-0.000000,9696.697840
1087.177790,153.219100,-518.144159,9696.697840
1087.178105,0.000000,-0.000000,9400.615463
1087.178421,229.828649,666.185348,9992.780217
1087.178737,842.705048,518.144159,9548.656652
1087.179053,689.485948,962.267725,9104.533087
1087.179369,459.657299,1702.473667,9252.574275
1087.179684,536.266849,1110.308913,9548.656652
1087.180000,766.095498,592.164754,9474.636058
1087.180316,766.095498,814.226536,9474.636058
1087.180632,0.000000,370.102971,9474.636058
1087.180948,-766.095498,-0.000000,10140.821405
1087.181263,-459.657299,-370.102971,10584.944971
1087.181579,-612.876398,-74.020594,10362.883188
1087.181895,-612.876398,222.061783,9548.656652
1087.182211,-612.876398,-74.020594,9992.780217
1087.182527,-459.657299,-370.102971,9622.677246
1087.182842,0.000000,-222.061783,10066.800811
1087.183158,76.609550,-0.000000,9548.656652
1087.183474,0.000000,370.102971,9474.636058
1087.183790,229.828649,444.123565,9178.553681
1087.184106,689.485948,148.041188,9030.512492
1087.184422,612.876398,-0.000000,9178.553681
1087.184737,536.266849,-74.020594,9178.553681
1087.185053,612.876398,-0.000000,9326.594869
1087.185369,383.047749,-0.000000,9178.553681
1087.185685,153.219100,-518.144159,9474.636058
1087.186001,612.876398,-592.164754,10140.821405
1087.186316,459.657299,-518.144159,9622.677246
1087.186632,536.266849,-444.123565,9622.677246
1087.186948,919.314598,-444.123565,9252.574275
1087.187264,1072.533697,-666.185348,9178.553681
1087.187580,1225.752797,-148.041188,8956.491898
1087.187895,1225.752797,-74.020594,9252.574275
1087.188211,1302.362347,-370.102971,9400.615463
1087.188527,1072.533697,-0.000000,9178.553681
1087.188843,842.705048,-0.000000,8734.430116
1087.189159,1225.752797,-222.061783,9548.656652
1087.189475,995.924147,-74.020594,9326.594869
1087.189790,0.000000,-444.123565,9474.636058
1087.190106,76.609550,-962.267725,10066.800811
1087.190422,306.438199,-1332.370696,10214.842000
1087.190738,306.438199,-962.267725,9548.656652
1087.191054,76.609550,-814.226536,9622.677246
1087.191369,536.266849,-1184.329507,9696.697840
1087.191685,612.876398,-1258.350101,9770.718434
1087.192001,612.876398,-814.226536,9696.697840
1087.192317,383.047749,-740.205942,9400.615463
1087.192633,766.095498,-888.247130,9548.656652
1087.192948,1302.362347,-518.144159,9474.636058
1087.193264,1302.362347,-518.144159,9030.512492
1087.193580,1455.581446,-370.102971,8956.491898
1087.193896,1149.143247,-592.164754,9030.512492
1087.194212,612.876398,-1110.308913,9252.574275
1087.194527,536.266849,-888.247130,8882.471304
1087.194843,229.828649,-1332.370696,9474.636058
1087.195159,76.609550,-888.247130,9992.780217
1087.195475,459.657299,-1036.288319,9992.780217
1087.195791,229.828649,-814.226536,8956.491898
1087.196107,229.828649,-814.226536,9252.574275
1087.196422,689.485948,-962.267725,9548.656652
1087.196738,1302.362347,-444.123565,8956.491898
1087.197054,383.047749,-74.020594,9252.574275
1087.197370,995.924147,-0.000000,8882.471304
1087.197686,842.705048,-0.000000,8956.491898
1087.198001,689.485948,148.041188,9104.533087
1087.198317,536.266849,-0.000000,8734.430116
1087.198633,766.095498,222.061783,8808.450710
1087.198949,306.438199,148.041188,9178.553681
1087.199265,76.609550,222.061783,9400.615463
1087.199580,153.219100,-148.041188,9918.759623
1087.199896,0.000000,-0.000000,10214.842000
1087.200212,153.219100,222.061783,9770.718434
1087.200528,0.000000,-0.000000,9400.615463
1087.200844,153.219100,-74.020594,9696.697840
1087.201160,0.000000,-0.000000,9622.677246
1087.201475,0.000000,222.061783,9474.636058
1087.201791,0.000000,592.164754,9770.718434
1087.202107,0.000000,444.123565,9844.739029
1087.202423,76.609550,666.185348,9252.574275
1087.202739,-229.828649,740.205942,9326.594869
1087.203054,0.000000,-0.000000,9770.718434
1087.203370,76.609550,-148.041188,9696.697840
1087.203686,0.000000,222.061783,9696.697840
1087.204002,-612.876398,-0.000000,9770.718434
1087.204318,-383.047749,-222.061783,10288.862594
1087.204633,-536.266849,-0.000000,10214.842000
1087.204949,-536.266849,-0.000000,10214.842000
1087.205265,-229.828649,-296.082377,10362.883188
1087.205581,0.000000,-1036.288319,10066.800811
1087.205897,153.219100,-370.102971,9696.697840
1087.206212,612.876398,-74.020594,9252.574275
1087.206528,536.266849,444.123565,9474.636058
1087.206844,689.485948,370.102971,9474.636058
1087.207160,459.657299,518.144159,9030.512492
1087.207476,1149.143247,-0.000000,9252.574275
1087.207792,1378.971896,-0.000000,9178.553681
1087.208107,842.705048,-0.000000,9326.594869
1087.208423,536.266849,-0.000000,9030.512492
1087.208739,306.438199,-592.164754,9770.718434
1087.209055,842.705048,-888.247130,10288.862594
1087.209371,842.705048,-0.000000,9992.780217
1087.209686,766.095498,222.061783,9474.636058
1087.210002,1072.533697,-444.123565,8956.491898
1087.210318,1378.971896,-666.185348,9104.533087
1087.210634,1302.362347,-0.000000,9474.636058
1087.210950,995.924147,222.061783,9474.636058
1087.211265,919.314598,-0.000000,9326.594869
1087.211581,766.095498,-0.000000,9400.615463
1087.211897,919.314598,370.102971,9252.574275
1087.212213,1225.752797,-0.000000,9178.553681
1087.212529,459.657299,-148.041188,9104.533087
1087.212845,689.485948,-444.123565,9474.636058
1087.213160,459.657299,-888.247130,9548.656652
1087.213476,842.705048,-814.226536,9844.739029
1087.213792,459.657299,-814.226536,9770.718434
1087.214108,612.876398,-666.185348,9918.759623
1087.214424,919.314598,-518.144159,9474.636058
1087.214739,842.705048,-666.185348,8956.491898
1087.215055,919.314598,-518.144159,8956.491898
1087.215371,1072.533697,-1036.288319,9474.636058
1087.215687,153.219100,-740.205942,9400.615463
1087.216003,383.047749,-222.061783,9326.594869
1087.216318,536.266849,-666.185348,9252.574275
1087.216634,766.095498,296.082377,9178.553681
1087.216950,842.705048,222.061783,8660.409521
1087.217266,536.266849,-666.185348,9252.574275
1087.217582,153.219100,-814.226536,9770.718434
1087.217897,-766.095498,-1406.391290,9622.677246
1087.218213,0.000000,-814.226536,9918.759623
1087.218529,0.000000,-740.205942,10140.821405
1087.218845,-76.609550,-962.267725,9770.718434
1087.219161,229.828649,-296.082377,9770.718434
1087.219477,76.609550,-296.082377,9030.512492
1087.219792,0.000000,-148.041188,9326.594869
1087.220108,383.047749,-370.102971,9548.656652
1087.220424,306.438199,-148.041188,9252.574275
1087.220740,612.876398,814.226536,9548.656652
1087.221056,612.876398,666.185348,8956.491898
1087.221371,689.485948,814.226536,9030.512492
1087.221687,995.924147,370.102971,9178.553681
1087.222003,459.657299,-0.000000,9474.636058
1087.222319,383.047749,222.061783,9104.533087
1087.222635,229.828649,370.102971,9548.656652
1087.222950,306.438199,-74.020594,9770.718434
1087.223266,153.219100,-148.041188,9770.718434
1087.223582,76.609550,296.082377,9844.739029
1087.223898,153.219100,-0.000000,9844.739029
1087.224214,0.000000,-0.000000,9474.636058
1087.224530,0.000000,814.226536,9252.574275
1087.224845,612.876398,592.164754,9918.759623
1087.225161,306.438199,-0.000000,10436.903782
1087.225477,306.438199,148.041188,9770.718434
1087.225793,76.609550,518.144159,9400.615463
1087.226109,76.609550,148.041188,9474.636058
1087.226424,229.828649,-0.000000,9104.533087
1087.226740,153.219100,-0.000000,9622.677246
1087.227056,0.000000,-0.000000,9474.636058
1087.227372,0.000000,-74.020594,9622.677246
1087.227688,383.047749,-0.000000,10066.800811
1087.228003,0.000000,-296.082377,9918.759623
1087.228319,0.000000,-814.226536,9992.780217
1087.228635,306.438199,-592.164754,9400.615463
1087.228951,459.657299,-518.144159,9252.574275
1087.229267,383.047749,-296.082377,9622.677246
1087.229582,459.657299,-74.020594,9326.594869
1087.229898,612.876398,-0.000000,9474.636058
1087.230214,919.314598,148.041188,9474.636058
1087.230530,766.095498,370.102971,8734.430116
1087.230846,1149.143247,-0.000000,8808.450710
1087.231162,919.314598,-148.041188,9474.636058
1087.231477,842.705048,-592.164754,9548.656652
1087.231793,229.828649,-888.247130,9326.594869
1087.232109,383.047749,-962.267725,9474.636058
1087.232425,229.828649,-1258.350101,9992.780217
1087.232741,536.266849,-518.144159,9622.677246
1087.233056,919.314598,-666.185348,9474.636058
1087.233372,766.095498,-666.185348,9696.697840
1087.233688,1225.752797,-296.082377,9474.636058
1087.234004,1149.143247,-0.000000,8734.430116
1087.234320,1072.533697,666.185348,9252.574275
1087.234635,995.924147,-0.000000,9400.615463
1087.234951,1149.143247,296.082377,9252.574275
1087.235267,1149.143247,666.185348,8734.430116
1087.235583,536.266849,-592.164754,9474.636058
1087.235899,383.047749,-962.267725,9844.739029
1087.236215,383.047749,-518.144159,9548.656652
1087.236530,0.000000,-592.164754,9918.759623
1087.236846,0.000000,-1110.308913,10214.842000
1087.237162,-229.828649,-888.247130,10214.842000
1087.237478,-229.828649,-518.144159,9918.759623
1087.237794,153.219100,-740.205942,10066.800811
1087.238109,383.047749,-666.185348,9622.677246
1087.238425,1072.533697,-370.102971,9178.553681
1087.238741,0.000000,-296.082377,9104.533087
1087.239057,383.047749,-666.185348,9326.594869
1087.239373,689.485948,-444.123565,9252.574275
1087.239688,459.657299,-74.020594,8956.491898
1087.240004,229.828649,-296.082377,9326.594869
1087.240320,153.219100,-888.247130,9474.636058
1087.240636,153.219100,-518.144159,9548.656652
1087.240952,-229.828649,-740.205942,9326.594869
1087.241267,76.609550,-1036.288319,9844.739029
1087.241583,76.609550,-962.267725,9992.780217
1087.241899,-229.828649,-740.205942,9474.636058
1087.242215,153.219100,-444.123565,9252.574275
1087.242531,383.047749,-518.144159,9104.533087
1087.242847,536.266849,-0.000000,9030.512492
1087.243162,229.828649,-0.000000,9252.574275
1087.243478,536.266849,-222.061783,9104.533087
1087.243794,689.485948,222.061783,9474.636058
1087.244110,612.876398,592.164754,9104.533087
1087.244426,919.314598,962.267725,9104.533087
1087.244741,689.485948,814.226536,8808.450710
1087.245057,689.485948,222.061783,9104.533087
1087.245373,536.266849,592.164754,9030.512492
1087.245689,-229.828649,518.144159,9474.636058
1087.246004,689.485948,-222.061783,10362.883188
1087.246320,0.000000,-148.041188,10214.842000
1087.246636,-229.828649,296.082377,9770.718434
1087.246952,76.609550,296.082377,9622.677246
1087.247267,536.266849,-74.020594,9622.677246
1087.247583,919.314598,518.144159,9622.677246
1087.247899,612.876398,888.247130,9326.594869
1087.248215,919.314598,592.164754,9252.574275
1087.248530,766.095498,370.102971,9770.718434
1087.248846,383.047749,1036.288319,9030.512492
1087.249162,76.609550,962.267725,9548.656652
1087.249478,229.828649,-0.000000,9696.697840
1087.249793,76.609550,296.082377,9474.636058
1087.250109,0.000000,222.061783,9770.718434
1087.250425,-383.047749,-666.185348,10288.862594
1087.250740,-383.047749,-1036.288319,10881.027347
1087.251056,-459.657299,-592.164754,10584.944971
1087.251372,0.000000,-370.102971,10288.862594
1087.251688,153.219100,-222.061783,9770.718434
1087.252003,229.828649,-0.000000,9696.697840
1087.252319,459.657299,370.102971,9474.636058
1087.252635,536.266849,222.061783,9178.553681
1087.252951,536.266849,444.123565,9400.615463
1087.253266,995.924147,-0.000000,9548.656652
1087.253582,1072.533697,-0.000000,8882.471304
1087.253898,612.876398,-296.082377,9178.553681
1087.254214,766.095498,-518.144159,9400.615463
1087.254529,536.266849,-666.185348,9400.615463
1087.254845,383.047749,-888.247130,9622.677246
1087.255161,76.609550,-444.123565,9844.739029
1087.255476,76.609550,-444.123565,9696.697840
1087.255792,612.876398,-666.185348,9696.697840
1087.256108,689.485948,-592.164754,9326.594869
1087.256424,689.485948,-888.247130,9474.636058
1087.256739,689.485948,-592.164754,9030.512492
1087.257055,536.266849,-296.082377,8512.368333
1087.257371,766.095498,-296.082377,9030.512492
1087.257687,689.485948,-148.041188,9104.533087
1087.258002,689.485948,-0.000000,9474.636058
1087.258318,689.485948,-370.102971,8882.471304
1087.258634,459.657299,-814.226536,9178.553681
1087.258950,459.657299,-1184.329507,9400.615463
1087.259265,306.438199,-1406.391290,9474.636058
1087.259581,0.000000,-1036.288319,9992.780217
1087.259897,-153.219100,-962.267725,10140.821405
1087.260213,0.000000,-1110.308913,10066.800811
1087.260528,383.047749,-444.123565,9474.636058
1087.260844,612.876398,-518.144159,9178.553681
1087.261160,1149.143247,-592.164754,8956.491898
1087.261475,1072.533697,-518.144159,9104.533087
1087.261791,919.314598,-518.144159,9400.615463
1087.262107,995.924147,-0.000000,9400.615463
1087.262423,1378.971896,-74.020594,9326.594869
1087.262738,842.705048,222.061783,9178.553681
1087.263054,995.924147,-74.020594,8882.471304
1087.263370,689.485948,-296.082377,9696.697840
1087.263686,842.705048,-666.185348,9474.636058
1087.264001,383.047749,-592.164754,9326.594869
1087.264317,76.609550,-740.205942,9548.656652
1087.264633,0.000000,-888.247130,10288.862594
1087.264949,383.047749,-518.144159,9992.780217
1087.265264,76.609550,-222.061783,9104.533087
1087.265580,689.485948,-518.144159,9844.739029
1087.265896,842.705048,-518.144159,9696.697840
1087.266211,689.485948,-148.041188,9178.553681
1087.266527,459.657299,296.082377,9400.615463
1087.266843,842.705048,296.082377,9474.636058
1087.267159,1072.533697,962.267725,9030.512492
1087.267474,842.705048,1776.494261,8808.450710
1087.267790,612.876398,1332.370696,8882.471304
1087.268106,689.485948,592.164754,9326.594869
1087.268422,383.047749,444.123565,9696.697840
1087.268737,0.000000,370.102971,9918.759623
1087.269053,-306.438199,-0.000000,9992.780217
1087.269369,-306.438199,-222.061783,10362.883188
1087.269685,-459.657299,-296.082377,9992.780217
1087.270000,0.000000,-0.000000,10436.903782
1087.270316,459.657299,-0.000000,9770.718434
1087.270632,153.219100,518.144159,9104.533087
1087.270948,229.828649,888.247130,9400.615463
1087.271263,383.047749,444.123565,9326.594869
1087.271579,459.657299,592.164754,9474.636058
1087.271895,766.095498,370.102971,9474.636058
1087.272210,229.828649,296.082377,9770.718434
1087.272526,76.609550,370.102971,9178.553681
1087.272842,153.219100,-222.061783,9326.594869
1087.273158,-383.047749,-370.102971,9918.759623
1087.273473,-383.047749,-444.123565,9770.718434
1087.273789,-689.485948,-1110.308913,10066.800811
1087.274105,-689.485948,-1110.308913,10807.006753
1087.274421,-383.047749,-740.205942,10436.903782
1087.274736,-229.828649,-0.000000,9696.697840
1087.275052,306.438199,888.247130,8586.388927
1087.275368,0.000000,444.123565,8734.430116
1087.275684,536.266849,296.082377,9178.553681
1087.275999,536.266849,-74.020594,9178.553681
1087.276315,459.657299,-0.000000,9326.594869
1087.276631,536.266849,-0.000000,9178.553681
1087.276947,153.219100,-74.020594,9104.533087
1087.277262,766.095498,-370.102971,9474.636058
1087.277578,536.266849,-888.247130,9696.697840
1087.277894,229.828649,-0.000000,9548.656652
1087.278209,306.438199,-222.061783,9548.656652
1087.278525,153.219100,-962.267725,9696.697840
1087.278841,383.047749,-814.226536,9474.636058
1087.279157,766.095498,-518.144159,8882.471304
1087.279472,1302.362347,-814.226536,8882.471304
1087.279788,1608.800546,-1258.350101,9548.656652
1087.280104,1072.533697,-518.144159,8808.450710
1087.280420,842.705048,-74.020594,8956.491898
1087.280735,1072.533697,-0.000000,8882.471304
1087.281051,1532.190996,-0.000000,9178.553681
1087.281367,1225.752797,148.041188,8956.491898
1087.281683,1072.533697,-518.144159,9400.615463
1087.281998,1225.752797,-962.267725,9844.739029
1087.282314,766.095498,-1258.350101,9474.636058
1087.282630,153.219100,-962.267725,9548.656652
1087.282945,153.219100,-1110.308913,10436.903782
1087.283261,153.219100,-1036.288319,10214.842000
1087.283577,689.485948,-666.185348,9696.697840
1087.283893,536.266849,-1036.288319,9918.759623
1087.284208,919.314598,-1184.329507,9548.656652
1087.284524,1149.143247,-740.205942,8882.471304
1087.284840,1072.533697,-370.102971,8512.368333
1087.285156,1225.752797,-0.000000,10066.800811
1087.285471,1225.752797,-74.020594,8956.491898
1087.285787,1302.362347,444.123565,8882.471304
1087.286103,766.095498,-74.020594,9030.512492
1087.286419,459.657299,-518.144159,9474.636058
1087.286734,229.828649,-962.267725,9548.656652
1087.287050,0.000000,-962.267725,9696.697840
1087.287366,-229.828649,-518.144159,10214.842000
1087.287682,-229.828649,-1332.370696,10214.842000
1087.287997,0.000000,-518.144159,9844.739029
1087.288313,-459.657299,-592.164754,9844.739029
1087.288629,76.609550,-296.082377,9548.656652
1087.288944,536.266849,222.061783,9104.533087
1087.289260,766.095498,370.102971,9030.512492
1087.289576,766.095498,444.123565,8882.471304
1087.289892,689.485948,518.144159,9104.533087
1087.290207,689.485948,666.185348,9104.533087
1087.290523,306.438199,962.267725,9030.512492
1087.290839,306.438199,814.226536,9252.574275
1087.291155,0.000000,222.061783,9326.594869
1087.291470,383.047749,-148.041188,9918.759623
1087.291786,-459.657299,-222.061783,9622.677246
1087.292102,0.000000,-296.082377,10584.944971
1087.292418,0.000000,-222.061783,10066.800811
1087.292733,0.000000,-0.000000,10140.821405
1087.293049,153.219100,-0.000000,9622.677246
1087.293365,76.609550,148.041188,9326.594869
1087.293680,459.657299,148.041188,9918.759623
1087.293996,612.876398,592.164754,9326.594869
1087.294312,76.609550,666.185348,9104.533087
1087.294628,612.876398,666.185348,9548.656652
1087.294943,612.876398,222.061783,9474.636058
1087.295259,0.000000,518.144159,9104.533087
1087.295575,0.000000,740.205942,9474.636058
1087.295891,383.047749,-0.000000,9326.594869
1087.296206,-76.609550,-888.247130,9770.718434
1087.296522,-536.266849,-814.226536,9992.780217
1087.296838,-459.657299,-666.185348,10140.821405
1087.297154,-306.438199,-518.144159,10288.862594
1087.297469,0.000000,-222.061783,10214.842000
1087.297785,0.000000,-0.000000,9622.677246
1087.298101,536.266849,-0.000000,9178.553681
1087.298417,536.266849,-296.082377,9178.553681
1087.298732,612.876398,-0.000000,9178.553681
1087.299048,612.876398,-444.123565,9474.636058
1087.299364,919.314598,-296.082377,9400.615463
1087.299679,1149.143247,-0.000000,9252.574275
1087.299995,1072.533697,370.102971,9104.533087
1087.300311,842.705048,518.144159,8882.471304
1087.300627,459.657299,-148.041188,9030.512492
1087.300942,612.876398,-296.082377,9548.656652
1087.301258,76.609550,-370.102971,9770.718434
1087.301574,306.438199,-1036.288319,10214.842000
1087.301890,689.485948,-740.205942,9844.739029
1087.302205,1072.533697,-444.123565,9622.677246
1087.302521,1072.533697,-740.205942,9400.615463
1087.302837,1378.971896,-444.123565,9400.615463
1087.303153,1149.143247,-444.123565,9252.574275
1087.303468,1302.362347,296.082377,8808.450710
1087.303784,1455.581446,444.123565,8808.450710
1087.304100,1685.410096,-0.000000,9178.553681
1087.304415,1149.143247,296.082377,8882.471304
1087.304731,1072.533697,-0.000000,8882.471304
1087.305047,766.095498,-222.061783,9178.553681
1087.305363,766.095498,-666.185348,9548.656652
1087.305678,383.047749,-1332.370696,9844.739029
1087.305994,0.000000,-1332.370696,9992.780217
1087.306310,-306.438199,-1184.329507,10214.842000
1087.306626,76.609550,-1628.453072,10436.903782
1087.306941,459.657299,-1258.350101,10066.800811
1087.307257,0.000000,-888.247130,9252.574275
1087.307573,842.705048,-444.123565,9252.574275
1087.307889,766.095498,-0.000000,8956.491898
1087.308204,612.876398,74.020594,8956.491898
1087.308520,536.266849,-296.082377,9178.553681
1087.308836,689.485948,-296.082377,9252.574275
1087.309152,306.438199,-74.020594,9326.594869
1087.309467,153.219100,-370.102971,8956.491898
1087.309783,0.000000,-814.226536,9326.594869
1087.310099,-153.219100,-444.123565,10066.800811
1087.310414,-689.485948,-370.102971,9548.656652
1087.310730,-689.485948,-370.102971,9992.780217
1087.311046,-689.485948,-814.226536,10066.800811
1087.311362,-229.828649,-888.247130,9992.780217
1087.311677,76.609550,-444.123565,8956.491898
1087.311993,766.095498,-666.185348,9622.677246
1087.312309,995.924147,-592.164754,9252.574275
1087.312625,766.095498,592.164754,8660.409521
1087.312940,766.095498,1110.308913,8290.306550
1087.313256,1149.143247,1406.391290,8660.409521
1087.313572,1072.533697,1480.411884,8882.471304
1087.313888,383.047749,1258.350101,8956.491898
1087.314203,689.485948,370.102971,9400.615463
1087.314519,229.828649,-518.144159,9770.718434
1087.314835,0.000000,-222.061783,10362.883188
1087.315150,-153.219100,-222.061783,10362.883188
1087.315466,-153.219100,-0.000000,10510.924376
1087.315782,0.000000,444.123565,9992.780217
1087.316098,76.609550,666.185348,10066.800811
1087.316413,766.095498,148.041188,10066.800811
1087.316729,689.485948,-74.020594,9548.656652
1087.317045,383.047749,222.061783,9474.636058
1087.317361,842.705048,296.082377,9474.636058
1087.317676,383.047749,1036.288319,9252.574275
1087.317992,919.314598,1184.329507,9104.533087
1087.318308,612.876398,1036.288319,8734.430116
1087.318624,383.047749,814.226536,9400.615463
1087.318939,76.609550,-222.061783,9622.677246
1087.319255,-306.438199,-888.247130,9918.759623
1087.319571,0.000000,-740.205942,10510.924376
1087.319887,-766.095498,-962.267725,10140.821405
1087.320202,-766.095498,-1110.308913,10362.883188
1087.320518,-383.047749,-888.247130,10732.986159
1087.320834,-306.438199,-74.020594,9918.759623
1087.321149,0.000000,-222.061783,9326.594869
1087.321465,383.047749,-222.061783,9104.533087
1087.321781,766.095498,-74.020594,9104.533087
1087.322097,919.314598,148.041188,8808.450710
1087.322412,919.314598,296.082377,9252.574275
1087.322728,1225.752797,518.144159,8882.471304
1087.323044,842.705048,740.205942,8512.368333
1087.323360,536.266849,148.041188,9104.533087
1087.323675,612.876398,-518.144159,9326.594869
1087.323991,689.485948,-1110.308913,9622.677246
1087.324307,0.000000,-962.267725,9992.780217
1087.324623,306.438199,-1258.350101,10288.862594
1087.324938,459.657299,-1258.350101,10436.903782
1087.325254,689.485948,-962.267725,9770.718434
1087.325570,919.314598,-814.226536,9252.574275
1087.325886,1225.752797,-74.020594,9326.594869
1087.326201,1378.971896,-74.020594,9178.553681
1087.326517,1302.362347,148.041188,9178.553681
1087.326833,1149.143247,518.144159,8586.388927
1087.327148,1302.362347,-0.000000,9326.594869
1087.327464,1149.143247,-222.061783,8956.491898
1087.327780,689.485948,-148.041188,8586.388927
1087.328096,842.705048,-444.123565,9622.677246
1087.328411,612.876398,-1184.329507,9474.636058
1087.328727,76.609550,-1184.329507,10140.821405
1087.329043,0.000000,-1406.391290,9770.718434
1087.329359,76.609550,-1776.494261,10214.842000
1087.329674,306.438199,-1702.473667,10436.903782
1087.329990,689.485948,-1036.288319,10510.924376
1087.330306,689.485948,-518.144159,9474.636058
1087.330622,1225.752797,-296.082377,8808.450710
1087.330937,1302.362347,-0.000000,8734.430116
1087.331253,1072.533697,222.061783,8808.450710
1087.331569,995.924147,-518.144159,8882.471304
1087.331884,919.314598,-0.000000,9030.512492
1087.332200,612.876398,-222.061783,9030.512492
1087.332516,76.609550,-222.061783,9326.594869
1087.332832,0.000000,-444.123565,9474.636058
1087.333147,-536.266849,-370.102971,9474.636058
1087.333463,-536.266849,-444.123565,9548.656652
1087.333779,-689.485948,-666.185348,10140.821405
1087.334095,-919.314598,-1184.329507,10362.883188
1087.334410,0.000000,-1850.514855,10732.986159
1087.334726,0.000000,-888.247130,9844.739029
1087.335042,536.266849,-296.082377,9030.512492
1087.335358,919.314598,-74.020594,8660.409521
1087.335673,1302.362347,222.061783,8586.388927
1087.335989,1685.410096,1258.350101,8364.327145
1087.336305,1225.752797,1628.453072,8364.327145
1087.336621,1608.800546,1110.308913,8734.430116
1087.336936,995.924147,962.267725,8586.388927
1087.337252,306.438199,370.102971,8734.430116
1087.337568,383.047749,-148.041188,9918.759623
1087.337883,76.609550,-518.144159,9918.759623
1087.338199,-536.266849,-74.020594,9992.780217
1087.338515,-306.438199,-518.144159,10066.800811
1087.338831,-459.657299,-888.247130,10510.924376
1087.339146,-306.438199,-148.041188,10140.821405
1087.339462,-229.828649,222.061783,9548.656652
1087.339778,229.828649,296.082377,9548.656652
1087.340094,842.705048,296.082377,9326.594869
1087.340409,689.485948,962.267725,8586.388927
1087.340725,766.095498,1036.288319,9030.512492
1087.341041,459.657299,666.185348,9104.533087
1087.341357,766.095498,888.247130,9474.636058
1087.341672,383.047749,1332.370696,9104.533087
1087.341988,229.828649,296.082377,9548.656652
1087.342304,-306.438199,222.061783,9992.780217
1087.342619,-689.485948,-296.082377,9992.780217
1087.342935,-459.657299,-74.020594,10584.944971
1087.343251,-919.314598,-296.082377,10436.903782
1087.343567,-383.047749,-740.205942,10362.883188
1087.343882,-459.657299,-0.000000,9992.780217
1087.344198,-306.438199,-0.000000,9844.739029
1087.344514,536.266849,-592.164754,9844.739029
1087.344829,689.485948,-222.061783,9178.553681
1087.345145,459.657299,148.041188,9104.533087
1087.345461,612.876398,222.061783,9104.533087
1087.345776,689.485948,370.102971,9252.574275
1087.346092,612.876398,444.123565,9104.533087
1087.346408,612.876398,370.102971,9400.615463
1087.346723,766.095498,-74.020594,9104.533087
1087.347039,76.609550,-444.123565,9474.636058
1087.347355,76.609550,-814.226536,9474.636058
1087.347671,-153.219100,-666.185348,9696.697840
1087.347986,0.000000,-1110.308913,9992.780217
1087.348302,306.438199,-1480.411884,9918.759623
1087.348618,612.876398,-1184.329507,9918.759623
1087.348933,919.314598,-666.185348,9474.636058
1087.349249,1302.362347,-666.185348,9326.594869
1087.349565,1838.629195,-518.144159,9178.553681
1087.349880,1685.410096,-0.000000,8882.471304
1087.350196,1915.238745,888.247130,8512.368333
1087.350512,1915.238745,666.185348,8216.285956
1087.350827,1608.800546,444.123565,8438.347739
1087.351143,1149.143247,-0.000000,8290.306550
1087.351459,306.438199,-740.205942,9104.533087
1087.351774,0.000000,-1184.329507,9844.739029
1087.352090,-306.438199,-1628.453072,10288.862594
1087.352406,-766.095498,-1554.432478,10362.883188
1087.352722,-229.828649,-1850.514855,10436.903782
1087.353037,-459.657299,-1554.432478,10066.800811
1087.353353,306.438199,-1628.453072,10066.800811
1087.353669,842.705048,-1332.370696,9474.636058
1087.353984,1149.143247,-666.185348,8808.450710
1087.354300,1072.533697,-296.082377,8882.471304
1087.354616,1378.971896,-296.082377,8512.368333
1087.354931,1532.190996,370.102971,8364.327145
1087.355247,1455.581446,518.144159,8512.368333
1087.355563,995.924147,296.082377,8290.306550
1087.355878,536.266849,-222.061783,8660.409521
1087.356194,536.266849,-666.185348,9400.615463
1087.356510,-306.438199,-1036.288319,10140.821405
1087.356825,-995.924147,-666.185348,9992.780217
1087.357141,-689.485948,-1184.329507,10732.986159
1087.357457,-919.314598,-1554.432478,10584.944971
1087.357773,-459.657299,-666.185348,10436.903782
1087.358088,-459.657299,-666.185348,9770.718434
1087.358404,153.219100,-740.205942,9252.574275
1087.358720,842.705048,-0.000000,9474.636058
1087.359035,689.485948,740.205942,8660.409521
1087.359351,766.095498,1258.350101,8216.285956
1087.359667,1225.752797,1110.308913,8956.491898
1087.359982,842.705048,1110.308913,8882.471304
1087.360298,842.705048,1036.288319,9030.512492
1087.360614,612.876398,370.102971,9474.636058
1087.360929,536.266849,-0.000000,9696.697840
1087.361245,306.438199,-0.000000,9992.780217
1087.361561,0.000000,-74.020594,9844.739029
1087.361876,0.000000,-370.102971,10362.883188
1087.362192,-153.219100,-370.102971,10436.903782
1087.362508,-229.828649,-0.000000,10658.965565
1087.362824,153.219100,370.102971,9474.636058
1087.363139,229.828649,-0.000000,9622.677246
1087.363455,153.219100,222.061783,9696.697840
1087.363771,536.266849,592.164754,9474.636058
1087.364086,689.485948,740.205942,8882.471304
1087.364402,612.876398,666.185348,9400.615463
1087.364718,459.657299,444.123565,9474.636058
1087.365033,153.219100,370.102971,9548.656652
1087.365349,0.000000,666.185348,9400.615463
1087.365665,0.000000,-0.000000,9474.636058
1087.365980,-766.095498,-74.020594,10066.800811
1087.366296,-766.095498,-222.061783,10658.965565
1087.366612,-536.266849,-444.123565,10362.883188
1087.366927,-306.438199,-444.123565,10214.842000
1087.367243,0.000000,-296.082377,9844.739029
1087.367559,306.438199,-296.082377,9326.594869
1087.367874,612.876398,-518.144159,9622.677246
1087.368190,689.485948,-0.000000,9548.656652
1087.368506,1072.533697,592.164754,8512.368333
1087.368822,1072.533697,518.144159,8956.491898
1087.369137,766.095498,444.123565,8956.491898
1087.369453,766.095498,-74.020594,9326.594869
1087.369769,995.924147,222.061783,9474.636058
1087.370084,766.095498,-370.102971,9326.594869
1087.370400,766.095498,-296.082377,9918.759623
1087.370716,-459.657299,-222.061783,9400.615463
1087.371031,459.657299,-518.144159,9622.677246
1087.371347,536.266849,-1480.411884,10510.924376
1087.371663,612.876398,-444.123565,9992.780217
1087.371978,306.438199,-666.185348,9400.615463
1087.372294,995.924147,-1332.370696,9844.739029
1087.372610,1532.190996,-814.226536,9474.636058
1087.372925,1302.362347,-0.000000,8808.450710
1087.373241,1915.238745,814.226536,8290.306550
1087.373557,1685.410096,-0.000000,9030.512492
1087.373873,1685.410096,296.082377,8956.491898
1087.374188,1532.190996,-0.000000,8660.409521
1087.374504,689.485948,-222.061783,8956.491898
1087.374820,919.314598,-1184.329507,9474.636058
1087.375135,229.828649,-962.267725,9326.594869
1087.375451,0.000000,-1258.350101,9844.739029
1087.375767,-689.485948,-1850.514855,10881.027347
1087.376082,-383.047749,-1850.514855,10732.986159
1087.376398,0.000000,-1184.329507,10362.883188
1087.376714,0.000000,-1554.432478,9622.677246
1087.377029,76.609550,-2146.597232,9844.739029
1087.377345,1072.533697,-814.226536,9400.615463
1087.377661,1302.362347,-0.000000,8956.491898
1087.377976,1302.362347,148.041188,8808.450710
1087.378292,1302.362347,-0.000000,8734.430116
1087.378608,1455.581446,444.123565,8512.368333
1087.378924,842.705048,-0.000000,8438.347739
1087.379239,689.485948,-0.000000,8808.450710
1087.379555,689.485948,-370.102971,9104.533087
1087.379871,153.219100,-740.205942,9474.636058
1087.380186,-306.438199,-518.144159,10066.800811
1087.380502,-612.876398,-814.226536,10066.800811
1087.380818,-612.876398,-740.205942,9844.739029
1087.381133,-536.266849,-1036.288319,10214.842000
1087.381449,-229.828649,-1258.350101,10214.842000
1087.381765,229.828649,-888.247130,9992.780217
1087.382080,383.047749,-74.020594,9030.512492
1087.382396,842.705048,592.164754,8956.491898
1087.382712,842.705048,370.102971,8808.450710
1087.383027,842.705048,1036.288319,8808.450710
1087.383343,1302.362347,1258.350101,8586.388927
1087.383659,689.485948,740.205942,8734.430116
1087.383975,1072.533697,444.123565,8882.471304
1087.384290,612.876398,-0.000000,9474.636058
1087.384606,153.219100,-0.000000,9178.553681
1087.384922,0.000000,-0.000000,9696.697840
1087.385237,-229.828649,-74.020594,9992.780217
