#time,accel_x,accel_y,accel_z
1112.183358,306.438199,-148.041188,9548.656652
1112.183674,229.828649,-74.020594,9474.636058
1112.183989,459.657299,-74.020594,9548.656652
1112.184305,459.657299,296.082377,9696.697840
1112.184621,536.266849,-74.020594,9548.656652
1112.184937,459.657299,-296.082377,9474.636058
1112.185253,306.438199,-222.061783,9326.594869
1112.185568,536.266849,-148.041188,9400.615463
1112.185884,459.657299,-222.061783,9622.677246
1112.186200,229.828649,-296.082377,9548.656652
1112.186516,536.266849,-148.041188,9474.636058
1112.186832,383.047749,-296.082377,9474.636058
1112.187147,689.485948,-74.020594,9548.656652
1112.187463,383.047749,-0.000000,9474.636058
1112.187779,306.438199,296.082377,9474.636058
1112.188095,459.657299,296.082377,9400.615463
1112.188411,459.657299,370.102971,9178.553681
1112.188726,919.314598,444.123565,9104.533087
1112.189042,766.095498,370.102971,9104.533087
1112.189358,689.485948,444.123565,9474.636058
1112.189674,536.266849,148.041188,9400.615463
1112.189989,306.438199,370.102971,9178.553681
1112.190305,459.657299,-74.020594,9474.636058
1112.190621,766.095498,-0.000000,9696.697840
1112.190937,612.876398,518.144159,9474.636058
1112.191253,383.047749,370.102971,9252.574275
1112.191568,842.705048,444.123565,9474.636058
1112.191884,612.876398,666.185348,9548.656652
1112.192200,383.047749,888.247130,9252.574275
1112.192516,689.485948,962.267725,9326.594869
1112.192832,153.219100,592.164754,9178.553681
1112.193147,383.047749,740.205942,9474.636058
1112.193463,383.047749,814.226536,9104.533087
1112.193779,0.000000,592.164754,9326.594869
1112.194095,0.000000,740.205942,9474.636058
1112.194411,-229.828649,962.267725,9474.636058
1112.194726,-306.438199,814.226536,9548.656652
1112.195042,-383.047749,1184.329507,9474.636058
1112.195358,-383.047749,1628.453072,9178.553681
1112.195674,-612.876398,1628.453072,9178.553681
1112.195989,-919.314598,1406.391290,9178.553681
1112.196305,-919.314598,1258.350101,9474.636058
1112.196621,-1532.190996,1480.411884,9400.615463
1112.196937,-1685.410096,1332.370696,9696.697840
1112.197253,-1915.238745,1332.370696,9548.656652
1112.197568,-2068.457845,1480.411884,9918.759623
1112.197884,-2145.067394,1332.370696,9770.718434
1112.198200,-1991.848295,1628.453072,9474.636058
1112.198516,-2068.457845,1776.494261,9326.594869
1112.198832,-1762.019645,1924.535449,9474.636058
1112.199147,-1991.848295,1998.556043,9326.594869
1112.199463,-1838.629195,1702.473667,9474.636058
1112.199779,-1838.629195,1776.494261,9326.594869
1112.200095,-1991.848295,1850.514855,9400.615463
1112.200411,-1685.410096,1332.370696,9770.718434
1112.200726,-1608.800546,1184.329507,10066.800811
1112.201042,-1685.410096,1776.494261,9696.697840
1112.201358,-1608.800546,1924.535449,9474.636058
1112.201674,-1532.190996,1998.556043,9474.636058
1112.201989,-1378.971896,2220.617826,9326.594869
1112.202305,-1762.019645,2442.679609,9844.739029
1112.202621,-1302.362347,2368.659014,9326.594869
1112.202937,-1762.019645,1998.556043,9474.636058
1112.203253,-2068.457845,1776.494261,9400.615463
1112.203568,-1991.848295,1406.391290,9474.636058
1112.203884,-2145.067394,1110.308913,9548.656652
1112.204200,-2451.505594,1110.308913,9992.780217
1112.204516,-2145.067394,1332.370696,10066.800811
1112.204832,-2374.896044,1258.350101,9548.656652
1112.205147,-2604.724693,1258.350101,9770.718434
1112.205463,-2298.286494,1332.370696,9770.718434
1112.205779,-2221.676944,1184.329507,9696.697840
1112.206095,-1991.848295,1258.350101,9696.697840
1112.206411,-1991.848295,1480.411884,9474.636058
1112.206726,-1532.190996,1480.411884,9400.615463
1112.207042,-1838.629195,1480.411884,9252.574275
1112.207358,-2068.457845,1924.535449,9030.512492
1112.207674,-1915.238745,2220.617826,8808.450710
1112.207990,-2221.676944,2294.638420,8660.409521
1112.208305,-2374.896044,2368.659014,9326.594869
1112.208621,-2451.505594,2294.638420,9178.553681
1112.208937,-2681.334243,1628.453072,9252.574275
1112.209253,-2757.943793,888.247130,9548.656652
1112.209568,-2604.724693,444.123565,10066.800811
1112.209884,-2451.505594,-0.000000,10214.842000
1112.210200,-2068.457845,-0.000000,10288.862594
1112.210516,-1838.629195,-0.000000,10066.800811
1112.210832,-1149.143247,740.205942,9844.739029
1112.211147,-229.828649,1332.370696,9548.656652
1112.211463,0.000000,2072.576638,9252.574275
1112.211779,306.438199,2664.741391,8586.388927
1112.212095,612.876398,3182.885551,8142.265362
1112.212411,383.047749,3108.864956,8068.244768
1112.212726,306.438199,2368.659014,7920.203579
1112.213042,0.000000,2590.720797,8068.244768
1112.213358,-536.266849,2590.720797,8290.306550
1112.213674,-1532.190996,2294.638420,8956.491898
1112.213990,-2374.896044,1480.411884,9548.656652
1112.214305,-2834.553343,1184.329507,9918.759623
1112.214621,-3753.867940,666.185348,10510.924376
1112.214937,-3983.696590,296.082377,10881.027347
1112.215253,-3907.087040,148.041188,11029.068536
1112.215568,-3370.820191,222.061783,10881.027347
1112.215884,-2528.115143,518.144159,10362.883188
1112.216200,-1608.800546,370.102971,9992.780217
1112.216516,-612.876398,1036.288319,9548.656652
1112.216832,0.000000,1702.473667,8956.491898
1112.217147,995.924147,2442.679609,8364.327145
1112.217463,1378.971896,3034.844362,7920.203579
1112.217779,1149.143247,3923.091493,7550.100608
1112.218095,689.485948,4515.256246,7328.038826
1112.218411,76.609550,4959.379811,7624.121203
1112.218726,-612.876398,4219.173869,7476.080014
1112.219042,-1762.019645,3923.091493,8290.306550
1112.219358,-3064.381992,2590.720797,9474.636058
1112.219674,-4213.525239,1258.350101,10732.986159
1112.219990,-4903.011187,-0.000000,11843.295072
1112.220305,-5362.668486,-814.226536,12657.521608
1112.220621,-5286.058936,-1332.370696,13027.624579
1112.220937,-4903.011187,-1332.370696,12213.398043
1112.221253,-3830.477490,-666.185348,12213.398043
1112.221569,-2528.115143,592.164754,11029.068536
1112.221884,-1149.143247,2516.700203,9770.718434
1112.222200,306.438199,3923.091493,7698.141797
1112.222516,1608.800546,5477.523971,6439.791695
1112.222832,1685.410096,5847.626942,5921.647536
1112.223147,1685.410096,6069.688724,5699.585753
1112.223463,689.485948,5329.482782,6365.771101
1112.223779,0.000000,4219.173869,7105.977043
1112.224095,-1149.143247,2368.659014,8290.306550
1112.224411,-2911.162892,814.226536,9844.739029
1112.224726,-4596.572988,-518.144159,11547.212695
1112.225042,-5056.230287,-1332.370696,12879.583391
1112.225358,-5209.449386,-1332.370696,12879.583391
1112.225674,-5209.449386,-740.205942,12287.418637
1112.225990,-5132.839837,-74.020594,11547.212695
1112.226305,-3907.087040,148.041188,10732.986159
1112.226621,-2451.505594,1406.391290,9844.739029
1112.226937,-1455.581446,2590.720797,8734.430116
1112.227253,-383.047749,3478.967927,7846.182985
1112.227569,612.876398,3923.091493,7105.977043
1112.227884,612.876398,3330.926739,7698.141797
1112.228200,1072.533697,3108.864956,7846.182985
1112.228516,1225.752797,2886.803174,8142.265362
1112.228832,536.266849,2368.659014,8216.285956
1112.229147,-383.047749,2368.659014,8660.409521
1112.229463,-995.924147,1998.556043,9326.594869
1112.229779,-1302.362347,1480.411884,10066.800811
1112.230095,-2145.067394,1258.350101,10288.862594
1112.230411,-3140.991542,1332.370696,10436.903782
1112.230726,-3753.867940,518.144159,10288.862594
1112.231042,-3677.258390,-74.020594,10510.924376
1112.231358,-3447.429741,-148.041188,10584.944971
1112.231674,-2834.553343,444.123565,9992.780217
1112.231990,-2681.334243,1332.370696,9474.636058
1112.232305,-2068.457845,1554.432478,9030.512492
1112.232621,-1302.362347,2146.597232,9104.533087
1112.232937,-919.314598,2294.638420,8882.471304
1112.233253,-919.314598,2368.659014,9252.574275
1112.233569,-459.657299,2442.679609,9252.574275
1112.233884,229.828649,1776.494261,9030.512492
1112.234200,76.609550,1480.411884,9104.533087
1112.234516,0.000000,1850.514855,9326.594869
1112.234832,153.219100,1184.329507,9104.533087
1112.235147,-229.828649,1406.391290,8882.471304
1112.235463,-612.876398,1258.350101,9178.553681
1112.235779,-766.095498,1184.329507,9400.615463
1112.236095,-995.924147,1480.411884,10214.842000
1112.236411,-1685.410096,1850.514855,9844.739029
1112.236726,-1838.629195,1628.453072,9474.636058
1112.237042,-1838.629195,1480.411884,9326.594869
1112.237358,-1762.019645,1406.391290,9400.615463
1112.237674,-2068.457845,1184.329507,9844.739029
1112.237990,-3064.381992,814.226536,9992.780217
1112.238305,-3064.381992,296.082377,10584.944971
1112.238621,-2757.943793,222.061783,10658.965565
1112.238937,-2528.115143,592.164754,10584.944971
1112.239253,-2451.505594,592.164754,10140.821405
1112.239569,-2068.457845,-222.061783,10066.800811
1112.239884,-689.485948,-0.000000,9918.759623
1112.240200,-536.266849,-0.000000,9474.636058
1112.240516,0.000000,370.102971,9326.594869
1112.240832,612.876398,666.185348,9252.574275
1112.241148,995.924147,1628.453072,8364.327145
1112.241464,1149.143247,2664.741391,7772.162391
1112.241779,919.314598,2368.659014,7846.182985
1112.242095,153.219100,2368.659014,8438.347739
1112.242411,-689.485948,3034.844362,8364.327145
1112.242727,-1455.581446,2220.617826,8660.409521
1112.243043,-1762.019645,666.185348,9622.677246
1112.243359,-2757.943793,296.082377,10658.965565
1112.243675,-2604.724693,-666.185348,11029.068536
1112.243991,-2911.162892,-1776.494261,11177.109724
1112.244307,-2681.334243,-2294.638420,11473.192101
1112.244623,-2834.553343,-1850.514855,11399.171507
1112.244939,-1608.800546,-1702.473667,11103.089130
1112.245255,-612.876398,-962.267725,10584.944971
1112.245571,0.000000,148.041188,9548.656652
1112.245887,1302.362347,1332.370696,8438.347739
1112.246202,2528.115143,1924.535449,7402.059420
1112.246518,2451.505594,2664.741391,6809.894666
1112.246834,2681.334243,2960.823768,6513.812290
1112.247150,2757.943793,1998.556043,7476.080014
1112.247466,1991.848295,1184.329507,8290.306550
1112.247782,766.095498,962.267725,9104.533087
1112.248098,383.047749,-74.020594,9548.656652
1112.248414,-1072.533697,-1480.411884,9696.697840
1112.248730,-1838.629195,-1554.432478,11029.068536
1112.249046,-1991.848295,-1850.514855,11843.295072
1112.249362,-1302.362347,-1998.556043,11473.192101
1112.249678,-2145.067394,-1406.391290,10955.047942
1112.249994,-919.314598,-1480.411884,10807.006753
1112.250310,153.219100,-1776.494261,9992.780217
1112.250625,612.876398,-1036.288319,9622.677246
1112.250941,919.314598,222.061783,9400.615463
1112.251257,2374.896044,666.185348,8808.450710
1112.251573,2987.772442,1036.288319,8364.327145
1112.251889,3064.381992,1924.535449,7920.203579
1112.252205,3217.601092,1258.350101,7698.141797
1112.252521,2911.162892,1036.288319,7624.121203
1112.252837,2374.896044,888.247130,8956.491898
1112.253153,2528.115143,-0.000000,9548.656652
1112.253469,2298.286494,-518.144159,10362.883188
1112.253785,919.314598,-444.123565,10288.862594
1112.254101,306.438199,-1036.288319,9770.718434
1112.254417,383.047749,-1628.453072,9918.759623
1112.254733,-536.266849,-888.247130,9548.656652
1112.255048,-383.047749,-148.041188,10362.883188
1112.255364,0.000000,-148.041188,9918.759623
1112.255680,0.000000,-0.000000,9326.594869
1112.255996,-383.047749,666.185348,9474.636058
1112.256312,-306.438199,-0.000000,8956.491898
1112.256628,0.000000,-222.061783,9696.697840
1112.256944,76.609550,-592.164754,9548.656652
1112.257260,842.705048,-370.102971,10807.006753
1112.257576,919.314598,-740.205942,9844.739029
1112.257892,842.705048,-0.000000,9548.656652
1112.258208,1762.019645,-0.000000,9326.594869
1112.258524,842.705048,-370.102971,9030.512492
1112.258840,1378.971896,592.164754,9030.512492
1112.259156,1455.581446,740.205942,9178.553681
1112.259471,1915.238745,592.164754,9326.594869
1112.259787,1302.362347,1036.288319,8808.450710
1112.260103,612.876398,888.247130,8364.327145
1112.260419,842.705048,148.041188,8734.430116
1112.260735,-229.828649,-0.000000,9104.533087
1112.261051,-459.657299,-0.000000,9918.759623
1112.261367,-306.438199,296.082377,10881.027347
1112.261683,-1072.533697,-222.061783,10214.842000
1112.261999,-1685.410096,-518.144159,10732.986159
1112.262315,-1838.629195,-814.226536,10066.800811
1112.262631,-1915.238745,-1110.308913,10140.821405
1112.262947,-1915.238745,-0.000000,10362.883188
1112.263263,-459.657299,-0.000000,10288.862594
1112.263579,306.438199,296.082377,9178.553681
1112.263894,766.095498,888.247130,8808.450710
1112.264210,919.314598,296.082377,7994.224174
1112.264526,1302.362347,296.082377,7920.203579
1112.264842,919.314598,666.185348,8660.409521
1112.265158,995.924147,740.205942,9104.533087
1112.265474,1225.752797,962.267725,9400.615463
1112.265790,306.438199,592.164754,9548.656652
1112.266106,-383.047749,370.102971,9326.594869
1112.266422,-383.047749,-222.061783,9326.594869
1112.266738,-919.314598,-444.123565,9918.759623
1112.267054,-842.705048,-740.205942,10807.006753
1112.267370,-306.438199,-740.205942,10584.944971
1112.267686,-612.876398,-888.247130,10658.965565
1112.268001,-1072.533697,-666.185348,10214.842000
1112.268317,-229.828649,-1184.329507,9474.636058
1112.268633,0.000000,-1258.350101,9622.677246
1112.268949,612.876398,-0.000000,9770.718434
1112.269265,1608.800546,370.102971,9548.656652
1112.269581,2451.505594,666.185348,9252.574275
1112.269897,2451.505594,814.226536,8882.471304
1112.270213,2298.286494,-0.000000,8364.327145
1112.270529,2145.067394,-370.102971,8364.327145
1112.270845,1608.800546,222.061783,8882.471304
1112.271161,1838.629195,444.123565,9770.718434
1112.271477,2068.457845,148.041188,9548.656652
1112.271793,919.314598,-0.000000,9474.636058
1112.272109,383.047749,-296.082377,9326.594869
1112.272424,0.000000,-1332.370696,9770.718434
1112.272740,0.000000,-1406.391290,10288.862594
1112.273056,-229.828649,-740.205942,10140.821405
1112.273372,459.657299,-962.267725,9918.759623
1112.273688,919.314598,-1110.308913,10214.842000
1112.274004,383.047749,-888.247130,10066.800811
1112.274320,689.485948,-888.247130,8882.471304
1112.274636,383.047749,-1480.411884,9326.594869
1112.274952,536.266849,-222.061783,9622.677246
1112.275268,1149.143247,-74.020594,9992.780217
1112.275584,1608.800546,740.205942,9030.512492
1112.275900,1378.971896,1036.288319,8364.327145
1112.276216,1378.971896,-148.041188,7920.203579
1112.276532,1149.143247,-1036.288319,8290.306550
1112.276847,383.047749,-666.185348,9104.533087
1112.277163,919.314598,-1036.288319,10140.821405
1112.277479,1455.581446,-1184.329507,10584.944971
1112.277795,1072.533697,-1036.288319,9474.636058
1112.278111,153.219100,-814.226536,9178.553681
1112.278427,229.828649,-1924.535449,9178.553681
1112.278743,-306.438199,-1406.391290,9770.718434
1112.279059,0.000000,-592.164754,9992.780217
1112.279375,689.485948,-222.061783,8956.491898
1112.279691,612.876398,222.061783,9400.615463
1112.280007,459.657299,666.185348,8734.430116
1112.280323,536.266849,-370.102971,8068.244768
1112.280639,0.000000,-666.185348,8956.491898
1112.280955,0.000000,-0.000000,9400.615463
1112.281270,459.657299,-74.020594,10066.800811
1112.281586,383.047749,-0.000000,9622.677246
1112.281902,306.438199,592.164754,9474.636058
1112.282218,0.000000,222.061783,8364.327145
1112.282534,-536.266849,-888.247130,9474.636058
1112.282850,-612.876398,-222.061783,10140.821405
1112.283166,-153.219100,222.061783,9992.780217
1112.283482,306.438199,592.164754,9844.739029
1112.283798,0.000000,1110.308913,9474.636058
1112.284114,76.609550,962.267725,8808.450710
1112.284430,-383.047749,222.061783,8882.471304
1112.284746,-919.314598,222.061783,9918.759623
1112.285062,-919.314598,148.041188,10066.800811
1112.285378,76.609550,-0.000000,10214.842000
1112.285693,-383.047749,-0.000000,9992.780217
1112.286009,-536.266849,-0.000000,9844.739029
1112.286325,-383.047749,-518.144159,9474.636058
1112.286641,-153.219100,-148.041188,9400.615463
1112.286957,-229.828649,-74.020594,9992.780217
1112.287273,689.485948,-518.144159,10066.800811
1112.287589,995.924147,-0.000000,9770.718434
1112.287905,612.876398,-0.000000,9548.656652
1112.288221,689.485948,-370.102971,8734.430116
1112.288537,383.047749,-592.164754,8882.471304
1112.288853,536.266849,-0.000000,9548.656652
1112.289169,1072.533697,-0.000000,10066.800811
1112.289485,1302.362347,-0.000000,9918.759623
1112.289801,1072.533697,-0.000000,9844.739029
1112.290116,995.924147,-74.020594,8660.409521
1112.290432,689.485948,-814.226536,8956.491898
1112.290748,383.047749,-1110.308913,10288.862594
1112.291064,689.485948,-296.082377,10288.862594
1112.291380,1225.752797,148.041188,9992.780217
1112.291696,919.314598,-0.000000,9252.574275
1112.292012,229.828649,444.123565,8882.471304
1112.292328,536.266849,-296.082377,9104.533087
1112.292644,383.047749,-666.185348,9770.718434
1112.292960,459.657299,-222.061783,10288.862594
1112.293276,1532.190996,-148.041188,10066.800811
1112.293592,1378.971896,-0.000000,9252.574275
1112.293908,1072.533697,-0.000000,8956.491898
1112.294223,919.314598,-0.000000,8586.388927
1112.294539,842.705048,-74.020594,8808.450710
1112.294855,306.438199,-0.000000,9770.718434
1112.295171,842.705048,-0.000000,9770.718434
1112.295487,1225.752797,-0.000000,9474.636058
1112.295803,766.095498,-0.000000,8512.368333
1112.296119,459.657299,-592.164754,8882.471304
1112.296435,229.828649,-1036.288319,8660.409521
1112.296751,-689.485948,-962.267725,9400.615463
1112.297067,76.609550,-888.247130,9474.636058
1112.297383,689.485948,-740.205942,9844.739029
1112.297699,76.609550,-370.102971,9844.739029
1112.298015,153.219100,-592.164754,8882.471304
1112.298331,76.609550,-1406.391290,9104.533087
1112.298646,-153.219100,-1184.329507,9474.636058
1112.298962,153.219100,-222.061783,9474.636058
1112.299278,1072.533697,-0.000000,9104.533087
1112.299594,459.657299,-74.020594,9474.636058
1112.299910,766.095498,370.102971,9178.553681
1112.300226,459.657299,-148.041188,7994.224174
1112.300542,459.657299,-592.164754,8438.347739
1112.300858,153.219100,-296.082377,9844.739029
1112.301174,689.485948,-444.123565,9918.759623
1112.301490,842.705048,-74.020594,9474.636058
1112.301806,153.219100,222.061783,9178.553681
1112.302122,-229.828649,-0.000000,8808.450710
1112.302438,-229.828649,-592.164754,9104.533087
1112.302754,-689.485948,-814.226536,9992.780217
1112.303069,-383.047749,-666.185348,10214.842000
1112.303385,-153.219100,-296.082377,10584.944971
1112.303701,-229.828649,-0.000000,9918.759623
1112.304017,-306.438199,-0.000000,9030.512492
1112.304333,-612.876398,-148.041188,8586.388927
1112.304649,-919.314598,222.061783,9104.533087
1112.304965,-612.876398,444.123565,10140.821405
1112.305281,153.219100,444.123565,10288.862594
1112.305597,0.000000,518.144159,9622.677246
1112.305913,-153.219100,814.226536,9548.656652
1112.306229,229.828649,-666.185348,8956.491898
1112.306545,76.609550,-444.123565,9622.677246
1112.306861,0.000000,74.020594,10881.027347
1112.307177,689.485948,370.102971,10066.800811
1112.307492,995.924147,592.164754,10066.800811
1112.307808,612.876398,740.205942,9548.656652
1112.308124,459.657299,148.041188,9104.533087
1112.308440,766.095498,-1036.288319,9548.656652
1112.308756,76.609550,-814.226536,10807.006753
1112.309072,689.485948,-148.041188,10584.944971
1112.309388,1302.362347,-148.041188,10214.842000
1112.309704,1225.752797,444.123565,9326.594869
1112.310020,1072.533697,-148.041188,9030.512492
1112.310336,1072.533697,-666.185348,9030.512492
1112.310652,689.485948,-814.226536,9696.697840
1112.310968,995.924147,-888.247130,10214.842000
1112.311284,1532.190996,-444.123565,9474.636058
1112.311600,1149.143247,-444.123565,9400.615463
1112.311915,689.485948,-592.164754,8808.450710
1112.312231,689.485948,-444.123565,8956.491898
1112.312547,689.485948,-74.020594,8808.450710
1112.312863,459.657299,-148.041188,9326.594869
1112.313179,1225.752797,-666.185348,9696.697840
1112.313495,766.095498,-1036.288319,9548.656652
1112.313811,612.876398,-666.185348,9400.615463
1112.314127,459.657299,-1036.288319,8956.491898
1112.314443,459.657299,-1258.350101,9030.512492
1112.314759,766.095498,-222.061783,9326.594869
1112.315075,919.314598,370.102971,9696.697840
1112.315391,1532.190996,592.164754,8882.471304
1112.315707,1072.533697,1258.350101,8734.430116
1112.316022,1072.533697,592.164754,8364.327145
1112.316338,919.314598,-444.123565,9030.512492
1112.316654,459.657299,-296.082377,9326.594869
1112.316970,459.657299,-296.082377,9696.697840
1112.317286,1072.533697,-518.144159,10362.883188
1112.317602,612.876398,-0.000000,9622.677246
1112.317918,0.000000,814.226536,9030.512492
1112.318234,229.828649,-148.041188,9252.574275
1112.318550,536.266849,-740.205942,9770.718434
1112.318866,76.609550,592.164754,9622.677246
1112.319182,766.095498,444.123565,9918.759623
1112.319498,1302.362347,222.061783,9030.512492
1112.319814,229.828649,444.123565,8882.471304
1112.320130,76.609550,444.123565,8734.430116
1112.320445,0.000000,-592.164754,9178.553681
1112.320761,-536.266849,-74.020594,9918.759623
1112.321077,-153.219100,-0.000000,10288.862594
1112.321393,0.000000,-0.000000,10436.903782
1112.321709,76.609550,-148.041188,9918.759623
1112.322025,-536.266849,-518.144159,9696.697840
1112.322341,-153.219100,-444.123565,8808.450710
1112.322657,-459.657299,-74.020594,9400.615463
1112.322973,0.000000,-0.000000,10362.883188
1112.323289,459.657299,-0.000000,10066.800811
1112.323605,459.657299,-0.000000,9918.759623
1112.323921,0.000000,888.247130,9326.594869
1112.324237,0.000000,-0.000000,8586.388927
1112.324553,-383.047749,-370.102971,9252.574275
1112.324868,-919.314598,-592.164754,10140.821405
1112.325184,-612.876398,-1184.329507,10732.986159
1112.325500,-153.219100,-666.185348,10214.842000
1112.325816,-536.266849,-592.164754,9474.636058
1112.326132,-383.047749,-1036.288319,9178.553681
1112.326448,-459.657299,-814.226536,9622.677246
1112.326764,-153.219100,-370.102971,10066.800811
1112.327080,459.657299,-592.164754,9918.759623
1112.327396,536.266849,-370.102971,9252.574275
1112.327712,229.828649,-296.082377,9104.533087
1112.328028,1225.752797,-74.020594,8364.327145
1112.328344,689.485948,-444.123565,8512.368333
1112.328660,459.657299,-0.000000,9326.594869
1112.328976,842.705048,-0.000000,9474.636058
1112.329291,1455.581446,-518.144159,9844.739029
1112.329607,842.705048,-222.061783,9474.636058
1112.329923,1302.362347,-370.102971,8882.471304
1112.330239,995.924147,-592.164754,8512.368333
1112.330555,842.705048,-666.185348,9400.615463
1112.330871,1072.533697,-296.082377,9770.718434
1112.331187,1532.190996,-296.082377,9696.697840
1112.331503,1072.533697,592.164754,9918.759623
1112.331819,1225.752797,740.205942,8438.347739
1112.332135,1225.752797,-0.000000,8808.450710
1112.332451,689.485948,-370.102971,9030.512492
1112.332767,536.266849,-74.020594,9104.533087
1112.333083,1149.143247,-666.185348,10807.006753
1112.333399,1532.190996,-1258.350101,10362.883188
1112.333714,766.095498,-0.000000,9326.594869
1112.334030,919.314598,-444.123565,9400.615463
1112.334346,1072.533697,-1480.411884,9326.594869
1112.334662,689.485948,370.102971,9474.636058
1112.334978,995.924147,296.082377,9326.594869
1112.335294,1838.629195,-222.061783,9104.533087
1112.335610,1378.971896,-370.102971,9548.656652
1112.335926,842.705048,-370.102971,8882.471304
1112.336242,1302.362347,-740.205942,8586.388927
1112.336558,153.219100,-666.185348,9252.574275
1112.336874,536.266849,-518.144159,10288.862594
1112.337190,919.314598,-1110.308913,10140.821405
1112.337506,536.266849,-444.123565,9992.780217
1112.337822,0.000000,-592.164754,9474.636058
1112.338137,306.438199,-888.247130,9252.574275
1112.338453,-153.219100,-518.144159,9474.636058
1112.338769,-153.219100,-222.061783,9474.636058
1112.339085,536.266849,-0.000000,10066.800811
1112.339401,689.485948,-0.000000,10214.842000
1112.339717,76.609550,444.123565,9474.636058
1112.340033,306.438199,-0.000000,8364.327145
1112.340349,0.000000,-592.164754,9104.533087
1112.340665,0.000000,-222.061783,9918.759623
1112.340981,536.266849,-0.000000,9918.759623
1112.341297,536.266849,518.144159,9622.677246
1112.341613,306.438199,444.123565,9844.739029
1112.341929,0.000000,888.247130,8882.471304
1112.342244,-459.657299,518.144159,8364.327145
1112.342560,-383.047749,444.123565,9252.574275
1112.342876,-689.485948,740.205942,9844.739029
1112.343192,306.438199,-0.000000,10214.842000
1112.343507,0.000000,444.123565,9474.636058
1112.343823,-459.657299,-0.000000,9326.594869
1112.344139,-459.657299,-1036.288319,9400.615463
1112.344455,-766.095498,-592.164754,10140.821405
1112.344770,-1149.143247,148.041188,10214.842000
1112.345086,-306.438199,296.082377,9844.739029
1112.345402,-229.828649,666.185348,9844.739029
1112.345718,-229.828649,444.123565,9696.697840
1112.346034,-229.828649,296.082377,8808.450710
1112.346349,-153.219100,-370.102971,8956.491898
1112.346665,-229.828649,-222.061783,9992.780217
1112.346981,0.000000,-148.041188,9992.780217
1112.347297,612.876398,-74.020594,10362.883188
1112.347612,229.828649,74.020594,9474.636058
1112.347928,229.828649,-518.144159,9326.594869
1112.348244,306.438199,-1036.288319,9252.574275
1112.348560,0.000000,-740.205942,9548.656652
1112.348875,383.047749,-370.102971,10288.862594
1112.349191,1149.143247,-740.205942,10140.821405
1112.349507,1225.752797,-222.061783,9326.594869
1112.349823,1072.533697,-0.000000,9400.615463
1112.350139,1302.362347,-518.144159,8734.430116
1112.350454,459.657299,-222.061783,8882.471304
1112.350770,1455.581446,296.082377,9474.636058
1112.351086,1532.190996,-0.000000,9474.636058
1112.351402,1685.410096,222.061783,9474.636058
1112.351717,1378.971896,-0.000000,9030.512492
1112.352033,612.876398,-814.226536,8734.430116
1112.352349,383.047749,-814.226536,9548.656652
1112.352665,459.657299,-444.123565,9474.636058
1112.352981,1149.143247,-74.020594,9696.697840
1112.353296,919.314598,-370.102971,9400.615463
1112.353612,689.485948,-74.020594,9696.697840
1112.353928,1225.752797,-0.000000,8734.430116
1112.354244,766.095498,-370.102971,8882.471304
1112.354559,306.438199,-0.000000,9252.574275
1112.354875,766.095498,222.061783,9252.574275
1112.355191,1608.800546,370.102971,9548.656652
1112.355507,1225.752797,888.247130,8882.471304
1112.355822,689.485948,518.144159,8882.471304
1112.356138,766.095498,-0.000000,9030.512492
1112.356454,383.047749,-222.061783,9252.574275
1112.356770,689.485948,-0.000000,9548.656652
1112.357086,1149.143247,-370.102971,9696.697840
1112.357401,919.314598,-370.102971,10066.800811
1112.357717,612.876398,-592.164754,9696.697840
1112.358033,689.485948,-592.164754,9548.656652
1112.358349,76.609550,-444.123565,9030.512492
1112.358664,0.000000,-0.000000,9844.739029
1112.358980,459.657299,296.082377,9770.718434
1112.359296,1378.971896,-0.000000,9918.759623
1112.359612,459.657299,-0.000000,9104.533087
1112.359927,306.438199,-296.082377,8808.450710
1112.360243,383.047749,-1036.288319,8956.491898
1112.360559,-229.828649,-888.247130,9548.656652
1112.360875,383.047749,-666.185348,10288.862594
1112.361191,76.609550,-592.164754,10140.821405
1112.361506,-383.047749,222.061783,9918.759623
1112.361822,-306.438199,-0.000000,9474.636058
1112.362138,-306.438199,-296.082377,8882.471304
1112.362454,-689.485948,-0.000000,9400.615463
1112.362769,-536.266849,-592.164754,10288.862594
1112.363085,0.000000,-370.102971,10140.821405
1112.363401,0.000000,444.123565,9770.718434
1112.363717,-459.657299,666.185348,9178.553681
1112.364032,0.000000,-0.000000,9104.533087
1112.364348,-995.924147,222.061783,8808.450710
1112.364664,-995.924147,518.144159,9770.718434
1112.364980,-536.266849,-296.082377,10510.924376
1112.365296,-689.485948,-0.000000,10658.965565
1112.365611,-842.705048,518.144159,9770.718434
1112.365927,-536.266849,-0.000000,9178.553681
1112.366243,-153.219100,-222.061783,9474.636058
1112.366559,-536.266849,148.041188,9622.677246
1112.366874,383.047749,518.144159,10362.883188
1112.367190,536.266849,444.123565,9844.739029
1112.367506,459.657299,666.185348,9178.553681
1112.367822,842.705048,-0.000000,8956.491898
1112.368137,689.485948,-740.205942,8882.471304
1112.368453,612.876398,-592.164754,9548.656652
1112.368769,383.047749,-518.144159,9770.718434
1112.369085,1608.800546,-518.144159,9992.780217
1112.369401,1685.410096,-148.041188,9696.697840
1112.369716,1532.190996,-296.082377,8586.388927
1112.370032,1532.190996,-444.123565,8512.368333
1112.370348,842.705048,-1184.329507,9252.574275
1112.370664,612.876398,-888.247130,9622.677246
1112.370979,1225.752797,-740.205942,9770.718434
1112.371295,1225.752797,-814.226536,9178.553681
1112.371611,919.314598,-518.144159,8882.471304
1112.371927,1072.533697,-1036.288319,8512.368333
1112.372242,842.705048,-1258.350101,8512.368333
1112.372558,459.657299,-962.267725,9622.677246
1112.372874,1149.143247,-962.267725,9844.739029
1112.373190,1991.848295,-444.123565,9326.594869
1112.373506,1225.752797,-222.061783,9030.512492
1112.373821,1378.971896,-740.205942,9104.533087
1112.374137,1455.581446,-518.144159,8216.285956
1112.374453,919.314598,-0.000000,8586.388927
1112.374769,612.876398,518.144159,9326.594869
1112.375084,1072.533697,-74.020594,9474.636058
1112.375400,689.485948,518.144159,9104.533087
1112.375716,0.000000,740.205942,8586.388927
1112.376032,153.219100,-962.267725,8956.491898
1112.376347,-153.219100,-518.144159,9326.594869
1112.376663,-306.438199,-444.123565,10214.842000
1112.376979,383.047749,-740.205942,10214.842000
1112.377295,229.828649,-370.102971,10288.862594
1112.377611,229.828649,-148.041188,9622.677246
1112.377926,153.219100,-1110.308913,9474.636058
1112.378242,0.000000,-74.020594,9252.574275
1112.378558,0.000000,-222.061783,9918.759623
1112.378874,1149.143247,-148.041188,9770.718434
1112.379189,1149.143247,518.144159,9474.636058
1112.379505,919.314598,296.082377,9252.574275
1112.379821,1225.752797,370.102971,8512.368333
1112.380137,612.876398,-0.000000,8882.471304
1112.380452,0.000000,666.185348,9104.533087
1112.380768,612.876398,-0.000000,9992.780217
1112.381084,76.609550,-0.000000,10214.842000
1112.381400,0.000000,-0.000000,10214.842000
1112.381716,-536.266849,-296.082377,9844.739029
1112.382031,-689.485948,-666.185348,9770.718434
1112.382347,-995.924147,-0.000000,9918.759623
1112.382663,-536.266849,-74.020594,10214.842000
1112.382979,0.000000,222.061783,10807.006753
1112.383294,-229.828649,592.164754,10140.821405
1112.383610,-536.266849,296.082377,9252.574275
1112.383926,229.828649,-0.000000,9104.533087
1112.384242,-306.438199,-148.041188,9252.574275
1112.384557,-383.047749,296.082377,9474.636058
1112.384873,153.219100,518.144159,9770.718434
1112.385189,0.000000,-0.000000,10066.800811
1112.385505,-306.438199,962.267725,9030.512492
1112.385821,536.266849,-0.000000,8956.491898
1112.386136,-153.219100,-888.247130,9030.512492
1112.386452,-536.266849,-444.123565,10214.842000
1112.386768,459.657299,-518.144159,10214.842000
1112.387084,229.828649,-222.061783,9548.656652
1112.387399,153.219100,444.123565,10140.821405
1112.387715,306.438199,-148.041188,9030.512492
1112.388031,229.828649,-740.205942,9104.533087
1112.388347,-766.095498,-592.164754,9400.615463
1112.388662,0.000000,-814.226536,9992.780217
1112.388978,995.924147,-518.144159,9844.739029
1112.389294,766.095498,-370.102971,9474.636058
1112.389610,919.314598,-0.000000,9474.636058
1112.389926,1225.752797,-1258.350101,9400.615463
1112.390241,689.485948,-592.164754,8882.471304
1112.390557,383.047749,296.082377,9474.636058
1112.390873,1838.629195,-148.041188,9992.780217
1112.391189,1991.848295,592.164754,9252.574275
1112.391504,1225.752797,962.267725,8956.491898
1112.391820,1762.019645,-444.123565,8734.430116
1112.392136,1225.752797,-740.205942,8586.388927
1112.392452,612.876398,-814.226536,9326.594869
1112.392768,1455.581446,-1110.308913,10214.842000
1112.393083,1762.019645,-740.205942,9918.759623
1112.393399,1225.752797,-0.000000,9326.594869
1112.393715,766.095498,-0.000000,8734.430116
1112.394031,919.314598,-962.267725,8956.491898
1112.394346,766.095498,-444.123565,9326.594869
1112.394662,689.485948,222.061783,9474.636058
1112.394978,1149.143247,-74.020594,9844.739029
1112.395294,1378.971896,-74.020594,9104.533087
1112.395609,766.095498,-0.000000,8956.491898
1112.395925,689.485948,-888.247130,8734.430116
1112.396241,306.438199,-740.205942,9326.594869
1112.396557,229.828649,-74.020594,9400.615463
1112.396873,689.485948,-370.102971,9770.718434
1112.397188,919.314598,-74.020594,9992.780217
1112.397504,995.924147,-370.102971,9474.636058
1112.397820,1072.533697,-962.267725,9326.594869
1112.398136,229.828649,-666.185348,9030.512492
1112.398451,153.219100,-222.061783,9400.615463
1112.398767,1072.533697,-0.000000,9696.697840
1112.399083,766.095498,-0.000000,10140.821405
1112.399399,459.657299,-0.000000,9844.739029
1112.399714,536.266849,-0.000000,8808.450710
1112.400030,0.000000,-592.164754,8364.327145
1112.400346,-536.266849,-222.061783,9474.636058
1112.400662,-153.219100,-740.205942,10732.986159
1112.400978,153.219100,222.061783,9918.759623
1112.401293,-153.219100,962.267725,9474.636058
1112.401609,-536.266849,222.061783,9326.594869
1112.401925,-459.657299,-962.267725,9474.636058
1112.402241,-766.095498,-518.144159,10362.883188
1112.402556,-766.095498,-0.000000,10140.821405
1112.402872,76.609550,-0.000000,9474.636058
1112.403188,0.000000,-0.000000,9622.677246
1112.403504,-229.828649,370.102971,9474.636058
1112.403819,153.219100,-370.102971,9178.553681
1112.404135,-689.485948,-0.000000,9252.574275
1112.404451,-612.876398,1110.308913,9474.636058
1112.404767,0.000000,1184.329507,9400.615463
1112.405083,229.828649,962.267725,9622.677246
1112.405398,229.828649,-0.000000,9696.697840
1112.405714,0.000000,-592.164754,9474.636058
1112.406030,-612.876398,-1480.411884,9622.677246
1112.406346,-536.266849,-962.267725,9918.759623
1112.406661,995.924147,-518.144159,10436.903782
1112.406977,766.095498,-370.102971,9844.739029
1112.407293,383.047749,518.144159,9400.615463
1112.407609,536.266849,-74.020594,9104.533087
1112.407924,459.657299,-1110.308913,9252.574275
1112.408240,383.047749,-814.226536,9252.574275
1112.408556,689.485948,-666.185348,9474.636058
1112.408872,1991.848295,-592.164754,9548.656652
1112.409188,1838.629195,-370.102971,9770.718434
1112.409503,1378.971896,-370.102971,9178.553681
1112.409819,1608.800546,-814.226536,8882.471304
1112.410135,689.485948,-962.267725,9104.533087
1112.410451,689.485948,-148.041188,9178.553681
1112.410766,1149.143247,-444.123565,9622.677246
1112.411082,1378.971896,-148.041188,10140.821405
1112.411398,1149.143247,-370.102971,9474.636058
1112.411714,766.095498,-592.164754,8586.388927
1112.412029,536.266849,-962.267725,8586.388927
1112.412345,153.219100,-1036.288319,9696.697840
1112.412661,612.876398,-1258.350101,10362.883188
1112.412977,1302.362347,-740.205942,9918.759623
1112.413293,842.705048,74.020594,9918.759623
1112.413608,919.314598,444.123565,8512.368333
1112.413924,919.314598,-222.061783,8438.347739
1112.414240,536.266849,148.041188,9326.594869
1112.414556,842.705048,592.164754,9770.718434
1112.414871,1608.800546,518.144159,9104.533087
1112.415187,1378.971896,1036.288319,8660.409521
1112.415503,1149.143247,222.061783,9400.615463
1112.415819,1072.533697,-1184.329507,8956.491898
1112.416134,0.000000,-296.082377,9326.594869
1112.416450,-306.438199,-222.061783,10066.800811
1112.416766,536.266849,-888.247130,10362.883188
1112.417082,766.095498,-74.020594,10436.903782
1112.417398,229.828649,740.205942,9622.677246
1112.417713,153.219100,-296.082377,9030.512492
1112.418029,153.219100,-1258.350101,9548.656652
1112.418345,229.828649,-444.123565,9696.697840
1112.418661,995.924147,-0.000000,9400.615463
1112.418976,1072.533697,296.082377,9400.615463
1112.419292,689.485948,518.144159,9104.533087
1112.419608,229.828649,518.144159,8438.347739
1112.419924,536.266849,-592.164754,9178.553681
1112.420239,-306.438199,-444.123565,9918.759623
1112.420555,0.000000,-0.000000,10214.842000
1112.420871,383.047749,-592.164754,10362.883188
1112.421187,459.657299,-296.082377,10362.883188
1112.421503,0.000000,-0.000000,9548.656652
1112.421818,0.000000,-370.102971,9252.574275
1112.422134,76.609550,-0.000000,9400.615463
1112.422450,-459.657299,740.205942,9696.697840
1112.422766,0.000000,888.247130,9992.780217
1112.423081,229.828649,666.185348,9696.697840
1112.423397,0.000000,518.144159,9400.615463
1112.423713,-536.266849,-148.041188,9178.553681
1112.424029,-842.705048,-666.185348,9400.615463
1112.424344,-1225.752797,-222.061783,10436.903782
1112.424660,-842.705048,-370.102971,10214.842000
1112.424976,0.000000,-444.123565,10436.903782
1112.425292,-383.047749,148.041188,9548.656652
1112.425608,-153.219100,-0.000000,9252.574275
1112.425923,-995.924147,-814.226536,9548.656652
1112.426239,-536.266849,-518.144159,9844.739029
1112.426555,76.609550,-296.082377,9770.718434
1112.426871,689.485948,-74.020594,9104.533087
1112.427186,459.657299,740.205942,8808.450710
1112.427502,766.095498,-0.000000,8438.347739
1112.427818,536.266849,-1110.308913,9030.512492
1112.428134,612.876398,-518.144159,8956.491898
1112.428449,383.047749,-518.144159,9252.574275
1112.428765,1608.800546,-1258.350101,10140.821405
1112.429081,1225.752797,-962.267725,10066.800811
1112.429397,689.485948,-370.102971,9400.615463
1112.429713,1378.971896,-518.144159,8586.388927
1112.430028,383.047749,-888.247130,8660.409521
1112.430344,229.828649,-370.102971,9918.759623
1112.430660,1225.752797,-370.102971,9844.739029
1112.430976,1762.019645,-74.020594,9252.574275
1112.431291,1149.143247,370.102971,8660.409521
1112.431607,1225.752797,-592.164754,8660.409521
1112.431923,919.314598,-1184.329507,9030.512492
1112.432239,766.095498,-888.247130,9548.656652
1112.432555,1685.410096,-518.144159,9992.780217
1112.432870,1991.848295,222.061783,9696.697840
1112.433186,1302.362347,148.041188,9326.594869
1112.433502,842.705048,-74.020594,8956.491898
1112.433818,995.924147,-740.205942,8882.471304
1112.434133,459.657299,-518.144159,9548.656652
1112.434449,459.657299,370.102971,9326.594869
1112.434765,1225.752797,-0.000000,9622.677246
1112.435081,1225.752797,-0.000000,9474.636058
1112.435396,153.219100,296.082377,9104.533087
1112.435712,459.657299,-444.123565,9252.574275
1112.436028,0.000000,-740.205942,9400.615463
1112.436344,-153.219100,-296.082377,9844.739029
1112.436660,306.438199,-740.205942,10584.944971
1112.436975,995.924147,-592.164754,10362.883188
1112.437291,459.657299,148.041188,9474.636058
1112.437607,766.095498,-0.000000,9104.533087
1112.437923,459.657299,-592.164754,9252.574275
1112.438238,0.000000,-296.082377,9548.656652
1112.438554,1225.752797,444.123565,10066.800811
1112.438870,1455.581446,370.102971,9992.780217
1112.439186,612.876398,1036.288319,9178.553681
1112.439501,536.266849,740.205942,8586.388927
1112.439817,383.047749,-222.061783,8956.491898
1112.440133,0.000000,-592.164754,9696.697840
1112.440449,-689.485948,-518.144159,10288.862594
1112.440765,76.609550,-74.020594,10510.924376
1112.441080,0.000000,-222.061783,10288.862594
1112.441396,-536.266849,-0.000000,9548.656652
1112.441712,-306.438199,-740.205942,9326.594869
1112.442028,-1072.533697,-962.267725,10140.821405
1112.442343,-1072.533697,-0.000000,10807.006753
1112.442659,0.000000,444.123565,9622.677246
1112.442975,153.219100,666.185348,9252.574275
1112.443291,0.000000,-0.000000,9326.594869
1112.443606,0.000000,-74.020594,9252.574275
1112.443922,0.000000,-370.102971,8808.450710
1112.444238,-766.095498,222.061783,9326.594869
1112.444554,229.828649,-0.000000,9844.739029
1112.444869,1302.362347,222.061783,9770.718434
1112.445185,229.828649,518.144159,9252.574275
1112.445501,-229.828649,-0.000000,8660.409521
1112.445816,0.000000,-814.226536,9252.574275
1112.446132,-306.438199,-814.226536,10066.800811
1112.446448,0.000000,-148.041188,10732.986159
1112.446764,229.828649,-0.000000,10214.842000
1112.447079,383.047749,444.123565,9696.697840
1112.447395,0.000000,370.102971,9326.594869
1112.447711,306.438199,-296.082377,8882.471304
1112.448026,306.438199,-740.205942,9252.574275
1112.448342,383.047749,-592.164754,10140.821405
1112.448658,842.705048,-592.164754,10066.800811
1112.448974,1532.190996,-296.082377,9622.677246
1112.449289,1149.143247,148.041188,8882.471304
1112.449605,1378.971896,-666.185348,9030.512492
1112.449921,1149.143247,-1850.514855,9400.615463
1112.450237,766.095498,-518.144159,9400.615463
1112.450552,1302.362347,-444.123565,9104.533087
1112.450868,1762.019645,-74.020594,9178.553681
1112.451184,1532.190996,-296.082377,8734.430116
1112.451499,919.314598,-666.185348,8290.306550
1112.451815,842.705048,-1776.494261,9474.636058
1112.452131,306.438199,-1702.473667,9326.594869
1112.452447,383.047749,-962.267725,9622.677246
1112.452762,842.705048,-1332.370696,10288.862594
1112.453078,842.705048,-592.164754,9326.594869
1112.453394,995.924147,-814.226536,9326.594869
1112.453709,689.485948,-740.205942,8586.388927
1112.454025,306.438199,-666.185348,9770.718434
1112.454341,766.095498,-0.000000,10214.842000
1112.454657,1532.190996,222.061783,9178.553681
1112.454972,1378.971896,740.205942,9400.615463
1112.455288,995.924147,518.144159,8364.327145
1112.455604,1225.752797,-0.000000,8512.368333
1112.455920,919.314598,-592.164754,9548.656652
1112.456235,612.876398,-0.000000,9548.656652
1112.456551,919.314598,-222.061783,9474.636058
1112.456867,766.095498,-0.000000,9548.656652
1112.457182,536.266849,-740.205942,9696.697840
1112.457498,612.876398,-814.226536,9474.636058
1112.457814,229.828649,-1036.288319,9326.594869
1112.458130,-383.047749,-666.185348,9992.780217
1112.458445,76.609550,-148.041188,10066.800811
1112.458761,842.705048,222.061783,9548.656652
1112.459077,229.828649,740.205942,8956.491898
1112.459392,229.828649,370.102971,8956.491898
1112.459708,229.828649,-296.082377,8956.491898
1112.460024,-383.047749,-296.082377,9474.636058
1112.460340,-383.047749,-74.020594,10140.821405
1112.460655,0.000000,-148.041188,9622.677246
1112.460971,229.828649,592.164754,9918.759623
1112.461287,0.000000,148.041188,9622.677246
1112.461603,-306.438199,-370.102971,9918.759623
1112.461918,-612.876398,-0.000000,9622.677246
1112.462234,-383.047749,296.082377,9548.656652
1112.462550,229.828649,592.164754,9548.656652
1112.462865,536.266849,666.185348,9844.739029
1112.463181,0.000000,1332.370696,9326.594869
1112.463497,-306.438199,518.144159,9178.553681
1112.463813,0.000000,-1036.288319,10140.821405
1112.464128,-536.266849,296.082377,9622.677246
1112.464444,-689.485948,518.144159,9844.739029
1112.464760,-153.219100,222.061783,9918.759623
1112.465075,0.000000,296.082377,9696.697840
1112.465391,-536.266849,-222.061783,9548.656652
1112.465707,-612.876398,-888.247130,9770.718434
1112.466023,-1072.533697,-814.226536,10066.800811
1112.466338,-612.876398,-222.061783,9918.759623
1112.466654,76.609550,-148.041188,9622.677246
1112.466970,919.314598,148.041188,9326.594869
1112.467286,995.924147,296.082377,8882.471304
1112.467601,842.705048,-296.082377,8438.347739
1112.467917,766.095498,-888.247130,9400.615463
1112.468233,919.314598,-444.123565,9918.759623
1112.468548,1532.190996,148.041188,9548.656652
1112.468864,1225.752797,370.102971,9696.697840
1112.469180,1072.533697,-0.000000,9400.615463
1112.469496,1532.190996,-0.000000,9178.553681
1112.469811,1302.362347,-1036.288319,9326.594869
1112.470127,842.705048,-370.102971,9622.677246
1112.470443,1455.581446,-222.061783,10362.883188
1112.470758,1991.848295,-74.020594,9178.553681
1112.471074,1072.533697,444.123565,9104.533087
1112.471390,1149.143247,-0.000000,9400.615463
1112.471706,1072.533697,-962.267725,8734.430116
1112.472021,689.485948,-370.102971,9326.594869
1112.472337,842.705048,-444.123565,9696.697840
1112.472653,1455.581446,-1110.308913,10584.944971
1112.472969,1378.971896,-592.164754,9326.594869
1112.473284,689.485948,-148.041188,9326.594869
1112.473600,766.095498,-888.247130,9030.512492
1112.473916,689.485948,-1036.288319,9030.512492
1112.474231,536.266849,-74.020594,9178.553681
1112.474547,1072.533697,-0.000000,9918.759623
1112.474863,1302.362347,-444.123565,9400.615463
1112.475179,459.657299,-0.000000,8808.450710
1112.475494,766.095498,-962.267725,8956.491898
1112.475810,229.828649,-1332.370696,9030.512492
1112.476126,383.047749,-370.102971,9548.656652
1112.476441,459.657299,-740.205942,9400.615463
1112.476757,919.314598,-1036.288319,9844.739029
1112.477073,612.876398,-296.082377,9548.656652
1112.477389,459.657299,-666.185348,8290.306550
1112.477704,76.609550,-1332.370696,8882.471304
1112.478020,-306.438199,-814.226536,9992.780217
1112.478336,0.000000,-814.226536,9918.759623
1112.478652,766.095498,-0.000000,9178.553681
1112.478967,-306.438199,148.041188,9326.594869
1112.479283,0.000000,-148.041188,9030.512492
1112.479599,0.000000,-740.205942,8956.491898
1112.479914,0.000000,-962.267725,9326.594869
1112.480230,-766.095498,-444.123565,10140.821405
1112.480546,0.000000,-740.205942,10510.924376
1112.480862,229.828649,-148.041188,9548.656652
1112.481177,0.000000,518.144159,9400.615463
1112.481493,-459.657299,-370.102971,8734.430116
1112.481809,0.000000,222.061783,9030.512492
1112.482124,-689.485948,666.185348,9696.697840
1112.482440,383.047749,518.144159,10066.800811
1112.482756,612.876398,1184.329507,9474.636058
1112.483072,306.438199,518.144159,8882.471304
1112.483387,-612.876398,-0.000000,9178.553681
1112.483703,0.000000,-296.082377,9770.718434
1112.484019,-919.314598,-0.000000,9696.697840
1112.484335,-766.095498,370.102971,10066.800811
1112.484650,-383.047749,-0.000000,10288.862594
1112.484966,-229.828649,-0.000000,9844.739029
1112.485282,-766.095498,-0.000000,9252.574275
1112.485597,-306.438199,-666.185348,9844.739029
1112.485913,-612.876398,-666.185348,10066.800811
1112.486229,383.047749,148.041188,10066.800811
1112.486545,459.657299,296.082377,9992.780217
1112.486860,842.705048,222.061783,9992.780217
1112.487176,842.705048,370.102971,8882.471304
1112.487492,1225.752797,-0.000000,8438.347739
1112.487807,1072.533697,-444.123565,9474.636058
1112.488123,1149.143247,-0.000000,9992.780217
1112.488439,1455.581446,-0.000000,9696.697840
1112.488755,1762.019645,222.061783,10362.883188
1112.489070,1378.971896,518.144159,9326.594869
1112.489386,1455.581446,296.082377,8882.471304
1112.489702,919.314598,-518.144159,8956.491898
1112.490018,766.095498,-666.185348,10362.883188
1112.490333,1149.143247,-444.123565,10510.924376
1112.490649,1838.629195,-518.144159,9474.636058
1112.490965,766.095498,296.082377,9104.533087
1112.491280,842.705048,-148.041188,9622.677246
1112.491596,766.095498,-1110.308913,8586.388927
1112.491912,306.438199,-148.041188,9474.636058
1112.492228,612.876398,-370.102971,10584.944971
1112.492543,1455.581446,-814.226536,9474.636058
1112.492859,1225.752797,-74.020594,9326.594869
1112.493175,766.095498,-222.061783,8956.491898
1112.493490,1072.533697,-1554.432478,8660.409521
1112.493806,995.924147,-1184.329507,9252.574275
1112.494122,689.485948,-0.000000,9252.574275
1112.494438,1072.533697,148.041188,9844.739029
1112.494753,1225.752797,222.061783,9030.512492
1112.495069,689.485948,888.247130,8512.368333
1112.495385,842.705048,-518.144159,8512.368333
1112.495701,459.657299,-1480.411884,9326.594869
1112.496016,153.219100,-1036.288319,9992.780217
1112.496332,689.485948,-370.102971,10066.800811
1112.496648,766.095498,-444.123565,9474.636058
1112.496963,459.657299,-296.082377,8956.491898
1112.497279,459.657299,-666.185348,9326.594869
1112.497595,76.609550,-1110.308913,9252.574275
1112.497911,-229.828649,-370.102971,9844.739029
1112.498226,459.657299,-0.000000,9400.615463
1112.498542,689.485948,222.061783,9252.574275
1112.498858,842.705048,296.082377,9474.636058
1112.499173,536.266849,296.082377,8290.306550
1112.499489,76.609550,-814.226536,8734.430116
1112.499805,-229.828649,-740.205942,9696.697840
1112.500121,0.000000,-444.123565,10066.800811
1112.500436,76.609550,-370.102971,9696.697840
1112.500752,0.000000,-0.000000,9992.780217
1112.501068,-76.609550,-148.041188,9030.512492
1112.501384,0.000000,-518.144159,9474.636058
1112.501699,-306.438199,-518.144159,9178.553681
1112.502015,-536.266849,-74.020594,10288.862594
1112.502331,76.609550,-74.020594,9622.677246
1112.502646,229.828649,222.061783,9474.636058
1112.502962,153.219100,592.164754,9104.533087
1112.503278,-229.828649,-296.082377,8956.491898
1112.503594,-383.047749,-296.082377,9474.636058
1112.503909,-459.657299,-0.000000,9992.780217
1112.504225,0.000000,444.123565,9770.718434
1112.504541,-383.047749,444.123565,9252.574275
1112.504856,-229.828649,296.082377,9992.780217
1112.505172,0.000000,-370.102971,9918.759623
1112.505488,0.000000,-740.205942,9474.636058
1112.505804,-306.438199,-370.102971,9696.697840
1112.506119,-229.828649,-148.041188,10140.821405
1112.506435,459.657299,-74.020594,9918.759623
1112.506751,766.095498,-0.000000,9622.677246
1112.507067,612.876398,740.205942,9326.594869
1112.507382,689.485948,-296.082377,9104.533087
1112.507698,612.876398,-814.226536,9770.718434
1112.508014,612.876398,-0.000000,9844.739029
1112.508329,1225.752797,-0.000000,9992.780217
1112.508645,1991.848295,370.102971,9474.636058
1112.508961,1532.190996,518.144159,8660.409521
1112.509277,1378.971896,-148.041188,9030.512492
1112.509592,1225.752797,-1036.288319,9474.636058
1112.509908,689.485948,-666.185348,9696.697840
1112.510224,919.314598,-148.041188,9992.780217
1112.510539,1072.533697,-148.041188,10140.821405
1112.510855,1072.533697,-0.000000,9844.739029
1112.511171,919.314598,-0.000000,9104.533087
1112.511487,536.266849,-814.226536,9030.512492
1112.511802,306.438199,-888.247130,9104.533087
1112.512118,689.485948,-814.226536,10214.842000
1112.512434,1149.143247,-1110.308913,10288.862594
1112.512750,995.924147,-370.102971,9622.677246
1112.513065,689.485948,-0.000000,9030.512492
1112.513381,842.705048,-666.185348,8364.327145
1112.513697,842.705048,-592.164754,9400.615463
1112.514012,612.876398,370.102971,9104.533087
1112.514328,459.657299,370.102971,9548.656652
1112.514644,919.314598,222.061783,9548.656652
1112.514960,536.266849,296.082377,9030.512492
1112.515275,229.828649,-814.226536,9104.533087
1112.515591,306.438199,-1036.288319,9548.656652
1112.515907,-306.438199,-888.247130,9548.656652
1112.516222,0.000000,-0.000000,9992.780217
1112.516538,536.266849,-74.020594,9474.636058
1112.516854,0.000000,-0.000000,9252.574275
1112.517170,-229.828649,-222.061783,9178.553681
1112.517485,-536.266849,-888.247130,9326.594869
1112.517801,0.000000,-148.041188,9326.594869
1112.518117,229.828649,-0.000000,9326.594869
1112.518433,612.876398,-0.000000,9030.512492
1112.518748,842.705048,296.082377,9326.594869
1112.519064,459.657299,-0.000000,9104.533087
1112.519380,229.828649,-222.061783,8808.450710
1112.519695,0.000000,-296.082377,9326.594869
1112.520011,0.000000,370.102971,9622.677246
1112.520327,76.609550,-148.041188,9992.780217
1112.520643,76.609550,-0.000000,10140.821405
1112.520958,-153.219100,222.061783,9918.759623
1112.521274,-306.438199,-0.000000,9178.553681
1112.521590,76.609550,-0.000000,9030.512492
1112.521905,-306.438199,444.123565,9326.594869
1112.522221,459.657299,-0.000000,10362.883188
1112.522537,689.485948,740.205942,9474.636058
1112.522853,76.609550,962.267725,9030.512492
1112.523168,-306.438199,-0.000000,9178.553681
1112.523484,-383.047749,-444.123565,9474.636058
1112.523800,-842.705048,-0.000000,9696.697840
1112.524116,-383.047749,-148.041188,10066.800811
1112.524431,229.828649,-0.000000,9844.739029
1112.524747,229.828649,296.082377,10140.821405
1112.525063,0.000000,-296.082377,8882.471304
1112.525378,153.219100,-1184.329507,9474.636058
1112.525694,0.000000,-1554.432478,10214.842000
1112.526010,306.438199,-148.041188,9696.697840
1112.526326,766.095498,296.082377,9548.656652
1112.526641,1225.752797,-0.000000,8882.471304
1112.526957,995.924147,-74.020594,9474.636058
1112.527273,995.924147,-888.247130,8882.471304
1112.527588,383.047749,-1258.350101,9178.553681
1112.527904,383.047749,-148.041188,9992.780217
1112.528220,1302.362347,-888.247130,9770.718434
1112.528536,1302.362347,-74.020594,9548.656652
1112.528851,1072.533697,-0.000000,9326.594869
1112.529167,1072.533697,-888.247130,9474.636058
1112.529483,842.705048,-1110.308913,9178.553681
1112.529799,229.828649,-814.226536,9844.739029
1112.530114,919.314598,-0.000000,10140.821405
1112.530430,1302.362347,-666.185348,10066.800811
1112.530746,1072.533697,222.061783,9178.553681
1112.531061,1225.752797,74.020594,8808.450710
1112.531377,1225.752797,-370.102971,8512.368333
1112.531693,766.095498,-222.061783,9030.512492
1112.532009,689.485948,-370.102971,9696.697840
1112.532324,1378.971896,-814.226536,9918.759623
1112.532640,1302.362347,-592.164754,9696.697840
1112.532956,919.314598,-370.102971,9178.553681
1112.533271,766.095498,-666.185348,9178.553681
1112.533587,306.438199,-1036.288319,9622.677246
1112.533903,0.000000,-148.041188,9622.677246
1112.534219,612.876398,148.041188,9400.615463
1112.534534,1072.533697,296.082377,9474.636058
1112.534850,459.657299,148.041188,8956.491898
1112.535166,0.000000,-370.102971,8142.265362
1112.535482,153.219100,-1480.411884,9326.594869
1112.535797,76.609550,-1184.329507,9622.677246
1112.536113,76.609550,-814.226536,10140.821405
1112.536429,766.095498,-740.205942,9992.780217
1112.536744,306.438199,-148.041188,8882.471304
1112.537060,0.000000,-0.000000,9474.636058
1112.537376,76.609550,-666.185348,8808.450710
1112.537692,0.000000,-0.000000,8808.450710
1112.538007,0.000000,444.123565,9622.677246
1112.538323,766.095498,-296.082377,9918.759623
1112.538639,459.657299,296.082377,9474.636058
1112.538954,306.438199,148.041188,8734.430116
1112.539270,153.219100,-148.041188,8882.471304
1112.539586,0.000000,-370.102971,10066.800811
1112.539902,0.000000,-296.082377,10214.842000
1112.540217,76.609550,-0.000000,10140.821405
1112.540533,459.657299,148.041188,9844.739029
1112.540849,306.438199,962.267725,9178.553681
1112.541165,0.000000,666.185348,8734.430116
1112.541480,-153.219100,148.041188,9548.656652
1112.541796,-229.828649,222.061783,9992.780217
1112.542112,0.000000,296.082377,9918.759623
1112.542427,229.828649,444.123565,9622.677246
1112.542743,0.000000,-0.000000,8882.471304
1112.543059,-306.438199,-592.164754,9252.574275
1112.543375,-689.485948,-814.226536,9770.718434
1112.543690,-612.876398,-370.102971,9992.780217
1112.544006,-536.266849,444.123565,10066.800811
1112.544322,306.438199,592.164754,9622.677246
1112.544638,229.828649,-0.000000,9326.594869
1112.544954,689.485948,-0.000000,9400.615463
1112.545269,0.000000,-370.102971,8808.450710
1112.545585,229.828649,-888.247130,9844.739029
1112.545901,306.438199,-148.041188,9918.759623
1112.546217,766.095498,74.020594,10140.821405
1112.546533,766.095498,592.164754,9548.656652
1112.546848,689.485948,888.247130,8808.450710
1112.547164,459.657299,-296.082377,9252.574275
1112.547480,459.657299,-962.267725,9844.739029
1112.547796,536.266849,-814.226536,10584.944971
1112.548112,689.485948,-148.041188,9992.780217
1112.548428,1149.143247,-0.000000,9918.759623
1112.548743,1302.362347,-74.020594,9770.718434
1112.549059,536.266849,-0.000000,9030.512492
1112.549375,383.047749,-1184.329507,9474.636058
1112.549691,995.924147,-814.226536,9770.718434
1112.550007,306.438199,-0.000000,9622.677246
1112.550322,1455.581446,-370.102971,9770.718434
1112.550638,1072.533697,-0.000000,8882.471304
1112.550954,536.266849,518.144159,8808.450710
1112.551270,306.438199,-1036.288319,9326.594869
1112.551586,76.609550,-1036.288319,9326.594869
1112.551902,0.000000,-444.123565,9992.780217
1112.552217,919.314598,-1184.329507,10140.821405
1112.552533,76.609550,-666.185348,9622.677246
1112.552849,153.219100,-592.164754,9474.636058
1112.553165,0.000000,-1258.350101,9252.574275
1112.553481,0.000000,-444.123565,9178.553681
1112.553796,153.219100,444.123565,9474.636058
1112.554112,536.266849,148.041188,9400.615463
1112.554428,766.095498,592.164754,9104.533087
1112.554744,1072.533697,296.082377,8882.471304
1112.555060,842.705048,-296.082377,8512.368333
1112.555376,153.219100,-1258.350101,9030.512492
1112.555691,842.705048,-740.205942,9992.780217
1112.556007,612.876398,-814.226536,9474.636058
1112.556323,536.266849,-0.000000,9474.636058
1112.556639,459.657299,592.164754,9400.615463
1112.556955,689.485948,-0.000000,8882.471304
1112.557271,766.095498,-148.041188,8882.471304
1112.557586,306.438199,-0.000000,9400.615463
1112.557902,689.485948,-148.041188,9326.594869
1112.558218,1302.362347,-222.061783,9104.533087
1112.558534,689.485948,74.020594,9474.636058
1112.558850,536.266849,-444.123565,9252.574275
1112.559165,383.047749,-592.164754,8660.409521
1112.559481,383.047749,-370.102971,9252.574275
1112.559797,0.000000,444.123565,9696.697840
1112.560113,459.657299,-0.000000,9474.636058
1112.560429,0.000000,296.082377,9696.697840
1112.560745,-306.438199,148.041188,9474.636058
1112.561060,0.000000,-444.123565,9622.677246
1112.561376,0.000000,-518.144159,9474.636058
1112.561692,-842.705048,-74.020594,10066.800811
1112.562008,-306.438199,-0.000000,10510.924376
1112.562324,-229.828649,-0.000000,10288.862594
1112.562639,0.000000,740.205942,9474.636058
1112.562955,-229.828649,444.123565,9104.533087
1112.563271,76.609550,-444.123565,9252.574275
1112.563587,-306.438199,-296.082377,10214.842000
1112.563903,0.000000,592.164754,9992.780217
1112.564219,612.876398,222.061783,10140.821405
1112.564534,1149.143247,888.247130,9770.718434
1112.564850,1149.143247,296.082377,8808.450710
1112.565166,766.095498,-148.041188,9178.553681
1112.565482,76.609550,-888.247130,9918.759623
1112.565798,76.609550,-222.061783,10214.842000
1112.566113,383.047749,-0.000000,10140.821405
1112.566429,536.266849,296.082377,9696.697840
1112.566745,229.828649,444.123565,9178.553681
1112.567061,153.219100,-296.082377,9178.553681
1112.567377,0.000000,-518.144159,9844.739029
1112.567693,0.000000,-370.102971,10584.944971
1112.568008,612.876398,-518.144159,10066.800811
1112.568324,842.705048,-888.247130,10288.862594
1112.568640,1378.971896,-370.102971,10140.821405
1112.568956,1149.143247,-444.123565,9104.533087
1112.569272,1149.143247,-592.164754,9326.594869
1112.569588,1225.752797,-666.185348,9474.636058
1112.569903,1838.629195,222.061783,9992.780217
1112.570219,1838.629195,666.185348,8586.388927
1112.570535,1455.581446,666.185348,8290.306550
1112.570851,1532.190996,-148.041188,8956.491898
1112.571167,919.314598,-1332.370696,9030.512492
1112.571482,689.485948,-1036.288319,9326.594869
1112.571798,383.047749,-666.185348,9474.636058
1112.572114,536.266849,-814.226536,9474.636058
1112.572430,766.095498,-888.247130,9918.759623
1112.572746,459.657299,-296.082377,9400.615463
1112.573062,0.000000,-1110.308913,9400.615463
1112.573377,-383.047749,-1332.370696,9474.636058
1112.573693,0.000000,-444.123565,9474.636058
1112.574009,153.219100,-370.102971,9326.594869
1112.574325,842.705048,-74.020594,9474.636058
1112.574641,766.095498,-0.000000,8882.471304
1112.574956,229.828649,-0.000000,8660.409521
1112.575272,306.438199,-592.164754,8882.471304
1112.575588,459.657299,-148.041188,8808.450710
1112.575904,536.266849,-74.020594,9548.656652
1112.576220,842.705048,-444.123565,9622.677246
1112.576536,842.705048,-222.061783,9474.636058
1112.576851,689.485948,-222.061783,8882.471304
1112.577167,306.438199,-666.185348,8734.430116
1112.577483,229.828649,-814.226536,9844.739029
1112.577799,459.657299,-74.020594,10288.862594
1112.578115,1149.143247,296.082377,9474.636058
1112.578430,1149.143247,740.205942,9030.512492
1112.578746,383.047749,222.061783,9252.574275
1112.579062,383.047749,-666.185348,9400.615463
1112.579378,0.000000,-666.185348,9326.594869
1112.579694,0.000000,-0.000000,9622.677246
1112.580010,383.047749,222.061783,9696.697840
1112.580325,459.657299,148.041188,9844.739029
1112.580641,0.000000,592.164754,9178.553681
1112.580957,153.219100,-0.000000,9326.594869
1112.581273,-306.438199,-814.226536,9400.615463
1112.581589,-383.047749,-0.000000,10066.800811
1112.581905,153.219100,296.082377,10436.903782
1112.582220,153.219100,370.102971,9844.739029
1112.582536,0.000000,740.205942,9178.553681
1112.582852,536.266849,148.041188,9030.512492
1112.583168,-766.095498,-592.164754,9474.636058
1112.583484,-689.485948,222.061783,9548.656652
1112.583799,-459.657299,370.102971,10066.800811
1112.584115,76.609550,148.041188,10140.821405
1112.584431,229.828649,444.123565,10066.800811
1112.584747,0.000000,-0.000000,9770.718434
1112.585063,229.828649,-1110.308913,9474.636058
1112.585379,-612.876398,-222.061783,9326.594869
1112.585694,-153.219100,-0.000000,10066.800811
1112.586010,689.485948,-0.000000,10510.924376
1112.586326,383.047749,1258.350101,9326.594869
1112.586642,459.657299,592.164754,9030.512492
1112.586958,842.705048,-592.164754,9622.677246
1112.587273,459.657299,-1628.453072,9548.656652
1112.587589,153.219100,-740.205942,10214.842000
1112.587905,995.924147,-370.102971,9770.718434
1112.588221,1608.800546,-0.000000,9178.553681
1112.588537,1762.019645,370.102971,9474.636058
1112.588853,1378.971896,-296.082377,9326.594869
1112.589168,766.095498,-1480.411884,9252.574275
1112.589484,689.485948,-518.144159,9622.677246
1112.589800,842.705048,-74.020594,9400.615463
1112.590116,1762.019645,-592.164754,10288.862594
1112.590432,1608.800546,370.102971,9474.636058
1112.590747,842.705048,296.082377,8364.327145
1112.591063,612.876398,-1110.308913,8956.491898
1112.591379,766.095498,-888.247130,9104.533087
1112.591695,153.219100,-296.082377,9400.615463
1112.592011,995.924147,-888.247130,9918.759623
1112.592327,842.705048,-888.247130,9770.718434
1112.592642,536.266849,-740.205942,9548.656652
1112.592958,536.266849,-888.247130,8882.471304
1112.593274,153.219100,-1258.350101,8956.491898
1112.593590,306.438199,-814.226536,9252.574275
1112.593906,1072.533697,148.041188,9770.718434
1112.594222,1378.971896,-0.000000,8512.368333
1112.594537,766.095498,888.247130,8290.306550
1112.594853,612.876398,-0.000000,8438.347739
1112.595169,383.047749,-888.247130,8586.388927
1112.595485,0.000000,-518.144159,9178.553681
1112.595801,153.219100,-740.205942,9474.636058
1112.596116,-229.828649,-888.247130,9918.759623
1112.596432,383.047749,-1184.329507,10214.842000
1112.596748,153.219100,-1036.288319,9400.615463
1112.597064,383.047749,-814.226536,8956.491898
1112.597380,0.000000,-296.082377,9474.636058
1112.597696,0.000000,-0.000000,9474.636058
1112.598011,766.095498,222.061783,9696.697840
1112.598327,1225.752797,370.102971,9104.533087
1112.598643,459.657299,296.082377,8808.450710
1112.598959,536.266849,-0.000000,8438.347739
1112.599275,0.000000,-592.164754,9030.512492
1112.599590,-76.609550,-370.102971,10214.842000
1112.599906,383.047749,-0.000000,10140.821405
1112.600222,919.314598,444.123565,9844.739029
1112.600538,0.000000,592.164754,9622.677246
1112.600854,-153.219100,-148.041188,9622.677246
1112.601170,-995.924147,-666.185348,9844.739029
1112.601485,-229.828649,444.123565,9844.739029
1112.601801,-153.219100,518.144159,9992.780217
1112.602117,153.219100,666.185348,9844.739029
1112.602433,76.609550,518.144159,9844.739029
1112.602749,-536.266849,296.082377,8882.471304
1112.603064,-536.266849,-74.020594,9400.615463
1112.603380,-459.657299,-0.000000,9622.677246
1112.603696,-689.485948,666.185348,10066.800811
1112.604012,76.609550,-0.000000,10288.862594
1112.604328,459.657299,-0.000000,10658.965565
1112.604644,0.000000,-0.000000,10214.842000
1112.604959,0.000000,-0.000000,9696.697840
1112.605275,76.609550,-148.041188,9474.636058
1112.605591,306.438199,444.123565,9400.615463
1112.605907,1072.533697,1036.288319,9696.697840
1112.606223,1149.143247,740.205942,9548.656652
1112.606539,1378.971896,518.144159,9548.656652
1112.606854,919.314598,-0.000000,9178.553681
1112.607170,1149.143247,-1110.308913,9474.636058
1112.607486,536.266849,-518.144159,9474.636058
1112.607802,1225.752797,-518.144159,9844.739029
1112.608118,1762.019645,-370.102971,10362.883188
1112.608433,1608.800546,-0.000000,9622.677246
1112.608749,1378.971896,-0.000000,8512.368333
1112.609065,1072.533697,-666.185348,8882.471304
1112.609381,919.314598,-222.061783,9696.697840
1112.609697,689.485948,-0.000000,9918.759623
1112.610013,1072.533697,-0.000000,9104.533087
1112.610328,1072.533697,-148.041188,9326.594869
1112.610644,995.924147,-814.226536,9474.636058
1112.610960,689.485948,-1332.370696,9104.533087
1112.611276,459.657299,-962.267725,9030.512492
1112.611592,536.266849,-666.185348,9696.697840
1112.611907,1149.143247,-888.247130,9918.759623
1112.612223,995.924147,-814.226536,9844.739029
1112.612539,766.095498,-666.185348,9548.656652
1112.612855,919.314598,-1184.329507,9178.553681
1112.613171,536.266849,-1110.308913,9178.553681
1112.613487,459.657299,-74.020594,9104.533087
1112.613802,689.485948,518.144159,8956.491898
1112.614118,995.924147,518.144159,9474.636058
1112.614434,689.485948,592.164754,8956.491898
1112.614750,76.609550,-0.000000,9178.553681
1112.615066,76.609550,-1036.288319,8660.409521
1112.615381,-153.219100,-740.205942,9474.636058
1112.615697,-459.657299,-814.226536,10066.800811
1112.616013,76.609550,-1258.350101,10881.027347
1112.616329,0.000000,-740.205942,10140.821405
1112.616645,0.000000,-296.082377,9326.594869
1112.616961,229.828649,-962.267725,9400.615463
1112.617276,459.657299,-1036.288319,9104.533087
1112.617592,306.438199,-148.041188,9252.574275
1112.617908,995.924147,-370.102971,9548.656652
1112.618224,1072.533697,-222.061783,9548.656652
1112.618540,1072.533697,296.082377,9400.615463
1112.618856,1072.533697,-148.041188,7994.224174
1112.619171,306.438199,-740.205942,8438.347739
1112.619487,76.609550,-592.164754,9770.718434
1112.619803,383.047749,-370.102971,9770.718434
1112.620119,306.438199,-148.041188,9696.697840
1112.620435,0.000000,-74.020594,10658.965565
1112.620750,-306.438199,-518.144159,9474.636058
1112.621066,-229.828649,-1036.288319,9030.512492
1112.621382,-1072.533697,-148.041188,9400.615463
1112.621698,-229.828649,370.102971,10214.842000
1112.622014,153.219100,222.061783,10288.862594
1112.622330,0.000000,1258.350101,9474.636058
1112.622645,-459.657299,1258.350101,8512.368333
1112.622961,0.000000,-0.000000,8586.388927
1112.623277,-383.047749,-0.000000,9104.533087
1112.623593,-536.266849,-0.000000,10066.800811
1112.623909,-153.219100,-74.020594,10066.800811
1112.624224,76.609550,296.082377,10288.862594
1112.624540,0.000000,518.144159,9770.718434
1112.624856,-612.876398,-370.102971,9104.533087
1112.625172,-306.438199,-444.123565,9474.636058
1112.625488,-689.485948,296.082377,9770.718434
1112.625804,0.000000,148.041188,9844.739029
1112.626119,459.657299,-0.000000,9918.759623
1112.626435,229.828649,-0.000000,9474.636058
1112.626751,842.705048,-222.061783,8512.368333
1112.627067,612.876398,-962.267725,9400.615463
1112.627383,612.876398,-222.061783,9844.739029
1112.627698,919.314598,-0.000000,9918.759623
1112.628014,1608.800546,-444.123565,10214.842000
1112.628330,1915.238745,296.082377,10362.883188
1112.628646,1915.238745,-0.000000,9178.553681
1112.628962,1532.190996,-518.144159,8882.471304
1112.629278,1378.971896,-518.144159,9178.553681
1112.629593,1378.971896,-148.041188,9918.759623
1112.629909,2528.115143,-0.000000,10214.842000
1112.630225,2068.457845,148.041188,9548.656652
1112.630541,1302.362347,296.082377,9326.594869
1112.630857,1302.362347,-296.082377,8734.430116
1112.631173,919.314598,-740.205942,8956.491898
1112.631488,612.876398,-0.000000,9696.697840
1112.631804,919.314598,-518.144159,10584.944971
1112.632120,1378.971896,-444.123565,9992.780217
1112.632436,766.095498,-444.123565,9696.697840
1112.632752,689.485948,-962.267725,9252.574275
1112.633067,919.314598,-1332.370696,9400.615463
1112.633383,229.828649,-222.061783,9326.594869
1112.633699,689.485948,222.061783,9992.780217
1112.634015,1225.752797,148.041188,9474.636058
1112.634331,842.705048,-0.000000,9252.574275
1112.634647,919.314598,-148.041188,8586.388927
1112.634962,842.705048,-592.164754,8364.327145
1112.635278,153.219100,-666.185348,9030.512492
1112.635594,0.000000,-370.102971,9474.636058
1112.635910,229.828649,-518.144159,10288.862594
1112.636226,383.047749,-370.102971,9992.780217
1112.636541,0.000000,-370.102971,8808.450710
1112.636857,0.000000,-888.247130,8734.430116
1112.637173,0.000000,-1036.288319,9474.636058
1112.637489,-306.438199,-592.164754,9918.759623
1112.637805,306.438199,-444.123565,9474.636058
1112.638121,689.485948,-148.041188,10140.821405
1112.638436,229.828649,296.082377,9252.574275
1112.638752,-383.047749,-0.000000,8290.306550
1112.639068,-536.266849,-1036.288319,9104.533087
1112.639384,0.000000,-518.144159,10140.821405
1112.639700,-229.828649,-0.000000,9622.677246
1112.640015,229.828649,-74.020594,9622.677246
1112.640331,383.047749,-0.000000,9992.780217
1112.640647,0.000000,-370.102971,8808.450710
1112.640963,-153.219100,-0.000000,8512.368333
1112.641279,-229.828649,-148.041188,9252.574275
1112.641595,-306.438199,-518.144159,9992.780217
1112.641910,0.000000,-148.041188,10288.862594
1112.642226,-76.609550,296.082377,9400.615463
1112.642542,-459.657299,-0.000000,9252.574275
1112.642858,-689.485948,-148.041188,8956.491898
1112.643174,-919.314598,518.144159,9030.512492
1112.643490,-919.314598,814.226536,9474.636058
1112.643805,-536.266849,148.041188,9844.739029
1112.644121,-306.438199,-148.041188,10658.965565
1112.644437,-689.485948,-0.000000,10288.862594
1112.644753,-842.705048,-740.205942,9326.594869
1112.645069,-612.876398,-1184.329507,9918.759623
1112.645385,153.219100,-592.164754,10140.821405
1112.645700,153.219100,148.041188,10214.842000
1112.646016,766.095498,666.185348,9696.697840
1112.646332,995.924147,1110.308913,9400.615463
1112.646648,919.314598,296.082377,8660.409521
1112.646964,1149.143247,-518.144159,9030.512492
1112.647280,842.705048,-148.041188,9474.636058
1112.647596,919.314598,296.082377,9770.718434
1112.647912,1455.581446,-0.000000,9548.656652
1112.648228,1072.533697,-0.000000,9770.718434
1112.648543,1532.190996,-74.020594,9548.656652
1112.648859,1149.143247,-962.267725,9252.574275
1112.649175,612.876398,-666.185348,9696.697840
1112.649491,1225.752797,-296.082377,10732.986159
1112.649807,1378.971896,-222.061783,9992.780217
1112.650123,1685.410096,-0.000000,9474.636058
1112.650439,1302.362347,148.041188,9474.636058
1112.650755,1072.533697,-370.102971,9400.615463
1112.651071,766.095498,-370.102971,8734.430116
1112.651387,919.314598,-0.000000,9474.636058
1112.651702,1378.971896,-296.082377,10510.924376
1112.652018,1762.019645,-296.082377,10140.821405
1112.652334,1838.629195,-0.000000,9622.677246
1112.652650,1378.971896,-222.061783,9104.533087
1112.652966,995.924147,-814.226536,9104.533087
1112.653282,766.095498,-518.144159,9178.553681
1112.653598,1072.533697,444.123565,9696.697840
1112.653914,1378.971896,666.185348,9844.739029
1112.654230,1149.143247,666.185348,8882.471304
1112.654546,842.705048,592.164754,8808.450710
1112.654861,612.876398,-74.020594,8364.327145
1112.655177,229.828649,-518.144159,8734.430116
1112.655493,76.609550,-814.226536,9474.636058
1112.655809,229.828649,-1406.391290,10288.862594
1112.656125,229.828649,-1332.370696,10140.821405
1112.656441,0.000000,-888.247130,9622.677246
1112.656757,0.000000,-1036.288319,8660.409521
1112.657073,0.000000,-814.226536,8882.471304
1112.657389,-536.266849,-74.020594,9030.512492
1112.657705,229.828649,-296.082377,9252.574275
1112.658020,459.657299,-0.000000,9178.553681
1112.658336,153.219100,148.041188,8734.430116
1112.658652,383.047749,-518.144159,8438.347739
1112.658968,153.219100,-740.205942,8882.471304
1112.659284,-229.828649,-1036.288319,9548.656652
1112.659600,-153.219100,-666.185348,9770.718434
1112.659916,0.000000,-74.020594,10140.821405
1112.660232,0.000000,296.082377,9252.574275
1112.660548,-306.438199,-0.000000,8512.368333
1112.660864,-536.266849,-444.123565,9104.533087
1112.661179,-689.485948,-592.164754,9474.636058
1112.661495,-229.828649,-74.020594,9918.759623
1112.661811,-153.219100,-74.020594,10066.800811
1112.662127,-306.438199,-0.000000,9400.615463
1112.662443,-306.438199,222.061783,9030.512492
1112.662759,-306.438199,-222.061783,8438.347739
1112.663075,-1072.533697,-370.102971,8808.450710
1112.663391,-842.705048,-518.144159,10214.842000
1112.663707,0.000000,-666.185348,10584.944971
1112.664023,76.609550,-370.102971,10140.821405
1112.664338,0.000000,222.061783,9474.636058
1112.664654,0.000000,-370.102971,8882.471304
1112.664970,76.609550,-444.123565,9548.656652
1112.665286,153.219100,-518.144159,9696.697840
1112.665602,536.266849,222.061783,9770.718434
1112.665918,612.876398,-0.000000,10066.800811
1112.666234,689.485948,370.102971,9326.594869
1112.666550,766.095498,-0.000000,9178.553681
1112.666866,383.047749,-888.247130,9696.697840
1112.667182,306.438199,-814.226536,9696.697840
1112.667497,383.047749,-444.123565,10510.924376
1112.667813,1225.752797,-296.082377,10881.027347
1112.668129,1455.581446,-0.000000,9992.780217
1112.668445,1608.800546,518.144159,9474.636058
1112.668761,1532.190996,-444.123565,9474.636058
1112.669077,1302.362347,-740.205942,9400.615463
1112.669393,1455.581446,74.020594,9770.718434
1112.669709,1532.190996,-74.020594,9696.697840
1112.670025,1762.019645,-296.082377,10288.862594
1112.670340,1532.190996,-148.041188,9104.533087
1112.670656,1302.362347,-518.144159,8882.471304
1112.670972,1149.143247,-370.102971,9252.574275
1112.671288,1685.410096,-148.041188,9104.533087
1112.671604,1302.362347,148.041188,9030.512492
1112.671920,1225.752797,-370.102971,9770.718434
1112.672236,1072.533697,-222.061783,9918.759623
1112.672552,766.095498,-518.144159,8660.409521
1112.672868,229.828649,-1110.308913,8512.368333
1112.673184,76.609550,-1184.329507,9548.656652
1112.673499,153.219100,-370.102971,10066.800811
1112.673815,612.876398,222.061783,9178.553681
1112.674131,842.705048,592.164754,9252.574275
1112.674447,383.047749,518.144159,8438.347739
1112.674763,229.828649,-74.020594,7994.224174
1112.675079,0.000000,-148.041188,9178.553681
1112.675395,0.000000,-296.082377,9252.574275
1112.675711,76.609550,-370.102971,10140.821405
1112.676027,383.047749,-518.144159,9992.780217
1112.676343,153.219100,-444.123565,9400.615463
1112.676658,306.438199,-444.123565,8808.450710
1112.676974,0.000000,-74.020594,9252.574275
1112.677290,459.657299,-0.000000,9400.615463
1112.677606,536.266849,592.164754,9474.636058
1112.677922,919.314598,444.123565,9178.553681
1112.678238,842.705048,814.226536,8882.471304
1112.678554,612.876398,-222.061783,8808.450710
1112.678870,0.000000,-592.164754,8512.368333
1112.679186,383.047749,-0.000000,9474.636058
1112.679502,76.609550,-148.041188,9474.636058
1112.679817,229.828649,-296.082377,10584.944971
1112.680133,306.438199,296.082377,10140.821405
1112.680449,0.000000,-370.102971,9104.533087
1112.680765,-306.438199,-740.205942,9400.615463
1112.681081,-842.705048,-666.185348,9696.697840
1112.681397,-612.876398,-296.082377,9844.739029
1112.681713,0.000000,-592.164754,10807.006753
1112.682029,-383.047749,-148.041188,10140.821405
1112.682345,-383.047749,296.082377,9474.636058
1112.682661,-153.219100,-222.061783,8956.491898
1112.682976,-689.485948,-0.000000,9030.512492
1112.683292,-383.047749,-0.000000,10214.842000
1112.683608,0.000000,-370.102971,10140.821405
1112.683924,229.828649,296.082377,9622.677246
1112.684240,536.266849,222.061783,9622.677246
1112.684556,229.828649,-0.000000,9104.533087
1112.684872,76.609550,-296.082377,9770.718434
1112.685188,0.000000,-74.020594,9252.574275
1112.685504,459.657299,518.144159,9696.697840
1112.685820,229.828649,370.102971,9992.780217
1112.686135,459.657299,-0.000000,9696.697840
1112.686451,612.876398,-222.061783,9474.636058
1112.686767,153.219100,-592.164754,9622.677246
1112.687083,383.047749,-222.061783,9622.677246
1112.687399,383.047749,370.102971,9844.739029
1112.687715,995.924147,-0.000000,9844.739029
1112.688031,1532.190996,-74.020594,9770.718434
1112.688347,1455.581446,-370.102971,9400.615463
1112.688663,1149.143247,-888.247130,9030.512492
1112.688978,1149.143247,-1184.329507,9252.574275
1112.689294,1302.362347,-518.144159,10214.842000
1112.689610,1532.190996,-444.123565,10066.800811
1112.689926,1991.848295,-0.000000,9030.512492
1112.690242,1378.971896,370.102971,8956.491898
1112.690558,1302.362347,-222.061783,8882.471304
1112.690874,842.705048,-888.247130,9252.574275
1112.691190,842.705048,-740.205942,9178.553681
1112.691506,766.095498,-666.185348,9770.718434
1112.691822,995.924147,-962.267725,10066.800811
1112.692137,1225.752797,-222.061783,9104.533087
1112.692453,919.314598,-148.041188,8882.471304
1112.692769,0.000000,-1480.411884,9252.574275
1112.693085,0.000000,-814.226536,10066.800811
1112.693401,306.438199,-148.041188,9178.553681
1112.693717,536.266849,-296.082377,9326.594869
1112.694033,689.485948,148.041188,9770.718434
1112.694349,459.657299,222.061783,8586.388927
1112.694665,612.876398,-296.082377,8290.306550
1112.694981,0.000000,-296.082377,9178.553681
1112.695296,306.438199,-296.082377,9696.697840
1112.695612,689.485948,-148.041188,9474.636058
1112.695928,689.485948,-148.041188,9474.636058
1112.696244,536.266849,-0.000000,8956.491898
1112.696560,689.485948,-518.144159,9178.553681
1112.696876,0.000000,-888.247130,9178.553681
1112.697192,0.000000,-222.061783,9696.697840
1112.697508,383.047749,-0.000000,9548.656652
1112.697824,612.876398,592.164754,8882.471304
1112.698140,459.657299,962.267725,8956.491898
1112.698455,536.266849,148.041188,8882.471304
1112.698771,0.000000,-222.061783,8734.430116
1112.699087,-153.219100,-666.185348,10066.800811
1112.699403,-153.219100,-814.226536,9992.780217
1112.699719,0.000000,-74.020594,10362.883188
1112.700035,-229.828649,-0.000000,9770.718434
1112.700351,-459.657299,296.082377,9252.574275
1112.700667,-536.266849,-444.123565,9696.697840
1112.700983,-612.876398,-148.041188,9696.697840
1112.701299,-536.266849,148.041188,9844.739029
1112.701614,0.000000,-148.041188,10214.842000
1112.701930,306.438199,296.082377,9918.759623
1112.702246,229.828649,444.123565,9252.574275
1112.702562,76.609550,-222.061783,9178.553681
1112.702878,-229.828649,-0.000000,9326.594869
1112.703194,-459.657299,518.144159,9770.718434
1112.703510,0.000000,296.082377,10288.862594
1112.703826,0.000000,-74.020594,10066.800811
1112.704142,153.219100,-370.102971,9770.718434
1112.704458,229.828649,-296.082377,9770.718434
1112.704773,-229.828649,-444.123565,9474.636058
1112.705089,-459.657299,-296.082377,9548.656652
1112.705405,-229.828649,-0.000000,10658.965565
1112.705721,766.095498,-222.061783,9992.780217
1112.706037,229.828649,222.061783,9400.615463
1112.706353,842.705048,-0.000000,9548.656652
1112.706669,766.095498,-740.205942,9252.574275
1112.706985,919.314598,-444.123565,9400.615463
1112.707301,919.314598,-0.000000,9696.697840
1112.707617,1762.019645,-0.000000,9844.739029
1112.707932,1685.410096,444.123565,8808.450710
1112.708248,1302.362347,296.082377,8956.491898
1112.708564,1455.581446,-518.144159,9474.636058
1112.708880,1225.752797,-1110.308913,9326.594869
1112.709196,612.876398,-222.061783,8808.450710
1112.709512,995.924147,-666.185348,9992.780217
1112.709828,1149.143247,-1184.329507,10658.965565
1112.710144,1302.362347,-296.082377,9326.594869
1112.710460,842.705048,518.144159,8660.409521
1112.710775,919.314598,-888.247130,8956.491898
1112.711091,612.876398,-888.247130,9622.677246
1112.711407,842.705048,-370.102971,9548.656652
1112.711723,1225.752797,-592.164754,10510.924376
1112.712039,1225.752797,-0.000000,9326.594869
1112.712355,1532.190996,-0.000000,8734.430116
1112.712671,919.314598,-370.102971,8142.265362
1112.712987,612.876398,-148.041188,9178.553681
1112.713303,919.314598,-518.144159,9104.533087
1112.713619,1072.533697,-148.041188,9400.615463
1112.713934,919.314598,-370.102971,9696.697840
1112.714250,536.266849,-592.164754,9400.615463
1112.714566,229.828649,-592.164754,8660.409521
1112.714882,153.219100,-666.185348,8956.491898
1112.715198,153.219100,-740.205942,9696.697840
1112.715514,383.047749,-222.061783,9696.697840
1112.715830,459.657299,-518.144159,9548.656652
1112.716146,689.485948,-592.164754,9400.615463
1112.716462,0.000000,-888.247130,8882.471304
1112.716778,536.266849,-814.226536,8808.450710
1112.717093,153.219100,-518.144159,9548.656652
1112.717409,842.705048,-0.000000,9474.636058
1112.717725,766.095498,222.061783,9548.656652
1112.718041,919.314598,814.226536,8142.265362
1112.718357,612.876398,-148.041188,8808.450710
1112.718673,0.000000,-1036.288319,9178.553681
1112.718989,153.219100,-518.144159,9252.574275
1112.719305,229.828649,-518.144159,9844.739029
1112.719621,153.219100,-296.082377,10362.883188
1112.719937,306.438199,-0.000000,9622.677246
1112.720252,0.000000,148.041188,9252.574275
1112.720568,-229.828649,-222.061783,9104.533087
1112.720884,-536.266849,-74.020594,9178.553681
1112.721200,76.609550,-0.000000,9992.780217
1112.721516,0.000000,-74.020594,9696.697840
1112.721832,76.609550,-74.020594,10436.903782
1112.722148,0.000000,592.164754,9178.553681
1112.722464,-536.266849,-592.164754,8734.430116
1112.722780,-842.705048,-592.164754,9770.718434
1112.723096,-766.095498,222.061783,9992.780217
1112.723411,-459.657299,-0.000000,10066.800811
1112.723727,-229.828649,-0.000000,10436.903782
1112.724043,-383.047749,222.061783,9770.718434
1112.724359,0.000000,-296.082377,9326.594869
1112.724675,0.000000,-444.123565,9030.512492
1112.724991,-306.438199,-370.102971,9622.677246
1112.725307,0.000000,-0.000000,10288.862594
1112.725623,1072.533697,-0.000000,10066.800811
1112.725939,689.485948,592.164754,9696.697840
1112.726255,689.485948,444.123565,9030.512492
1112.726570,919.314598,-666.185348,9030.512492
1112.726886,612.876398,-222.061783,9030.512492
1112.727202,1302.362347,-0.000000,9992.780217
1112.727518,1225.752797,-74.020594,10214.842000
1112.727834,1455.581446,-148.041188,9548.656652
1112.728150,1378.971896,-0.000000,9622.677246
1112.728466,995.924147,-444.123565,9252.574275
1112.728782,1685.410096,-814.226536,9326.594869
1112.729098,1072.533697,-296.082377,9548.656652
1112.729414,1378.971896,-370.102971,9918.759623
1112.729729,1838.629195,-0.000000,9844.739029
1112.730045,1838.629195,370.102971,9474.636058
1112.730361,1608.800546,-0.000000,8216.285956
1112.730677,995.924147,-0.000000,8438.347739
1112.730993,1225.752797,-814.226536,9252.574275
1112.731309,1378.971896,-740.205942,9844.739029
1112.731625,1532.190996,-814.226536,10288.862594
1112.731941,919.314598,-370.102971,9918.759623
1112.732257,459.657299,-296.082377,8882.471304
1112.732572,689.485948,-740.205942,8512.368333
1112.732888,76.609550,-0.000000,9252.574275
1112.733204,229.828649,370.102971,9548.656652
1112.733520,612.876398,-74.020594,9178.553681
1112.733836,842.705048,-0.000000,9696.697840
1112.734152,0.000000,-444.123565,9696.697840
1112.734468,0.000000,-888.247130,9252.574275
1112.734784,0.000000,-740.205942,9104.533087
1112.735100,229.828649,-0.000000,9104.533087
1112.735416,766.095498,-0.000000,9918.759623
1112.735731,766.095498,-222.061783,9548.656652
1112.736047,459.657299,-444.123565,9400.615463
1112.736363,76.609550,-814.226536,8956.491898
1112.736679,-383.047749,-888.247130,8734.430116
1112.736995,306.438199,-0.000000,9622.677246
1112.737311,229.828649,-0.000000,9400.615463
1112.737627,536.266849,370.102971,9474.636058
1112.737943,383.047749,592.164754,9030.512492
1112.738259,0.000000,-0.000000,8882.471304
1112.738575,-153.219100,-666.185348,9030.512492
1112.738890,-383.047749,-592.164754,9548.656652
1112.739206,76.609550,-666.185348,10066.800811
1112.739522,76.609550,-148.041188,10362.883188
1112.739838,153.219100,-74.020594,9770.718434
1112.740154,0.000000,-370.102971,9252.574275
1112.740470,0.000000,-370.102971,9030.512492
1112.740786,0.000000,-518.144159,9474.636058
1112.741102,-383.047749,370.102971,9474.636058
1112.741418,0.000000,888.247130,9548.656652
1112.741734,612.876398,296.082377,9548.656652
1112.742049,229.828649,592.164754,9178.553681
1112.742365,0.000000,74.020594,9104.533087
1112.742681,0.000000,-444.123565,9326.594869
1112.742997,-229.828649,-0.000000,9548.656652
1112.743312,-229.828649,-74.020594,10436.903782
1112.743628,76.609550,148.041188,10288.862594
1112.743944,0.000000,666.185348,10140.821405
1112.744259,-306.438199,-0.000000,9326.594869
1112.744575,76.609550,-518.144159,8956.491898
1112.744891,0.000000,-148.041188,9326.594869
1112.745207,383.047749,-222.061783,9992.780217
1112.745523,153.219100,-74.020594,10436.903782
1112.745838,919.314598,222.061783,9770.718434
1112.746154,612.876398,888.247130,8956.491898
1112.746470,536.266849,-222.061783,8734.430116
1112.746786,612.876398,-518.144159,9770.718434
1112.747102,842.705048,-592.164754,10066.800811
1112.747417,1072.533697,-814.226536,9918.759623
1112.747733,1149.143247,-0.000000,10066.800811
1112.748049,1608.800546,148.041188,9474.636058
1112.748365,1838.629195,-1036.288319,8808.450710
1112.748681,995.924147,-666.185348,9030.512492
1112.748996,1149.143247,-74.020594,9474.636058
1112.749312,1685.410096,-148.041188,9326.594869
1112.749628,1608.800546,-0.000000,8956.491898
1112.749944,1455.581446,-0.000000,9104.533087
1112.750259,1302.362347,-370.102971,8956.491898
1112.750575,536.266849,-1110.308913,9696.697840
1112.750891,383.047749,-1110.308913,9622.677246
1112.751207,76.609550,-592.164754,9844.739029
1112.751523,612.876398,-296.082377,9918.759623
1112.751838,766.095498,-370.102971,9844.739029
1112.752154,459.657299,-296.082377,9252.574275
1112.752470,76.609550,-740.205942,9178.553681
1112.752786,0.000000,-518.144159,9474.636058
1112.753102,459.657299,-74.020594,9178.553681
1112.753417,1072.533697,370.102971,9474.636058
1112.753733,842.705048,592.164754,9104.533087
1112.754049,536.266849,148.041188,8882.471304
1112.754365,689.485948,-518.144159,9104.533087
1112.754681,459.657299,-592.164754,8956.491898
1112.754996,76.609550,296.082377,9474.636058
1112.755312,459.657299,-0.000000,9400.615463
1112.755628,536.266849,-222.061783,9770.718434
1112.755944,536.266849,222.061783,10066.800811
1112.756260,153.219100,-296.082377,9178.553681
1112.756575,0.000000,-666.185348,9030.512492
1112.756891,-383.047749,-0.000000,9252.574275
1112.757207,0.000000,-0.000000,9622.677246
1112.757523,459.657299,-0.000000,9770.718434
1112.757838,0.000000,370.102971,10140.821405
1112.758154,0.000000,-0.000000,9400.615463
1112.758470,-383.047749,-74.020594,9030.512492
1112.758786,-229.828649,-0.000000,8956.491898
1112.759102,0.000000,-0.000000,9400.615463
1112.759417,76.609550,-74.020594,10362.883188
1112.759733,0.000000,-0.000000,9992.780217
1112.760049,0.000000,-0.000000,9770.718434
1112.760365,153.219100,-296.082377,9548.656652
1112.760681,229.828649,148.041188,9104.533087
1112.760996,-153.219100,518.144159,9030.512492
1112.761312,306.438199,518.144159,9474.636058
1112.761628,76.609550,-148.041188,10066.800811
1112.761944,306.438199,1110.308913,9104.533087
1112.762260,-383.047749,148.041188,8956.491898
1112.762575,-459.657299,-222.061783,9252.574275
1112.762891,-459.657299,-148.041188,9622.677246
1112.763207,-536.266849,-0.000000,10436.903782
1112.763523,-383.047749,-222.061783,10140.821405
1112.763839,-229.828649,-296.082377,10140.821405
1112.764154,0.000000,-74.020594,9696.697840
1112.764470,-536.266849,-444.123565,9326.594869
1112.764786,-383.047749,-148.041188,9400.615463
1112.765102,0.000000,370.102971,9696.697840
1112.765417,919.314598,-222.061783,9992.780217
1112.765733,919.314598,296.082377,9474.636058
1112.766049,919.314598,444.123565,8956.491898
1112.766365,766.095498,-444.123565,8734.430116
1112.766681,1225.752797,-814.226536,9474.636058
1112.766996,1302.362347,-74.020594,9918.759623
1112.767312,1072.533697,-74.020594,9844.739029
1112.767628,1838.629195,-296.082377,10288.862594
1112.767944,1685.410096,-74.020594,9178.553681
1112.768260,1225.752797,-444.123565,9178.553681
1112.768575,1225.752797,-1480.411884,9400.615463
1112.768891,689.485948,-666.185348,9400.615463
1112.769207,919.314598,-74.020594,9696.697840
1112.769523,1685.410096,-148.041188,9770.718434
1112.769839,1608.800546,-370.102971,9696.697840
1112.770154,919.314598,-962.267725,8956.491898
1112.770470,612.876398,-1406.391290,9326.594869
1112.770786,689.485948,-1184.329507,9622.677246
1112.771102,689.485948,-1036.288319,10140.821405
1112.771418,995.924147,-518.144159,9770.718434
1112.771733,1455.581446,-370.102971,9622.677246
1112.772049,1072.533697,-370.102971,8734.430116
1112.772365,766.095498,-592.164754,8956.491898
1112.772681,766.095498,-444.123565,8808.450710
1112.772996,1838.629195,-74.020594,8808.450710
1112.773312,1225.752797,-296.082377,9400.615463
1112.773628,689.485948,-222.061783,9770.718434
1112.773944,995.924147,-370.102971,9474.636058
1112.774260,459.657299,-222.061783,8660.409521
1112.774575,0.000000,-370.102971,8882.471304
1112.774891,-383.047749,-148.041188,9326.594869
1112.775207,-153.219100,-370.102971,9770.718434
1112.775523,0.000000,-148.041188,9770.718434
1112.775839,76.609550,-740.205942,9992.780217
1112.776154,229.828649,-1258.350101,9622.677246
1112.776470,0.000000,-1628.453072,9474.636058
1112.776786,0.000000,-74.020594,9548.656652
1112.777102,383.047749,296.082377,9326.594869
1112.777418,689.485948,370.102971,9548.656652
1112.777733,1225.752797,740.205942,9548.656652
1112.778049,383.047749,222.061783,8956.491898
1112.778365,306.438199,-222.061783,8660.409521
1112.778681,536.266849,-148.041188,8956.491898
1112.778997,689.485948,-0.000000,9252.574275
1112.779312,1072.533697,-0.000000,10214.842000
1112.779628,306.438199,296.082377,10066.800811
1112.779944,612.876398,296.082377,9548.656652
1112.780260,0.000000,-222.061783,9030.512492
1112.780575,0.000000,-148.041188,8882.471304
1112.780891,-153.219100,370.102971,9844.739029
1112.781207,0.000000,-0.000000,10362.883188
1112.781523,229.828649,222.061783,10658.965565
1112.781839,153.219100,148.041188,9326.594869
1112.782154,0.000000,-74.020594,8956.491898
1112.782470,0.000000,-296.082377,9030.512492
1112.782786,-76.609550,-0.000000,9548.656652
1112.783102,-153.219100,-74.020594,9992.780217
1112.783418,153.219100,-0.000000,10214.842000
1112.783733,76.609550,444.123565,9844.739029
1112.784049,-306.438199,-0.000000,9474.636058
1112.784365,-536.266849,-444.123565,9400.615463
1112.784681,-459.657299,-0.000000,9696.697840
1112.784997,0.000000,666.185348,9770.718434
1112.785312,459.657299,444.123565,10288.862594
1112.785628,766.095498,222.061783,9844.739029
1112.785944,689.485948,148.041188,9178.553681
1112.786260,612.876398,-518.144159,8882.471304
1112.786575,383.047749,-592.164754,9770.718434
1112.786891,995.924147,-0.000000,10510.924376
1112.787207,1072.533697,296.082377,9696.697840
1112.787523,1072.533697,740.205942,9474.636058
1112.787839,1225.752797,148.041188,9474.636058
1112.788154,1225.752797,-370.102971,8808.450710
1112.788470,612.876398,-888.247130,8808.450710
1112.788786,842.705048,-592.164754,9770.718434
1112.789102,919.314598,-666.185348,9844.739029
1112.789418,1302.362347,-74.020594,10066.800811
1112.789733,1149.143247,148.041188,8882.471304
1112.790049,766.095498,-518.144159,8734.430116
1112.790365,536.266849,-1110.308913,9178.553681
1112.790681,306.438199,-444.123565,9696.697840
1112.790997,612.876398,-888.247130,10214.842000
1112.791312,995.924147,-740.205942,10214.842000
1112.791628,995.924147,-592.164754,9474.636058
1112.791944,842.705048,-740.205942,8734.430116
1112.792260,536.266849,-1184.329507,9030.512492
1112.792576,383.047749,-1036.288319,9400.615463
1112.792891,689.485948,-222.061783,9474.636058
1112.793207,1149.143247,-148.041188,9844.739029
1112.793523,919.314598,444.123565,8734.430116
1112.793839,1149.143247,148.041188,8438.347739
1112.794154,995.924147,-370.102971,8216.285956
1112.794470,995.924147,-740.205942,8290.306550
1112.794786,0.000000,-222.061783,9400.615463
1112.795102,689.485948,-1184.329507,9918.759623
1112.795418,153.219100,-1258.350101,10436.903782
1112.795733,153.219100,-592.164754,9178.553681
1112.796049,306.438199,-888.247130,8956.491898
1112.796365,0.000000,-1184.329507,9474.636058
1112.796681,0.000000,-370.102971,9770.718434
1112.796997,459.657299,-148.041188,9326.594869
1112.797312,536.266849,370.102971,9696.697840
1112.797628,612.876398,592.164754,8956.491898
1112.797944,689.485948,592.164754,8068.244768
1112.798260,766.095498,222.061783,8512.368333
1112.798576,306.438199,-296.082377,9622.677246
1112.798891,0.000000,370.102971,9844.739029
1112.799207,306.438199,-740.205942,9918.759623
1112.799523,383.047749,-518.144159,10510.924376
1112.799839,153.219100,222.061783,9548.656652
1112.800155,229.828649,-74.020594,9104.533087
1112.800470,0.000000,-370.102971,9326.594869
1112.800786,-383.047749,444.123565,9770.718434
1112.801102,229.828649,518.144159,10510.924376
1112.801418,0.000000,148.041188,9844.739029
1112.801733,-459.657299,-0.000000,9622.677246
1112.802049,-536.266849,-296.082377,9178.553681
1112.802365,-229.828649,-592.164754,9622.677246
1112.802681,-689.485948,-74.020594,9844.739029
1112.802997,-459.657299,222.061783,10288.862594
1112.803312,-306.438199,-0.000000,10362.883188
1112.803628,153.219100,222.061783,9844.739029
1112.803944,0.000000,-0.000000,9696.697840
1112.804260,229.828649,-296.082377,9474.636058
1112.804576,0.000000,370.102971,9844.739029
1112.804891,383.047749,-74.020594,9548.656652
1112.805207,1149.143247,-0.000000,9844.739029
1112.805523,842.705048,148.041188,9770.718434
1112.805839,1072.533697,-0.000000,8734.430116
1112.806155,919.314598,-370.102971,9252.574275
1112.806470,612.876398,-888.247130,9696.697840
1112.806786,919.314598,-518.144159,9770.718434
1112.807102,766.095498,-370.102971,9696.697840
1112.807418,612.876398,-370.102971,10066.800811
1112.807734,995.924147,-222.061783,9548.656652
1112.808049,1072.533697,-74.020594,8660.409521
1112.808365,459.657299,-518.144159,9030.512492
1112.808681,995.924147,-0.000000,9548.656652
1112.808997,536.266849,222.061783,9252.574275
1112.809312,1072.533697,-296.082377,9918.759623
1112.809628,536.266849,-222.061783,9400.615463
1112.809944,919.314598,-222.061783,9030.512492
1112.810260,383.047749,-444.123565,9104.533087
1112.810576,536.266849,-74.020594,9400.615463
1112.810891,612.876398,-0.000000,9844.739029
1112.811207,842.705048,-518.144159,9770.718434
1112.811523,1072.533697,370.102971,9548.656652
1112.811839,995.924147,222.061783,9178.553681
1112.812155,1072.533697,-296.082377,9326.594869
1112.812470,1072.533697,-222.061783,9326.594869
1112.812786,689.485948,666.185348,8956.491898
1112.813102,995.924147,1036.288319,9622.677246
1112.813418,689.485948,370.102971,9252.574275
1112.813734,459.657299,296.082377,9400.615463
1112.814049,229.828649,-0.000000,9178.553681
1112.814365,-229.828649,-444.123565,8956.491898
1112.814681,-229.828649,-444.123565,10214.842000
1112.814997,0.000000,-1258.350101,10140.821405
1112.815313,229.828649,-1036.288319,10214.842000
1112.815628,229.828649,-1258.350101,10362.883188
1112.815944,306.438199,-1110.308913,9400.615463
1112.816260,153.219100,-1036.288319,9326.594869
1112.816576,229.828649,-296.082377,9696.697840
1112.816891,919.314598,-74.020594,9770.718434
1112.817207,995.924147,-0.000000,9474.636058
1112.817523,1072.533697,370.102971,9400.615463
1112.817839,612.876398,592.164754,8290.306550
1112.818155,995.924147,-296.082377,8660.409521
1112.818470,612.876398,-370.102971,9400.615463
1112.818786,229.828649,-0.000000,9622.677246
1112.819102,229.828649,-296.082377,10140.821405
1112.819418,459.657299,-370.102971,10066.800811
1112.819734,383.047749,-666.185348,9844.739029
1112.820049,229.828649,-814.226536,10140.821405
1112.820365,-229.828649,-518.144159,9770.718434
1112.820681,-383.047749,370.102971,9622.677246
1112.820997,153.219100,592.164754,10436.903782
1112.821313,306.438199,666.185348,9918.759623
1112.821628,153.219100,1480.411884,9030.512492
1112.821944,0.000000,518.144159,8512.368333
1112.822260,-153.219100,-222.061783,8956.491898
1112.822576,0.000000,-296.082377,9474.636058
1112.822892,-383.047749,-296.082377,10066.800811
1112.823207,-306.438199,-666.185348,10214.842000
1112.823523,-229.828649,-444.123565,10214.842000
1112.823839,-153.219100,-370.102971,9548.656652
1112.824155,-153.219100,-296.082377,9622.677246
1112.824470,-153.219100,-296.082377,9474.636058
1112.824786,0.000000,-0.000000,9770.718434
1112.825102,536.266849,-0.000000,9326.594869
1112.825418,459.657299,-0.000000,9252.574275
1112.825734,842.705048,-0.000000,8586.388927
1112.826049,689.485948,-666.185348,8512.368333
1112.826365,306.438199,-740.205942,9104.533087
1112.826681,306.438199,-962.267725,9918.759623
1112.826997,766.095498,-1332.370696,10066.800811
1112.827313,1072.533697,-444.123565,10214.842000
1112.827628,842.705048,-222.061783,9548.656652
1112.827944,1072.533697,-518.144159,9252.574275
1112.828260,1072.533697,-888.247130,9474.636058
1112.828576,1225.752797,-74.020594,9400.615463
1112.828892,1149.143247,-370.102971,9178.553681
1112.829207,1302.362347,-222.061783,9474.636058
1112.829523,1302.362347,-0.000000,9178.553681
1112.829839,919.314598,-222.061783,8216.285956
1112.830155,689.485948,-888.247130,9030.512492
1112.830471,306.438199,-888.247130,9770.718434
1112.830786,842.705048,-296.082377,9696.697840
1112.831102,919.314598,-222.061783,9622.677246
1112.831418,1225.752797,-222.061783,9474.636058
1112.831734,689.485948,-518.144159,9474.636058
1112.832049,1302.362347,-148.041188,9030.512492
1112.832365,689.485948,-296.082377,9178.553681
1112.832681,306.438199,296.082377,9030.512492
1112.832997,689.485948,370.102971,9474.636058
1112.833313,612.876398,-0.000000,9474.636058
1112.833628,612.876398,-0.000000,9252.574275
1112.833944,153.219100,-0.000000,8956.491898
1112.834260,76.609550,-592.164754,9474.636058
1112.834576,0.000000,-740.205942,9474.636058
1112.834892,459.657299,-148.041188,10732.986159
1112.835207,689.485948,-148.041188,9992.780217
1112.835523,842.705048,222.061783,9252.574275
1112.835839,919.314598,370.102971,9474.636058
1112.836155,612.876398,-74.020594,8956.491898
1112.836471,842.705048,-518.144159,9548.656652
1112.836786,842.705048,-0.000000,10214.842000
1112.837102,842.705048,-0.000000,9992.780217
1112.837418,919.314598,370.102971,9844.739029
1112.837734,612.876398,1036.288319,8364.327145
1112.838050,689.485948,518.144159,8586.388927
1112.838365,383.047749,-0.000000,9104.533087
1112.838681,383.047749,-74.020594,9844.739029
1112.838997,229.828649,-370.102971,10288.862594
1112.839313,0.000000,-0.000000,10584.944971
1112.839628,-229.828649,-222.061783,10066.800811
1112.839944,-306.438199,-592.164754,8808.450710
1112.840260,-306.438199,-740.205942,9992.780217
1112.840576,-459.657299,-0.000000,9844.739029
1112.840892,-459.657299,518.144159,9696.697840
1112.841207,0.000000,370.102971,9770.718434
1112.841523,0.000000,666.185348,9178.553681
1112.841839,0.000000,518.144159,8586.388927
1112.842155,-153.219100,-0.000000,9252.574275
1112.842471,-306.438199,370.102971,9474.636058
1112.842786,-459.657299,740.205942,9696.697840
1112.843102,-229.828649,-0.000000,9918.759623
1112.843418,76.609550,-148.041188,10140.821405
1112.843734,-153.219100,-740.205942,9770.718434
1112.844050,0.000000,-1036.288319,9474.636058
1112.844365,-612.876398,-518.144159,10140.821405
1112.844681,229.828649,-666.185348,10288.862594
1112.844997,536.266849,962.267725,9104.533087
1112.845313,153.219100,370.102971,9474.636058
1112.845629,919.314598,-74.020594,9326.594869
1112.845944,612.876398,-0.000000,8882.471304
1112.846260,536.266849,-148.041188,9104.533087
1112.846576,612.876398,-148.041188,9104.533087
1112.846892,919.314598,-888.247130,10288.862594
1112.847207,1072.533697,-962.267725,9474.636058
1112.847523,842.705048,-370.102971,9918.759623
1112.847839,842.705048,-1406.391290,9400.615463
1112.848155,536.266849,-1184.329507,8956.491898
1112.848470,612.876398,-444.123565,9770.718434
1112.848786,1149.143247,-296.082377,9474.636058
1112.849102,1378.971896,-518.144159,9622.677246
1112.849418,1225.752797,-0.000000,9400.615463
1112.849733,689.485948,-222.061783,8364.327145
1112.850049,842.705048,-1258.350101,8808.450710
1112.850365,536.266849,-592.164754,9178.553681
1112.850681,919.314598,-444.123565,9252.574275
1112.850996,766.095498,-592.164754,9474.636058
1112.851312,1685.410096,-888.247130,10288.862594
1112.851628,919.314598,-592.164754,9326.594869
1112.851944,689.485948,-518.144159,9030.512492
1112.852259,383.047749,-296.082377,9030.512492
1112.852575,229.828649,-0.000000,9474.636058
1112.852891,536.266849,-296.082377,9696.697840
1112.853207,459.657299,148.041188,9548.656652
1112.853522,383.047749,370.102971,9104.533087
1112.853838,306.438199,-74.020594,8216.285956
1112.854154,383.047749,-370.102971,8956.491898
1112.854470,-153.219100,-296.082377,9474.636058
1112.854785,536.266849,-222.061783,9696.697840
1112.855101,842.705048,-0.000000,9844.739029
1112.855417,536.266849,-222.061783,9918.759623
1112.855733,1302.362347,-370.102971,9622.677246
1112.856048,383.047749,-666.185348,9474.636058
1112.856364,0.000000,-370.102971,9474.636058
1112.856680,689.485948,-148.041188,9918.759623
1112.856996,995.924147,-0.000000,9992.780217
1112.857311,536.266849,444.123565,9770.718434
1112.857627,536.266849,666.185348,9104.533087
1112.857943,612.876398,-148.041188,8734.430116
1112.858259,383.047749,-296.082377,9030.512492
1112.858574,536.266849,370.102971,9474.636058
1112.858890,689.485948,148.041188,10140.821405
1112.859206,459.657299,-222.061783,10140.821405
1112.859522,229.828649,-0.000000,9696.697840
1112.859837,306.438199,-74.020594,9474.636058
1112.860153,0.000000,-148.041188,9104.533087
1112.860469,0.000000,-0.000000,9548.656652
1112.860785,0.000000,148.041188,10066.800811
1112.861100,0.000000,-0.000000,10288.862594
1112.861416,0.000000,-0.000000,9844.739029
1112.861732,0.000000,370.102971,9104.533087
1112.862048,-842.705048,-666.185348,9252.574275
1112.862363,-459.657299,-0.000000,9622.677246
1112.862679,-383.047749,518.144159,9844.739029
1112.862995,-153.219100,222.061783,10214.842000
1112.863311,-383.047749,-222.061783,9696.697840
1112.863626,76.609550,-222.061783,9992.780217
1112.863942,0.000000,-518.144159,9178.553681
1112.864258,0.000000,-296.082377,9474.636058
1112.864574,0.000000,370.102971,9622.677246
1112.864889,766.095498,-0.000000,9400.615463
1112.865205,919.314598,296.082377,9474.636058
1112.865521,612.876398,148.041188,9104.533087
1112.865837,536.266849,-444.123565,9104.533087
1112.866152,0.000000,-666.185348,9030.512492
1112.866468,383.047749,-148.041188,9844.739029
1112.866784,1072.533697,-592.164754,9622.677246
1112.867100,919.314598,-74.020594,10288.862594
1112.867415,766.095498,-148.041188,9622.677246
1112.867731,995.924147,-814.226536,9474.636058
1112.868047,842.705048,-962.267725,9548.656652
1112.868363,153.219100,-666.185348,9178.553681
1112.868678,1455.581446,-0.000000,9844.739029
1112.868994,2068.457845,-592.164754,9770.718434
1112.869310,1072.533697,-0.000000,9548.656652
1112.869626,1378.971896,-0.000000,8882.471304
1112.869941,1149.143247,-592.164754,8290.306550
1112.870257,919.314598,-444.123565,9326.594869
1112.870573,459.657299,-0.000000,9622.677246
1112.870889,689.485948,-148.041188,9696.697840
1112.871204,1072.533697,-814.226536,10140.821405
1112.871520,612.876398,-518.144159,9844.739029
1112.871836,383.047749,-1406.391290,9474.636058
1112.872152,689.485948,-1258.350101,9474.636058
1112.872467,383.047749,-370.102971,9548.656652
1112.872783,766.095498,222.061783,9622.677246
1112.873099,766.095498,370.102971,9178.553681
1112.873415,842.705048,296.082377,9326.594869
1112.873730,689.485948,-444.123565,8660.409521
1112.874046,536.266849,-1036.288319,8586.388927
1112.874362,306.438199,-814.226536,9104.533087
1112.874678,229.828649,-740.205942,9696.697840
1112.874993,536.266849,-666.185348,9622.677246
1112.875309,919.314598,-888.247130,9474.636058
1112.875625,229.828649,-592.164754,9696.697840
1112.875941,76.609550,-1184.329507,9178.553681
1112.876256,459.657299,-518.144159,9696.697840
1112.876572,459.657299,148.041188,9474.636058
1112.876888,842.705048,370.102971,9474.636058
1112.877204,1149.143247,148.041188,9474.636058
1112.877519,612.876398,222.061783,8438.347739
1112.877835,1302.362347,-222.061783,8808.450710
1112.878151,459.657299,-666.185348,9178.553681
1112.878467,0.000000,-0.000000,9326.594869
1112.878782,153.219100,-74.020594,10140.821405
1112.879098,76.609550,-296.082377,9844.739029
1112.879414,383.047749,444.123565,9696.697840
1112.879730,0.000000,-0.000000,9400.615463
1112.880045,-383.047749,-74.020594,9178.553681
1112.880361,0.000000,666.185348,9474.636058
1112.880677,-76.609550,814.226536,9918.759623
1112.880993,-306.438199,-0.000000,10510.924376
1112.881308,-76.609550,296.082377,10436.903782
1112.881624,0.000000,296.082377,8882.471304
1112.881940,-459.657299,-0.000000,9178.553681
1112.882256,-612.876398,-0.000000,9548.656652
1112.882571,-229.828649,-0.000000,9992.780217
1112.882887,-459.657299,518.144159,9918.759623
1112.883203,0.000000,296.082377,10066.800811
1112.883519,0.000000,370.102971,9918.759623
1112.883834,0.000000,-0.000000,9622.677246
1112.884150,-229.828649,-444.123565,8586.388927
1112.884466,0.000000,370.102971,9474.636058
1112.884782,76.609550,-444.123565,10288.862594
1112.885097,229.828649,-444.123565,10288.862594
1112.885413,0.000000,-148.041188,9474.636058
1112.885729,459.657299,-962.267725,9178.553681
1112.886045,306.438199,-740.205942,9178.553681
1112.886360,306.438199,370.102971,9548.656652
1112.886676,383.047749,666.185348,9474.636058
1112.886992,919.314598,-0.000000,9622.677246
1112.887308,1302.362347,222.061783,9622.677246
1112.887623,612.876398,-592.164754,9030.512492
1112.887939,995.924147,-1184.329507,9326.594869
1112.888255,919.314598,-1110.308913,9326.594869
1112.888571,1072.533697,-370.102971,9474.636058
1112.888886,1455.581446,-74.020594,10066.800811
1112.889202,1378.971896,-148.041188,9548.656652
1112.889518,1149.143247,74.020594,8586.388927
1112.889834,1455.581446,-518.144159,8142.265362
1112.890149,995.924147,-814.226536,9400.615463
1112.890465,1455.581446,-814.226536,9622.677246
1112.890781,1685.410096,-1110.308913,9696.697840
1112.891097,1991.848295,-740.205942,9992.780217
1112.891412,1455.581446,-444.123565,9104.533087
1112.891728,1302.362347,-518.144159,8364.327145
1112.892044,995.924147,-222.061783,8438.347739
1112.892360,766.095498,148.041188,8956.491898
1112.892675,842.705048,-0.000000,9548.656652
1112.892991,306.438199,-370.102971,9326.594869
1112.893307,229.828649,-1184.329507,9548.656652
1112.893623,-229.828649,-1924.535449,10140.821405
1112.893938,-1072.533697,-2442.679609,9252.574275
1112.894254,-842.705048,-2294.638420,10362.883188
1112.894570,-919.314598,-1702.473667,10584.944971
1112.894886,-689.485948,-1924.535449,10658.965565
1112.895201,-153.219100,-1628.453072,10288.862594
1112.895517,0.000000,-1554.432478,9770.718434
1112.895833,459.657299,-1332.370696,9252.574275
1112.896149,842.705048,-1036.288319,8808.450710
1112.896464,1225.752797,-1110.308913,9178.553681
1112.896780,2068.457845,-888.247130,9696.697840
1112.897096,2221.676944,-1184.329507,9326.594869
1112.897412,1608.800546,-888.247130,8586.388927
1112.897727,1302.362347,-1406.391290,8734.430116
1112.898043,1302.362347,-1998.556043,9104.533087
1112.898359,1378.971896,-1554.432478,9326.594869
1112.898675,689.485948,-1332.370696,10214.842000
1112.898990,459.657299,-1480.411884,10140.821405
1112.899306,229.828649,-1110.308913,10066.800811
1112.899622,0.000000,-1406.391290,9548.656652
1112.899938,229.828649,-1924.535449,9622.677246
1112.900253,383.047749,-1850.514855,9992.780217
1112.900569,766.095498,-1628.453072,9474.636058
1112.900885,842.705048,-2368.659014,9992.780217
1112.901201,1455.581446,-2590.720797,10140.821405
1112.901516,1838.629195,-1850.514855,9548.656652
1112.901832,2221.676944,-1184.329507,8808.450710
1112.902148,2451.505594,-962.267725,8808.450710
1112.902464,3140.991542,-888.247130,8882.471304
1112.902779,3294.210641,-518.144159,9104.533087
1112.903095,3600.648841,-814.226536,9474.636058
1112.903411,3753.867940,-1110.308913,9400.615463
1112.903727,3370.820191,-740.205942,8512.368333
1112.904042,2987.772442,-1110.308913,8734.430116
1112.904358,2834.553343,-1628.453072,9400.615463
1112.904674,2528.115143,-1406.391290,9400.615463
1112.904990,2145.067394,-1110.308913,9770.718434
1112.905305,1838.629195,-1184.329507,10066.800811
1112.905621,1838.629195,-1850.514855,9770.718434
1112.905937,1455.581446,-1998.556043,9696.697840
1112.906253,1762.019645,-2960.823768,10214.842000
1112.906568,1915.238745,-2516.700203,9918.759623
1112.906884,2604.724693,-2590.720797,10436.903782
1112.907200,2374.896044,-2590.720797,9992.780217
1112.907516,2451.505594,-2220.617826,9474.636058
1112.907831,3140.991542,-1924.535449,9474.636058
1112.908147,3370.820191,-1850.514855,9326.594869
1112.908463,3677.258390,-1702.473667,9178.553681
1112.908779,3907.087040,-1924.535449,9474.636058
1112.909094,4290.134789,-1628.453072,9326.594869
1112.909410,4673.182538,-1702.473667,9400.615463
1112.909726,4290.134789,-1110.308913,9178.553681
1112.910042,4596.572988,-1258.350101,8882.471304
1112.910357,4213.525239,-1850.514855,9844.739029
1112.910673,3983.696590,-1998.556043,9474.636058
1112.910989,3907.087040,-1776.494261,9622.677246
1112.911305,3370.820191,-1554.432478,9104.533087
1112.911620,3447.429741,-1554.432478,9030.512492
1112.911936,3217.601092,-1554.432478,8956.491898
1112.912252,2757.943793,-1776.494261,9326.594869
1112.912568,1991.848295,-1924.535449,10214.842000
1112.912883,1608.800546,-2738.761985,10510.924376
1112.913199,1685.410096,-2886.803174,10362.883188
1112.913515,1455.581446,-2738.761985,10214.842000
1112.913831,1762.019645,-2516.700203,9992.780217
1112.914146,1302.362347,-1998.556043,9400.615463
1112.914462,2145.067394,-1628.453072,9400.615463
1112.914778,2451.505594,-1258.350101,9104.533087
1112.915094,2145.067394,-1184.329507,8808.450710
1112.915409,1608.800546,-1702.473667,9252.574275
1112.915725,1991.848295,-2516.700203,9548.656652
1112.916041,2834.553343,-2960.823768,9918.759623
1112.916357,2681.334243,-2812.782580,9400.615463
1112.916672,2451.505594,-2516.700203,9400.615463
1112.916988,2298.286494,-2590.720797,9548.656652
1112.917304,2145.067394,-2220.617826,9474.636058
1112.917620,2298.286494,-1628.453072,9030.512492
1112.917935,2145.067394,-1036.288319,9252.574275
1112.918251,919.314598,-1702.473667,9622.677246
1112.918567,1225.752797,-2664.741391,9918.759623
1112.918883,1455.581446,-3330.926739,10510.924376
1112.919198,1762.019645,-3478.967927,10584.944971
1112.919514,1608.800546,-3182.885551,9474.636058
1112.919830,1685.410096,-2442.679609,9178.553681
1112.920146,1915.238745,-2368.659014,8882.471304
1112.920461,1915.238745,-1924.535449,8956.491898
1112.920777,2451.505594,-1406.391290,9326.594869
1112.921093,2451.505594,-1628.453072,9178.553681
1112.921409,2298.286494,-2516.700203,9474.636058
1112.921724,2145.067394,-3330.926739,9770.718434
1112.922040,2451.505594,-3182.885551,9918.759623
1112.922356,2987.772442,-3478.967927,9992.780217
1112.922672,3447.429741,-2590.720797,9400.615463
1112.922987,3753.867940,-2072.576638,9252.574275
1112.923303,3677.258390,-2146.597232,9030.512492
1112.923619,3753.867940,-1702.473667,9030.512492
1112.923935,3600.648841,-1184.329507,8882.471304
1112.924250,3294.210641,-666.185348,8882.471304
1112.924566,3370.820191,-740.205942,8808.450710
1112.924882,3217.601092,-1702.473667,9326.594869
1112.925198,2911.162892,-2590.720797,9696.697840
1112.925513,2834.553343,-3034.844362,10066.800811
1112.925829,2604.724693,-3404.947333,10066.800811
1112.926145,2451.505594,-4219.173869,9918.759623
1112.926461,2451.505594,-3627.009116,10510.924376
1112.926776,2987.772442,-3034.844362,10510.924376
1112.927092,3140.991542,-1628.453072,9696.697840
1112.927408,3064.381992,-814.226536,8956.491898
1112.927724,3830.477490,-222.061783,8660.409521
1112.928039,3217.601092,-0.000000,8512.368333
1112.928355,3447.429741,-222.061783,8290.306550
1112.928671,3294.210641,-1184.329507,8660.409521
1112.928987,3064.381992,-2664.741391,9400.615463
1112.929302,2528.115143,-4293.194464,10066.800811
1112.929618,1991.848295,-4959.379811,10807.006753
1112.929934,2145.067394,-5107.421000,11399.171507
1112.930250,2298.286494,-4293.194464,11325.150913
1112.930565,2757.943793,-2590.720797,10362.883188
1112.930881,2911.162892,-1776.494261,9992.780217
1112.931197,3370.820191,-1406.391290,9400.615463
1112.931513,3370.820191,-740.205942,8586.388927
1112.931828,3830.477490,-666.185348,7772.162391
1112.932144,3907.087040,-1258.350101,7402.059420
1112.932460,3447.429741,-888.247130,7476.080014
1112.932776,2757.943793,-1628.453072,8290.306550
1112.933091,2068.457845,-1924.535449,9252.574275
1112.933407,1072.533697,-2738.761985,9770.718434
1112.933723,153.219100,-3034.844362,10510.924376
1112.934039,-536.266849,-3627.009116,11103.089130
1112.934354,-76.609550,-4367.215058,11769.274478
1112.934670,153.219100,-4145.153275,11695.253884
1112.934986,766.095498,-3627.009116,10881.027347
1112.935302,1762.019645,-3552.988522,9918.759623
1112.935617,2604.724693,-2516.700203,9548.656652
1112.935933,3447.429741,-2294.638420,8808.450710
1112.936249,4136.915689,-962.267725,8364.327145
1112.936565,4673.182538,-0.000000,7698.141797
1112.936880,4749.792088,296.082377,7179.997637
1112.937196,4443.353888,-0.000000,7550.100608
1112.937512,4060.306139,-666.185348,7994.224174
1112.937828,3600.648841,-1406.391290,8512.368333
1112.938143,2528.115143,-2516.700203,9326.594869
1112.938459,1991.848295,-3478.967927,10214.842000
1112.938775,1225.752797,-4219.173869,11103.089130
1112.939091,842.705048,-4293.194464,11251.130318
1112.939406,536.266849,-3701.029710,11251.130318
1112.939722,229.828649,-2812.782580,10807.006753
1112.940038,612.876398,-2368.659014,10066.800811
1112.940354,689.485948,-2442.679609,9918.759623
1112.940669,1302.362347,-1924.535449,9474.636058
1112.940985,2604.724693,-1406.391290,8808.450710
1112.941301,2604.724693,-740.205942,8290.306550
1112.941617,3294.210641,-1110.308913,7994.224174
1112.941932,3140.991542,-1850.514855,8660.409521
1112.942248,3524.039291,-2294.638420,9030.512492
1112.942564,3140.991542,-2664.741391,9474.636058
1112.942880,2757.943793,-2590.720797,9474.636058
1112.943195,2451.505594,-2368.659014,9770.718434
1112.943511,2374.896044,-2072.576638,9770.718434
1112.943827,2145.067394,-1480.411884,9992.780217
1112.944143,1991.848295,-1258.350101,9622.677246
1112.944458,2298.286494,-1258.350101,9844.739029
1112.944774,2298.286494,-1702.473667,9696.697840
1112.945090,2604.724693,-2368.659014,9400.615463
1112.945406,2757.943793,-2442.679609,9178.553681
1112.945721,3064.381992,-2294.638420,9400.615463
1112.946037,2757.943793,-1850.514855,9030.512492
1112.946353,2604.724693,-1850.514855,9400.615463
1112.946669,2604.724693,-1998.556043,9548.656652
1112.946985,2451.505594,-1998.556043,9918.759623
1112.947301,2068.457845,-1850.514855,9844.739029
1112.947616,2068.457845,-1998.556043,9696.697840
1112.947932,2221.676944,-1480.411884,9548.656652
1112.948248,2145.067394,-1184.329507,9178.553681
1112.948564,2068.457845,-814.226536,9104.533087
1112.948880,2221.676944,-962.267725,8586.388927
1112.949196,1762.019645,-888.247130,8808.450710
1112.949511,1991.848295,-962.267725,8512.368333
1112.949827,1149.143247,-1110.308913,8956.491898
1112.950143,1072.533697,-1110.308913,9178.553681
1112.950459,1225.752797,-2294.638420,9844.739029
1112.950775,1225.752797,-2516.700203,10140.821405
1112.951090,1225.752797,-2812.782580,10436.903782
1112.951406,1532.190996,-2960.823768,10584.944971
1112.951722,1838.629195,-2738.761985,10214.842000
1112.952038,2145.067394,-2146.597232,9992.780217
1112.952354,2528.115143,-1554.432478,9844.739029
1112.952670,2757.943793,-962.267725,9696.697840
1112.952985,2987.772442,-740.205942,9178.553681
1112.953301,2987.772442,-592.164754,9178.553681
1112.953617,2834.553343,-1036.288319,8956.491898
1112.953933,3370.820191,-1184.329507,9178.553681
1112.954249,3677.258390,-1702.473667,9400.615463
1112.954565,3600.648841,-2072.576638,9548.656652
1112.954880,3830.477490,-3034.844362,9844.739029
1112.955196,3140.991542,-3478.967927,10140.821405
1112.955512,2987.772442,-3923.091493,10436.903782
1112.955828,2681.334243,-3552.988522,10584.944971
1112.956144,2451.505594,-3330.926739,10510.924376
1112.956460,2374.896044,-3034.844362,10066.800811
1112.956775,1991.848295,-2886.803174,10288.862594
1112.957091,2451.505594,-2294.638420,9918.759623
1112.957407,2528.115143,-2294.638420,9326.594869
1112.957723,2987.772442,-2664.741391,9104.533087
1112.958039,3447.429741,-2960.823768,8956.491898
1112.958355,3217.601092,-3108.864956,8882.471304
1112.958670,3294.210641,-3182.885551,9178.553681
1112.958986,3217.601092,-3256.906145,9252.574275
1112.959302,2987.772442,-3404.947333,9326.594869
1112.959618,3064.381992,-3849.070898,9918.759623
1112.959934,2451.505594,-3923.091493,9844.739029
1112.960250,2604.724693,-3775.050304,10066.800811
1112.960565,2298.286494,-3478.967927,9696.697840
1112.960881,2221.676944,-3330.926739,9326.594869
1112.961197,2604.724693,-2812.782580,9104.533087
1112.961513,2987.772442,-2812.782580,8956.491898
1112.961829,2681.334243,-2812.782580,8808.450710
1112.962144,2834.553343,-2738.761985,8956.491898
1112.962460,2757.943793,-3256.906145,9252.574275
1112.962776,3294.210641,-3849.070898,9474.636058
1112.963092,3294.210641,-3775.050304,9252.574275
1112.963408,3370.820191,-3701.029710,9400.615463
1112.963724,3140.991542,-4071.132681,9400.615463
1112.964039,3677.258390,-3552.988522,9400.615463
1112.964355,3753.867940,-3182.885551,9030.512492
1112.964671,3600.648841,-2146.597232,8586.388927
1112.964987,3524.039291,-1332.370696,7920.203579
1112.965303,2681.334243,-740.205942,7698.141797
1112.965619,2604.724693,-814.226536,7846.182985
1112.965934,1685.410096,-814.226536,8364.327145
1112.966250,1302.362347,-962.267725,8438.347739
1112.966566,306.438199,-2072.576638,9030.512492
1112.966882,0.000000,-3330.926739,9918.759623
1112.967198,0.000000,-4219.173869,10584.944971
1112.967514,306.438199,-4293.194464,11251.130318
1112.967829,536.266849,-4515.256246,11325.150913
1112.968145,995.924147,-4589.276840,11029.068536
1112.968461,1685.410096,-3775.050304,10732.986159
1112.968777,2834.553343,-2590.720797,9696.697840
1112.969093,3294.210641,-1184.329507,9474.636058
1112.969409,4749.792088,444.123565,8290.306550
1112.969724,4519.963438,1184.329507,7328.038826
1112.970040,4749.792088,1110.308913,7105.977043
1112.970356,4136.915689,1332.370696,7254.018232
1112.970672,3370.820191,1110.308913,7550.100608
1112.970988,2451.505594,370.102971,8364.327145
1112.971303,1532.190996,-962.267725,9548.656652
1112.971619,0.000000,-2368.659014,10658.965565
1112.971935,-229.828649,-3182.885551,11917.315666
1112.972251,-1149.143247,-4367.215058,12731.542202
1112.972567,-995.924147,-4959.379811,13027.624579
1112.972883,-536.266849,-4293.194464,13027.624579
1112.973198,0.000000,-3849.070898,12065.356855
1112.973514,1455.581446,-2812.782580,11547.212695
1112.973830,2911.162892,-1480.411884,10362.883188
1112.974146,4060.306139,-222.061783,9030.512492
1112.974462,5439.278036,666.185348,7920.203579
1112.974778,6435.202183,1924.535449,7105.977043
1112.975093,6818.249932,3034.844362,6809.894666
1112.975409,6588.421283,2072.576638,6661.853478
1112.975725,5515.887586,740.205942,7698.141797
1112.976041,4826.401637,-592.164754,8882.471304
1112.976357,3524.039291,-2220.617826,9770.718434
1112.976673,2834.553343,-3404.947333,11103.089130
1112.976988,1685.410096,-3997.112087,11843.295072
1112.977304,612.876398,-3849.070898,11843.295072
1112.977620,306.438199,-3404.947333,11695.253884
1112.977936,612.876398,-2516.700203,11547.212695
1112.978252,1225.752797,-2294.638420,11029.068536
1112.978568,1532.190996,-1924.535449,9770.718434
1112.978883,2068.457845,-1702.473667,9104.533087
1112.979199,3140.991542,-1924.535449,9104.533087
1112.979515,3983.696590,-2368.659014,8956.491898
1112.979831,4443.353888,-2368.659014,8586.388927
1112.980147,4673.182538,-2812.782580,8808.450710
1112.980463,4673.182538,-3404.947333,9030.512492
1112.980778,4673.182538,-3849.070898,9178.553681
1112.981094,4826.401637,-2738.761985,8734.430116
1112.981410,4673.182538,-1998.556043,8364.327145
1112.981726,3830.477490,-1184.329507,8364.327145
1112.982042,2987.772442,-1406.391290,8364.327145
1112.982357,2757.943793,-2072.576638,8882.471304
1112.982673,2221.676944,-3182.885551,9030.512492
1112.982989,1378.971896,-3552.988522,9030.512492
1112.983305,766.095498,-4293.194464,9252.574275
1112.983621,1302.362347,-4811.338623,9696.697840
1112.983937,1072.533697,-4367.215058,9474.636058
1112.984252,766.095498,-3330.926739,9326.594869
1112.984568,306.438199,-3034.844362,9548.656652
1112.984884,536.266849,-3034.844362,9992.780217
1112.985200,612.876398,-4145.153275,10214.842000
1112.985516,1378.971896,-3330.926739,9918.759623
1112.985832,1532.190996,-2664.741391,9252.574275
1112.986147,2528.115143,-3108.864956,9474.636058
1112.986463,3294.210641,-2664.741391,8512.368333
1112.986779,3217.601092,-1850.514855,8512.368333
1112.987095,3677.258390,-1480.411884,7698.141797
1112.987411,3677.258390,-1258.350101,8290.306550
1112.987727,3677.258390,-740.205942,8734.430116
