#time,accel_x,accel_y,accel_z
663.654481,689.485948,222.061783,10214.842000
663.654796,919.314598,592.164754,9992.780217
663.655112,1225.752797,962.267725,9326.594869
663.655428,1991.848295,1258.350101,9030.512492
663.655743,1838.629195,1850.514855,8734.430116
663.656059,1915.238745,1702.473667,8808.450710
663.656375,2145.067394,1776.494261,8956.491898
663.656690,1532.190996,1480.411884,9030.512492
663.657006,1225.752797,1258.350101,9474.636058
663.657322,1378.971896,962.267725,9770.718434
663.657638,995.924147,1036.288319,10066.800811
663.657953,995.924147,518.144159,10214.842000
663.658269,612.876398,370.102971,10288.862594
663.658585,842.705048,296.082377,10436.903782
663.658900,766.095498,666.185348,10214.842000
663.659216,1225.752797,592.164754,10140.821405
663.659532,1302.362347,518.144159,9844.739029
663.659847,1378.971896,296.082377,10288.862594
663.660163,2068.457845,444.123565,9548.656652
663.660479,2221.676944,592.164754,9548.656652
663.660794,2528.115143,1110.308913,9030.512492
663.661110,2834.553343,1480.411884,8734.430116
663.661426,3140.991542,2072.576638,8660.409521
663.661741,3447.429741,2516.700203,8808.450710
663.662057,3294.210641,2368.659014,8586.388927
663.662373,3370.820191,2812.782580,8808.450710
663.662689,3447.429741,1850.514855,8956.491898
663.663004,3370.820191,1924.535449,9400.615463
663.663320,3447.429741,2072.576638,9252.574275
663.663636,3524.039291,1776.494261,9252.574275
663.663951,3600.648841,1850.514855,9178.553681
663.664267,3524.039291,2294.638420,9178.553681
663.664583,3600.648841,2442.679609,9104.533087
663.664898,3600.648841,2590.720797,9178.553681
663.665214,3600.648841,2738.761985,9104.533087
663.665530,3830.477490,3108.864956,9178.553681
663.665845,4290.134789,3627.009116,8956.491898
663.666161,3983.696590,3997.112087,8660.409521
663.666477,4213.525239,3923.091493,8660.409521
663.666793,4290.134789,3923.091493,8586.388927
663.667108,3983.696590,3923.091493,8734.430116
663.667424,3983.696590,3997.112087,8808.450710
663.667740,3753.867940,3923.091493,9030.512492
663.668055,3524.039291,3849.070898,9474.636058
663.668371,3370.820191,3775.050304,9400.615463
663.668687,2911.162892,3478.967927,9696.697840
663.669002,2374.896044,3330.926739,9844.739029
663.669318,2374.896044,2960.823768,10140.821405
663.669634,1915.238745,2886.803174,10436.903782
663.669949,2451.505594,2368.659014,10955.047942
663.670265,1608.800546,1998.556043,11177.109724
663.670581,1608.800546,2072.576638,11399.171507
663.670896,1915.238745,2294.638420,11547.212695
663.671212,2221.676944,2960.823768,11029.068536
663.671528,2757.943793,3330.926739,10584.944971
663.671844,3294.210641,4145.153275,9548.656652
663.672159,4213.525239,4737.318029,9326.594869
663.672475,4749.792088,4811.338623,8808.450710
663.672791,4903.011187,4811.338623,8290.306550
663.673106,5362.668486,4219.173869,8512.368333
663.673422,5362.668486,3849.070898,8290.306550
663.673738,3830.477490,3478.967927,8808.450710
663.674053,2987.772442,2886.803174,9474.636058
663.674369,1608.800546,2146.597232,9918.759623
663.674685,766.095498,1628.453072,10214.842000
663.675000,-766.095498,592.164754,10881.027347
663.675316,-1915.238745,-148.041188,11843.295072
663.675632,-2374.896044,-1110.308913,11917.315666
663.675947,-2374.896044,-1924.535449,12583.501014
663.676263,-2451.505594,-1924.535449,12509.480420
663.676579,-2298.286494,-1036.288319,12361.439231
663.676895,-1072.533697,-1110.308913,11251.130318
663.677210,459.657299,444.123565,10362.883188
663.677526,1915.238745,962.267725,8956.491898
663.677842,3753.867940,1850.514855,7920.203579
663.678157,4903.011187,2072.576638,6661.853478
663.678473,5132.839837,2812.782580,6143.709319
663.678789,6052.154434,2368.659014,5847.626942
663.679104,5822.325785,2442.679609,5995.668130
663.679420,5286.058936,1776.494261,6809.894666
663.679736,3830.477490,1036.288319,7328.038826
663.680051,2298.286494,-1110.308913,8512.368333
663.680367,153.219100,-2590.720797,10584.944971
663.680683,-995.924147,-3701.029710,11991.336260
663.680999,-2604.724693,-4219.173869,12879.583391
663.681314,-2834.553343,-3701.029710,13249.686362
663.681630,-3064.381992,-3108.864956,12657.521608
663.681946,-1532.190996,-2368.659014,11917.315666
663.682262,0.000000,-1036.288319,10732.986159
663.682577,1608.800546,-0.000000,8512.368333
663.682893,3217.601092,1110.308913,7105.977043
663.683209,5209.449386,1702.473667,5773.606348
663.683525,6894.859482,1628.453072,4737.318029
663.683840,7507.735880,2442.679609,4663.297435
663.684156,7201.297681,2146.597232,4959.379811
663.684472,6741.640382,1332.370696,5181.441594
663.684788,5209.449386,222.061783,6957.935855
663.685103,3677.258390,-222.061783,9104.533087
663.685419,1532.190996,-1554.432478,10584.944971
663.685735,229.828649,-2146.597232,11769.274478
663.686051,-1072.533697,-1998.556043,11843.295072
663.686366,-1991.848295,-1184.329507,11917.315666
663.686682,-2145.067394,296.082377,11399.171507
663.686998,-1608.800546,814.226536,10362.883188
663.687314,-1149.143247,222.061783,9770.718434
663.687629,0.000000,-222.061783,9770.718434
663.687945,0.000000,-1110.308913,9178.553681
663.688261,536.266849,-666.185348,8956.491898
663.688577,1302.362347,-296.082377,8512.368333
663.688892,2298.286494,740.205942,9178.553681
663.689208,2451.505594,1258.350101,9474.636058
663.689524,2451.505594,740.205942,9770.718434
663.689840,1915.238745,1850.514855,9474.636058
663.690155,1608.800546,2294.638420,9104.533087
663.690471,1302.362347,2886.803174,9252.574275
663.690787,1838.629195,2886.803174,9696.697840
663.691103,1915.238745,2442.679609,9474.636058
663.691418,612.876398,2368.659014,9992.780217
663.691734,306.438199,1480.411884,9992.780217
663.692050,153.219100,370.102971,10436.903782
663.692366,76.609550,222.061783,10510.924376
663.692681,0.000000,-74.020594,10658.965565
663.692997,-612.876398,592.164754,10658.965565
663.693313,-1149.143247,962.267725,10584.944971
663.693629,-1378.971896,1110.308913,9918.759623
663.693944,-1455.581446,1110.308913,9918.759623
663.694260,-919.314598,740.205942,10881.027347
663.694576,-766.095498,370.102971,10510.924376
663.694892,-1608.800546,740.205942,10881.027347
663.695207,-1532.190996,1036.288319,11103.089130
663.695523,-459.657299,1702.473667,10881.027347
663.695839,459.657299,1998.556043,9622.677246
663.696155,1149.143247,2442.679609,9030.512492
663.696470,995.924147,2886.803174,8142.265362
663.696786,1302.362347,2738.761985,7402.059420
663.697102,1915.238745,2664.741391,7179.997637
663.697418,2528.115143,2146.597232,7254.018232
663.697733,1302.362347,814.226536,8142.265362
663.698049,0.000000,-814.226536,9178.553681
663.698365,-1455.581446,-1850.514855,10288.862594
663.698681,-1838.629195,-2294.638420,11917.315666
663.698996,-2451.505594,-1776.494261,12065.356855
663.699312,-2451.505594,-814.226536,11399.171507
663.699628,-2528.115143,296.082377,10807.006753
663.699944,-2451.505594,1184.329507,9992.780217
663.700259,-1149.143247,1332.370696,9030.512492
663.700575,0.000000,814.226536,8734.430116
663.700891,995.924147,-0.000000,8142.265362
663.701207,1608.800546,-518.144159,7994.224174
663.701522,1685.410096,-1480.411884,8364.327145
663.701838,1991.848295,-2516.700203,9030.512492
663.702154,2757.943793,-2146.597232,9252.574275
663.702470,3217.601092,-1406.391290,9178.553681
663.702785,2834.553343,-370.102971,8734.430116
663.703101,2068.457845,296.082377,8364.327145
663.703417,2374.896044,888.247130,7476.080014
663.703733,2068.457845,1406.391290,7476.080014
663.704048,1915.238745,518.144159,8216.285956
663.704364,1302.362347,-518.144159,8586.388927
663.704680,0.000000,-1924.535449,9030.512492
663.704996,-919.314598,-3182.885551,10436.903782
663.705311,-689.485948,-4219.173869,11547.212695
663.705627,-229.828649,-3552.988522,11325.150913
663.705943,0.000000,-2220.617826,11399.171507
663.706259,0.000000,-1332.370696,9770.718434
663.706574,306.438199,-666.185348,9326.594869
663.706890,1378.971896,222.061783,8438.347739
663.707206,2145.067394,-0.000000,8216.285956
663.707522,2604.724693,-518.144159,8438.347739
663.707837,3064.381992,-740.205942,8142.265362
663.708153,1532.190996,-1184.329507,8808.450710
663.708469,1378.971896,-1184.329507,9992.780217
663.708785,1455.581446,-962.267725,9992.780217
663.709100,1149.143247,-222.061783,9696.697840
663.709416,536.266849,444.123565,9400.615463
663.709732,459.657299,814.226536,9030.512492
663.710048,689.485948,666.185348,8808.450710
663.710363,1378.971896,222.061783,8586.388927
663.710679,842.705048,-740.205942,9474.636058
663.710995,383.047749,-1628.453072,9474.636058
663.711311,-995.924147,-1702.473667,9696.697840
663.711626,-1685.410096,-2294.638420,10510.924376
663.711942,-1302.362347,-2368.659014,11029.068536
663.712258,-1685.410096,-1554.432478,11325.150913
663.712574,-2374.896044,-444.123565,10584.944971
663.712889,-2451.505594,-0.000000,9770.718434
663.713205,-1455.581446,740.205942,9474.636058
663.713521,-536.266849,1036.288319,8808.450710
663.713837,459.657299,444.123565,8808.450710
663.714152,229.828649,-0.000000,8956.491898
663.714468,153.219100,-962.267725,9400.615463
663.714784,153.219100,-1258.350101,10362.883188
663.715100,919.314598,-888.247130,10288.862594
663.715415,919.314598,222.061783,9622.677246
663.715731,919.314598,1702.473667,9178.553681
663.716047,689.485948,2368.659014,8290.306550
663.716363,842.705048,2368.659014,8142.265362
663.716678,1302.362347,2368.659014,7994.224174
663.716994,842.705048,1554.432478,8438.347739
663.717310,76.609550,-0.000000,9252.574275
663.717626,-995.924147,-1184.329507,9992.780217
663.717941,-1762.019645,-2368.659014,11621.233289
663.718257,-1991.848295,-2368.659014,11843.295072
663.718573,-1762.019645,-1554.432478,11843.295072
663.718889,-1455.581446,-296.082377,10881.027347
663.719204,-1225.752797,888.247130,9918.759623
663.719520,-229.828649,1628.453072,8660.409521
663.719836,1378.971896,1776.494261,8660.409521
663.720152,2528.115143,1628.453072,7920.203579
663.720467,2911.162892,1184.329507,7846.182985
663.720783,2757.943793,740.205942,7994.224174
663.721099,2374.896044,-74.020594,8882.471304
663.721415,1991.848295,-296.082377,9696.697840
663.721730,1991.848295,296.082377,9844.739029
663.722046,1532.190996,1406.391290,9474.636058
663.722362,842.705048,2072.576638,9474.636058
663.722678,612.876398,1776.494261,9474.636058
663.722993,689.485948,1184.329507,9548.656652
663.723309,842.705048,740.205942,9622.677246
663.723625,995.924147,296.082377,9474.636058
663.723941,383.047749,-518.144159,9474.636058
663.724256,0.000000,-1554.432478,9992.780217
663.724572,0.000000,-1850.514855,10732.986159
663.724888,306.438199,-1332.370696,10584.944971
663.725204,459.657299,-518.144159,10362.883188
663.725519,459.657299,296.082377,9474.636058
663.725835,383.047749,1036.288319,8808.450710
663.726151,1302.362347,1406.391290,8364.327145
663.726467,1838.629195,1110.308913,8438.347739
663.726782,2145.067394,222.061783,8808.450710
663.727098,1532.190996,-592.164754,8882.471304
663.727414,306.438199,-1332.370696,10066.800811
663.727730,689.485948,-2220.617826,10732.986159
663.728045,995.924147,-1628.453072,10881.027347
663.728361,995.924147,-444.123565,10584.944971
663.728677,459.657299,888.247130,9918.759623
663.728993,842.705048,1184.329507,8882.471304
663.729308,995.924147,1258.350101,8290.306550
663.729624,1302.362347,962.267725,8364.327145
663.729940,1455.581446,-296.082377,8734.430116
663.730256,995.924147,-1258.350101,8956.491898
663.730571,229.828649,-2146.597232,9696.697840
663.730887,-766.095498,-2738.761985,10658.965565
663.731203,-766.095498,-2738.761985,10955.047942
663.731519,-1072.533697,-1480.411884,10658.965565
663.731834,-1302.362347,-592.164754,10362.883188
663.732150,-1608.800546,-222.061783,9252.574275
663.732466,-842.705048,296.082377,8808.450710
663.732782,0.000000,518.144159,8734.430116
663.733097,306.438199,-74.020594,8882.471304
663.733413,536.266849,-1258.350101,8808.450710
663.733729,0.000000,-1924.535449,8956.491898
663.734045,0.000000,-2442.679609,9918.759623
663.734360,153.219100,-2072.576638,10066.800811
663.734676,153.219100,-1110.308913,9770.718434
663.734992,-153.219100,-148.041188,9178.553681
663.735308,-459.657299,592.164754,8808.450710
663.735623,-383.047749,740.205942,8512.368333
663.735939,153.219100,592.164754,8142.265362
663.736255,689.485948,-0.000000,8734.430116
663.736571,612.876398,-518.144159,8956.491898
663.736886,-306.438199,-1406.391290,8956.491898
663.737202,-995.924147,-2294.638420,10140.821405
663.737518,-842.705048,-2368.659014,10955.047942
663.737834,-689.485948,-1628.453072,10658.965565
663.738149,-995.924147,-962.267725,9992.780217
663.738465,-306.438199,518.144159,8882.471304
663.738781,-229.828649,1110.308913,8216.285956
663.739097,306.438199,1110.308913,8142.265362
663.739412,1378.971896,814.226536,8142.265362
663.739728,1378.971896,222.061783,8586.388927
663.740044,919.314598,-962.267725,9030.512492
663.740360,689.485948,-1998.556043,10140.821405
663.740675,689.485948,-2146.597232,10584.944971
663.740991,1762.019645,-1332.370696,10584.944971
663.741307,1302.362347,296.082377,10140.821405
663.741623,919.314598,1850.514855,9400.615463
663.741938,766.095498,2442.679609,8734.430116
663.742254,1762.019645,2664.741391,8216.285956
663.742570,2604.724693,2146.597232,8438.347739
663.742886,2298.286494,1110.308913,8882.471304
663.743201,1608.800546,-148.041188,9252.574275
663.743517,995.924147,-1628.453072,10214.842000
663.743833,383.047749,-2072.576638,11103.089130
663.744149,842.705048,-1998.556043,11103.089130
663.744464,383.047749,-444.123565,10584.944971
663.744780,0.000000,1036.288319,10658.965565
663.745096,-536.266849,1406.391290,9622.677246
663.745412,229.828649,1628.453072,9400.615463
663.745727,536.266849,962.267725,9252.574275
663.746043,842.705048,370.102971,9474.636058
663.746359,842.705048,-592.164754,9104.533087
663.746675,612.876398,-1332.370696,9770.718434
663.746990,383.047749,-2294.638420,10732.986159
663.747306,536.266849,-1480.411884,10584.944971
663.747622,766.095498,-74.020594,10066.800811
663.747938,459.657299,1184.329507,9400.615463
663.748253,383.047749,1776.494261,8808.450710
663.748569,1072.533697,1998.556043,8290.306550
663.748885,1302.362347,1850.514855,7920.203579
663.749201,1455.581446,666.185348,8216.285956
663.749516,689.485948,-74.020594,8882.471304
663.749832,-153.219100,-1036.288319,9400.615463
663.750148,-995.924147,-2072.576638,10584.944971
663.750464,-995.924147,-1776.494261,10955.047942
663.750779,-995.924147,-888.247130,10881.027347
663.751095,-1991.848295,-0.000000,9992.780217
663.751411,-1149.143247,-0.000000,9770.718434
663.751727,-1378.971896,-0.000000,9548.656652
663.752042,-689.485948,740.205942,9104.533087
663.752358,306.438199,-370.102971,8734.430116
663.752674,766.095498,-518.144159,9326.594869
663.752990,306.438199,-1184.329507,8882.471304
663.753305,306.438199,-1850.514855,9548.656652
663.753621,1225.752797,-1924.535449,10436.903782
663.753937,1225.752797,-1184.329507,9622.677246
663.754253,995.924147,444.123565,9474.636058
663.754568,1149.143247,814.226536,8290.306550
663.754884,995.924147,1702.473667,8290.306550
663.755200,1532.190996,1628.453072,7846.182985
663.755516,1608.800546,962.267725,8216.285956
663.755831,1225.752797,-296.082377,9030.512492
663.756147,306.438199,-1702.473667,9474.636058
663.756463,-383.047749,-2738.761985,10214.842000
663.756779,-306.438199,-2960.823768,11325.150913
663.757094,-689.485948,-2442.679609,11177.109724
663.757410,-842.705048,-1480.411884,10436.903782
663.757726,-612.876398,-296.082377,9918.759623
663.758042,-1149.143247,222.061783,9178.553681
663.758357,-383.047749,592.164754,8660.409521
663.758673,689.485948,370.102971,8808.450710
663.758989,1378.971896,-296.082377,8882.471304
663.759305,919.314598,-592.164754,8438.347739
663.759620,919.314598,-1480.411884,9400.615463
663.759936,995.924147,-1850.514855,10066.800811
663.760252,1608.800546,-1406.391290,10214.842000
663.760568,1838.629195,-0.000000,9696.697840
663.760883,1302.362347,1258.350101,8734.430116
663.761199,842.705048,1554.432478,8216.285956
663.761515,1685.410096,1850.514855,7994.224174
663.761831,2068.457845,1554.432478,8068.244768
663.762146,1608.800546,518.144159,8512.368333
663.762462,766.095498,-666.185348,8956.491898
663.762778,0.000000,-1924.535449,9992.780217
663.763094,-536.266849,-2516.700203,11177.109724
663.763409,-612.876398,-2220.617826,11177.109724
663.763725,-842.705048,-962.267725,11029.068536
663.764041,-995.924147,-0.000000,10436.903782
663.764357,-1225.752797,444.123565,9696.697840
663.764672,-536.266849,1036.288319,9178.553681
663.764988,383.047749,1036.288319,9178.553681
663.765304,1225.752797,296.082377,8882.471304
663.765620,1762.019645,148.041188,9178.553681
663.765935,1072.533697,-148.041188,9178.553681
663.766251,1225.752797,-962.267725,10362.883188
663.766567,1991.848295,-1036.288319,10140.821405
663.766883,1991.848295,-0.000000,9844.739029
663.767198,1455.581446,1554.432478,9326.594869
663.767514,1072.533697,2294.638420,8734.430116
663.767830,1302.362347,2072.576638,8438.347739
663.768146,1838.629195,2220.617826,8364.327145
663.768461,1685.410096,1628.453072,8734.430116
663.768777,919.314598,518.144159,9178.553681
663.769093,0.000000,-814.226536,9696.697840
663.769409,-766.095498,-2072.576638,10732.986159
663.769724,-766.095498,-2294.638420,11473.192101
663.770040,-689.485948,-1184.329507,11547.212695
663.770356,-919.314598,-0.000000,10881.027347
663.770672,-1302.362347,740.205942,9770.718434
663.770987,-842.705048,962.267725,9104.533087
663.771303,229.828649,1036.288319,9104.533087
663.771619,766.095498,814.226536,9104.533087
663.771935,1302.362347,-0.000000,9030.512492
663.772250,1072.533697,-370.102971,8660.409521
663.772566,919.314598,-1110.308913,9548.656652
663.772882,1302.362347,-1480.411884,10066.800811
663.773198,1685.410096,-518.144159,9918.759623
663.773513,1072.533697,1036.288319,9252.574275
663.773829,1149.143247,1924.535449,8734.430116
663.774145,919.314598,1924.535449,8660.409521
663.774461,1532.190996,2072.576638,8660.409521
663.774776,1149.143247,1406.391290,8068.244768
663.775092,995.924147,370.102971,9178.553681
663.775408,306.438199,-962.267725,9326.594869
663.775724,-536.266849,-2220.617826,10362.883188
663.776039,-919.314598,-2294.638420,11251.130318
663.776355,-842.705048,-1776.494261,11103.089130
663.776671,-689.485948,-814.226536,10658.965565
663.776987,-1225.752797,-0.000000,10066.800811
663.777302,-995.924147,-0.000000,9622.677246
663.777618,0.000000,296.082377,9104.533087
663.777934,383.047749,-0.000000,8956.491898
663.778250,1225.752797,-296.082377,8660.409521
663.778565,1302.362347,-740.205942,9030.512492
663.778881,766.095498,-1110.308913,8956.491898
663.779197,1838.629195,-1850.514855,10066.800811
663.779513,1685.410096,-1554.432478,9992.780217
663.779828,1608.800546,-296.082377,9474.636058
663.780144,1302.362347,370.102971,8882.471304
663.780460,1225.752797,1036.288319,8734.430116
663.780776,1072.533697,1036.288319,8438.347739
663.781091,1455.581446,518.144159,8586.388927
663.781407,1762.019645,-74.020594,8586.388927
663.781723,842.705048,-1110.308913,9400.615463
663.782039,0.000000,-2072.576638,9992.780217
663.782355,0.000000,-2812.782580,10807.006753
663.782670,-459.657299,-2368.659014,11177.109724
663.782986,-383.047749,-1258.350101,11029.068536
663.783302,-766.095498,-148.041188,9918.759623
663.783618,-1149.143247,148.041188,9252.574275
663.783934,-459.657299,740.205942,8956.491898
663.784249,536.266849,592.164754,8438.347739
663.784565,1302.362347,-0.000000,8808.450710
663.784881,1072.533697,-0.000000,8660.409521
663.785197,612.876398,-1184.329507,9326.594869
663.785512,1072.533697,-1998.556043,10288.862594
663.785828,919.314598,-1554.432478,10214.842000
663.786144,689.485948,-962.267725,9918.759623
663.786460,1225.752797,296.082377,9696.697840
663.786776,612.876398,1184.329507,8882.471304
663.787091,459.657299,1332.370696,8216.285956
663.787407,1072.533697,1480.411884,8290.306550
663.787723,1225.752797,814.226536,8290.306550
663.788039,766.095498,-148.041188,8956.491898
663.788355,0.000000,-1258.350101,9400.615463
663.788670,-842.705048,-2516.700203,10436.903782
663.788986,-919.314598,-2442.679609,11399.171507
663.789302,-612.876398,-1924.535449,10436.903782
663.789618,-1072.533697,-592.164754,10214.842000
663.789934,-995.924147,370.102971,9474.636058
663.790249,-1149.143247,666.185348,8882.471304
663.790565,0.000000,1036.288319,8660.409521
663.790881,612.876398,518.144159,8512.368333
663.791197,1149.143247,-148.041188,8956.491898
663.791513,459.657299,-740.205942,8956.491898
663.791828,536.266849,-1702.473667,9770.718434
663.792144,612.876398,-1702.473667,10288.862594
663.792460,536.266849,-1110.308913,10362.883188
663.792776,1072.533697,-0.000000,9548.656652
663.793091,383.047749,1554.432478,8882.471304
663.793407,383.047749,1924.535449,8512.368333
663.793723,766.095498,1850.514855,8364.327145
663.794039,1225.752797,1258.350101,8808.450710
663.794355,919.314598,592.164754,8882.471304
663.794670,0.000000,-444.123565,9326.594869
663.794986,-536.266849,-1480.411884,10140.821405
663.795302,-459.657299,-1998.556043,11103.089130
663.795618,-459.657299,-1332.370696,11251.130318
663.795934,-536.266849,-370.102971,10732.986159
663.796249,-1072.533697,518.144159,9918.759623
663.796565,-919.314598,962.267725,9326.594869
663.796881,0.000000,1258.350101,8882.471304
663.797197,536.266849,1406.391290,8808.450710
663.797513,1149.143247,666.185348,8808.450710
663.797828,995.924147,-0.000000,9178.553681
663.798144,842.705048,-1110.308913,9844.739029
663.798460,689.485948,-1480.411884,10436.903782
663.798776,1072.533697,-1332.370696,10510.924376
663.799092,995.924147,-0.000000,9918.759623
663.799407,919.314598,1406.391290,9178.553681
663.799723,766.095498,1776.494261,8956.491898
663.800039,1225.752797,2146.597232,8586.388927
663.800355,1838.629195,1998.556043,7994.224174
663.800670,1685.410096,962.267725,8586.388927
663.800986,995.924147,-0.000000,9178.553681
663.801302,459.657299,-888.247130,9696.697840
663.801618,0.000000,-2146.597232,11103.089130
663.801934,153.219100,-1998.556043,10955.047942
663.802249,76.609550,-1258.350101,10732.986159
663.802565,-153.219100,-296.082377,10214.842000
663.802881,-536.266849,814.226536,9474.636058
663.803197,0.000000,1184.329507,9030.512492
663.803513,1072.533697,1332.370696,8364.327145
663.803828,1532.190996,740.205942,8512.368333
663.804144,1685.410096,-222.061783,8956.491898
663.804460,919.314598,-814.226536,8808.450710
663.804776,612.876398,-1850.514855,9918.759623
663.805092,1225.752797,-2072.576638,10510.924376
663.805407,1302.362347,-814.226536,9918.759623
663.805723,1225.752797,518.144159,9178.553681
663.806039,1149.143247,1184.329507,8660.409521
663.806355,1072.533697,1628.453072,8364.327145
663.806671,1225.752797,1776.494261,8142.265362
663.806986,1532.190996,888.247130,8438.347739
663.807302,1072.533697,-148.041188,8512.368333
663.807618,0.000000,-1332.370696,9252.574275
663.807934,-459.657299,-2368.659014,10288.862594
663.808249,-383.047749,-2960.823768,11325.150913
663.808565,-1149.143247,-2368.659014,11473.192101
663.808881,-919.314598,-814.226536,10584.944971
663.809197,-1455.581446,-0.000000,9696.697840
663.809513,-919.314598,370.102971,9252.574275
663.809828,-306.438199,592.164754,8734.430116
663.810144,0.000000,592.164754,8734.430116
663.810460,689.485948,-296.082377,8882.471304
663.810776,76.609550,-1110.308913,9104.533087
663.811092,-383.047749,-2220.617826,9844.739029
663.811407,612.876398,-2220.617826,10436.903782
663.811723,766.095498,-1406.391290,10066.800811
663.812039,612.876398,-370.102971,9770.718434
663.812355,153.219100,666.185348,9030.512492
663.812671,306.438199,814.226536,8512.368333
663.812986,689.485948,1184.329507,8512.368333
663.813302,1302.362347,666.185348,8512.368333
663.813618,1072.533697,222.061783,8660.409521
663.813934,1072.533697,-962.267725,9030.512492
663.814249,-153.219100,-2146.597232,10140.821405
663.814565,-536.266849,-2664.741391,10584.944971
663.814881,-306.438199,-2442.679609,10732.986159
663.815197,-383.047749,-1184.329507,10584.944971
663.815513,-766.095498,-148.041188,10066.800811
663.815828,-459.657299,-0.000000,9252.574275
663.816144,0.000000,666.185348,8734.430116
663.816460,766.095498,814.226536,8512.368333
663.816776,1455.581446,296.082377,8512.368333
663.817092,1608.800546,-370.102971,8882.471304
663.817407,995.924147,-1480.411884,9104.533087
663.817723,1072.533697,-1406.391290,10066.800811
663.818039,1225.752797,-1258.350101,10140.821405
663.818355,1532.190996,-444.123565,9696.697840
663.818671,1455.581446,814.226536,9178.553681
663.818986,1149.143247,1258.350101,8882.471304
663.819302,1455.581446,1628.453072,8216.285956
663.819618,1838.629195,1776.494261,7994.224174
663.819934,2068.457845,1184.329507,8586.388927
663.820250,1378.971896,-0.000000,8956.491898
663.820565,153.219100,-888.247130,9474.636058
663.820881,0.000000,-1480.411884,10658.965565
663.821197,-306.438199,-1702.473667,10955.047942
663.821513,0.000000,-1110.308913,10955.047942
663.821828,-842.705048,-296.082377,10288.862594
663.822144,-995.924147,444.123565,9770.718434
663.822460,-612.876398,814.226536,9326.594869
663.822776,306.438199,888.247130,9030.512492
663.823092,1072.533697,740.205942,9104.533087
663.823407,919.314598,370.102971,9400.615463
663.823723,689.485948,-962.267725,9326.594869
663.824039,383.047749,-1406.391290,10510.924376
663.824355,1225.752797,-1332.370696,10510.924376
663.824671,1532.190996,-148.041188,10066.800811
663.824986,1455.581446,1036.288319,9400.615463
663.825302,1072.533697,1702.473667,8586.388927
663.825618,1072.533697,1924.535449,8438.347739
663.825934,1225.752797,1850.514855,8290.306550
663.826250,1915.238745,1332.370696,8438.347739
663.826565,1302.362347,296.082377,9474.636058
663.826881,76.609550,-592.164754,9400.615463
663.827197,-766.095498,-1332.370696,10658.965565
663.827513,-689.485948,-2220.617826,11325.150913
663.827829,-612.876398,-1850.514855,11103.089130
663.828144,-1225.752797,-296.082377,10881.027347
663.828460,-1149.143247,-0.000000,10362.883188
663.828776,-842.705048,518.144159,9474.636058
663.829092,-459.657299,888.247130,8882.471304
663.829407,383.047749,740.205942,8956.491898
663.829723,919.314598,-0.000000,9104.533087
663.830039,536.266849,-370.102971,9104.533087
663.830355,383.047749,-1332.370696,9474.636058
663.830671,766.095498,-1776.494261,9992.780217
663.830986,1532.190996,-888.247130,10288.862594
663.831302,1225.752797,222.061783,9400.615463
663.831618,1149.143247,1036.288319,8586.388927
663.831934,1072.533697,1776.494261,8586.388927
663.832250,1685.410096,1406.391290,8364.327145
663.832565,1762.019645,1258.350101,7698.141797
663.832881,1915.238745,814.226536,8660.409521
663.833197,766.095498,-370.102971,8660.409521
663.833513,0.000000,-1406.391290,9992.780217
663.833829,0.000000,-2220.617826,10288.862594
663.834144,-459.657299,-1998.556043,11029.068536
663.834460,-459.657299,-1406.391290,10732.986159
663.834776,-919.314598,-740.205942,10140.821405
663.835092,-689.485948,-0.000000,9474.636058
663.835407,-229.828649,444.123565,8956.491898
663.835723,766.095498,888.247130,8808.450710
663.836039,1378.971896,592.164754,8438.347739
663.836355,995.924147,296.082377,8660.409521
663.836671,1149.143247,-814.226536,9400.615463
663.836986,995.924147,-1628.453072,10066.800811
663.837302,1378.971896,-1406.391290,10140.821405
663.837618,1685.410096,-370.102971,9696.697840
663.837934,1532.190996,962.267725,9030.512492
663.838250,1532.190996,1184.329507,8586.388927
663.838565,1378.971896,1480.411884,8512.368333
663.838881,1532.190996,1702.473667,7920.203579
663.839197,1455.581446,1110.308913,8364.327145
663.839513,919.314598,-296.082377,9178.553681
663.839829,76.609550,-1554.432478,9992.780217
663.840144,-842.705048,-2738.761985,11103.089130
663.840460,-842.705048,-2442.679609,11251.130318
663.840776,-766.095498,-1998.556043,11029.068536
663.841092,-689.485948,-666.185348,10732.986159
663.841408,-1225.752797,222.061783,9548.656652
663.841723,-919.314598,444.123565,9326.594869
663.842039,76.609550,666.185348,9252.574275
663.842355,536.266849,370.102971,9030.512492
663.842671,1072.533697,-0.000000,9030.512492
663.842986,689.485948,-1036.288319,9104.533087
663.843302,766.095498,-1776.494261,9622.677246
663.843618,612.876398,-1628.453072,10510.924376
663.843934,919.314598,-888.247130,10140.821405
663.844250,919.314598,592.164754,9400.615463
663.844565,689.485948,1258.350101,9030.512492
663.844881,536.266849,1332.370696,8734.430116
663.845197,919.314598,1554.432478,8808.450710
663.845513,995.924147,1184.329507,8660.409521
663.845829,689.485948,74.020594,9178.553681
663.846144,-383.047749,-666.185348,9400.615463
663.846460,-1302.362347,-2146.597232,10362.883188
663.846776,-1225.752797,-2368.659014,10955.047942
663.847092,-1072.533697,-2072.576638,11029.068536
663.847408,-612.876398,-962.267725,10807.006753
663.847723,-1378.971896,-0.000000,9918.759623
663.848039,-1072.533697,592.164754,9474.636058
663.848355,0.000000,740.205942,8882.471304
663.848671,383.047749,962.267725,8512.368333
663.848987,1149.143247,296.082377,9252.574275
663.849302,919.314598,-814.226536,8808.450710
663.849618,306.438199,-1480.411884,9400.615463
663.849934,1072.533697,-1776.494261,10214.842000
663.850250,1225.752797,-1184.329507,9918.759623
663.850565,1455.581446,222.061783,9474.636058
663.850881,919.314598,1184.329507,8734.430116
663.851197,612.876398,1258.350101,8364.327145
663.851513,919.314598,1258.350101,8290.306550
663.851829,1608.800546,962.267725,7994.224174
663.852144,1838.629195,518.144159,8512.368333
663.852460,995.924147,-740.205942,8734.430116
663.852776,-306.438199,-1850.514855,9918.759623
663.853092,-612.876398,-2368.659014,10732.986159
663.853408,0.000000,-1850.514855,10732.986159
663.853723,-153.219100,-1258.350101,10510.924376
663.854039,-383.047749,-370.102971,10066.800811
663.854355,-536.266849,-74.020594,9474.636058
663.854671,-306.438199,444.123565,9326.594869
663.854987,766.095498,814.226536,8956.491898
663.855302,1302.362347,666.185348,8660.409521
663.855618,1225.752797,-0.000000,8586.388927
663.855934,842.705048,-814.226536,9104.533087
663.856250,842.705048,-1850.514855,10140.821405
663.856565,1455.581446,-1554.432478,10288.862594
663.856881,1455.581446,-444.123565,9992.780217
663.857197,1072.533697,592.164754,9326.594869
663.857513,919.314598,1554.432478,8734.430116
663.857829,1072.533697,1628.453072,8734.430116
663.858144,1378.971896,1702.473667,8142.265362
663.858460,1532.190996,1554.432478,8290.306550
663.858776,689.485948,370.102971,8882.471304
663.859092,-229.828649,-888.247130,9622.677246
663.859408,-766.095498,-1628.453072,10955.047942
663.859723,-536.266849,-1998.556043,11103.089130
663.860039,-766.095498,-1036.288319,11177.109724
663.860355,-842.705048,-222.061783,10584.944971
663.860671,-1149.143247,222.061783,9622.677246
663.860987,-1072.533697,592.164754,9696.697840
663.861302,0.000000,814.226536,8882.471304
663.861618,612.876398,888.247130,8956.491898
663.861934,995.924147,592.164754,9030.512492
663.862250,536.266849,-592.164754,9252.574275
663.862566,383.047749,-1480.411884,10214.842000
663.862881,919.314598,-1702.473667,10584.944971
663.863197,1225.752797,-1184.329507,10288.862594
663.863513,1532.190996,-0.000000,9474.636058
663.863829,1149.143247,1184.329507,9030.512492
663.864144,1072.533697,1406.391290,8882.471304
663.864460,1762.019645,1924.535449,8438.347739
663.864776,2298.286494,2072.576638,7920.203579
663.865092,1455.581446,1036.288319,8364.327145
663.865408,306.438199,-296.082377,9030.512492
663.865723,-536.266849,-1998.556043,9918.759623
663.866039,-306.438199,-2516.700203,10955.047942
663.866355,-536.266849,-2368.659014,11103.089130
663.866671,-612.876398,-1332.370696,11103.089130
663.866987,-1149.143247,-444.123565,10288.862594
663.867302,-1225.752797,296.082377,9696.697840
663.867618,-459.657299,740.205942,9030.512492
663.867934,766.095498,1332.370696,8364.327145
663.868250,766.095498,666.185348,8586.388927
663.868566,995.924147,-592.164754,8956.491898
663.868881,689.485948,-1406.391290,9326.594869
663.869197,995.924147,-1850.514855,9918.759623
663.869513,1302.362347,-1406.391290,9992.780217
663.869829,1762.019645,-296.082377,9622.677246
663.870145,1455.581446,962.267725,8956.491898
663.870460,842.705048,1628.453072,8364.327145
663.870776,1378.971896,2072.576638,8364.327145
663.871092,1838.629195,1850.514855,8068.244768
663.871408,1762.019645,1258.350101,8512.368333
663.871723,995.924147,-0.000000,9326.594869
663.872039,0.000000,-1258.350101,9770.718434
663.872355,-306.438199,-1702.473667,10584.944971
663.872671,-689.485948,-1850.514855,10732.986159
663.872987,-153.219100,-1628.453072,10881.027347
663.873302,-1072.533697,-148.041188,10362.883188
663.873618,-1302.362347,666.185348,9548.656652
663.873934,-766.095498,814.226536,9474.636058
663.874250,0.000000,962.267725,9326.594869
663.874566,766.095498,370.102971,9178.553681
663.874881,766.095498,-518.144159,9104.533087
663.875197,0.000000,-1480.411884,9622.677246
663.875513,536.266849,-2368.659014,10288.862594
663.875829,1072.533697,-1998.556043,10510.924376
663.876145,842.705048,-1406.391290,10140.821405
663.876460,1455.581446,296.082377,9474.636058
663.876776,1149.143247,1480.411884,8512.368333
663.877092,1225.752797,1554.432478,7994.224174
663.877408,1532.190996,1628.453072,8068.244768
663.877724,1838.629195,1036.288319,8586.388927
663.878039,1225.752797,-444.123565,8734.430116
663.878355,229.828649,-1702.473667,9548.656652
663.878671,-459.657299,-2664.741391,10732.986159
663.878987,-919.314598,-2738.761985,11103.089130
663.879302,-842.705048,-2146.597232,11103.089130
663.879618,-995.924147,-1184.329507,10732.986159
663.879934,-1532.190996,-222.061783,9992.780217
663.880250,-1378.971896,-74.020594,9844.739029
663.880566,-842.705048,-148.041188,9252.574275
663.880881,306.438199,-74.020594,8808.450710
663.881197,842.705048,-0.000000,9104.533087
663.881513,766.095498,-740.205942,8660.409521
663.881829,842.705048,-1406.391290,9474.636058
663.882145,995.924147,-1258.350101,9918.759623
663.882460,1608.800546,-888.247130,9622.677246
663.882776,1225.752797,444.123565,9252.574275
663.883092,1225.752797,1332.370696,8660.409521
663.883408,1149.143247,1480.411884,8142.265362
663.883724,1762.019645,1776.494261,7920.203579
663.884039,2068.457845,1554.432478,8364.327145
663.884355,1762.019645,740.205942,8068.244768
663.884671,536.266849,-444.123565,8660.409521
663.884987,-153.219100,-1850.514855,9844.739029
663.885303,-689.485948,-2960.823768,10732.986159
663.885619,-612.876398,-2220.617826,11029.068536
663.885934,-995.924147,-1480.411884,10807.006753
663.886250,-995.924147,-592.164754,9918.759623
663.886566,-1149.143247,296.082377,9178.553681
663.886882,0.000000,666.185348,8660.409521
663.887198,689.485948,518.144159,8660.409521
663.887513,995.924147,222.061783,8660.409521
663.887829,766.095498,-296.082377,8808.450710
663.888145,612.876398,-1406.391290,9400.615463
663.888461,1225.752797,-1480.411884,9844.739029
663.888777,1455.581446,-1110.308913,10214.842000
663.889092,1378.971896,-296.082377,9844.739029
663.889408,1302.362347,1184.329507,9400.615463
663.889724,1149.143247,1702.473667,8586.388927
663.890040,1225.752797,2516.700203,7994.224174
663.890356,1608.800546,1998.556043,8142.265362
663.890671,1685.410096,1332.370696,8438.347739
663.890987,919.314598,148.041188,9252.574275
663.891303,-229.828649,-1184.329507,10214.842000
663.891619,-995.924147,-2294.638420,11399.171507
663.891935,-919.314598,-1998.556043,11251.130318
663.892251,-995.924147,-1036.288319,11325.150913
663.892566,-1302.362347,-592.164754,10732.986159
663.892882,-1225.752797,296.082377,10140.821405
663.893198,-1225.752797,1110.308913,10140.821405
663.893514,-306.438199,444.123565,9400.615463
663.893830,153.219100,592.164754,9400.615463
663.894145,612.876398,148.041188,9252.574275
663.894461,383.047749,-962.267725,9474.636058
663.894777,383.047749,-1110.308913,10362.883188
663.895093,919.314598,-1184.329507,10584.944971
663.895409,1838.629195,-370.102971,9992.780217
663.895724,1608.800546,888.247130,9252.574275
663.896040,1302.362347,1702.473667,8364.327145
663.896356,1685.410096,1406.391290,8068.244768
663.896672,1915.238745,2072.576638,7698.141797
663.896988,2145.067394,1480.411884,8364.327145
663.897303,1455.581446,666.185348,8734.430116
663.897619,459.657299,-1480.411884,9252.574275
663.897935,-153.219100,-1998.556043,10658.965565
663.898251,-459.657299,-2368.659014,11251.130318
663.898567,-459.657299,-1776.494261,11029.068536
663.898883,-306.438199,-370.102971,10436.903782
663.899198,-919.314598,-222.061783,9918.759623
663.899514,-612.876398,666.185348,9030.512492
663.899830,0.000000,740.205942,8660.409521
663.900146,459.657299,666.185348,8364.327145
663.900462,919.314598,-148.041188,8734.430116
663.900777,995.924147,-1036.288319,9178.553681
663.901093,612.876398,-1776.494261,9548.656652
663.901409,766.095498,-1924.535449,10066.800811
663.901725,1915.238745,-962.267725,9918.759623
663.902041,1762.019645,-0.000000,9474.636058
663.902356,1378.971896,1184.329507,8660.409521
663.902672,1302.362347,1924.535449,7994.224174
663.902988,1608.800546,1776.494261,8068.244768
663.903304,1838.629195,1184.329507,8216.285956
663.903620,1149.143247,518.144159,8364.327145
663.903935,612.876398,-444.123565,8956.491898
663.904251,-306.438199,-1628.453072,9622.677246
663.904567,-1072.533697,-2146.597232,10584.944971
663.904883,-842.705048,-2072.576638,10881.027347
663.905199,-995.924147,-1332.370696,11029.068536
663.905515,-1455.581446,-0.000000,10362.883188
663.905830,-1991.848295,-370.102971,9548.656652
663.906146,-766.095498,518.144159,9252.574275
663.906462,0.000000,592.164754,8956.491898
663.906778,383.047749,-74.020594,9400.615463
663.907094,306.438199,-518.144159,9326.594869
663.907409,-383.047749,-1628.453072,9622.677246
663.907725,0.000000,-2220.617826,10584.944971
663.908041,459.657299,-1702.473667,10436.903782
663.908357,1149.143247,-296.082377,10214.842000
663.908673,1072.533697,370.102971,9474.636058
663.908988,1149.143247,1628.453072,8586.388927
663.909304,1378.971896,1406.391290,8290.306550
663.909620,1915.238745,1480.411884,8068.244768
663.909936,2068.457845,1332.370696,8290.306550
663.910252,1378.971896,296.082377,8586.388927
663.910568,383.047749,-1036.288319,9474.636058
663.910883,0.000000,-2368.659014,10658.965565
663.911199,-153.219100,-2368.659014,11103.089130
663.911515,-536.266849,-2146.597232,11029.068536
663.911831,-1072.533697,-1332.370696,10584.944971
663.912147,-1302.362347,-0.000000,10362.883188
663.912462,-919.314598,370.102971,9548.656652
663.912778,-306.438199,888.247130,9030.512492
663.913094,459.657299,592.164754,8956.491898
663.913410,459.657299,-222.061783,8956.491898
663.913726,536.266849,-1184.329507,9030.512492
663.914041,459.657299,-1998.556043,10140.821405
663.914357,995.924147,-2146.597232,9992.780217
663.914673,1608.800546,-1258.350101,10066.800811
663.914989,1532.190996,148.041188,9252.574275
663.915305,1532.190996,666.185348,8734.430116
663.915620,1225.752797,1332.370696,7994.224174
663.915936,1762.019645,1998.556043,8216.285956
663.916252,1915.238745,1406.391290,8290.306550
663.916568,1532.190996,592.164754,8660.409521
663.916884,689.485948,-740.205942,9400.615463
663.917200,-153.219100,-1850.514855,10140.821405
663.917515,-153.219100,-2072.576638,10881.027347
663.917831,-229.828649,-1628.453072,10881.027347
663.918147,-689.485948,-888.247130,10658.965565
663.918463,-1072.533697,-518.144159,9770.718434
663.918779,-612.876398,-0.000000,9622.677246
663.919094,229.828649,666.185348,8956.491898
663.919410,766.095498,518.144159,8882.471304
663.919726,1378.971896,370.102971,8808.450710
663.920042,1302.362347,-888.247130,9030.512492
663.920358,919.314598,-1110.308913,9548.656652
663.920673,1072.533697,-1258.350101,9992.780217
663.920989,1838.629195,-814.226536,9770.718434
663.921305,1838.629195,-0.000000,9326.594869
663.921621,1608.800546,1258.350101,8956.491898
663.921937,1455.581446,1184.329507,8660.409521
663.922252,1838.629195,1702.473667,8438.347739
663.922568,1685.410096,1406.391290,8068.244768
663.922884,1302.362347,888.247130,8512.368333
663.923200,1072.533697,-74.020594,8956.491898
663.923516,-306.438199,-1184.329507,10066.800811
663.923832,-689.485948,-2072.576638,10807.006753
663.924147,-612.876398,-1998.556043,10955.047942
663.924463,-1225.752797,-1258.350101,10807.006753
663.924779,-1762.019645,-296.082377,10658.965565
663.925095,-2221.676944,-0.000000,10288.862594
663.925411,-1072.533697,888.247130,9326.594869
663.925726,-229.828649,1258.350101,9104.533087
663.926042,306.438199,888.247130,8882.471304
663.926358,0.000000,-0.000000,9622.677246
663.926674,153.219100,-518.144159,9474.636058
663.926990,536.266849,-1258.350101,10288.862594
663.927305,919.314598,-1258.350101,10066.800811
663.927621,1455.581446,-0.000000,10066.800811
663.927937,1455.581446,740.205942,9474.636058
663.928253,1072.533697,1554.432478,8660.409521
663.928569,1072.533697,1924.535449,8438.347739
663.928885,1762.019645,2146.597232,8142.265362
663.929200,1685.410096,1628.453072,8216.285956
663.929516,995.924147,370.102971,8660.409521
663.929832,0.000000,-962.267725,9622.677246
663.930148,-612.876398,-2220.617826,10881.027347
663.930464,-689.485948,-2368.659014,11547.212695
663.930779,-995.924147,-1998.556043,11251.130318
663.931095,-1149.143247,-1036.288319,10807.006753
663.931411,-1838.629195,-74.020594,10362.883188
663.931727,-995.924147,370.102971,9622.677246
663.932043,0.000000,666.185348,9178.553681
663.932358,842.705048,518.144159,9178.553681
663.932674,842.705048,-0.000000,9030.512492
663.932990,919.314598,-666.185348,9104.533087
663.933306,842.705048,-1702.473667,9622.677246
663.933622,1378.971896,-1554.432478,10066.800811
663.933937,1685.410096,-888.247130,9770.718434
663.934253,1762.019645,-0.000000,9548.656652
663.934569,1225.752797,1258.350101,8660.409521
663.934885,1302.362347,1850.514855,8068.244768
663.935201,1991.848295,1628.453072,7624.121203
663.935517,2374.896044,1036.288319,7994.224174
663.935832,1532.190996,740.205942,8216.285956
663.936148,842.705048,-814.226536,8808.450710
663.936464,0.000000,-2072.576638,9918.759623
663.936780,-306.438199,-2590.720797,11251.130318
663.937096,-383.047749,-2220.617826,11177.109724
663.937411,-995.924147,-1406.391290,10955.047942
663.937727,-1532.190996,-296.082377,10066.800811
663.938043,-1378.971896,-0.000000,9548.656652
663.938359,-383.047749,518.144159,9104.533087
663.938675,0.000000,444.123565,8512.368333
663.938990,383.047749,-222.061783,9104.533087
663.939306,383.047749,-1332.370696,9030.512492
663.939622,383.047749,-1776.494261,9622.677246
663.939938,612.876398,-2146.597232,10362.883188
663.940254,1455.581446,-1332.370696,10436.903782
663.940569,1608.800546,-370.102971,9548.656652
663.940885,919.314598,1036.288319,8586.388927
663.941201,1072.533697,1628.453072,8068.244768
663.941517,1532.190996,1258.350101,7994.224174
663.941833,1455.581446,1110.308913,7920.203579
663.942149,1302.362347,148.041188,8364.327145
663.942464,383.047749,-666.185348,9104.533087
663.942780,-459.657299,-1702.473667,10066.800811
663.943096,-536.266849,-2294.638420,10807.006753
663.943412,-766.095498,-1998.556043,10955.047942
663.943728,-1072.533697,-1628.453072,10732.986159
663.944043,-1455.581446,-444.123565,10362.883188
663.944359,-1608.800546,-74.020594,9770.718434
663.944675,-1302.362347,-0.000000,9696.697840
663.944991,-306.438199,518.144159,9400.615463
663.945307,306.438199,296.082377,9104.533087
663.945622,459.657299,-0.000000,8808.450710
663.945938,306.438199,-1258.350101,9400.615463
663.946254,383.047749,-1406.391290,9918.759623
663.946570,1072.533697,-962.267725,9918.759623
663.946886,1302.362347,-222.061783,10140.821405
663.947201,995.924147,962.267725,9178.553681
663.947517,1149.143247,1776.494261,8956.491898
663.947833,1685.410096,1850.514855,8290.306550
663.948149,1685.410096,2368.659014,7920.203579
663.948465,1915.238745,1628.453072,8290.306550
663.948781,1608.800546,666.185348,8956.491898
663.949096,76.609550,-740.205942,9326.594869
663.949412,-229.828649,-1850.514855,10362.883188
663.949728,-536.266849,-2072.576638,11177.109724
663.950044,-612.876398,-1554.432478,11251.130318
663.950360,-842.705048,-518.144159,11103.089130
663.950675,-1072.533697,-0.000000,9696.697840
663.950991,-1072.533697,518.144159,9474.636058
663.951307,0.000000,962.267725,9030.512492
663.951623,536.266849,888.247130,9030.512492
663.951939,459.657299,222.061783,9178.553681
663.952254,766.095498,-592.164754,8956.491898
663.952570,536.266849,-1554.432478,10066.800811
663.952886,1302.362347,-1776.494261,10436.903782
663.953202,1915.238745,-666.185348,9992.780217
663.953518,1685.410096,296.082377,9622.677246
663.953834,1378.971896,1406.391290,8808.450710
663.954149,1378.971896,1628.453072,8512.368333
663.954465,2068.457845,2220.617826,7994.224174
663.954781,2374.896044,1776.494261,8142.265362
663.955097,1608.800546,740.205942,8586.388927
663.955413,612.876398,-592.164754,8882.471304
663.955728,-306.438199,-1924.535449,10140.821405
663.956044,-459.657299,-2294.638420,11177.109724
663.956360,-689.485948,-2146.597232,11177.109724
663.956676,-766.095498,-962.267725,11029.068536
663.956992,-1455.581446,-74.020594,10214.842000
663.957307,-1685.410096,444.123565,9844.739029
663.957623,-536.266849,962.267725,9252.574275
663.957939,76.609550,888.247130,8808.450710
663.958255,459.657299,-0.000000,8956.491898
663.958571,383.047749,-518.144159,9104.533087
663.958886,229.828649,-1036.288319,9474.636058
663.959202,536.266849,-1850.514855,10214.842000
663.959518,689.485948,-1184.329507,10140.821405
663.959834,689.485948,-222.061783,9770.718434
663.960150,1072.533697,1184.329507,9326.594869
663.960466,1072.533697,1702.473667,8364.327145
663.960781,1608.800546,1850.514855,8290.306550
663.961097,2374.896044,1554.432478,8142.265362
663.961413,2221.676944,1036.288319,8216.285956
663.961729,1225.752797,-148.041188,8512.368333
663.962045,153.219100,-1554.432478,9696.697840
663.962360,-229.828649,-2516.700203,10881.027347
663.962676,-153.219100,-2294.638420,10881.027347
663.962992,-229.828649,-1628.453072,10881.027347
663.963308,-1072.533697,-888.247130,10436.903782
663.963624,-1225.752797,-0.000000,9622.677246
663.963939,-229.828649,148.041188,9474.636058
663.964255,306.438199,814.226536,8438.347739
663.964571,766.095498,518.144159,8808.450710
663.964887,689.485948,-592.164754,9104.533087
663.965203,229.828649,-1480.411884,9474.636058
663.965518,76.609550,-1776.494261,10436.903782
663.965834,1378.971896,-1406.391290,10732.986159
663.966150,919.314598,-444.123565,10066.800811
663.966466,995.924147,518.144159,9474.636058
663.966782,689.485948,1184.329507,8882.471304
663.967098,1225.752797,1776.494261,8512.368333
663.967413,2145.067394,1998.556043,8216.285956
663.967729,2068.457845,1554.432478,8216.285956
663.968045,1149.143247,592.164754,8586.388927
663.968361,383.047749,-814.226536,8956.491898
663.968677,0.000000,-1776.494261,10362.883188
663.968992,-306.438199,-2294.638420,10732.986159
663.969308,-383.047749,-1406.391290,10881.027347
663.969624,-919.314598,-518.144159,10732.986159
663.969940,-1072.533697,-0.000000,10288.862594
663.970256,-1302.362347,370.102971,9696.697840
663.970571,153.219100,592.164754,9326.594869
663.970887,536.266849,962.267725,8956.491898
663.971203,383.047749,370.102971,9178.553681
663.971519,0.000000,-1110.308913,9030.512492
663.971835,0.000000,-1776.494261,9844.739029
663.972150,306.438199,-1702.473667,10584.944971
663.972466,842.705048,-1184.329507,10214.842000
663.972782,1302.362347,-74.020594,9474.636058
663.973098,766.095498,666.185348,9030.512492
663.973414,766.095498,1184.329507,8438.347739
663.973730,1685.410096,1406.391290,8142.265362
663.974045,1838.629195,1480.411884,7920.203579
663.974361,1685.410096,518.144159,8364.327145
663.974677,842.705048,-814.226536,9178.553681
663.974993,0.000000,-2294.638420,9622.677246
663.975309,-536.266849,-2442.679609,10732.986159
663.975624,-689.485948,-2072.576638,11177.109724
663.975940,-536.266849,-1258.350101,10807.006753
663.976256,-1149.143247,-592.164754,10362.883188
663.976572,-1532.190996,-0.000000,9474.636058
663.976888,-536.266849,296.082377,8882.471304
663.977203,459.657299,222.061783,8586.388927
663.977519,612.876398,-74.020594,8882.471304
663.977835,612.876398,-1036.288319,8882.471304
663.978151,229.828649,-2072.576638,9474.636058
663.978467,536.266849,-1776.494261,10214.842000
663.978783,1302.362347,-1406.391290,9918.759623
663.979098,1685.410096,-296.082377,9474.636058
663.979414,1225.752797,666.185348,8808.450710
663.979730,1149.143247,1036.288319,8438.347739
663.980046,1915.238745,1480.411884,8290.306550
663.980362,2451.505594,1702.473667,7772.162391
663.980677,2298.286494,1406.391290,8290.306550
663.980993,1838.629195,518.144159,7994.224174
663.981309,842.705048,-740.205942,9252.574275
663.981625,0.000000,-1924.535449,10436.903782
663.981941,-229.828649,-1924.535449,10955.047942
663.982256,-383.047749,-1406.391290,10955.047942
663.982572,-536.266849,-1184.329507,10881.027347
663.982888,-1608.800546,148.041188,10066.800811
663.983204,-842.705048,444.123565,9696.697840
663.983520,0.000000,962.267725,9030.512492
663.983835,306.438199,962.267725,9326.594869
663.984151,536.266849,296.082377,9474.636058
663.984467,383.047749,-740.205942,9178.553681
663.984783,153.219100,-1702.473667,10362.883188
663.985098,1072.533697,-1110.308913,10510.924376
663.985414,1532.190996,-370.102971,10214.842000
663.985730,1455.581446,666.185348,9474.636058
663.986046,1072.533697,1850.514855,8808.450710
663.986362,1532.190996,1924.535449,8216.285956
663.986677,1838.629195,2294.638420,8216.285956
663.986993,2298.286494,1850.514855,8438.347739
663.987309,1532.190996,518.144159,8882.471304
663.987625,459.657299,-592.164754,9400.615463
663.987940,0.000000,-1628.453072,10288.862594
663.988256,-459.657299,-2368.659014,11103.089130
663.988572,-995.924147,-1998.556043,11103.089130
663.988888,-1225.752797,-888.247130,11029.068536
663.989204,-1685.410096,-0.000000,10140.821405
663.989519,-1532.190996,592.164754,9844.739029
663.989835,-536.266849,740.205942,9030.512492
663.990151,153.219100,444.123565,8512.368333
663.990467,229.828649,-0.000000,9178.553681
663.990782,153.219100,-1110.308913,9474.636058
663.991098,153.219100,-1776.494261,9992.780217
663.991414,919.314598,-1480.411884,10510.924376
663.991730,995.924147,-740.205942,10436.903782
663.992046,1225.752797,518.144159,9622.677246
663.992361,842.705048,1628.453072,8660.409521
663.992677,995.924147,1776.494261,8364.327145
663.992993,1991.848295,1776.494261,8512.368333
663.993309,2221.676944,1776.494261,7994.224174
663.993624,1838.629195,1036.288319,8512.368333
663.993940,995.924147,-0.000000,8660.409521
663.994256,-76.609550,-1258.350101,9548.656652
663.994572,-153.219100,-1776.494261,11029.068536
663.994887,-229.828649,-1480.411884,10955.047942
663.995203,-689.485948,-1110.308913,10807.006753
663.995519,-1149.143247,-518.144159,10140.821405
663.995835,-1225.752797,-148.041188,9548.656652
663.996151,-612.876398,148.041188,9178.553681
663.996466,459.657299,148.041188,8956.491898
663.996782,766.095498,370.102971,9178.553681
663.997098,536.266849,-518.144159,8734.430116
663.997414,689.485948,-1850.514855,9252.574275
663.997729,1225.752797,-1924.535449,10362.883188
663.998045,1608.800546,-1480.411884,10214.842000
663.998361,1608.800546,-740.205942,9548.656652
663.998677,1302.362347,296.082377,8956.491898
663.998993,1149.143247,1332.370696,8586.388927
663.999308,1532.190996,1406.391290,7920.203579
663.999624,1915.238745,1036.288319,7920.203579
663.999940,1838.629195,666.185348,8438.347739
664.000256,1225.752797,-518.144159,8808.450710
664.000571,306.438199,-1702.473667,9030.512492
664.000887,-383.047749,-2442.679609,10362.883188
664.001203,-76.609550,-2368.659014,10955.047942
664.001519,-536.266849,-2146.597232,10510.924376
664.001835,-1302.362347,-962.267725,10288.862594
664.002150,-1149.143247,-370.102971,9622.677246
664.002466,-919.314598,-0.000000,9474.636058
664.002782,0.000000,370.102971,8808.450710
664.003098,459.657299,222.061783,8882.471304
664.003413,766.095498,-296.082377,8882.471304
664.003729,229.828649,-1184.329507,8956.491898
664.004045,689.485948,-1850.514855,10510.924376
664.004361,919.314598,-1850.514855,10140.821405
664.004676,1149.143247,-444.123565,9918.759623
664.004992,919.314598,592.164754,9400.615463
664.005308,1072.533697,1258.350101,8660.409521
664.005624,995.924147,1554.432478,8512.368333
664.005940,1532.190996,2072.576638,8068.244768
664.006255,1608.800546,1554.432478,8216.285956
664.006571,995.924147,592.164754,8882.471304
664.006887,383.047749,-592.164754,9622.677246
664.007203,-919.314598,-2368.659014,10510.924376
664.007518,-459.657299,-2294.638420,11473.192101
664.007834,-689.485948,-1776.494261,11103.089130
664.008150,-842.705048,-592.164754,10881.027347
664.008466,-1072.533697,370.102971,10214.842000
664.008782,-1072.533697,666.185348,9400.615463
664.009097,0.000000,1110.308913,9178.553681
664.009413,689.485948,1184.329507,9030.512492
664.009729,842.705048,592.164754,9030.512492
664.010045,153.219100,-74.020594,9326.594869
664.010360,76.609550,-1258.350101,9696.697840
664.010676,536.266849,-1184.329507,10584.944971
664.010992,1302.362347,-1184.329507,10288.862594
664.011308,1225.752797,148.041188,9918.759623
664.011624,995.924147,962.267725,9474.636058
664.011939,919.314598,1406.391290,8734.430116
664.012255,1378.971896,1776.494261,8512.368333
664.012571,1532.190996,1702.473667,8142.265362
664.012887,1915.238745,666.185348,8438.347739
664.013202,689.485948,-148.041188,9104.533087
664.013518,-229.828649,-1406.391290,9548.656652
664.013834,-383.047749,-2146.597232,10881.027347
664.014150,0.000000,-2220.617826,10955.047942
664.014465,-612.876398,-1258.350101,10658.965565
664.014781,-919.314598,-370.102971,10066.800811
664.015097,-842.705048,-0.000000,9548.656652
664.015413,-229.828649,814.226536,8956.491898
664.015729,536.266849,1036.288319,8364.327145
664.016044,1302.362347,370.102971,8956.491898
664.016360,919.314598,-666.185348,9104.533087
664.016676,229.828649,-1480.411884,9326.594869
664.016992,766.095498,-1998.556043,9992.780217
664.017307,1225.752797,-1480.411884,10288.862594
664.017623,1225.752797,-592.164754,10066.800811
664.017939,1072.533697,444.123565,9326.594869
664.018255,842.705048,1258.350101,8512.368333
664.018571,995.924147,1776.494261,8290.306550
664.018886,1915.238745,1924.535449,8216.285956
664.019202,2221.676944,1110.308913,8290.306550
664.019518,1225.752797,-0.000000,8586.388927
664.019834,0.000000,-1406.391290,9400.615463
664.020149,0.000000,-2368.659014,10288.862594
664.020465,-306.438199,-2442.679609,11103.089130
664.020781,-306.438199,-1850.514855,11251.130318
664.021097,-536.266849,-740.205942,10584.944971
664.021413,-919.314598,-0.000000,9770.718434
664.021728,-536.266849,666.185348,9030.512492
664.022044,229.828649,1480.411884,8586.388927
664.022360,1072.533697,888.247130,8512.368333
664.022676,689.485948,-222.061783,8734.430116
664.022991,919.314598,-1110.308913,9178.553681
664.023307,536.266849,-1998.556043,9844.739029
664.023623,1225.752797,-2220.617826,10436.903782
664.023939,1302.362347,-1184.329507,10140.821405
664.024255,1149.143247,-0.000000,9696.697840
664.024570,536.266849,1110.308913,9178.553681
664.024886,536.266849,1776.494261,8364.327145
664.025202,1455.581446,1628.453072,8290.306550
664.025518,1302.362347,1258.350101,7920.203579
664.025833,1072.533697,370.102971,9326.594869
664.026149,612.876398,-444.123565,9326.594869
664.026465,-383.047749,-1406.391290,10288.862594
664.026781,0.000000,-2072.576638,10732.986159
664.027096,-306.438199,-1480.411884,11029.068536
664.027412,-459.657299,-962.267725,10584.944971
664.027728,-1149.143247,-222.061783,10510.924376
664.028044,-995.924147,-0.000000,10214.842000
664.028360,-229.828649,1184.329507,9400.615463
664.028675,536.266849,1628.453072,8512.368333
664.028991,842.705048,888.247130,8660.409521
664.029307,1072.533697,-0.000000,8956.491898
664.029623,919.314598,-814.226536,9400.615463
664.029938,1072.533697,-1480.411884,10436.903782
664.030254,995.924147,-814.226536,10510.924376
664.030570,995.924147,-296.082377,10362.883188
664.030886,1225.752797,962.267725,9844.739029
664.031202,842.705048,1702.473667,8956.491898
664.031517,1302.362347,2146.597232,8438.347739
664.031833,1838.629195,1850.514855,8142.265362
664.032149,1378.971896,1184.329507,8364.327145
664.032465,689.485948,-0.000000,8956.491898
664.032780,-153.219100,-1258.350101,9622.677246
664.033096,-229.828649,-2368.659014,10732.986159
664.033412,-459.657299,-2368.659014,10955.047942
664.033728,-536.266849,-1480.411884,10881.027347
664.034044,-1302.362347,-814.226536,10732.986159
664.034359,-1378.971896,-0.000000,9770.718434
664.034675,-383.047749,888.247130,9252.574275
664.034991,306.438199,1036.288319,8660.409521
664.035307,766.095498,592.164754,9104.533087
664.035622,689.485948,-370.102971,9252.574275
664.035938,766.095498,-1406.391290,8882.471304
664.036254,536.266849,-1776.494261,9992.780217
664.036570,919.314598,-1480.411884,9918.759623
664.036885,1149.143247,-518.144159,9844.739029
664.037201,1225.752797,814.226536,9474.636058
664.037517,689.485948,1332.370696,8660.409521
664.037833,842.705048,1554.432478,8290.306550
664.038149,1455.581446,1480.411884,8068.244768
664.038464,1149.143247,666.185348,8512.368333
664.038780,1072.533697,-518.144159,8882.471304
664.039096,-383.047749,-1702.473667,9474.636058
664.039412,-766.095498,-2516.700203,10807.006753
664.039727,-919.314598,-2664.741391,10807.006753
664.040043,-459.657299,-1702.473667,10881.027347
664.040359,-1149.143247,-962.267725,10288.862594
664.040675,-1302.362347,-370.102971,9548.656652
664.040991,-689.485948,-0.000000,9178.553681
664.041306,0.000000,518.144159,8956.491898
664.041622,919.314598,222.061783,8808.450710
664.041938,1072.533697,-666.185348,8734.430116
664.042254,842.705048,-1628.453072,8956.491898
664.042569,766.095498,-1628.453072,9770.718434
664.042885,1225.752797,-1184.329507,9770.718434
664.043201,1915.238745,-740.205942,10140.821405
664.043517,1225.752797,222.061783,9104.533087
664.043833,1149.143247,1258.350101,8734.430116
664.044148,1302.362347,1258.350101,8290.306550
664.044464,1762.019645,1184.329507,8438.347739
664.044780,2221.676944,962.267725,8290.306550
664.045096,1608.800546,592.164754,8808.450710
664.045411,766.095498,-370.102971,9104.533087
664.045727,0.000000,-1554.432478,10066.800811
664.046043,-383.047749,-1998.556043,11029.068536
664.046359,0.000000,-1406.391290,11103.089130
664.046675,-612.876398,-962.267725,11029.068536
664.046990,-1225.752797,-444.123565,10140.821405
664.047306,-1072.533697,148.041188,9326.594869
664.047622,0.000000,518.144159,9474.636058
664.047938,1149.143247,666.185348,8882.471304
664.048253,459.657299,370.102971,9030.512492
664.048569,536.266849,-444.123565,9030.512492
664.048885,383.047749,-1036.288319,9770.718434
664.049201,536.266849,-1258.350101,10362.883188
664.049516,1149.143247,-1110.308913,9474.636058
664.049832,1455.581446,-148.041188,9992.780217
664.050148,995.924147,666.185348,9252.574275
664.050464,919.314598,1332.370696,8512.368333
664.050780,1532.190996,2294.638420,7994.224174
664.051095,1225.752797,1998.556043,8216.285956
664.051411,1455.581446,962.267725,8364.327145
664.051727,383.047749,-148.041188,9252.574275
664.052043,-536.266849,-1110.308913,9844.739029
664.052358,-842.705048,-1924.535449,10732.986159
664.052674,-612.876398,-1850.514855,11325.150913
664.052990,-842.705048,-1332.370696,11029.068536
664.053306,-1455.581446,-370.102971,10955.047942
664.053622,-1378.971896,-0.000000,9918.759623
664.053937,-919.314598,1036.288319,9474.636058
664.054253,76.609550,1332.370696,9104.533087
664.054569,689.485948,666.185348,8956.491898
664.054885,612.876398,-0.000000,8956.491898
664.055200,612.876398,-888.247130,9326.594869
664.055516,459.657299,-2146.597232,9918.759623
664.055832,1378.971896,-1406.391290,10140.821405
664.056148,1455.581446,-222.061783,9918.759623
664.056464,1378.971896,444.123565,9252.574275
664.056779,995.924147,1702.473667,8734.430116
664.057095,1225.752797,1924.535449,8142.265362
664.057411,1991.848295,1850.514855,8216.285956
664.057727,1762.019645,1332.370696,8142.265362
664.058042,1149.143247,222.061783,8734.430116
664.058358,229.828649,-1406.391290,9400.615463
664.058674,-459.657299,-2368.659014,10436.903782
664.058990,-383.047749,-2294.638420,11251.130318
664.059305,-383.047749,-1258.350101,11103.089130
664.059621,-689.485948,-518.144159,10288.862594
664.059937,-612.876398,-0.000000,9622.677246
664.060253,-306.438199,592.164754,9326.594869
664.060569,229.828649,666.185348,9104.533087
664.060884,689.485948,296.082377,8808.450710
664.061200,1225.752797,-74.020594,8956.491898
664.061516,842.705048,-740.205942,9178.553681
664.061832,1072.533697,-1628.453072,9474.636058
664.062147,1455.581446,-1258.350101,10066.800811
664.062463,1838.629195,-518.144159,10140.821405
664.062779,1991.848295,148.041188,9622.677246
664.063095,1455.581446,962.267725,8660.409521
664.063411,1302.362347,1480.411884,8438.347739
664.063726,1915.238745,1776.494261,8290.306550
664.064042,2221.676944,1036.288319,8290.306550
664.064358,1608.800546,222.061783,8808.450710
664.064674,1072.533697,-1110.308913,9326.594869
664.064989,-306.438199,-2146.597232,9844.739029
664.065305,-612.876398,-2294.638420,10584.944971
664.065621,-459.657299,-1998.556043,11029.068536
664.065937,0.000000,-1332.370696,10510.924376
664.066253,-1149.143247,-444.123565,10658.965565
664.066568,-1532.190996,-148.041188,9844.739029
664.066884,-536.266849,296.082377,9252.574275
664.067200,-229.828649,296.082377,9104.533087
664.067516,229.828649,-74.020594,8734.430116
664.067831,0.000000,-592.164754,9104.533087
664.068147,0.000000,-1628.453072,9622.677246
664.068463,0.000000,-1850.514855,10214.842000
664.068779,612.876398,-1332.370696,10066.800811
664.069094,766.095498,-518.144159,10214.842000
664.069410,383.047749,592.164754,9400.615463
664.069726,536.266849,1258.350101,8512.368333
664.070042,919.314598,1776.494261,7920.203579
664.070358,1532.190996,1702.473667,8142.265362
664.070673,1532.190996,1110.308913,8364.327145
664.070989,766.095498,-0.000000,9104.533087
664.071305,0.000000,-1110.308913,9474.636058
664.071621,-383.047749,-2368.659014,10732.986159
664.071936,-383.047749,-2368.659014,11029.068536
664.072252,-459.657299,-1776.494261,11473.192101
664.072568,-842.705048,-740.205942,10510.924376
664.072884,-1532.190996,222.061783,9770.718434
664.073200,-383.047749,518.144159,9400.615463
664.073515,229.828649,1554.432478,8660.409521
664.073831,919.314598,592.164754,8660.409521
664.074147,383.047749,-370.102971,9400.615463
664.074463,229.828649,-1332.370696,8882.471304
664.074778,612.876398,-1850.514855,9918.759623
664.075094,1072.533697,-1924.535449,10584.944971
664.075410,1455.581446,-1184.329507,10140.821405
664.075726,1455.581446,-296.082377,9548.656652
664.076042,1072.533697,888.247130,9030.512492
664.076357,1455.581446,1258.350101,8290.306550
664.076673,1455.581446,1258.350101,7550.100608
664.076989,1991.848295,1332.370696,7920.203579
664.077305,1762.019645,296.082377,8216.285956
664.077620,919.314598,-888.247130,8734.430116
664.077936,229.828649,-1998.556043,9622.677246
664.078252,0.000000,-2516.700203,10732.986159
664.078568,-383.047749,-2146.597232,11103.089130
664.078884,-689.485948,-1258.350101,10362.883188
664.079199,-1225.752797,-518.144159,9918.759623
664.079515,-1225.752797,148.041188,9622.677246
664.079831,-306.438199,444.123565,9326.594869
664.080147,459.657299,1406.391290,8438.347739
664.080462,842.705048,666.185348,8882.471304
664.080778,536.266849,-0.000000,8734.430116
664.081094,153.219100,-370.102971,9474.636058
664.081410,766.095498,-740.205942,9770.718434
664.081725,1149.143247,-370.102971,9844.739029
664.082041,1149.143247,-0.000000,9844.739029
664.082357,919.314598,814.226536,9252.574275
664.082673,459.657299,1628.453072,8734.430116
664.082989,1378.971896,2368.659014,8660.409521
664.083304,2068.457845,2368.659014,7846.182985
664.083620,1915.238745,2220.617826,8364.327145
664.083936,842.705048,666.185348,8660.409521
664.084252,766.095498,-370.102971,9770.718434
664.084567,-459.657299,-1702.473667,10807.006753
664.084883,-536.266849,-1628.453072,11103.089130
664.085198,-842.705048,-814.226536,11251.130318
664.085514,-1149.143247,-296.082377,10658.965565
664.085830,-1532.190996,518.144159,9770.718434
664.086145,-995.924147,1036.288319,9770.718434
664.086461,0.000000,1110.308913,9400.615463
664.086777,459.657299,444.123565,9400.615463
664.087092,306.438199,-592.164754,9548.656652
664.087408,459.657299,-1924.535449,9918.759623
664.087723,689.485948,-1554.432478,10362.883188
664.088039,1455.581446,-592.164754,10140.821405
664.088355,1455.581446,296.082377,9696.697840
664.088670,1149.143247,1036.288319,9252.574275
664.088986,919.314598,1702.473667,8808.450710
664.089302,1225.752797,1924.535449,8364.327145
664.089617,1762.019645,1776.494261,8216.285956
664.089933,1762.019645,1036.288319,8808.450710
664.090248,919.314598,-0.000000,9252.574275
664.090564,0.000000,-1258.350101,10362.883188
664.090880,-459.657299,-1924.535449,10584.944971
664.091195,-306.438199,-1628.453072,11103.089130
664.091511,-383.047749,-1036.288319,10584.944971
664.091826,-995.924147,-592.164754,10436.903782
664.092142,-919.314598,-296.082377,9918.759623
664.092458,-1149.143247,222.061783,9326.594869
664.092773,0.000000,814.226536,8956.491898
664.093089,306.438199,666.185348,8956.491898
664.093405,919.314598,-74.020594,9326.594869
664.093720,459.657299,-666.185348,9030.512492
664.094036,612.876398,-740.205942,9548.656652
664.094351,1225.752797,-962.267725,9548.656652
664.094667,1685.410096,-740.205942,9770.718434
664.094983,1915.238745,-0.000000,9178.553681
664.095298,1149.143247,888.247130,8956.491898
664.095614,1378.971896,1480.411884,8512.368333
664.095930,1838.629195,2146.597232,8142.265362
664.096245,2068.457845,1924.535449,7698.141797
664.096561,1685.410096,740.205942,8216.285956
664.096876,842.705048,-444.123565,8808.450710
664.097192,0.000000,-2220.617826,9844.739029
664.097508,0.000000,-2886.803174,10881.027347
664.097823,-153.219100,-2664.741391,11103.089130
664.098139,-919.314598,-2220.617826,11177.109724
664.098455,-1225.752797,-962.267725,10510.924376
664.098770,-919.314598,-74.020594,9770.718434
664.099086,0.000000,740.205942,8660.409521
664.099401,689.485948,740.205942,8438.347739
664.099717,1149.143247,-296.082377,8586.388927
664.100033,766.095498,-1184.329507,8734.430116
664.100348,612.876398,-2072.576638,9474.636058
664.100664,995.924147,-2442.679609,10140.821405
664.100980,1685.410096,-1776.494261,9992.780217
664.101295,1378.971896,-740.205942,9844.739029
664.101611,1225.752797,296.082377,9178.553681
664.101926,919.314598,1110.308913,8364.327145
664.102242,1149.143247,1184.329507,8364.327145
664.102558,1762.019645,444.123565,8290.306550
664.102873,1302.362347,-0.000000,8512.368333
664.103189,153.219100,-1332.370696,8956.491898
664.103505,-459.657299,-2368.659014,9548.656652
664.103820,-919.314598,-2664.741391,10658.965565
664.104136,-919.314598,-2368.659014,11029.068536
664.104451,-1225.752797,-1628.453072,11177.109724
664.104767,-1378.971896,-1184.329507,10807.006753
664.105083,-1532.190996,-296.082377,9844.739029
664.105398,-1072.533697,296.082377,9326.594869
664.105714,459.657299,444.123565,8956.491898
664.106030,612.876398,222.061783,8882.471304
664.106345,842.705048,-518.144159,8808.450710
664.106661,536.266849,-962.267725,8808.450710
664.106976,842.705048,-1258.350101,9696.697840
664.107292,1685.410096,-1480.411884,10140.821405
664.107608,1302.362347,-148.041188,9770.718434
664.107923,1225.752797,962.267725,9178.553681
664.108239,995.924147,1406.391290,8660.409521
664.108555,1532.190996,1554.432478,8216.285956
664.108870,1838.629195,1924.535449,8142.265362
664.109186,1608.800546,1184.329507,8438.347739
664.109501,842.705048,-0.000000,8956.491898
664.109817,76.609550,-888.247130,9326.594869
664.110133,-612.876398,-2072.576638,11103.089130
664.110448,-536.266849,-1850.514855,11029.068536
664.110764,-536.266849,-1406.391290,11103.089130
664.111080,-536.266849,-444.123565,10584.944971
664.111395,-995.924147,148.041188,9548.656652
664.111711,-612.876398,592.164754,9030.512492
664.112026,0.000000,1110.308913,8660.409521
664.112342,842.705048,592.164754,8882.471304
664.112658,995.924147,-74.020594,9030.512492
664.112973,459.657299,-1036.288319,9104.533087
664.113289,842.705048,-1480.411884,9770.718434
664.113605,919.314598,-1702.473667,10436.903782
664.113920,1302.362347,-1036.288319,10140.821405
664.114236,1378.971896,296.082377,9770.718434
664.114551,76.609550,1406.391290,9548.656652
664.114867,842.705048,2146.597232,8586.388927
664.115183,1455.581446,2368.659014,7920.203579
664.115498,1838.629195,1850.514855,8512.368333
664.115814,1455.581446,814.226536,8808.450710
664.116130,459.657299,-518.144159,9178.553681
664.116445,-153.219100,-1628.453072,10288.862594
664.116761,-306.438199,-1998.556043,11177.109724
664.117076,-229.828649,-1702.473667,11177.109724
664.117392,-612.876398,-1036.288319,11029.068536
664.117708,-1608.800546,370.102971,10510.924376
664.118023,-1149.143247,888.247130,9770.718434
664.118339,0.000000,1406.391290,9030.512492
664.118655,612.876398,1110.308913,8808.450710
664.118970,842.705048,444.123565,9252.574275
664.119286,919.314598,-370.102971,9178.553681
664.119601,536.266849,-1406.391290,9474.636058
664.119917,1072.533697,-1258.350101,10881.027347
664.120233,1378.971896,-888.247130,10140.821405
664.120548,1608.800546,370.102971,9992.780217
664.120864,919.314598,814.226536,9474.636058
664.121180,1072.533697,1628.453072,8586.388927
664.121495,1915.238745,2072.576638,8290.306550
664.121811,2221.676944,1998.556043,8216.285956
664.122126,1838.629195,1110.308913,8438.347739
664.122442,1302.362347,-74.020594,8882.471304
664.122758,459.657299,-1258.350101,9548.656652
664.123073,0.000000,-2146.597232,11325.150913
664.123389,0.000000,-2146.597232,11325.150913
664.123704,-229.828649,-1184.329507,10658.965565
664.124020,-766.095498,-370.102971,10288.862594
664.124336,-612.876398,-370.102971,9474.636058
664.124651,0.000000,-0.000000,9400.615463
664.124967,689.485948,740.205942,8586.388927
664.125283,1302.362347,222.061783,8438.347739
664.125598,1225.752797,-444.123565,8512.368333
664.125914,612.876398,-1258.350101,8586.388927
664.126229,459.657299,-1776.494261,9474.636058
664.126545,1072.533697,-1850.514855,9844.739029
664.126861,1378.971896,-1480.411884,9918.759623
664.127176,536.266849,-296.082377,9696.697840
664.127492,383.047749,666.185348,8734.430116
664.127808,612.876398,814.226536,8364.327145
664.128123,919.314598,1258.350101,7920.203579
664.128439,1149.143247,666.185348,8512.368333
664.128754,612.876398,-370.102971,9030.512492
664.129070,-306.438199,-1406.391290,9326.594869
664.129386,-995.924147,-2590.720797,10658.965565
664.129701,-995.924147,-2812.782580,10955.047942
664.130017,-689.485948,-2146.597232,11399.171507
664.130333,-919.314598,-1258.350101,10807.006753
664.130648,-1149.143247,-148.041188,9696.697840
664.130964,-1149.143247,296.082377,9252.574275
664.131279,0.000000,740.205942,8882.471304
664.131595,383.047749,592.164754,8808.450710
664.131911,689.485948,-444.123565,9104.533087
664.132226,612.876398,-1332.370696,9252.574275
664.132542,76.609550,-1998.556043,9992.780217
664.132858,1149.143247,-1776.494261,10140.821405
664.133173,1302.362347,-1036.288319,10584.944971
664.133489,842.705048,-222.061783,9770.718434
664.133804,383.047749,592.164754,9474.636058
664.134120,612.876398,962.267725,8512.368333
664.134436,1225.752797,1110.308913,7994.224174
664.134751,1455.581446,592.164754,8438.347739
664.135067,1455.581446,-0.000000,8660.409521
664.135383,383.047749,-962.267725,8660.409521
664.135698,-536.266849,-2146.597232,9992.780217
664.136014,-536.266849,-2368.659014,10510.924376
664.136329,-383.047749,-2072.576638,10955.047942
664.136645,-689.485948,-1258.350101,10807.006753
664.136961,-995.924147,-518.144159,10066.800811
664.137276,-1072.533697,-0.000000,9548.656652
664.137592,153.219100,1036.288319,9252.574275
664.137908,306.438199,1184.329507,8734.430116
664.138223,919.314598,1036.288319,8808.450710
664.138539,919.314598,296.082377,8882.471304
664.138854,459.657299,-296.082377,9178.553681
664.139170,459.657299,-666.185348,10362.883188
664.139486,1149.143247,-444.123565,10140.821405
664.139801,1532.190996,814.226536,9992.780217
664.140117,1302.362347,1554.432478,9326.594869
664.140433,995.924147,2590.720797,8734.430116
664.140748,1608.800546,3182.885551,8438.347739
664.141064,1685.410096,3552.988522,7920.203579
664.141379,1838.629195,2442.679609,8290.306550
664.141695,1149.143247,1332.370696,9178.553681
664.142011,306.438199,-74.020594,9548.656652
664.142326,76.609550,-1110.308913,10732.986159
664.142642,-459.657299,-814.226536,11473.192101
664.142958,-459.657299,-148.041188,11325.150913
664.143273,-766.095498,370.102971,11103.089130
664.143589,-1378.971896,1258.350101,10214.842000
664.143904,-766.095498,1554.432478,9622.677246
664.144220,76.609550,2146.597232,8956.491898
664.144536,689.485948,1184.329507,9104.533087
664.144851,842.705048,-74.020594,9326.594869
664.145167,919.314598,-740.205942,9918.759623
664.145483,995.924147,-1184.329507,10140.821405
664.145798,1302.362347,-740.205942,10066.800811
664.146114,1532.190996,-0.000000,9992.780217
664.146429,1608.800546,1036.288319,9400.615463
664.146745,383.047749,1554.432478,8808.450710
664.147061,1149.143247,1628.453072,8586.388927
664.147376,1455.581446,1480.411884,8290.306550
664.147692,1608.800546,592.164754,8512.368333
664.148008,1149.143247,-592.164754,9252.574275
664.148323,612.876398,-1702.473667,9770.718434
664.148639,-459.657299,-2516.700203,10584.944971
664.148954,-766.095498,-2368.659014,11103.089130
664.149270,-842.705048,-2368.659014,11029.068536
664.149586,-1149.143247,-1480.411884,10807.006753
664.149901,-1302.362347,-888.247130,10066.800811
664.150217,-1378.971896,-148.041188,9474.636058
664.150533,-153.219100,296.082377,8956.491898
664.150848,612.876398,-0.000000,8364.327145
664.151164,919.314598,-666.185348,8808.450710
664.151479,766.095498,-1110.308913,8438.347739
664.151795,612.876398,-2368.659014,9252.574275
664.152111,919.314598,-2368.659014,10288.862594
664.152426,1072.533697,-1628.453072,10066.800811
664.152742,1302.362347,-666.185348,9252.574275
664.153058,689.485948,518.144159,9104.533087
664.153373,842.705048,1110.308913,7846.182985
664.153689,1455.581446,1776.494261,7550.100608
664.154004,1762.019645,1702.473667,7772.162391
664.154320,1608.800546,370.102971,7994.224174
664.154636,229.828649,-1110.308913,8512.368333
664.154951,0.000000,-1924.535449,9400.615463
664.155267,-536.266849,-2442.679609,10584.944971
664.155582,76.609550,-2590.720797,11695.253884
664.155898,-766.095498,-1702.473667,10881.027347
664.156214,-1149.143247,-518.144159,10140.821405
664.156529,-995.924147,370.102971,9474.636058
664.156845,-229.828649,1036.288319,8364.327145
664.157161,536.266849,1406.391290,7772.162391
664.157476,1149.143247,814.226536,8364.327145
664.157792,1225.752797,-296.082377,8660.409521
664.158107,995.924147,-1110.308913,9178.553681
664.158423,842.705048,-1554.432478,9844.739029
664.158739,1685.410096,-1480.411884,10140.821405
664.159054,1685.410096,-222.061783,9844.739029
664.159370,842.705048,888.247130,9252.574275
664.159686,689.485948,1554.432478,8660.409521
664.160001,1762.019645,2146.597232,8438.347739
664.160317,1532.190996,1702.473667,7772.162391
664.160632,1378.971896,1258.350101,8734.430116
664.160948,995.924147,-0.000000,9178.553681
664.161264,0.000000,-888.247130,9770.718434
664.161579,-612.876398,-1850.514855,10584.944971
664.161895,-689.485948,-2072.576638,11695.253884
664.162211,-612.876398,-1184.329507,11695.253884
664.162526,-1302.362347,-444.123565,11177.109724
664.162842,-1608.800546,666.185348,10436.903782
664.163157,-995.924147,1480.411884,9622.677246
664.163473,229.828649,2146.597232,9030.512492
664.163789,689.485948,1850.514855,9252.574275
664.164104,766.095498,296.082377,9474.636058
664.164420,536.266849,-222.061783,9918.759623
664.164736,76.609550,-814.226536,10362.883188
664.165051,1072.533697,-740.205942,10732.986159
664.165367,1149.143247,-296.082377,10732.986159
664.165682,1149.143247,444.123565,10066.800811
664.165998,766.095498,1332.370696,9474.636058
664.166314,1378.971896,1776.494261,8956.491898
664.166629,1378.971896,1998.556043,8734.430116
664.166945,1225.752797,1480.411884,8660.409521
664.167261,1072.533697,-0.000000,9030.512492
664.167576,383.047749,-1258.350101,9622.677246
664.167892,-459.657299,-2442.679609,10732.986159
664.168207,-612.876398,-2960.823768,11473.192101
664.168523,-153.219100,-2516.700203,11251.130318
664.168839,-766.095498,-1850.514855,10955.047942
664.169154,-1378.971896,-814.226536,9844.739029
664.169470,-536.266849,-74.020594,8956.491898
664.169786,229.828649,370.102971,8438.347739
664.170101,1072.533697,370.102971,8364.327145
664.170417,1149.143247,-444.123565,8438.347739
664.170732,1532.190996,-1480.411884,8512.368333
664.171048,842.705048,-1998.556043,9548.656652
664.171364,1072.533697,-2516.700203,9696.697840
664.171679,1532.190996,-2072.576638,9918.759623
664.171995,1915.238745,-1036.288319,9548.656652
664.172311,1225.752797,-0.000000,8512.368333
664.172626,842.705048,592.164754,8068.244768
664.172942,1225.752797,1036.288319,7698.141797
664.173257,1608.800546,1036.288319,7698.141797
664.173573,1378.971896,148.041188,8142.265362
664.173889,306.438199,-1036.288319,8512.368333
664.174204,-306.438199,-2368.659014,9400.615463
664.174520,-306.438199,-2886.803174,10140.821405
664.174836,-536.266849,-2442.679609,10362.883188
664.175151,-689.485948,-1998.556043,10288.862594
664.175467,-1762.019645,-962.267725,9992.780217
664.175782,-1225.752797,-222.061783,9178.553681
664.176098,-536.266849,666.185348,8660.409521
664.176414,153.219100,1184.329507,8586.388927
664.176729,689.485948,740.205942,8364.327145
664.177045,995.924147,-296.082377,8290.306550
664.177361,1072.533697,-518.144159,8882.471304
664.177676,1072.533697,-1258.350101,9548.656652
664.177992,1532.190996,-1184.329507,9770.718434
664.178307,1532.190996,-370.102971,9770.718434
664.178623,689.485948,592.164754,9622.677246
664.178939,612.876398,1332.370696,9030.512492
664.179254,689.485948,2146.597232,8660.409521
664.179570,995.924147,2442.679609,8512.368333
664.179886,919.314598,1850.514855,8882.471304
664.180201,153.219100,444.123565,9252.574275
664.180517,-612.876398,-1036.288319,9992.780217
664.180832,-1149.143247,-1628.453072,11399.171507
664.181148,-1072.533697,-1924.535449,11621.233289
664.181464,-919.314598,-1554.432478,11769.274478
664.181779,-1149.143247,-444.123565,11547.212695
664.182095,-1532.190996,740.205942,10658.965565
664.182411,-919.314598,1554.432478,9622.677246
664.182726,0.000000,2368.659014,9104.533087
664.183042,536.266849,1554.432478,9178.553681
664.183357,919.314598,962.267725,9252.574275
664.183673,842.705048,-74.020594,9178.553681
664.183989,689.485948,-666.185348,9992.780217
664.184304,1532.190996,-962.267725,10807.006753
664.184620,1838.629195,-444.123565,10584.944971
664.184936,1302.362347,888.247130,9918.759623
664.185251,1149.143247,1628.453072,9622.677246
664.185567,995.924147,2220.617826,8882.471304
664.185883,1608.800546,2516.700203,8438.347739
664.186198,1685.410096,2368.659014,8586.388927
664.186514,1302.362347,888.247130,8882.471304
664.186830,766.095498,-444.123565,9326.594869
664.187145,-153.219100,-1776.494261,9992.780217
664.187461,-153.219100,-2294.638420,11029.068536
664.187777,-229.828649,-1924.535449,11251.130318
664.188092,-612.876398,-1258.350101,10881.027347
664.188408,-842.705048,-444.123565,10288.862594
664.188724,-689.485948,444.123565,9622.677246
664.189039,153.219100,1110.308913,8660.409521
664.189355,842.705048,1554.432478,8364.327145
664.189671,1608.800546,740.205942,8364.327145
664.189986,1608.800546,-74.020594,7920.203579
664.190302,1225.752797,-962.267725,8808.450710
664.190618,1149.143247,-1406.391290,9474.636058
664.190933,1225.752797,-1850.514855,9770.718434
664.191249,1378.971896,-888.247130,9770.718434
664.191565,919.314598,-0.000000,9178.553681
664.191880,842.705048,592.164754,8512.368333
664.192196,1072.533697,1332.370696,8216.285956
664.192512,1302.362347,1480.411884,7772.162391
664.192827,1072.533697,518.144159,8216.285956
664.193143,689.485948,-814.226536,8734.430116
664.193459,76.609550,-1406.391290,9474.636058
664.193774,76.609550,-2812.782580,9992.780217
664.194090,-459.657299,-2886.803174,10881.027347
664.194406,-383.047749,-2664.741391,10807.006753
664.194722,-919.314598,-1850.514855,10288.862594
664.195037,-1455.581446,-1036.288319,9844.739029
664.195353,-612.876398,-74.020594,9178.553681
664.195669,383.047749,-0.000000,8512.368333
664.195984,459.657299,-148.041188,8586.388927
664.196300,766.095498,-1036.288319,8956.491898
664.196616,919.314598,-1332.370696,9030.512492
664.196931,536.266849,-2590.720797,9844.739029
664.197247,1225.752797,-2294.638420,9844.739029
664.197563,1225.752797,-1998.556043,10214.842000
664.197878,842.705048,-888.247130,9474.636058
664.198194,536.266849,296.082377,9030.512492
664.198510,229.828649,444.123565,8586.388927
664.198825,1225.752797,888.247130,8438.347739
664.199141,612.876398,518.144159,8808.450710
664.199457,536.266849,-518.144159,8882.471304
664.199772,-536.266849,-1628.453072,9844.739029
664.200088,-1149.143247,-2442.679609,10584.944971
664.200404,-995.924147,-2886.803174,10807.006753
664.200719,-766.095498,-2590.720797,11103.089130
664.201035,-842.705048,-2294.638420,10881.027347
664.201351,-1455.581446,-740.205942,10140.821405
664.201666,-995.924147,222.061783,9326.594869
664.201982,76.609550,1258.350101,8660.409521
664.202298,766.095498,1406.391290,8512.368333
664.202613,1072.533697,370.102971,8808.450710
664.202929,842.705048,-592.164754,9178.553681
664.203245,689.485948,-888.247130,9474.636058
664.203560,1225.752797,-1036.288319,10066.800811
664.203876,1608.800546,-444.123565,10066.800811
664.204192,1532.190996,444.123565,9696.697840
664.204508,1302.362347,1998.556043,8734.430116
664.204823,1378.971896,2516.700203,8142.265362
664.205139,1838.629195,2664.741391,8290.306550
664.205455,1532.190996,2442.679609,8068.244768
664.205770,1608.800546,1332.370696,8808.450710
664.206086,766.095498,296.082377,8956.491898
664.206402,0.000000,-296.082377,9844.739029
664.206717,-306.438199,-888.247130,10658.965565
664.207033,-306.438199,-888.247130,11029.068536
664.207349,-306.438199,-740.205942,10807.006753
664.207664,-842.705048,296.082377,10362.883188
664.207980,-1225.752797,740.205942,9548.656652
664.208296,-612.876398,1406.391290,9030.512492
664.208611,229.828649,1776.494261,8882.471304
664.208927,1532.190996,1184.329507,9104.533087
664.209243,766.095498,592.164754,9326.594869
664.209558,995.924147,-370.102971,9178.553681
664.209874,919.314598,-1036.288319,9622.677246
664.210190,1532.190996,-888.247130,10214.842000
664.210505,1532.190996,-740.205942,10436.903782
664.210821,1455.581446,296.082377,9696.697840
664.211137,1302.362347,1776.494261,9030.512492
664.211452,1455.581446,2368.659014,7846.182985
664.211768,1915.238745,2368.659014,7550.100608
664.212084,1608.800546,2220.617826,8512.368333
664.212399,919.314598,888.247130,8734.430116
664.212715,0.000000,-740.205942,9474.636058
664.213031,-689.485948,-1924.535449,10658.965565
664.213346,-919.314598,-2664.741391,11325.150913
664.213662,-689.485948,-1776.494261,11843.295072
664.213978,-1378.971896,-888.247130,10807.006753
664.214294,-1608.800546,222.061783,9770.718434
664.214609,-1149.143247,1110.308913,9326.594869
664.214925,-229.828649,1406.391290,8882.471304
664.215241,612.876398,1110.308913,8586.388927
664.215556,153.219100,148.041188,9104.533087
664.215872,383.047749,-518.144159,9252.574275
664.216188,766.095498,-1110.308913,9548.656652
664.216503,1608.800546,-1258.350101,10066.800811
664.216819,1838.629195,-592.164754,10140.821405
664.217135,1838.629195,222.061783,9104.533087
664.217450,1378.971896,1258.350101,8364.327145
664.217766,1455.581446,1480.411884,7846.182985
664.218082,2068.457845,1480.411884,8586.388927
664.218397,2374.896044,1480.411884,8068.244768
664.218713,1532.190996,370.102971,8364.327145
664.219029,689.485948,-666.185348,9178.553681
664.219344,229.828649,-1554.432478,9844.739029
664.219660,-153.219100,-2072.576638,10510.924376
664.219976,-153.219100,-2072.576638,11103.089130
664.220291,-689.485948,-1924.535449,11103.089130
664.220607,-1378.971896,-1184.329507,10732.986159
664.220923,-1225.752797,-444.123565,9918.759623
664.221238,76.609550,370.102971,8956.491898
664.221554,612.876398,444.123565,8660.409521
664.221870,536.266849,-0.000000,9104.533087
664.222185,383.047749,-888.247130,9326.594869
664.222501,842.705048,-1406.391290,9400.615463
664.222817,766.095498,-1776.494261,9918.759623
664.223133,1532.190996,-1258.350101,9918.759623
664.223448,1302.362347,-666.185348,9622.677246
664.223764,1149.143247,222.061783,8882.471304
664.224080,995.924147,592.164754,8438.347739
664.224395,1149.143247,1184.329507,8068.244768
664.224711,1455.581446,1110.308913,8364.327145
664.225027,995.924147,370.102971,8734.430116
664.225342,612.876398,-888.247130,8808.450710
664.225658,0.000000,-1332.370696,9548.656652
664.225974,-383.047749,-1924.535449,10584.944971
664.226289,-459.657299,-1998.556043,10881.027347
664.226605,-766.095498,-1184.329507,10807.006753
664.226921,-1149.143247,-518.144159,10288.862594
664.227236,-1149.143247,-74.020594,9474.636058
664.227552,-689.485948,370.102971,9252.574275
664.227868,0.000000,518.144159,8808.450710
664.228183,689.485948,-74.020594,9326.594869
664.228499,153.219100,-518.144159,9474.636058
664.228815,229.828649,-962.267725,9474.636058
664.229130,612.876398,-1258.350101,10288.862594
664.229446,1225.752797,-814.226536,10214.842000
664.229762,995.924147,-148.041188,9770.718434
664.230077,1149.143247,814.226536,9400.615463
664.230393,1378.971896,1480.411884,8512.368333
664.230709,1608.800546,1850.514855,8290.306550
664.231024,1915.238745,1924.535449,7994.224174
664.231340,2068.457845,888.247130,8438.347739
664.231656,766.095498,-0.000000,9030.512492
664.231971,0.000000,-1628.453072,9548.656652
664.232287,-612.876398,-2146.597232,10510.924376
664.232603,-536.266849,-2368.659014,11251.130318
664.232919,-1072.533697,-2294.638420,11325.150913
664.233234,-1072.533697,-1628.453072,10807.006753
664.233550,-1378.971896,-740.205942,9844.739029
664.233866,-1149.143247,-0.000000,9326.594869
664.234181,-229.828649,-0.000000,8660.409521
664.234497,459.657299,-0.000000,8808.450710
664.234813,306.438199,-888.247130,9326.594869
664.235128,306.438199,-1702.473667,9474.636058
664.235444,306.438199,-2146.597232,10066.800811
664.235760,995.924147,-1776.494261,10066.800811
664.236075,1532.190996,-740.205942,9844.739029
664.236391,1608.800546,296.082377,9178.553681
664.236707,1225.752797,1406.391290,8586.388927
664.237022,1685.410096,1776.494261,7920.203579
664.237338,2221.676944,1628.453072,7476.080014
664.237654,1915.238745,1258.350101,7920.203579
664.237969,1072.533697,-74.020594,8882.471304
664.238285,306.438199,-962.267725,9622.677246
664.238601,-383.047749,-1776.494261,10658.965565
664.238916,-459.657299,-1702.473667,10807.006753
664.239232,-536.266849,-1036.288319,11029.068536
664.239548,-919.314598,-592.164754,10881.027347
664.239863,-1072.533697,-148.041188,10214.842000
664.240179,-1072.533697,518.144159,9770.718434
664.240495,306.438199,962.267725,8956.491898
664.240810,842.705048,962.267725,8586.388927
664.241126,842.705048,740.205942,9104.533087
664.241442,995.924147,-444.123565,8882.471304
664.241757,1072.533697,-814.226536,9400.615463
664.242073,1378.971896,-888.247130,10066.800811
664.242389,1532.190996,-592.164754,9918.759623
664.242705,2145.067394,222.061783,9918.759623
664.243020,1685.410096,962.267725,8956.491898
664.243336,1608.800546,1702.473667,7920.203579
664.243652,2374.896044,2072.576638,7920.203579
664.243967,2221.676944,1776.494261,8142.265362
664.244283,1685.410096,814.226536,8364.327145
664.244599,689.485948,-222.061783,9178.553681
664.244914,-76.609550,-1110.308913,9696.697840
664.245230,-612.876398,-1628.453072,10955.047942
664.245546,-612.876398,-1998.556043,10955.047942
664.245861,-919.314598,-1554.432478,10807.006753
664.246177,-1378.971896,-1184.329507,10658.965565
664.246493,-2068.457845,-518.144159,10140.821405
664.246808,-919.314598,-222.061783,9326.594869
664.247124,-306.438199,592.164754,8956.491898
664.247440,306.438199,370.102971,9104.533087
664.247755,383.047749,-148.041188,9178.553681
664.248071,76.609550,-666.185348,9326.594869
664.248387,612.876398,-1036.288319,9696.697840
664.248702,842.705048,-740.205942,9992.780217
664.249018,1225.752797,-148.041188,9770.718434
664.249334,1225.752797,518.144159,9400.615463
664.249649,1302.362347,1184.329507,8882.471304
664.249965,1072.533697,1998.556043,8142.265362
664.250281,1991.848295,1998.556043,8068.244768
664.250596,1991.848295,1554.432478,8586.388927
664.250912,1149.143247,666.185348,8660.409521
664.251228,689.485948,-148.041188,9252.574275
664.251543,-229.828649,-1110.308913,10510.924376
664.251859,-536.266849,-1480.411884,11399.171507
664.252175,-459.657299,-1332.370696,11103.089130
664.252491,-1072.533697,-666.185348,10584.944971
664.252806,-1225.752797,-222.061783,10510.924376
664.253122,-612.876398,518.144159,9696.697840
664.253438,229.828649,1184.329507,8956.491898
664.253753,459.657299,814.226536,9030.512492
664.254069,919.314598,-74.020594,9178.553681
664.254385,1072.533697,-1332.370696,9474.636058
664.254700,612.876398,-1702.473667,9622.677246
664.255016,1072.533697,-1480.411884,9918.759623
664.255332,1685.410096,-740.205942,10140.821405
664.255647,1532.190996,-0.000000,9474.636058
664.255963,1685.410096,814.226536,8512.368333
664.256279,1608.800546,1332.370696,8068.244768
664.256594,2374.896044,1628.453072,7550.100608
664.256910,1991.848295,1036.288319,7846.182985
664.257226,766.095498,-222.061783,8586.388927
664.257541,383.047749,-1628.453072,9474.636058
664.257857,-306.438199,-2664.741391,10362.883188
664.258173,-612.876398,-2738.761985,11325.150913
664.258488,-995.924147,-2516.700203,11399.171507
664.258804,-1149.143247,-1776.494261,10732.986159
664.259120,-1455.581446,-518.144159,9770.718434
664.259435,-1302.362347,-148.041188,9178.553681
664.259751,-766.095498,222.061783,9326.594869
664.260067,153.219100,-74.020594,9178.553681
664.260382,383.047749,-740.205942,8882.471304
664.260698,0.000000,-1480.411884,9548.656652
664.261014,0.000000,-2072.576638,9918.759623
664.261329,536.266849,-1850.514855,10288.862594
664.261645,1149.143247,-1332.370696,9844.739029
664.261961,766.095498,-370.102971,9696.697840
664.262277,1225.752797,444.123565,9178.553681
664.262592,1072.533697,592.164754,8068.244768
664.262908,1532.190996,1184.329507,8142.265362
664.263224,2528.115143,1184.329507,7994.224174
664.263539,1685.410096,518.144159,7920.203579
664.263855,995.924147,-666.185348,8660.409521
664.264171,-306.438199,-1702.473667,9400.615463
664.264486,-689.485948,-2368.659014,10288.862594
664.264802,-766.095498,-2738.761985,10658.965565
664.265118,-919.314598,-2220.617826,11547.212695
664.265433,-1762.019645,-1628.453072,10807.006753
664.265749,-1608.800546,-592.164754,9770.718434
664.266065,-766.095498,370.102971,9030.512492
664.266380,229.828649,814.226536,8882.471304
664.266696,612.876398,518.144159,8512.368333
664.267012,612.876398,-148.041188,8882.471304
664.267327,383.047749,-1110.308913,9104.533087
664.267643,995.924147,-1702.473667,9548.656652
664.267959,1378.971896,-888.247130,10066.800811
664.268274,1608.800546,-74.020594,9770.718434
664.268590,1455.581446,666.185348,9326.594869
664.268906,1532.190996,1554.432478,8586.388927
664.269221,1455.581446,2368.659014,7624.121203
664.269537,2145.067394,2590.720797,7772.162391
664.269853,2221.676944,2368.659014,7994.224174
664.270168,1149.143247,1036.288319,8438.347739
664.270484,229.828649,-0.000000,9400.615463
664.270800,0.000000,-740.205942,10066.800811
664.271116,-383.047749,-666.185348,10955.047942
664.271431,-766.095498,-222.061783,11177.109724
664.271747,-1225.752797,-74.020594,10584.944971
664.272063,-1838.629195,592.164754,10658.965565
664.272378,-919.314598,1110.308913,9992.780217
664.272694,-306.438199,1850.514855,8956.491898
664.273010,153.219100,2294.638420,8956.491898
664.273325,766.095498,814.226536,9918.759623
664.273641,306.438199,518.144159,9326.594869
664.273957,0.000000,592.164754,9622.677246
664.274272,689.485948,-74.020594,10288.862594
664.274588,1532.190996,592.164754,10584.944971
664.274904,1225.752797,1258.350101,9844.739029
664.275219,919.314598,1924.535449,9696.697840
664.275535,1302.362347,2072.576638,8068.244768
664.275851,1532.190996,2294.638420,8660.409521
664.276166,2298.286494,2516.700203,8586.388927
664.276482,1838.629195,1850.514855,8734.430116
664.276798,842.705048,592.164754,9622.677246
664.277113,459.657299,-444.123565,9844.739029
664.277429,0.000000,-1258.350101,10881.027347
664.277745,-229.828649,-1850.514855,11473.192101
664.278060,-766.095498,-1554.432478,11695.253884
664.278376,-1302.362347,-888.247130,10881.027347
664.278692,-1072.533697,-370.102971,10288.862594
664.279007,-459.657299,-0.000000,9474.636058
664.279323,383.047749,148.041188,9326.594869
664.279639,459.657299,-296.082377,9400.615463
664.279954,689.485948,-1776.494261,9326.594869
664.280270,612.876398,-2294.638420,9622.677246
664.280586,536.266849,-2220.617826,10066.800811
664.280902,1072.533697,-2368.659014,9770.718434
664.281217,1455.581446,-1184.329507,9844.739029
664.281533,1302.362347,-0.000000,9030.512492
664.281849,1378.971896,666.185348,7550.100608
664.282164,1685.410096,1036.288319,7698.141797
664.282480,2145.067394,1110.308913,7846.182985
664.282796,2068.457845,-0.000000,7920.203579
664.283111,1455.581446,-888.247130,8290.306550
664.283427,612.876398,-1924.535449,9104.533087
664.283743,0.000000,-2368.659014,9622.677246
664.284058,0.000000,-2220.617826,10362.883188
664.284374,-76.609550,-1776.494261,10362.883188
664.284690,-766.095498,-888.247130,9696.697840
664.285005,-1532.190996,-740.205942,9178.553681
664.285321,-995.924147,-222.061783,9400.615463
664.285637,0.000000,148.041188,9030.512492
664.285952,383.047749,-370.102971,8956.491898
664.286269,229.828649,-370.102971,9326.594869
664.286584,76.609550,-1110.308913,9104.533087
664.286900,306.438199,-1332.370696,9474.636058
664.287216,766.095498,-962.267725,9770.718434
664.287531,842.705048,-666.185348,9770.718434
664.287847,1302.362347,222.061783,8882.471304
664.288163,919.314598,1480.411884,8734.430116
664.288479,1455.581446,1924.535449,7698.141797
664.288794,2298.286494,1924.535449,7772.162391
664.289110,2068.457845,1406.391290,8068.244768
664.289426,1149.143247,370.102971,8438.347739
664.289741,76.609550,-1110.308913,9252.574275
664.290057,-306.438199,-1998.556043,10288.862594
664.290373,-689.485948,-2294.638420,10732.986159
664.290689,0.000000,-2368.659014,11103.089130
664.291004,-1225.752797,-1480.411884,11177.109724
664.291320,-1762.019645,-444.123565,9992.780217
664.291636,-1608.800546,370.102971,9548.656652
664.291951,-766.095498,1110.308913,9326.594869
664.292267,76.609550,1258.350101,8808.450710
664.292583,0.000000,-74.020594,9178.553681
664.292899,76.609550,-1184.329507,9474.636058
664.293214,0.000000,-1702.473667,10214.842000
664.293530,459.657299,-1480.411884,10584.944971
664.293846,766.095498,-1110.308913,10510.924376
664.294161,689.485948,370.102971,10510.924376
664.294477,536.266849,1184.329507,9696.697840
664.294793,689.485948,2220.617826,8734.430116
664.295108,1608.800546,2886.803174,8512.368333
664.295424,1838.629195,2368.659014,8586.388927
664.295740,1532.190996,1628.453072,9104.533087
664.296056,1072.533697,444.123565,9326.594869
664.296371,153.219100,-444.123565,9992.780217
664.296687,0.000000,-962.267725,11029.068536
664.297003,-153.219100,-1184.329507,10881.027347
664.297318,-689.485948,-740.205942,11251.130318
664.297634,-995.924147,-0.000000,11177.109724
664.297950,-1302.362347,592.164754,10140.821405
664.298266,-536.266849,814.226536,9474.636058
664.298581,459.657299,1110.308913,9104.533087
664.298897,612.876398,370.102971,9104.533087
664.299213,919.314598,-370.102971,9326.594869
664.299528,766.095498,-1184.329507,9474.636058
664.299844,1072.533697,-1554.432478,10066.800811
664.300160,1378.971896,-1406.391290,10436.903782
664.300476,1915.238745,-592.164754,9622.677246
664.300791,1685.410096,296.082377,9030.512492
664.301107,1532.190996,1258.350101,8438.347739
664.301423,2528.115143,1702.473667,7698.141797
664.301738,2681.334243,1702.473667,7402.059420
664.302054,2604.724693,666.185348,7994.224174
664.302370,1991.848295,-518.144159,8290.306550
664.302685,1225.752797,-1850.514855,8734.430116
664.303001,76.609550,-2368.659014,10140.821405
664.303317,0.000000,-2590.720797,10955.047942
664.303633,-229.828649,-1998.556043,10584.944971
664.303948,-1302.362347,-1258.350101,10066.800811
664.304264,-1532.190996,-814.226536,9770.718434
664.304580,-995.924147,-296.082377,9474.636058
664.304895,-76.609550,-0.000000,8586.388927
664.305211,306.438199,-444.123565,8882.471304
664.305527,459.657299,-1332.370696,8882.471304
664.305843,153.219100,-1924.535449,8956.491898
664.306158,153.219100,-2442.679609,9474.636058
664.306474,689.485948,-1998.556043,10140.821405
664.306790,995.924147,-1332.370696,9696.697840
664.307105,459.657299,-296.082377,9326.594869
664.307421,459.657299,518.144159,8512.368333
664.307737,1072.533697,1258.350101,8216.285956
664.308053,1838.629195,1628.453072,7402.059420
664.308368,1762.019645,1184.329507,7254.018232
664.308684,1532.190996,-222.061783,8512.368333
664.309000,459.657299,-1036.288319,9030.512492
664.309315,-459.657299,-1480.411884,9622.677246
664.309631,-689.485948,-1850.514855,10510.924376
664.309947,-1302.362347,-1924.535449,11029.068536
664.310263,-1991.848295,-1406.391290,11177.109724
664.310578,-1685.410096,-370.102971,10510.924376
664.310894,-1991.848295,-148.041188,10140.821405
664.311210,-1149.143247,518.144159,9770.718434
664.311525,-689.485948,592.164754,9548.656652
664.311841,-383.047749,222.061783,9548.656652
664.312157,-153.219100,-666.185348,9844.739029
664.312472,-229.828649,-1184.329507,10066.800811
664.312788,229.828649,-1036.288319,10436.903782
664.313104,1302.362347,-666.185348,10436.903782
664.313420,1302.362347,-0.000000,10066.800811
664.313735,1225.752797,1628.453072,9178.553681
664.314051,1149.143247,2220.617826,8586.388927
664.314367,2068.457845,2442.679609,8068.244768
664.314682,2451.505594,2072.576638,8364.327145
664.314998,2298.286494,1184.329507,9030.512492
664.315314,1532.190996,-148.041188,9326.594869
664.315630,383.047749,-1110.308913,10214.842000
664.315945,76.609550,-1480.411884,10881.027347
664.316261,0.000000,-1406.391290,10807.006753
664.316577,-153.219100,-666.185348,11103.089130
664.316892,-1072.533697,-0.000000,10510.924376
664.317208,-1225.752797,444.123565,9918.759623
664.317524,-459.657299,888.247130,9548.656652
664.317840,766.095498,666.185348,9178.553681
664.318155,612.876398,-0.000000,9474.636058
664.318471,612.876398,-592.164754,9474.636058
664.318787,383.047749,-962.267725,9696.697840
664.319102,919.314598,-1036.288319,10288.862594
664.319418,1685.410096,-518.144159,9770.718434
664.319734,1685.410096,296.082377,9696.697840
664.320049,1991.848295,1258.350101,9178.553681
664.320365,1685.410096,1998.556043,8290.306550
664.320681,2068.457845,2368.659014,8068.244768
664.320997,2451.505594,2516.700203,8068.244768
664.321312,2451.505594,1702.473667,7920.203579
664.321628,1532.190996,666.185348,8586.388927
664.321944,229.828649,-666.185348,9178.553681
664.322259,-459.657299,-1702.473667,10658.965565
664.322575,-459.657299,-2072.576638,11251.130318
664.322891,-766.095498,-1258.350101,10807.006753
664.323207,-1378.971896,-814.226536,10510.924376
664.323522,-1378.971896,-0.000000,9992.780217
664.323838,-536.266849,370.102971,9030.512492
664.324154,229.828649,666.185348,8216.285956
664.324469,689.485948,888.247130,8364.327145
664.324785,689.485948,-518.144159,8734.430116
664.325101,306.438199,-1480.411884,9030.512492
664.325417,383.047749,-2146.597232,9770.718434
664.325732,612.876398,-2368.659014,10140.821405
664.326048,1149.143247,-1406.391290,9992.780217
664.326364,995.924147,-370.102971,9474.636058
664.326679,919.314598,592.164754,8586.388927
664.326995,1072.533697,1184.329507,8142.265362
664.327311,1072.533697,1184.329507,8438.347739
664.327626,1455.581446,518.144159,8512.368333
664.327942,689.485948,-666.185348,9030.512492
664.328258,-229.828649,-2072.576638,9622.677246
664.328574,-689.485948,-3108.864956,10658.965565
664.328889,-995.924147,-3256.906145,11325.150913
664.329205,-766.095498,-2442.679609,11029.068536
664.329521,-1302.362347,-1554.432478,10955.047942
664.329836,-1378.971896,-1036.288319,10362.883188
664.330152,-1455.581446,-74.020594,9474.636058
664.330468,-153.219100,-0.000000,9030.512492
664.330784,229.828649,-148.041188,8512.368333
664.331099,1072.533697,-888.247130,8734.430116
664.331415,459.657299,-1332.370696,8808.450710
664.331731,612.876398,-1850.514855,9178.553681
664.332046,919.314598,-2072.576638,9992.780217
664.332362,995.924147,-1036.288319,9918.759623
664.332678,995.924147,-74.020594,9474.636058
664.332994,612.876398,592.164754,9178.553681
664.333309,612.876398,222.061783,8586.388927
664.333625,1225.752797,1184.329507,8364.327145
664.333941,1455.581446,1480.411884,8142.265362
664.334256,1149.143247,666.185348,8364.327145
664.334572,536.266849,-148.041188,8882.471304
664.334888,-153.219100,-888.247130,9474.636058
664.335203,-459.657299,-1480.411884,10288.862594
664.335519,-306.438199,-1406.391290,10732.986159
664.335835,-229.828649,-592.164754,10658.965565
664.336151,-766.095498,-74.020594,10436.903782
664.336466,-612.876398,518.144159,9696.697840
664.336782,153.219100,1628.453072,8956.491898
664.337098,1302.362347,2072.576638,8068.244768
664.337413,1225.752797,1924.535449,8734.430116
664.337729,1149.143247,814.226536,9178.553681
664.338045,1302.362347,-0.000000,9104.533087
664.338361,689.485948,-148.041188,10066.800811
664.338676,1149.143247,-0.000000,9992.780217
664.338992,1455.581446,592.164754,10288.862594
664.339308,536.266849,1332.370696,9622.677246
664.339623,766.095498,1776.494261,9104.533087
664.339939,1072.533697,2072.576638,8808.450710
664.340255,1608.800546,2220.617826,8512.368333
664.340571,1838.629195,1702.473667,8660.409521
664.340886,1225.752797,592.164754,9326.594869
664.341202,0.000000,-148.041188,9548.656652
664.341518,0.000000,-666.185348,10584.944971
664.341833,76.609550,-814.226536,10732.986159
664.342149,0.000000,-370.102971,10658.965565
664.342465,-689.485948,-0.000000,11177.109724
664.342780,-842.705048,74.020594,10584.944971
664.343096,-766.095498,296.082377,9622.677246
664.343412,0.000000,888.247130,9400.615463
664.343728,459.657299,518.144159,9622.677246
664.344043,689.485948,-222.061783,9844.739029
664.344359,383.047749,-444.123565,10066.800811
664.344675,536.266849,-814.226536,9622.677246
664.344990,842.705048,-814.226536,10214.842000
664.345306,1378.971896,-296.082377,10288.862594
664.345622,1149.143247,814.226536,9696.697840
664.345938,1072.533697,1184.329507,8882.471304
664.346253,1225.752797,1776.494261,8364.327145
664.346569,1762.019645,1924.535449,8068.244768
664.346885,2068.457845,666.185348,8586.388927
664.347200,1991.848295,222.061783,8808.450710
664.347516,1149.143247,-592.164754,8882.471304
664.347832,229.828649,-1480.411884,9622.677246
664.348148,306.438199,-1850.514855,10881.027347
664.348463,0.000000,-1258.350101,10658.965565
664.348779,-229.828649,-518.144159,10140.821405
664.349095,-919.314598,-0.000000,9474.636058
664.349410,-919.314598,592.164754,8956.491898
664.349726,0.000000,296.082377,8882.471304
664.350042,766.095498,222.061783,8660.409521
664.350357,689.485948,-444.123565,8882.471304
664.350673,306.438199,-1480.411884,8808.450710
664.350989,919.314598,-1850.514855,9104.533087
664.351305,383.047749,-1998.556043,10214.842000
664.351620,1225.752797,-1036.288319,9918.759623
664.351936,1225.752797,-148.041188,9252.574275
664.352252,689.485948,444.123565,8882.471304
664.352567,1072.533697,1110.308913,8364.327145
664.352883,1455.581446,1332.370696,7846.182985
664.353199,1915.238745,1036.288319,8142.265362
664.353515,1455.581446,-74.020594,8068.244768
664.353830,612.876398,-1332.370696,8882.471304
664.354146,229.828649,-2294.638420,9474.636058
664.354462,-842.705048,-2368.659014,10214.842000
664.354777,-689.485948,-2072.576638,10732.986159
664.355093,-1149.143247,-1924.535449,10955.047942
664.355409,-1685.410096,-1332.370696,10584.944971
664.355725,-1685.410096,-740.205942,9918.759623
664.356040,-1072.533697,-444.123565,9104.533087
664.356356,-229.828649,-518.144159,8956.491898
664.356672,-229.828649,-666.185348,9104.533087
664.356987,0.000000,-1184.329507,8956.491898
664.357303,0.000000,-1776.494261,9252.574275
664.357619,-229.828649,-2220.617826,10510.924376
664.357934,689.485948,-1406.391290,10214.842000
664.358250,1072.533697,-962.267725,10066.800811
664.358566,919.314598,-0.000000,9696.697840
664.358882,919.314598,666.185348,8882.471304
664.359197,1532.190996,1480.411884,8068.244768
664.359513,2145.067394,1850.514855,8142.265362
664.359829,2145.067394,962.267725,8438.347739
664.360144,1608.800546,296.082377,8734.430116
664.360460,842.705048,-1036.288319,9030.512492
664.360776,0.000000,-2368.659014,10362.883188
664.361092,0.000000,-2368.659014,11325.150913
664.361407,-229.828649,-1702.473667,11473.192101
664.361723,-689.485948,-888.247130,10732.986159
664.362039,-1455.581446,-444.123565,10436.903782
664.362354,-689.485948,-74.020594,9696.697840
664.362670,0.000000,370.102971,8956.491898
664.362986,689.485948,222.061783,8808.450710
664.363302,689.485948,-666.185348,9474.636058
664.363617,919.314598,-1184.329507,9622.677246
664.363933,689.485948,-1480.411884,9844.739029
664.364249,919.314598,-888.247130,10140.821405
664.364564,1685.410096,-222.061783,9696.697840
664.364880,1762.019645,814.226536,9400.615463
664.365196,2068.457845,1406.391290,8734.430116
664.365511,1685.410096,1850.514855,8068.244768
664.365827,2221.676944,2146.597232,7624.121203
664.366143,2145.067394,1628.453072,7846.182985
664.366459,1991.848295,740.205942,8438.347739
664.366774,1072.533697,-0.000000,8808.450710
664.367090,0.000000,-1184.329507,9622.677246
664.367406,-536.266849,-1924.535449,10732.986159
664.367721,-766.095498,-1702.473667,10955.047942
664.368037,-1378.971896,-1110.308913,11177.109724
664.368353,-1608.800546,-592.164754,11029.068536
664.368669,-1838.629195,-0.000000,10066.800811
664.368984,-842.705048,814.226536,9474.636058
664.369300,0.000000,1184.329507,8808.450710
664.369616,612.876398,592.164754,9030.512492
664.369931,612.876398,-296.082377,9178.553681
664.370247,153.219100,-740.205942,9474.636058
664.370563,612.876398,-592.164754,9918.759623
664.370879,1455.581446,-0.000000,10066.800811
664.371194,1762.019645,666.185348,9548.656652
664.371510,1225.752797,1702.473667,8956.491898
664.371826,1302.362347,2294.638420,8068.244768
664.372141,2145.067394,2368.659014,7624.121203
664.372457,2451.505594,2516.700203,7920.203579
664.372773,1608.800546,1628.453072,8438.347739
664.373088,766.095498,148.041188,8956.491898
664.373404,0.000000,-1036.288319,9918.759623
664.373720,-383.047749,-1702.473667,10510.924376
664.374036,-842.705048,-1554.432478,11251.130318
664.374351,-306.438199,-1258.350101,11177.109724
664.374667,-1915.238745,-740.205942,11103.089130
664.374983,-1991.848295,-148.041188,10584.944971
664.375298,-1225.752797,518.144159,9548.656652
664.375614,-459.657299,666.185348,9400.615463
664.375930,383.047749,-0.000000,9252.574275
664.376246,306.438199,-814.226536,9770.718434
664.376561,153.219100,-1332.370696,9696.697840
664.376877,766.095498,-1406.391290,9992.780217
664.377193,1455.581446,-962.267725,9770.718434
664.377508,1608.800546,-74.020594,9622.677246
664.377824,1378.971896,370.102971,9252.574275
664.378140,1455.581446,1480.411884,8734.430116
664.378456,1455.581446,1998.556043,8290.306550
664.378771,2374.896044,1924.535449,8216.285956
664.379087,1838.629195,1258.350101,8438.347739
664.379403,1455.581446,-0.000000,8586.388927
664.379718,229.828649,-1406.391290,9474.636058
664.380034,-306.438199,-2368.659014,10288.862594
664.380350,-383.047749,-2368.659014,10955.047942
664.380666,-766.095498,-2294.638420,10955.047942
664.380981,-1455.581446,-1480.411884,11251.130318
664.381297,-1608.800546,-1258.350101,10288.862594
664.381613,-1302.362347,-518.144159,9400.615463
664.381928,-229.828649,296.082377,9178.553681
664.382244,612.876398,-0.000000,9030.512492
664.382560,766.095498,-740.205942,8808.450710
664.382875,459.657299,-1480.411884,8882.471304
664.383191,919.314598,-2072.576638,9474.636058
664.383507,1225.752797,-1480.411884,9918.759623
664.383823,1762.019645,-962.267725,9622.677246
664.384138,1991.848295,370.102971,9178.553681
664.384454,1915.238745,962.267725,8512.368333
664.384770,1915.238745,1258.350101,7624.121203
664.385085,2528.115143,1924.535449,7698.141797
664.385401,2451.505594,1480.411884,7994.224174
664.385717,2068.457845,296.082377,8068.244768
664.386033,919.314598,-592.164754,8882.471304
664.386348,383.047749,-1924.535449,9622.677246
664.386664,0.000000,-2146.597232,10955.047942
664.386980,-689.485948,-2294.638420,11029.068536
664.387295,-1378.971896,-1776.494261,10807.006753
664.387611,-1685.410096,-1258.350101,10732.986159
664.387927,-1915.238745,-666.185348,9918.759623
664.388243,-842.705048,-0.000000,9104.533087
664.388559,0.000000,592.164754,8734.430116
664.388874,459.657299,-222.061783,8734.430116
664.389190,1072.533697,-666.185348,9104.533087
664.389506,612.876398,-1702.473667,9104.533087
664.389822,689.485948,-2146.597232,9918.759623
664.390137,995.924147,-1554.432478,10288.862594
664.390453,1455.581446,-740.205942,9992.780217
664.390769,536.266849,148.041188,9474.636058
664.391085,842.705048,1332.370696,8808.450710
664.391401,1608.800546,1850.514855,8216.285956
664.391716,1915.238745,1776.494261,8142.265362
664.392032,1532.190996,962.267725,8586.388927
664.392348,842.705048,222.061783,9548.656652
664.392664,0.000000,-1258.350101,9918.759623
664.392979,-612.876398,-2072.576638,10584.944971
664.393295,-919.314598,-2072.576638,11103.089130
664.393611,-1072.533697,-1628.453072,11473.192101
664.393927,-1762.019645,-888.247130,10955.047942
664.394243,-1762.019645,-0.000000,9992.780217
664.394558,-842.705048,518.144159,9474.636058
664.394874,-306.438199,888.247130,9030.512492
664.395190,306.438199,518.144159,8956.491898
664.395506,306.438199,-148.041188,9548.656652
664.395821,0.000000,-1110.308913,9178.553681
664.396137,306.438199,-1258.350101,9918.759623
664.396453,1072.533697,-962.267725,9992.780217
664.396769,1302.362347,-296.082377,9992.780217
664.397085,1455.581446,666.185348,9770.718434
664.397400,1302.362347,1924.535449,8956.491898
664.397716,1762.019645,2664.741391,8142.265362
664.398032,2451.505594,3108.864956,7698.141797
664.398348,2604.724693,2516.700203,7772.162391
664.398663,2298.286494,1406.391290,8216.285956
664.398979,1302.362347,-0.000000,8734.430116
664.399295,76.609550,-1036.288319,9696.697840
664.399611,306.438199,-1258.350101,10807.006753
664.399927,-229.828649,-1184.329507,11103.089130
664.400242,-995.924147,-222.061783,10955.047942
664.400558,-1378.971896,518.144159,10510.924376
664.400874,-1072.533697,1036.288319,9770.718434
664.401190,-306.438199,1480.411884,9030.512492
664.401505,153.219100,962.267725,9104.533087
664.401821,306.438199,222.061783,9030.512492
664.402137,229.828649,-888.247130,9474.636058
664.402453,689.485948,-1332.370696,9548.656652
664.402769,919.314598,-1332.370696,10436.903782
664.403084,1378.971896,-518.144159,10066.800811
664.403400,1685.410096,444.123565,9400.615463
664.403716,1225.752797,1554.432478,8882.471304
664.404032,1378.971896,2294.638420,8290.306550
664.404348,1838.629195,2590.720797,7846.182985
664.404663,2451.505594,2220.617826,7698.141797
664.404979,1991.848295,740.205942,8364.327145
664.405295,1149.143247,-518.144159,9104.533087
664.405611,76.609550,-1702.473667,9696.697840
664.405926,-153.219100,-2294.638420,11251.130318
664.406242,-383.047749,-1998.556043,11547.212695
664.406558,-1072.533697,-1332.370696,11029.068536
664.406874,-1838.629195,-592.164754,10881.027347
664.407190,-1685.410096,-0.000000,10362.883188
664.407505,-1149.143247,592.164754,9622.677246
664.407821,-842.705048,592.164754,9326.594869
664.408137,153.219100,-222.061783,9326.594869
664.408453,0.000000,-1110.308913,9474.636058
664.408768,76.609550,-1702.473667,9474.636058
664.409084,612.876398,-2146.597232,9992.780217
664.409400,995.924147,-1924.535449,10584.944971
664.409716,1225.752797,-1184.329507,10140.821405
664.410032,919.314598,-222.061783,9622.677246
664.410347,1072.533697,592.164754,8956.491898
664.410663,1915.238745,1628.453072,8290.306550
664.410979,2374.896044,1924.535449,7328.038826
664.411295,2298.286494,1406.391290,7846.182985
664.411610,1915.238745,-0.000000,7994.224174
664.411926,919.314598,-1258.350101,8808.450710
664.412242,229.828649,-2368.659014,9992.780217
664.412558,0.000000,-3034.844362,10584.944971
664.412874,-536.266849,-2590.720797,10955.047942
664.413189,-1149.143247,-1998.556043,10510.924376
664.413505,-995.924147,-1184.329507,9770.718434
664.413821,-995.924147,-296.082377,9844.739029
664.414137,76.609550,296.082377,8660.409521
664.414452,383.047749,296.082377,8364.327145
664.414768,383.047749,-666.185348,8808.450710
664.415084,383.047749,-1406.391290,9030.512492
664.415400,612.876398,-1776.494261,9474.636058
664.415716,919.314598,-1702.473667,9696.697840
664.416031,1302.362347,-666.185348,9770.718434
664.416347,1149.143247,-0.000000,9178.553681
664.416663,1149.143247,888.247130,8956.491898
664.416979,1225.752797,1850.514855,8068.244768
664.417294,1608.800546,2368.659014,7920.203579
664.417610,2068.457845,2146.597232,7698.141797
664.417926,1225.752797,962.267725,8142.265362
664.418242,306.438199,-222.061783,9104.533087
664.418558,-383.047749,-1110.308913,9844.739029
664.418873,-612.876398,-1628.453072,10584.944971
664.419189,-766.095498,-1480.411884,11399.171507
664.419505,-1072.533697,-962.267725,11029.068536
664.419821,-1455.581446,-444.123565,10436.903782
664.420136,-1225.752797,370.102971,10288.862594
664.420452,-383.047749,1110.308913,9326.594869
664.420768,536.266849,1110.308913,8956.491898
664.421084,536.266849,740.205942,9104.533087
664.421400,536.266849,-0.000000,9030.512492
664.421715,612.876398,-296.082377,9474.636058
664.422031,1149.143247,-666.185348,10214.842000
664.422347,1608.800546,-222.061783,9992.780217
664.422663,1455.581446,-0.000000,9918.759623
664.422978,1149.143247,370.102971,9770.718434
664.423294,995.924147,962.267725,9178.553681
664.423610,1608.800546,1702.473667,8512.368333
664.423926,2145.067394,1850.514855,8290.306550
664.424242,1762.019645,962.267725,8956.491898
664.424557,766.095498,-74.020594,9548.656652
664.424873,229.828649,-1480.411884,9844.739029
664.425189,0.000000,-1924.535449,10955.047942
664.425505,0.000000,-1850.514855,11473.192101
664.425820,-383.047749,-1258.350101,10732.986159
664.426136,-919.314598,-814.226536,10510.924376
664.426452,-995.924147,-74.020594,9992.780217
664.426768,-383.047749,444.123565,9474.636058
664.427084,919.314598,1036.288319,9030.512492
664.427399,919.314598,222.061783,9030.512492
664.427715,689.485948,-666.185348,9474.636058
664.428031,995.924147,-1036.288319,9104.533087
664.428347,1149.143247,-1332.370696,9992.780217
664.428662,1455.581446,-1628.453072,10214.842000
664.428978,1455.581446,-148.041188,9696.697840
664.429294,1685.410096,222.061783,9400.615463
664.429610,1378.971896,1110.308913,8808.450710
664.429926,1378.971896,1776.494261,8142.265362
664.430241,1608.800546,1406.391290,8068.244768
664.430557,1915.238745,962.267725,8216.285956
664.430873,1072.533697,-592.164754,8216.285956
664.431189,306.438199,-1258.350101,9252.574275
664.431504,-229.828649,-2072.576638,9992.780217
664.431820,-536.266849,-2368.659014,10658.965565
664.432136,0.000000,-1628.453072,10881.027347
664.432452,-1149.143247,-1036.288319,9770.718434
664.432768,-1378.971896,-444.123565,9548.656652
664.433083,-1072.533697,296.082377,9326.594869
664.433399,0.000000,370.102971,8586.388927
664.433715,229.828649,222.061783,8586.388927
664.434031,229.828649,-962.267725,8808.450710
664.434346,76.609550,-1554.432478,9030.512492
664.434662,76.609550,-1702.473667,9474.636058
664.434978,536.266849,-1850.514855,9770.718434
664.435294,689.485948,-1258.350101,9622.677246
664.435610,842.705048,-444.123565,9474.636058
664.435925,612.876398,-0.000000,9104.533087
664.436241,459.657299,1036.288319,8290.306550
664.436557,1225.752797,1406.391290,8290.306550
664.436873,1072.533697,1036.288319,7994.224174
664.437189,995.924147,370.102971,8586.388927
664.437504,0.000000,-814.226536,9030.512492
664.437820,-459.657299,-1776.494261,9770.718434
664.438136,-689.485948,-2072.576638,10881.027347
664.438452,-689.485948,-2368.659014,11103.089130
664.438767,-919.314598,-1406.391290,10807.006753
664.439083,-1532.190996,-666.185348,10658.965565
664.439399,-1302.362347,-444.123565,9696.697840
664.439715,-383.047749,222.061783,9474.636058
664.440031,229.828649,1110.308913,8882.471304
664.440346,306.438199,444.123565,9178.553681
664.440662,76.609550,-592.164754,9400.615463
664.440978,76.609550,-1850.514855,10362.883188
664.441294,689.485948,-1628.453072,10436.903782
664.441609,1225.752797,-962.267725,10436.903782
664.441925,1225.752797,222.061783,10066.800811
664.442241,1072.533697,814.226536,9400.615463
664.442557,689.485948,962.267725,8586.388927
664.442873,1532.190996,2146.597232,8438.347739
664.443188,1915.238745,2072.576638,7920.203579
664.443504,2145.067394,1406.391290,7994.224174
664.443820,1455.581446,222.061783,9030.512492
664.444136,689.485948,-888.247130,9696.697840
664.444451,153.219100,-1406.391290,10436.903782
664.444767,229.828649,-1332.370696,10881.027347
664.445083,0.000000,-814.226536,10881.027347
664.445399,-229.828649,-0.000000,10732.986159
664.445715,-306.438199,518.144159,10066.800811
664.446030,-153.219100,888.247130,9622.677246
664.446346,459.657299,1184.329507,9104.533087
664.446662,919.314598,592.164754,8882.471304
664.446978,919.314598,-0.000000,8956.491898
664.447293,1149.143247,-666.185348,9474.636058
664.447609,1072.533697,-1184.329507,10288.862594
664.447925,1608.800546,-444.123565,9992.780217
664.448241,1991.848295,-0.000000,9992.780217
664.448557,1685.410096,740.205942,9326.594869
664.448872,1455.581446,1554.432478,9104.533087
664.449188,1378.971896,2146.597232,8068.244768
664.449504,2374.896044,2368.659014,7920.203579
664.449820,2068.457845,1628.453072,8364.327145
664.450135,1225.752797,-0.000000,8512.368333
664.450451,383.047749,-518.144159,8956.491898
664.450767,-383.047749,-1480.411884,10140.821405
664.451083,-612.876398,-2072.576638,11029.068536
664.451399,-689.485948,-1924.535449,11103.089130
664.451714,-1302.362347,-1258.350101,10732.986159
664.452030,-1455.581446,-222.061783,10510.924376
664.452346,-919.314598,222.061783,9474.636058
664.452662,-383.047749,1110.308913,8734.430116
664.452977,306.438199,592.164754,8882.471304
664.453293,612.876398,-222.061783,8956.491898
664.453609,153.219100,-888.247130,8882.471304
664.453925,76.609550,-1406.391290,9622.677246
664.454241,766.095498,-1480.411884,10362.883188
664.454556,1455.581446,-888.247130,10214.842000
664.454872,1378.971896,-0.000000,9622.677246
664.455188,1225.752797,592.164754,8956.491898
664.455504,995.924147,1406.391290,7994.224174
664.455819,1608.800546,1628.453072,8068.244768
664.456135,1762.019645,962.267725,7994.224174
664.456451,1149.143247,148.041188,8660.409521
664.456767,383.047749,-592.164754,9252.574275
664.457083,-383.047749,-1702.473667,9548.656652
664.457398,-612.876398,-2294.638420,10584.944971
664.457714,-1225.752797,-2072.576638,10955.047942
664.458030,-1532.190996,-1332.370696,11029.068536
664.458346,-2068.457845,-666.185348,10658.965565
664.458661,-1838.629195,-518.144159,10214.842000
664.458977,-995.924147,-0.000000,9252.574275
664.459293,-459.657299,296.082377,9474.636058
664.459609,-153.219100,-148.041188,9400.615463
664.459925,76.609550,-1184.329507,9770.718434
664.460240,76.609550,-1924.535449,9474.636058
664.460556,383.047749,-1850.514855,9918.759623
664.460872,842.705048,-1258.350101,10066.800811
664.461188,1685.410096,-592.164754,9622.677246
664.461503,1532.190996,370.102971,9030.512492
664.461819,1302.362347,888.247130,8512.368333
664.462135,1915.238745,1924.535449,7994.224174
