#time,accel_x,accel_y,accel_z
791.980931,229.828649,-296.082377,9326.594869
791.981247,383.047749,-222.061783,9400.615463
791.981563,459.657299,-0.000000,9622.677246
791.981878,229.828649,-0.000000,9622.677246
791.982194,306.438199,-74.020594,9548.656652
791.982509,306.438199,-370.102971,9400.615463
791.982825,229.828649,-148.041188,9548.656652
791.983140,459.657299,-296.082377,9474.636058
791.983456,459.657299,-148.041188,9474.636058
791.983771,153.219100,-222.061783,9548.656652
791.984087,76.609550,-296.082377,9770.718434
791.984402,536.266849,-222.061783,9252.574275
791.984718,459.657299,-222.061783,9474.636058
791.985034,383.047749,-222.061783,9696.697840
791.985349,383.047749,-222.061783,9474.636058
791.985665,153.219100,-370.102971,9474.636058
791.985980,383.047749,-148.041188,9326.594869
791.986296,459.657299,222.061783,9104.533087
791.986611,536.266849,222.061783,9104.533087
791.986927,536.266849,-74.020594,9400.615463
791.987242,689.485948,-444.123565,9178.553681
791.987558,153.219100,-0.000000,9770.718434
791.987873,306.438199,-0.000000,9622.677246
791.988189,76.609550,-296.082377,9696.697840
791.988504,0.000000,-296.082377,9770.718434
791.988820,0.000000,-296.082377,9918.759623
791.989136,306.438199,-74.020594,9622.677246
791.989451,306.438199,296.082377,9474.636058
791.989767,459.657299,814.226536,9252.574275
791.990082,383.047749,814.226536,9104.533087
791.990398,1455.581446,814.226536,9622.677246
791.990713,689.485948,592.164754,9104.533087
791.991029,459.657299,592.164754,9252.574275
791.991344,612.876398,296.082377,9178.553681
791.991660,612.876398,296.082377,9548.656652
791.991975,689.485948,-0.000000,9474.636058
791.992291,766.095498,148.041188,9548.656652
791.992607,842.705048,296.082377,9696.697840
791.992922,842.705048,666.185348,9696.697840
791.993238,1532.190996,888.247130,9474.636058
791.993553,1225.752797,888.247130,9474.636058
791.993869,1915.238745,1554.432478,9474.636058
791.994184,1991.848295,1480.411884,9178.553681
791.994500,1991.848295,1628.453072,9030.512492
791.994815,2374.896044,1554.432478,8956.491898
791.995131,2451.505594,1628.453072,9400.615463
791.995446,2451.505594,1850.514855,9400.615463
791.995762,2451.505594,1776.494261,9474.636058
791.996077,2451.505594,1628.453072,9548.656652
791.996393,2528.115143,1924.535449,9474.636058
791.996709,3140.991542,1776.494261,9474.636058
791.997024,2528.115143,1776.494261,9622.677246
791.997340,2681.334243,2368.659014,9770.718434
791.997655,2757.943793,2368.659014,9548.656652
791.997971,2987.772442,2516.700203,9400.615463
791.998286,2987.772442,2516.700203,9474.636058
791.998602,3294.210641,2442.679609,9252.574275
791.998917,3294.210641,2664.741391,9326.594869
791.999233,3524.039291,2664.741391,9252.574275
791.999548,3217.601092,2664.741391,9474.636058
791.999864,3217.601092,2368.659014,9844.739029
792.000180,3217.601092,2960.823768,9474.636058
792.000495,3064.381992,3034.844362,9622.677246
792.000811,3064.381992,2738.761985,9696.697840
792.001126,2911.162892,2516.700203,9770.718434
792.001442,3064.381992,1998.556043,9918.759623
792.001757,2834.553343,2294.638420,9992.780217
792.002073,2451.505594,2146.597232,9918.759623
792.002388,2604.724693,2220.617826,10288.862594
792.002704,2604.724693,2146.597232,10066.800811
792.003019,2681.334243,2368.659014,9696.697840
792.003335,2298.286494,2590.720797,9918.759623
792.003650,2528.115143,2294.638420,10066.800811
792.003966,3140.991542,2146.597232,9696.697840
792.004282,2987.772442,2220.617826,9400.615463
792.004597,2681.334243,2072.576638,9400.615463
792.004913,2681.334243,2072.576638,9400.615463
792.005228,2604.724693,1998.556043,9474.636058
792.005544,2528.115143,2072.576638,9474.636058
792.005859,1608.800546,1628.453072,9474.636058
792.006175,1149.143247,1110.308913,9770.718434
792.006490,919.314598,740.205942,10214.842000
792.006806,766.095498,222.061783,10362.883188
792.007121,153.219100,-148.041188,10807.006753
792.007437,536.266849,-444.123565,10881.027347
792.007753,689.485948,-592.164754,11177.109724
792.008068,995.924147,-370.102971,10510.924376
792.008384,1685.410096,444.123565,10214.842000
792.008699,2145.067394,1332.370696,9474.636058
792.009015,3064.381992,2368.659014,8512.368333
792.009330,3907.087040,2146.597232,7550.100608
792.009646,4519.963438,2960.823768,7105.977043
792.009961,4136.915689,3034.844362,7031.956449
792.010277,4366.744339,2146.597232,7179.997637
792.010592,3830.477490,1554.432478,7698.141797
792.010908,3217.601092,1184.329507,8290.306550
792.011223,1991.848295,592.164754,8660.409521
792.011539,1378.971896,296.082377,9844.739029
792.011855,459.657299,-0.000000,9770.718434
792.012170,-536.266849,-0.000000,10362.883188
792.012486,-612.876398,-370.102971,10732.986159
792.012801,-1149.143247,-592.164754,10807.006753
792.013117,-612.876398,-1110.308913,10881.027347
792.013432,0.000000,-888.247130,10732.986159
792.013748,1225.752797,-370.102971,10510.924376
792.014063,1532.190996,296.082377,10066.800811
792.014379,2987.772442,1480.411884,9104.533087
792.014694,4060.306139,2516.700203,8142.265362
792.015010,5209.449386,3330.926739,7698.141797
792.015326,6511.811733,3775.050304,7105.977043
792.015641,6511.811733,4071.132681,6735.874072
792.015957,6818.249932,4441.235652,6661.853478
792.016272,6281.983084,4071.132681,6809.894666
792.016588,5745.716235,3775.050304,7328.038826
792.016903,4366.744339,3182.885551,8512.368333
792.017219,3140.991542,1776.494261,9326.594869
792.017534,1532.190996,518.144159,10658.965565
792.017850,229.828649,-444.123565,11843.295072
792.018165,-766.095498,-962.267725,13175.665768
792.018481,-1532.190996,-1184.329507,13545.768739
792.018796,-1149.143247,-370.102971,12953.603985
792.019112,-459.657299,444.123565,12435.459826
792.019428,842.705048,2146.597232,11251.130318
792.019743,1991.848295,3552.988522,9844.739029
792.020059,3524.039291,4441.235652,7624.121203
792.020374,4979.620737,4811.338623,7105.977043
792.020690,6205.373534,4737.318029,6883.915261
792.021005,6971.469032,4293.194464,6735.874072
792.021321,6511.811733,3701.029710,7550.100608
792.021636,5898.935335,2368.659014,7994.224174
792.021952,5056.230287,2368.659014,9326.594869
792.022267,3907.087040,2368.659014,10658.965565
792.022583,2757.943793,1998.556043,11399.171507
792.022899,1608.800546,1850.514855,11991.336260
792.023214,689.485948,2294.638420,11325.150913
792.023530,536.266849,2812.782580,11251.130318
792.023845,612.876398,2960.823768,10510.924376
792.024161,1072.533697,2368.659014,10584.944971
792.024476,1762.019645,1998.556043,10066.800811
792.024792,1149.143247,2146.597232,9252.574275
792.025107,1532.190996,1776.494261,9326.594869
792.025423,2604.724693,1702.473667,9178.553681
792.025738,2681.334243,2516.700203,8660.409521
792.026054,2451.505594,3108.864956,8512.368333
792.026369,1762.019645,2812.782580,9252.574275
792.026685,1455.581446,2368.659014,9696.697840
792.027001,1838.629195,1850.514855,9548.656652
792.027316,2221.676944,1036.288319,10214.842000
792.027632,1838.629195,1184.329507,10807.006753
792.027947,1302.362347,1332.370696,10732.986159
792.028263,1915.238745,1924.535449,10658.965565
792.028578,2145.067394,1924.535449,10288.862594
792.028894,2834.553343,3108.864956,9696.697840
792.029209,2987.772442,4145.153275,8216.285956
792.029525,3370.820191,3701.029710,7328.038826
792.029840,4673.182538,2368.659014,7254.018232
792.030156,4443.353888,2368.659014,7105.977043
792.030471,3753.867940,1850.514855,7550.100608
792.030787,3140.991542,518.144159,8660.409521
792.031103,2681.334243,-444.123565,9474.636058
792.031418,1072.533697,-148.041188,10140.821405
792.031734,0.000000,370.102971,10807.006753
792.032049,-689.485948,740.205942,10881.027347
792.032365,229.828649,444.123565,11029.068536
792.032680,842.705048,740.205942,10214.842000
792.032996,842.705048,814.226536,10140.821405
792.033311,1532.190996,1184.329507,9918.759623
792.033627,2834.553343,888.247130,9844.739029
792.033942,3600.648841,1258.350101,8734.430116
792.034258,4366.744339,2664.741391,7920.203579
792.034574,5132.839837,2812.782580,7550.100608
792.034889,5439.278036,2664.741391,7846.182985
792.035205,5056.230287,2442.679609,7772.162391
792.035520,4903.011187,2368.659014,8068.244768
792.035836,4673.182538,2294.638420,8142.265362
792.036151,3370.820191,2516.700203,8734.430116
792.036467,2221.676944,2738.761985,9474.636058
792.036782,1915.238745,2220.617826,9918.759623
792.037098,842.705048,962.267725,10288.862594
792.037413,-306.438199,444.123565,11621.233289
792.037729,-689.485948,-666.185348,12065.356855
792.038044,-536.266849,-1702.473667,12361.439231
792.038360,-689.485948,-740.205942,11547.212695
792.038676,153.219100,518.144159,10881.027347
792.038991,2068.457845,962.267725,11103.089130
792.039307,3447.429741,2220.617826,9326.594869
792.039623,3753.867940,3182.885551,7476.080014
792.039938,4673.182538,2664.741391,7624.121203
792.040254,5362.668486,2886.803174,7920.203579
792.040570,4903.011187,3923.091493,7402.059420
792.040885,4673.182538,3478.967927,7698.141797
792.041201,5056.230287,1850.514855,8142.265362
792.041517,3294.210641,1554.432478,9104.533087
792.041832,1915.238745,1850.514855,10214.842000
792.042148,1455.581446,518.144159,10732.986159
792.042464,76.609550,962.267725,11029.068536
792.042779,0.000000,962.267725,11473.192101
792.043095,383.047749,148.041188,11399.171507
792.043411,383.047749,518.144159,11547.212695
792.043726,229.828649,518.144159,10807.006753
792.044042,995.924147,444.123565,9326.594869
792.044358,1838.629195,1406.391290,9474.636058
792.044673,1915.238745,1776.494261,9252.574275
792.044989,2987.772442,2072.576638,9252.574275
792.045305,3294.210641,1776.494261,8290.306550
792.045620,3217.601092,1628.453072,8660.409521
792.045936,2987.772442,1850.514855,8586.388927
792.046252,2911.162892,1776.494261,8956.491898
792.046567,2757.943793,2442.679609,9400.615463
792.046883,3064.381992,1702.473667,10140.821405
792.047199,2911.162892,2220.617826,9474.636058
792.047514,2221.676944,1850.514855,8956.491898
792.047830,1455.581446,1036.288319,9770.718434
792.048146,1378.971896,962.267725,9844.739029
792.048461,1685.410096,-74.020594,10881.027347
792.048777,1455.581446,-222.061783,10584.944971
792.049093,1455.581446,592.164754,9918.759623
792.049408,1455.581446,740.205942,9030.512492
792.049724,1608.800546,1776.494261,7698.141797
792.050040,2374.896044,1702.473667,8660.409521
792.050356,2681.334243,1036.288319,8882.471304
792.050671,2221.676944,1554.432478,8956.491898
792.050987,995.924147,1554.432478,8734.430116
792.051303,919.314598,592.164754,8956.491898
792.051618,612.876398,1628.453072,8734.430116
792.051934,1072.533697,1258.350101,9622.677246
792.052250,766.095498,296.082377,10955.047942
792.052565,0.000000,222.061783,11029.068536
792.052881,306.438199,-0.000000,10288.862594
792.053197,536.266849,-0.000000,9622.677246
792.053512,689.485948,1036.288319,9104.533087
792.053828,2068.457845,296.082377,9992.780217
792.054144,1685.410096,1184.329507,9178.553681
792.054459,842.705048,1480.411884,8882.471304
792.054775,1302.362347,74.020594,9178.553681
792.055091,995.924147,1406.391290,7920.203579
792.055406,842.705048,296.082377,9400.615463
792.055722,1302.362347,-592.164754,10658.965565
792.056038,229.828649,-592.164754,9400.615463
792.056353,0.000000,-1258.350101,10955.047942
792.056669,0.000000,-592.164754,10955.047942
792.056985,612.876398,-592.164754,9844.739029
792.057300,995.924147,-148.041188,9770.718434
792.057616,689.485948,370.102971,9770.718434
792.057932,383.047749,-74.020594,9770.718434
792.058247,1149.143247,-0.000000,8882.471304
792.058563,1455.581446,296.082377,8216.285956
792.058879,2145.067394,-0.000000,8586.388927
792.059194,2298.286494,592.164754,9030.512492
792.059510,842.705048,-74.020594,8808.450710
792.059826,153.219100,-666.185348,9252.574275
792.060141,919.314598,-0.000000,9918.759623
792.060457,459.657299,-0.000000,8956.491898
792.060773,0.000000,-0.000000,10066.800811
792.061088,-1149.143247,-962.267725,10362.883188
792.061404,-1915.238745,-1406.391290,10140.821405
792.061720,-1685.410096,-296.082377,10807.006753
792.062035,-459.657299,-370.102971,10362.883188
792.062351,-459.657299,-370.102971,9918.759623
792.062667,-536.266849,-518.144159,9770.718434
792.062982,-1149.143247,-814.226536,9474.636058
792.063298,-153.219100,518.144159,9474.636058
792.063614,1225.752797,592.164754,8586.388927
792.063929,2145.067394,1036.288319,8290.306550
792.064245,1302.362347,1036.288319,7920.203579
792.064561,459.657299,-740.205942,8216.285956
792.064877,306.438199,-740.205942,8364.327145
792.065192,612.876398,-666.185348,9252.574275
792.065508,842.705048,-1184.329507,9770.718434
792.065824,-229.828649,-962.267725,9696.697840
792.066139,-1532.190996,-1924.535449,10362.883188
792.066455,-1685.410096,-1702.473667,10881.027347
792.066771,-1072.533697,-962.267725,10066.800811
792.067086,-153.219100,-592.164754,10658.965565
792.067402,0.000000,222.061783,9326.594869
792.067718,-229.828649,-444.123565,9252.574275
792.068033,-459.657299,-518.144159,8808.450710
792.068349,1072.533697,-222.061783,9326.594869
792.068665,2298.286494,-296.082377,8882.471304
792.068980,2298.286494,666.185348,7994.224174
792.069296,1838.629195,444.123565,7920.203579
792.069612,1532.190996,-518.144159,8660.409521
792.069927,1302.362347,814.226536,10214.842000
792.070243,1915.238745,666.185348,9030.512492
792.070559,1915.238745,1332.370696,8586.388927
792.070874,1072.533697,1332.370696,8882.471304
792.071190,153.219100,-370.102971,9918.759623
792.071506,76.609550,518.144159,10436.903782
792.071821,0.000000,-222.061783,9992.780217
792.072137,842.705048,-148.041188,9770.718434
792.072453,0.000000,296.082377,10214.842000
792.072768,-459.657299,-888.247130,10362.883188
792.073084,0.000000,-148.041188,9992.780217
792.073400,306.438199,370.102971,9696.697840
792.073715,1149.143247,-0.000000,9326.594869
792.074031,1302.362347,1258.350101,9104.533087
792.074347,842.705048,962.267725,8808.450710
792.074662,919.314598,444.123565,9030.512492
792.074978,995.924147,74.020594,9104.533087
792.075294,1302.362347,-296.082377,9992.780217
792.075609,1149.143247,740.205942,10140.821405
792.075925,153.219100,-666.185348,9474.636058
792.076241,-383.047749,-148.041188,9844.739029
792.076556,153.219100,-444.123565,10288.862594
792.076872,1302.362347,-444.123565,10362.883188
792.077188,1378.971896,666.185348,10140.821405
792.077503,383.047749,444.123565,9030.512492
792.077819,229.828649,962.267725,8882.471304
792.078135,459.657299,518.144159,8660.409521
792.078450,1072.533697,-222.061783,8956.491898
792.078766,919.314598,222.061783,8586.388927
792.079082,0.000000,-444.123565,9696.697840
792.079397,-1225.752797,-1480.411884,10362.883188
792.079713,-1149.143247,-814.226536,9548.656652
792.080029,-306.438199,-1258.350101,9844.739029
792.080345,229.828649,-148.041188,10807.006753
792.080660,-383.047749,-0.000000,9770.718434
792.080976,-766.095498,-0.000000,9770.718434
792.081292,0.000000,666.185348,8364.327145
792.081607,689.485948,-148.041188,9178.553681
792.081923,1762.019645,-0.000000,9548.656652
792.082239,766.095498,-222.061783,8882.471304
792.082554,229.828649,-888.247130,8586.388927
792.082870,689.485948,-222.061783,8734.430116
792.083186,1455.581446,-740.205942,8512.368333
792.083501,1685.410096,-0.000000,8882.471304
792.083817,536.266849,518.144159,8734.430116
792.084133,-383.047749,-666.185348,8734.430116
792.084448,-612.876398,-74.020594,8734.430116
792.084764,-842.705048,-370.102971,9844.739029
792.085080,76.609550,-1406.391290,10066.800811
792.085395,76.609550,-0.000000,9548.656652
792.085711,-1072.533697,-1184.329507,9844.739029
792.086027,-1532.190996,-1628.453072,10436.903782
792.086342,76.609550,-962.267725,10658.965565
792.086658,842.705048,-222.061783,9252.574275
792.086974,842.705048,1332.370696,8734.430116
792.087289,995.924147,518.144159,9548.656652
792.087605,536.266849,370.102971,8882.471304
792.087921,1378.971896,1406.391290,8364.327145
792.088236,2068.457845,296.082377,8956.491898
792.088552,1915.238745,370.102971,8882.471304
792.088868,1072.533697,-296.082377,8956.491898
792.089183,0.000000,-666.185348,10066.800811
792.089499,229.828649,-1332.370696,10288.862594
792.089815,-229.828649,-1480.411884,10732.986159
792.090130,153.219100,296.082377,9770.718434
792.090446,-536.266849,518.144159,9474.636058
792.090762,-383.047749,-0.000000,9918.759623
792.091077,-612.876398,-0.000000,9474.636058
792.091393,459.657299,-2368.659014,10584.944971
792.091709,1762.019645,-888.247130,10066.800811
792.092024,689.485948,-1110.308913,9030.512492
792.092340,229.828649,-1406.391290,9548.656652
792.092656,0.000000,-592.164754,11251.130318
792.092971,1608.800546,-1110.308913,10436.903782
792.093287,2374.896044,1480.411884,9252.574275
792.093603,1225.752797,1702.473667,7846.182985
792.093918,1225.752797,666.185348,9326.594869
792.094234,1838.629195,740.205942,8216.285956
792.094550,1608.800546,888.247130,8808.450710
792.094866,2298.286494,666.185348,9474.636058
792.095181,919.314598,-0.000000,8882.471304
792.095497,0.000000,-1036.288319,9918.759623
792.095813,-229.828649,-1036.288319,10214.842000
792.096128,0.000000,-1776.494261,10362.883188
792.096444,306.438199,-888.247130,10436.903782
792.096760,-306.438199,-370.102971,10288.862594
792.097075,-612.876398,-666.185348,10066.800811
792.097391,-919.314598,-0.000000,9252.574275
792.097707,-229.828649,-370.102971,8586.388927
792.098022,612.876398,-666.185348,10140.821405
792.098338,153.219100,-296.082377,8586.388927
792.098654,229.828649,-518.144159,8808.450710
792.098969,-766.095498,-1258.350101,9770.718434
792.099285,0.000000,-1184.329507,9474.636058
792.099601,919.314598,-148.041188,9548.656652
792.099916,766.095498,888.247130,8882.471304
792.100232,306.438199,666.185348,8512.368333
792.100548,612.876398,148.041188,8512.368333
792.100863,536.266849,740.205942,8216.285956
792.101179,1838.629195,-0.000000,9400.615463
792.101495,1225.752797,444.123565,8512.368333
792.101810,919.314598,-296.082377,8734.430116
792.102126,-383.047749,-740.205942,9326.594869
792.102442,-536.266849,-222.061783,10436.903782
792.102757,-306.438199,-518.144159,9918.759623
792.103073,-229.828649,518.144159,9474.636058
792.103389,-842.705048,-444.123565,10140.821405
792.103704,-1072.533697,-962.267725,9918.759623
792.104020,-995.924147,222.061783,10214.842000
792.104336,306.438199,-148.041188,9474.636058
792.104651,766.095498,-0.000000,9696.697840
792.104967,995.924147,222.061783,9696.697840
792.105283,229.828649,-1184.329507,9622.677246
792.105598,536.266849,-222.061783,9992.780217
792.105914,1685.410096,-370.102971,10066.800811
792.106230,2604.724693,148.041188,9104.533087
792.106545,2298.286494,1406.391290,8660.409521
792.106861,1685.410096,518.144159,9326.594869
792.107177,1991.848295,1110.308913,8808.450710
792.107492,2221.676944,296.082377,9178.553681
792.107808,2987.772442,-444.123565,9548.656652
792.108124,1838.629195,222.061783,9474.636058
792.108439,459.657299,-666.185348,10140.821405
792.108755,0.000000,-666.185348,10510.924376
792.109071,0.000000,-962.267725,10807.006753
792.109387,919.314598,-1258.350101,11103.089130
792.109702,842.705048,444.123565,10140.821405
792.110018,0.000000,-296.082377,9844.739029
792.110334,-153.219100,740.205942,9474.636058
792.110649,612.876398,444.123565,9400.615463
792.110965,1072.533697,-222.061783,10288.862594
792.111281,1608.800546,740.205942,8956.491898
792.111596,689.485948,-296.082377,9252.574275
792.111912,383.047749,-740.205942,10140.821405
792.112228,153.219100,-740.205942,9844.739029
792.112543,766.095498,-370.102971,10658.965565
792.112859,536.266849,592.164754,9548.656652
792.113175,0.000000,1258.350101,8956.491898
792.113490,-229.828649,296.082377,9252.574275
792.113806,-459.657299,-0.000000,9326.594869
792.114122,76.609550,-814.226536,10066.800811
792.114437,76.609550,-518.144159,9770.718434
792.114753,-995.924147,-740.205942,8808.450710
792.115069,-919.314598,-1332.370696,10214.842000
792.115384,-1225.752797,-518.144159,9548.656652
792.115700,76.609550,-666.185348,9622.677246
792.116016,229.828649,-0.000000,9474.636058
792.116331,0.000000,-0.000000,8438.347739
792.116647,-153.219100,-592.164754,8882.471304
792.116963,229.828649,-0.000000,8660.409521
792.117278,1225.752797,-962.267725,8586.388927
792.117594,1608.800546,-592.164754,8956.491898
792.117910,1149.143247,-0.000000,8660.409521
792.118225,766.095498,-962.267725,8068.244768
792.118541,0.000000,-444.123565,9030.512492
792.118857,536.266849,-148.041188,9770.718434
792.119172,766.095498,-74.020594,9474.636058
792.119488,842.705048,1258.350101,8438.347739
792.119804,-459.657299,-0.000000,8882.471304
792.120119,-459.657299,-74.020594,9622.677246
792.120435,153.219100,-444.123565,9918.759623
792.120751,306.438199,-148.041188,9252.574275
792.121066,0.000000,-0.000000,9400.615463
792.121382,-383.047749,-962.267725,9992.780217
792.121698,-842.705048,-814.226536,10362.883188
792.122013,-383.047749,-0.000000,9030.512492
792.122329,153.219100,-814.226536,10584.944971
792.122645,0.000000,518.144159,9992.780217
792.122960,383.047749,444.123565,9622.677246
792.123276,76.609550,814.226536,9326.594869
792.123592,842.705048,1036.288319,8956.491898
792.123907,2068.457845,-148.041188,9400.615463
792.124223,2221.676944,370.102971,9326.594869
792.124539,1532.190996,-370.102971,8660.409521
792.124855,612.876398,-296.082377,9252.574275
792.125170,612.876398,-74.020594,9474.636058
792.125486,1685.410096,-444.123565,10140.821405
792.125802,1302.362347,444.123565,9622.677246
792.126117,459.657299,888.247130,9030.512492
792.126433,-229.828649,-296.082377,9770.718434
792.126749,-383.047749,-222.061783,9770.718434
792.127064,383.047749,-814.226536,9918.759623
792.127380,766.095498,-666.185348,9696.697840
792.127696,0.000000,-888.247130,10066.800811
792.128011,-612.876398,-1850.514855,10584.944971
792.128327,-766.095498,-1184.329507,10362.883188
792.128643,76.609550,-518.144159,9622.677246
792.128958,766.095498,-74.020594,9696.697840
792.129274,383.047749,518.144159,8660.409521
792.129590,-229.828649,-814.226536,9696.697840
792.129905,76.609550,-296.082377,9326.594869
792.130221,842.705048,-296.082377,8956.491898
792.130537,1608.800546,-666.185348,9474.636058
792.130852,1149.143247,-370.102971,9474.636058
792.131168,229.828649,-888.247130,9474.636058
792.131484,0.000000,-740.205942,9474.636058
792.131799,76.609550,-444.123565,9474.636058
792.132115,766.095498,-888.247130,10955.047942
792.132431,306.438199,666.185348,9400.615463
792.132746,-306.438199,518.144159,8660.409521
792.133062,-229.828649,-444.123565,8956.491898
792.133378,383.047749,-296.082377,8882.471304
792.133693,1455.581446,-296.082377,9844.739029
792.134009,1455.581446,-0.000000,8882.471304
792.134325,459.657299,-962.267725,9622.677246
792.134640,306.438199,-814.226536,9918.759623
792.134956,919.314598,148.041188,8808.450710
792.135272,1302.362347,-0.000000,8882.471304
792.135587,1225.752797,1480.411884,9474.636058
792.135903,459.657299,814.226536,8956.491898
792.136219,229.828649,518.144159,8142.265362
792.136534,229.828649,1702.473667,8586.388927
792.136850,842.705048,-592.164754,9400.615463
792.137166,612.876398,-518.144159,9770.718434
792.137481,229.828649,-0.000000,9178.553681
792.137797,-919.314598,-1776.494261,10807.006753
792.138113,-995.924147,-666.185348,10362.883188
792.138428,-229.828649,-74.020594,9548.656652
792.138744,229.828649,-296.082377,10214.842000
792.139060,153.219100,296.082377,10510.924376
792.139376,-919.314598,-444.123565,9696.697840
792.139691,-306.438199,666.185348,9104.533087
792.140007,1225.752797,-518.144159,9548.656652
792.140322,1455.581446,-0.000000,9178.553681
792.140638,2068.457845,-0.000000,9252.574275
792.140954,919.314598,-1036.288319,9326.594869
792.141269,766.095498,-370.102971,9918.759623
792.141585,1532.190996,-444.123565,9622.677246
792.141900,2451.505594,-0.000000,9918.759623
792.142216,1455.581446,1480.411884,8956.491898
792.142532,459.657299,888.247130,9326.594869
792.142847,229.828649,814.226536,9400.615463
792.143163,766.095498,-0.000000,8956.491898
792.143478,1225.752797,-592.164754,9992.780217
792.143794,689.485948,-592.164754,9992.780217
792.144110,-459.657299,-962.267725,9474.636058
792.144425,-842.705048,-1628.453072,11177.109724
792.144741,-995.924147,-1480.411884,10140.821405
792.145056,0.000000,-888.247130,10584.944971
792.145372,-459.657299,444.123565,9770.718434
792.145688,-612.876398,-0.000000,8882.471304
792.146003,-153.219100,-814.226536,10288.862594
792.146319,-229.828649,-148.041188,8956.491898
792.146634,919.314598,-962.267725,9918.759623
792.146950,1378.971896,-296.082377,8660.409521
792.147266,689.485948,-296.082377,8660.409521
792.147581,689.485948,-1332.370696,9474.636058
792.147897,612.876398,-370.102971,9178.553681
792.148213,995.924147,296.082377,9326.594869
792.148528,1302.362347,592.164754,9252.574275
792.148844,766.095498,814.226536,7994.224174
792.149159,153.219100,-0.000000,9918.759623
792.149475,-229.828649,-0.000000,8660.409521
792.149791,306.438199,-740.205942,9104.533087
792.150106,766.095498,-1110.308913,10732.986159
792.150422,306.438199,-666.185348,9400.615463
792.150737,-536.266849,-1036.288319,9326.594869
792.151053,-766.095498,-296.082377,9844.739029
792.151369,0.000000,-296.082377,9992.780217
792.151684,536.266849,222.061783,9474.636058
792.152000,612.876398,666.185348,9326.594869
792.152315,76.609550,-0.000000,9326.594869
792.152631,-153.219100,222.061783,8512.368333
792.152947,842.705048,-0.000000,8364.327145
792.153262,1378.971896,-444.123565,9400.615463
792.153578,1532.190996,-0.000000,8882.471304
792.153893,689.485948,-0.000000,9104.533087
792.154209,-306.438199,-222.061783,9400.615463
792.154525,0.000000,-444.123565,9622.677246
792.154840,842.705048,-518.144159,10510.924376
792.155156,76.609550,888.247130,9104.533087
792.155471,0.000000,296.082377,9992.780217
792.155787,0.000000,-0.000000,9696.697840
792.156103,153.219100,-0.000000,9178.553681
792.156418,995.924147,-148.041188,9696.697840
792.156734,1685.410096,-0.000000,9326.594869
792.157049,612.876398,74.020594,8956.491898
792.157365,383.047749,-592.164754,9992.780217
792.157681,459.657299,-0.000000,9548.656652
792.157996,1532.190996,-0.000000,10584.944971
792.158312,2145.067394,962.267725,9178.553681
792.158627,1149.143247,1332.370696,8586.388927
792.158943,612.876398,814.226536,9696.697840
792.159259,842.705048,370.102971,9400.615463
792.159574,1149.143247,148.041188,9474.636058
792.159890,1685.410096,-0.000000,10066.800811
792.160205,306.438199,-370.102971,10584.944971
792.160521,-229.828649,-666.185348,9992.780217
792.160837,-383.047749,-444.123565,9474.636058
792.161152,459.657299,-518.144159,10436.903782
792.161468,536.266849,-370.102971,10436.903782
792.161784,459.657299,518.144159,8956.491898
792.162099,-689.485948,-0.000000,8660.409521
792.162415,-689.485948,-444.123565,9326.594869
792.162730,383.047749,-1480.411884,10140.821405
792.163046,383.047749,-1110.308913,9992.780217
792.163362,-306.438199,-962.267725,9400.615463
792.163677,-842.705048,-1554.432478,9770.718434
792.163993,-612.876398,-1480.411884,10140.821405
792.164308,0.000000,-1036.288319,9844.739029
792.164624,459.657299,-148.041188,9992.780217
792.164940,689.485948,888.247130,8216.285956
792.165255,153.219100,-148.041188,8660.409521
792.165571,0.000000,-74.020594,9104.533087
792.165886,842.705048,-148.041188,9178.553681
792.166202,1608.800546,-148.041188,9326.594869
792.166518,1072.533697,148.041188,8660.409521
792.166833,612.876398,-962.267725,9400.615463
792.167149,0.000000,-962.267725,9104.533087
792.167464,0.000000,-814.226536,9474.636058
792.167780,766.095498,-370.102971,10436.903782
792.168096,1072.533697,814.226536,9326.594869
792.168411,-766.095498,74.020594,8512.368333
792.168727,-383.047749,518.144159,9622.677246
792.169042,0.000000,444.123565,8882.471304
792.169358,995.924147,-148.041188,9474.636058
792.169674,383.047749,-0.000000,9030.512492
792.169989,0.000000,-1258.350101,8808.450710
792.170305,-383.047749,-1924.535449,10140.821405
792.170620,0.000000,-1480.411884,10584.944971
792.170936,306.438199,-666.185348,9622.677246
792.171252,612.876398,222.061783,9622.677246
792.171567,229.828649,-74.020594,8660.409521
792.171883,0.000000,-370.102971,9474.636058
792.172198,0.000000,-148.041188,9622.677246
792.172514,1072.533697,-518.144159,9474.636058
792.172830,1455.581446,-148.041188,9326.594869
792.173145,1378.971896,-666.185348,8734.430116
792.173461,612.876398,-814.226536,9992.780217
792.173776,306.438199,-814.226536,9474.636058
792.174092,995.924147,-444.123565,10140.821405
792.174408,1149.143247,-148.041188,10066.800811
792.174723,766.095498,666.185348,9474.636058
792.175039,306.438199,-592.164754,10140.821405
792.175354,0.000000,-222.061783,9474.636058
792.175670,1149.143247,-74.020594,9326.594869
792.175986,1915.238745,-0.000000,10066.800811
792.176301,766.095498,444.123565,9104.533087
792.176617,0.000000,-666.185348,9252.574275
792.176933,0.000000,-1110.308913,9918.759623
792.177248,0.000000,-518.144159,9992.780217
792.177564,612.876398,-370.102971,10510.924376
792.177879,306.438199,-0.000000,9326.594869
792.178195,0.000000,-444.123565,9844.739029
792.178511,-536.266849,-814.226536,9696.697840
792.178826,229.828649,-0.000000,8882.471304
792.179142,612.876398,-518.144159,9326.594869
792.179457,842.705048,-0.000000,9474.636058
792.179773,383.047749,-592.164754,8808.450710
792.180089,-306.438199,-1332.370696,9696.697840
792.180404,0.000000,-1110.308913,10066.800811
792.180720,383.047749,-666.185348,10214.842000
792.181035,612.876398,592.164754,9548.656652
792.181351,306.438199,962.267725,8364.327145
792.181667,153.219100,74.020594,9400.615463
792.181982,459.657299,592.164754,8956.491898
792.182298,612.876398,592.164754,8660.409521
792.182613,1455.581446,518.144159,9400.615463
792.182929,919.314598,148.041188,8438.347739
792.183245,-229.828649,-222.061783,9548.656652
792.183560,-153.219100,-0.000000,10510.924376
792.183876,612.876398,-148.041188,9918.759623
792.184191,689.485948,222.061783,9696.697840
792.184507,0.000000,1036.288319,9030.512492
792.184823,-153.219100,-148.041188,9770.718434
792.185138,-612.876398,-0.000000,8734.430116
792.185454,153.219100,-0.000000,10066.800811
792.185769,919.314598,-444.123565,10362.883188
792.186085,306.438199,444.123565,9030.512492
792.186401,-153.219100,222.061783,9178.553681
792.186716,0.000000,-444.123565,9400.615463
792.187032,536.266849,-370.102971,9178.553681
792.187347,1072.533697,-0.000000,9918.759623
792.187663,1302.362347,296.082377,9252.574275
792.187979,536.266849,-148.041188,9474.636058
792.188294,0.000000,-0.000000,8660.409521
792.188610,383.047749,296.082377,8882.471304
792.188925,1455.581446,-74.020594,9992.780217
792.189241,1072.533697,296.082377,9252.574275
792.189557,383.047749,-0.000000,9030.512492
792.189872,0.000000,-1036.288319,10066.800811
792.190188,0.000000,-814.226536,9992.780217
792.190504,383.047749,-592.164754,10288.862594
792.190819,995.924147,370.102971,9474.636058
792.191135,0.000000,370.102971,8808.450710
792.191450,-383.047749,148.041188,9770.718434
792.191766,383.047749,-222.061783,10362.883188
792.192082,919.314598,-0.000000,9178.553681
792.192397,1455.581446,666.185348,8734.430116
792.192713,1072.533697,-0.000000,9030.512492
792.193028,383.047749,-888.247130,9326.594869
792.193344,229.828649,-370.102971,9474.636058
792.193660,536.266849,-222.061783,9548.656652
792.193975,842.705048,-222.061783,9252.574275
792.194291,0.000000,-222.061783,9918.759623
792.194606,-536.266849,-592.164754,9918.759623
792.194922,-229.828649,-888.247130,9030.512492
792.195238,383.047749,-592.164754,9992.780217
792.195553,766.095498,-592.164754,9992.780217
792.195869,612.876398,-666.185348,9178.553681
792.196184,-383.047749,-1332.370696,9548.656652
792.196500,-153.219100,-1554.432478,9622.677246
792.196816,536.266849,-1258.350101,9770.718434
792.197131,1225.752797,-592.164754,9696.697840
792.197447,536.266849,444.123565,8438.347739
792.197762,383.047749,-0.000000,9178.553681
792.198078,536.266849,-74.020594,8882.471304
792.198394,766.095498,222.061783,9178.553681
792.198709,1762.019645,444.123565,9548.656652
792.199025,1455.581446,444.123565,8216.285956
792.199340,689.485948,-296.082377,9474.636058
792.199656,536.266849,-592.164754,9770.718434
792.199972,383.047749,-370.102971,9474.636058
792.200287,1072.533697,-0.000000,10658.965565
792.200603,919.314598,666.185348,9474.636058
792.200918,76.609550,888.247130,8808.450710
792.201234,153.219100,296.082377,9474.636058
792.201550,689.485948,444.123565,8512.368333
792.201865,536.266849,518.144159,9918.759623
792.202181,995.924147,740.205942,9326.594869
792.202496,-229.828649,-148.041188,8438.347739
792.202812,-459.657299,-148.041188,10066.800811
792.203128,-153.219100,-592.164754,9696.697840
792.203443,306.438199,-888.247130,10362.883188
792.203759,76.609550,-814.226536,11103.089130
792.204075,76.609550,-0.000000,9548.656652
792.204390,-536.266849,-0.000000,9252.574275
792.204706,0.000000,592.164754,9030.512492
792.205021,689.485948,-0.000000,10066.800811
792.205337,1378.971896,-74.020594,9844.739029
792.205653,1149.143247,518.144159,8512.368333
792.205968,0.000000,-592.164754,9622.677246
792.206284,229.828649,-888.247130,9770.718434
792.206599,842.705048,-1036.288319,9992.780217
792.206915,1532.190996,-222.061783,10584.944971
792.207231,766.095498,444.123565,9474.636058
792.207546,229.828649,370.102971,8956.491898
792.207862,612.876398,592.164754,9104.533087
792.208177,842.705048,-0.000000,9548.656652
792.208493,1302.362347,296.082377,9622.677246
792.208809,536.266849,-222.061783,9104.533087
792.209124,0.000000,-1110.308913,9844.739029
792.209440,-306.438199,-1036.288319,9696.697840
792.209755,-229.828649,-666.185348,9622.677246
792.210071,689.485948,-962.267725,10362.883188
792.210387,766.095498,-222.061783,9178.553681
792.210702,-919.314598,-222.061783,8142.265362
792.211018,-612.876398,-0.000000,9844.739029
792.211333,76.609550,-888.247130,9104.533087
792.211649,1378.971896,-370.102971,9474.636058
792.211965,766.095498,-444.123565,8660.409521
792.212280,0.000000,-740.205942,9104.533087
792.212596,0.000000,-1184.329507,9474.636058
792.212911,0.000000,-1184.329507,8364.327145
792.213227,766.095498,-370.102971,10140.821405
792.213543,919.314598,222.061783,9030.512492
792.213858,383.047749,740.205942,8068.244768
792.214174,-229.828649,-592.164754,9030.512492
792.214489,306.438199,-592.164754,9770.718434
792.214805,1225.752797,-296.082377,9844.739029
792.215121,1455.581446,370.102971,8956.491898
792.215436,536.266849,296.082377,8142.265362
792.215752,-383.047749,-888.247130,9696.697840
792.216067,153.219100,-888.247130,10140.821405
792.216383,766.095498,-0.000000,9696.697840
792.216699,612.876398,-0.000000,9918.759623
792.217014,153.219100,740.205942,9104.533087
792.217330,-306.438199,-222.061783,9770.718434
792.217646,0.000000,-0.000000,8734.430116
792.217961,536.266849,-0.000000,9918.759623
792.218277,842.705048,-0.000000,9770.718434
792.218592,459.657299,-148.041188,9252.574275
792.218908,-689.485948,-666.185348,10066.800811
792.219224,-229.828649,-1184.329507,10436.903782
792.219539,153.219100,-962.267725,10436.903782
792.219855,536.266849,-0.000000,10066.800811
792.220170,1149.143247,592.164754,9474.636058
792.220486,842.705048,148.041188,8808.450710
792.220802,0.000000,-0.000000,9474.636058
792.221117,1149.143247,-148.041188,9400.615463
792.221433,1762.019645,-148.041188,9844.739029
792.221748,1225.752797,592.164754,8216.285956
792.222064,383.047749,-370.102971,9252.574275
792.222380,153.219100,-814.226536,10214.842000
792.222695,383.047749,-962.267725,9548.656652
792.223011,536.266849,-444.123565,10066.800811
792.223326,612.876398,296.082377,9844.739029
792.223642,-306.438199,-592.164754,10140.821405
792.223958,-459.657299,-296.082377,9622.677246
792.224273,0.000000,518.144159,9400.615463
792.224589,689.485948,-74.020594,9770.718434
792.224904,766.095498,222.061783,9770.718434
792.225220,229.828649,-222.061783,9030.512492
792.225536,-383.047749,-1480.411884,9918.759623
792.225851,-459.657299,-1036.288319,10288.862594
792.226167,306.438199,-1258.350101,10214.842000
792.226482,995.924147,222.061783,9474.636058
792.226798,-229.828649,148.041188,8660.409521
792.227114,0.000000,-518.144159,9030.512492
792.227429,153.219100,-296.082377,9400.615463
792.227745,153.219100,-148.041188,9548.656652
792.228060,766.095498,-222.061783,9178.553681
792.228376,995.924147,-962.267725,9474.636058
792.228692,-459.657299,-1998.556043,9400.615463
792.229007,-383.047749,-1924.535449,10066.800811
792.229323,383.047749,-1554.432478,9992.780217
792.229638,689.485948,-518.144159,9104.533087
792.229954,229.828649,370.102971,8808.450710
792.230270,-459.657299,-444.123565,9326.594869
792.230585,76.609550,-296.082377,9030.512492
792.230901,1149.143247,-148.041188,9178.553681
792.231216,1685.410096,370.102971,8438.347739
792.231532,1302.362347,-74.020594,7994.224174
792.231848,689.485948,-296.082377,9252.574275
792.232163,459.657299,-444.123565,8956.491898
792.232479,842.705048,-0.000000,9326.594869
792.232795,1378.971896,444.123565,10066.800811
792.233110,229.828649,1258.350101,8808.450710
792.233426,229.828649,518.144159,9400.615463
792.233741,76.609550,-0.000000,9548.656652
792.234057,306.438199,592.164754,9400.615463
792.234373,1302.362347,296.082377,9918.759623
792.234688,1072.533697,370.102971,9474.636058
792.235004,306.438199,-0.000000,9474.636058
792.235319,0.000000,-0.000000,9474.636058
792.235635,76.609550,444.123565,9104.533087
792.235951,842.705048,518.144159,10584.944971
792.236266,689.485948,444.123565,9844.739029
792.236582,0.000000,518.144159,9030.512492
792.236897,76.609550,-148.041188,10510.924376
792.237213,0.000000,-296.082377,9474.636058
792.237529,1225.752797,-296.082377,10436.903782
792.237844,1302.362347,222.061783,9918.759623
792.238160,689.485948,-0.000000,9770.718434
792.238475,153.219100,-592.164754,10584.944971
792.238791,766.095498,-0.000000,9474.636058
792.239107,919.314598,148.041188,10214.842000
792.239422,919.314598,-0.000000,10362.883188
792.239738,1149.143247,444.123565,9474.636058
792.240053,459.657299,444.123565,9252.574275
792.240369,459.657299,444.123565,9104.533087
792.240685,1072.533697,-0.000000,9992.780217
792.241000,1149.143247,-518.144159,10436.903782
792.241316,383.047749,-148.041188,9030.512492
792.241632,-766.095498,-814.226536,10288.862594
792.241947,0.000000,-1184.329507,10807.006753
792.242263,0.000000,-296.082377,10066.800811
792.242579,306.438199,-592.164754,10955.047942
792.242895,0.000000,-0.000000,9474.636058
792.243210,-919.314598,518.144159,9770.718434
792.243526,-536.266849,-222.061783,9104.533087
792.243842,153.219100,-74.020594,9252.574275
792.244157,766.095498,-222.061783,9474.636058
792.244473,842.705048,-296.082377,8882.471304
792.244789,0.000000,-1110.308913,9548.656652
792.245105,0.000000,-1406.391290,9326.594869
792.245420,459.657299,-296.082377,9104.533087
792.245736,1149.143247,-0.000000,8956.491898
792.246052,766.095498,-518.144159,9326.594869
792.246367,536.266849,-148.041188,9548.656652
792.246683,-383.047749,-0.000000,8364.327145
792.246999,-383.047749,-0.000000,7920.203579
792.247315,1225.752797,-666.185348,9104.533087
792.247630,689.485948,-666.185348,8882.471304
792.247946,153.219100,-666.185348,8882.471304
792.248262,-459.657299,-1110.308913,9400.615463
792.248577,-229.828649,-1110.308913,9400.615463
792.248893,536.266849,-666.185348,9844.739029
792.249209,995.924147,148.041188,8364.327145
792.249525,842.705048,370.102971,8808.450710
792.249840,76.609550,-370.102971,9030.512492
792.250156,306.438199,-222.061783,8882.471304
792.250472,919.314598,74.020594,9030.512492
792.250787,1225.752797,-814.226536,9030.512492
792.251103,459.657299,-370.102971,9104.533087
792.251419,0.000000,-888.247130,9844.739029
792.251735,76.609550,-814.226536,10066.800811
792.252050,153.219100,-444.123565,9104.533087
792.252366,1072.533697,-370.102971,10214.842000
792.252682,383.047749,296.082377,9696.697840
792.252997,0.000000,222.061783,9918.759623
792.253313,-153.219100,222.061783,9104.533087
792.253629,689.485948,148.041188,9326.594869
792.253945,1532.190996,-740.205942,9696.697840
792.254260,1838.629195,-222.061783,9104.533087
792.254576,536.266849,-592.164754,9696.697840
792.254892,536.266849,-1110.308913,10362.883188
792.255207,689.485948,-888.247130,9696.697840
792.255523,1455.581446,370.102971,10510.924376
792.255839,842.705048,666.185348,9696.697840
792.256155,1072.533697,-0.000000,10140.821405
792.256470,76.609550,370.102971,9548.656652
792.256786,766.095498,666.185348,9474.636058
792.257102,2221.676944,-0.000000,9844.739029
792.257417,1608.800546,518.144159,9400.615463
792.257733,1149.143247,296.082377,9474.636058
792.258049,766.095498,-74.020594,10066.800811
792.258365,536.266849,666.185348,9252.574275
792.258680,766.095498,1036.288319,10214.842000
792.258996,1072.533697,962.267725,9992.780217
792.259312,76.609550,370.102971,9474.636058
792.259627,-459.657299,148.041188,9992.780217
792.259943,-689.485948,-0.000000,9548.656652
792.260259,306.438199,-444.123565,10288.862594
792.260575,306.438199,-518.144159,10362.883188
792.260890,-229.828649,-444.123565,9474.636058
792.261206,-1072.533697,-814.226536,10658.965565
792.261522,-383.047749,-666.185348,10288.862594
792.261837,-153.219100,-740.205942,10214.842000
792.262153,306.438199,-148.041188,9696.697840
792.262469,383.047749,-148.041188,8956.491898
792.262785,-153.219100,-0.000000,8808.450710
792.263100,459.657299,-0.000000,8438.347739
792.263416,1149.143247,370.102971,8734.430116
792.263732,1455.581446,148.041188,8660.409521
792.264047,1378.971896,-0.000000,8512.368333
792.264363,383.047749,-962.267725,8882.471304
792.264679,0.000000,-666.185348,8956.491898
792.264995,229.828649,-814.226536,9400.615463
792.265310,612.876398,-592.164754,9696.697840
792.265626,536.266849,-0.000000,8660.409521
792.265942,-306.438199,-0.000000,8882.471304
792.266257,-766.095498,-222.061783,9326.594869
792.266573,-153.219100,-148.041188,8882.471304
792.266889,689.485948,-444.123565,9548.656652
792.267205,766.095498,-444.123565,8956.491898
792.267520,0.000000,-222.061783,8956.491898
792.267836,-612.876398,-814.226536,9474.636058
792.268152,153.219100,-1036.288319,9918.759623
792.268467,612.876398,-370.102971,10288.862594
792.268783,1532.190996,962.267725,8586.388927
792.269099,536.266849,666.185348,8438.347739
792.269415,689.485948,-148.041188,8882.471304
792.269730,1685.410096,740.205942,9030.512492
792.270046,1915.238745,814.226536,8956.491898
792.270362,1685.410096,666.185348,8660.409521
792.270677,995.924147,-74.020594,8808.450710
792.270993,919.314598,-1036.288319,9844.739029
792.271309,153.219100,-1110.308913,10214.842000
792.271625,766.095498,-814.226536,9918.759623
792.271940,689.485948,-1184.329507,10510.924376
792.272256,306.438199,-1332.370696,10584.944971
792.272572,-229.828649,-444.123565,10584.944971
792.272887,-153.219100,518.144159,8512.368333
792.273203,383.047749,888.247130,9474.636058
792.273519,1378.971896,-296.082377,9696.697840
792.273835,766.095498,-222.061783,9474.636058
792.274150,-229.828649,-222.061783,9696.697840
792.274466,0.000000,-1776.494261,10362.883188
792.274782,383.047749,-814.226536,9548.656652
792.275097,995.924147,-296.082377,10288.862594
792.275413,689.485948,370.102971,9474.636058
792.275729,536.266849,-296.082377,9918.759623
792.276045,0.000000,-0.000000,9474.636058
792.276360,229.828649,-0.000000,9770.718434
792.276676,1225.752797,-74.020594,10436.903782
792.276992,1302.362347,-74.020594,9030.512492
792.277307,229.828649,-74.020594,9178.553681
792.277623,-383.047749,-962.267725,9992.780217
792.277939,0.000000,-888.247130,10066.800811
792.278255,689.485948,-0.000000,10362.883188
792.278570,766.095498,592.164754,9104.533087
792.278886,229.828649,-74.020594,8512.368333
792.279202,-229.828649,-444.123565,9326.594869
792.279517,612.876398,-0.000000,9400.615463
792.279833,919.314598,444.123565,9252.574275
792.280149,995.924147,814.226536,8438.347739
792.280465,536.266849,-0.000000,8660.409521
792.280780,306.438199,-740.205942,9178.553681
792.281096,0.000000,-74.020594,9178.553681
792.281412,536.266849,-0.000000,9696.697840
792.281727,1455.581446,-0.000000,9992.780217
792.282043,0.000000,444.123565,8956.491898
792.282359,-383.047749,518.144159,9104.533087
792.282675,76.609550,518.144159,8956.491898
792.282990,383.047749,296.082377,9030.512492
792.283306,766.095498,518.144159,9548.656652
792.283622,766.095498,518.144159,8808.450710
792.283937,-383.047749,-370.102971,9252.574275
792.284253,-459.657299,-666.185348,9474.636058
792.284569,153.219100,-444.123565,9992.780217
792.284885,689.485948,-444.123565,9696.697840
792.285200,0.000000,148.041188,9326.594869
792.285516,-459.657299,-0.000000,9696.697840
792.285832,76.609550,-222.061783,9400.615463
792.286147,919.314598,518.144159,9178.553681
792.286463,1838.629195,888.247130,9326.594869
792.286779,1378.971896,-148.041188,9326.594869
792.287095,766.095498,-888.247130,9696.697840
792.287410,76.609550,-666.185348,9622.677246
792.287726,766.095498,-518.144159,9104.533087
792.288042,1378.971896,-740.205942,10288.862594
792.288357,766.095498,-148.041188,9474.636058
792.288673,76.609550,-666.185348,10066.800811
792.288989,76.609550,-444.123565,10807.006753
792.289305,76.609550,-222.061783,8882.471304
792.289620,689.485948,-74.020594,9696.697840
792.289936,689.485948,296.082377,9548.656652
792.290252,229.828649,-296.082377,8956.491898
792.290567,0.000000,-962.267725,9696.697840
792.290883,0.000000,-1554.432478,10362.883188
792.291199,383.047749,-1184.329507,10658.965565
792.291514,383.047749,-1036.288319,9696.697840
792.291830,0.000000,-444.123565,9326.594869
792.292146,-689.485948,-666.185348,10288.862594
792.292462,-459.657299,296.082377,9474.636058
792.292777,612.876398,-814.226536,9622.677246
792.293093,766.095498,-592.164754,9622.677246
792.293409,153.219100,-518.144159,9696.697840
792.293724,-459.657299,-1702.473667,9844.739029
792.294040,-383.047749,-740.205942,9252.574275
792.294356,383.047749,-1332.370696,10214.842000
792.294672,1149.143247,-666.185348,10066.800811
792.294987,689.485948,296.082377,8808.450710
792.295303,383.047749,-148.041188,9326.594869
792.295619,383.047749,-0.000000,8734.430116
792.295934,1302.362347,296.082377,8808.450710
792.296250,1915.238745,-148.041188,8734.430116
792.296566,1225.752797,-222.061783,9326.594869
792.296882,229.828649,-962.267725,9992.780217
792.297197,689.485948,-666.185348,9400.615463
792.297513,459.657299,222.061783,8808.450710
792.297829,1149.143247,370.102971,9474.636058
792.298144,1378.971896,148.041188,9178.553681
792.298460,0.000000,296.082377,8956.491898
792.298776,-459.657299,296.082377,8882.471304
792.299092,0.000000,592.164754,9178.553681
792.299407,766.095498,-0.000000,9474.636058
792.299723,766.095498,-74.020594,9104.533087
792.300039,229.828649,-222.061783,9696.697840
792.300354,-536.266849,-1332.370696,9770.718434
792.300670,-306.438199,-666.185348,9918.759623
792.300986,229.828649,-666.185348,10510.924376
792.301302,536.266849,-148.041188,9696.697840
792.301617,76.609550,370.102971,9252.574275
792.301933,-153.219100,-370.102971,9992.780217
792.302249,383.047749,814.226536,9252.574275
792.302564,1072.533697,666.185348,9474.636058
792.302880,842.705048,444.123565,9548.656652
792.303196,842.705048,666.185348,9770.718434
792.303512,919.314598,-296.082377,9252.574275
792.303827,536.266849,296.082377,9104.533087
792.304143,766.095498,-0.000000,10288.862594
792.304459,2221.676944,-814.226536,10658.965565
792.304774,766.095498,370.102971,9400.615463
792.305090,-229.828649,-0.000000,10066.800811
792.305406,76.609550,-0.000000,9474.636058
792.305722,766.095498,666.185348,9696.697840
792.306037,1225.752797,-74.020594,10066.800811
792.306353,1072.533697,-0.000000,9326.594869
792.306669,0.000000,-666.185348,10140.821405
792.306984,0.000000,-666.185348,9622.677246
792.307300,306.438199,-74.020594,9400.615463
792.307616,1378.971896,-370.102971,10214.842000
792.307932,536.266849,-0.000000,9104.533087
792.308247,306.438199,444.123565,9178.553681
792.308563,76.609550,296.082377,8512.368333
792.308879,536.266849,-0.000000,9030.512492
792.309194,766.095498,-444.123565,9918.759623
792.309510,919.314598,-0.000000,8734.430116
792.309826,76.609550,-592.164754,9178.553681
792.310142,-536.266849,-962.267725,9992.780217
792.310457,-153.219100,-518.144159,9400.615463
792.310773,995.924147,-962.267725,9918.759623
792.311089,153.219100,148.041188,9400.615463
792.311404,0.000000,-0.000000,9030.512492
792.311720,-536.266849,-148.041188,9474.636058
792.312036,459.657299,296.082377,9622.677246
792.312352,383.047749,-0.000000,9474.636058
792.312667,919.314598,518.144159,8216.285956
792.312983,153.219100,-370.102971,9104.533087
792.313299,0.000000,-1110.308913,10066.800811
792.313614,0.000000,-814.226536,9400.615463
792.313930,766.095498,-666.185348,9474.636058
792.314246,536.266849,-0.000000,9844.739029
792.314562,0.000000,444.123565,8956.491898
792.314877,306.438199,518.144159,9030.512492
792.315193,76.609550,592.164754,8734.430116
792.315509,229.828649,370.102971,9326.594869
792.315824,1455.581446,-444.123565,9474.636058
792.316140,536.266849,-74.020594,8216.285956
792.316456,76.609550,-962.267725,9770.718434
792.316772,-229.828649,-1776.494261,10362.883188
792.317087,459.657299,-888.247130,10214.842000
792.317403,689.485948,-296.082377,9918.759623
792.317719,229.828649,-0.000000,9474.636058
792.318034,0.000000,-518.144159,9548.656652
792.318350,153.219100,-592.164754,8882.471304
792.318666,1149.143247,-666.185348,8808.450710
792.318982,1532.190996,-222.061783,9474.636058
792.319297,1225.752797,-666.185348,8660.409521
792.319613,612.876398,-1036.288319,9548.656652
792.319929,0.000000,-888.247130,10140.821405
792.320244,1225.752797,-962.267725,9622.677246
792.320560,1532.190996,-0.000000,9844.739029
792.320876,1072.533697,592.164754,9400.615463
792.321192,459.657299,-222.061783,9992.780217
792.321507,459.657299,-518.144159,8956.491898
792.321823,689.485948,592.164754,9474.636058
792.322139,1225.752797,-592.164754,9696.697840
792.322454,766.095498,-74.020594,8808.450710
792.322770,229.828649,-370.102971,9918.759623
792.323086,-229.828649,-814.226536,9548.656652
792.323402,-229.828649,-666.185348,9622.677246
792.323717,0.000000,222.061783,10288.862594
792.324033,0.000000,-222.061783,9622.677246
792.324349,0.000000,-148.041188,9400.615463
792.324664,-995.924147,-370.102971,10140.821405
792.324980,0.000000,-222.061783,9622.677246
792.325296,306.438199,-0.000000,8956.491898
792.325612,459.657299,-592.164754,9252.574275
792.325927,-306.438199,-1036.288319,9474.636058
792.326243,-612.876398,-1554.432478,9992.780217
792.326559,153.219100,-962.267725,9622.677246
792.326874,229.828649,-888.247130,9622.677246
792.327190,612.876398,-296.082377,9622.677246
792.327506,536.266849,-0.000000,8512.368333
792.327822,76.609550,-444.123565,8734.430116
792.328137,306.438199,-0.000000,9474.636058
792.328453,766.095498,222.061783,8438.347739
792.328769,1149.143247,-0.000000,8956.491898
792.329084,689.485948,-740.205942,9474.636058
792.329400,76.609550,-1850.514855,9696.697840
792.329716,0.000000,-1110.308913,10066.800811
792.330032,306.438199,-296.082377,9474.636058
792.330347,1072.533697,-0.000000,10140.821405
792.330663,766.095498,814.226536,8438.347739
792.330979,-306.438199,592.164754,8512.368333
792.331294,612.876398,74.020594,10066.800811
792.331610,766.095498,518.144159,9178.553681
792.331926,1149.143247,740.205942,8956.491898
792.332242,919.314598,148.041188,9326.594869
792.332557,76.609550,-962.267725,9992.780217
792.332873,76.609550,-518.144159,9992.780217
792.333189,76.609550,518.144159,9104.533087
792.333504,842.705048,-74.020594,10140.821405
792.333820,1302.362347,370.102971,9844.739029
792.334136,536.266849,666.185348,8734.430116
792.334452,306.438199,148.041188,9548.656652
792.334767,383.047749,592.164754,9844.739029
792.335083,1608.800546,518.144159,8882.471304
792.335399,1455.581446,814.226536,9104.533087
792.335714,689.485948,-0.000000,9622.677246
792.336030,229.828649,-444.123565,10214.842000
792.336346,153.219100,296.082377,9400.615463
792.336662,995.924147,-222.061783,9622.677246
792.336977,842.705048,370.102971,10362.883188
792.337293,766.095498,296.082377,9918.759623
792.337609,-306.438199,370.102971,9400.615463
792.337924,153.219100,444.123565,9178.553681
792.338240,612.876398,296.082377,9548.656652
792.338556,1149.143247,-666.185348,10214.842000
792.338872,995.924147,-740.205942,10214.842000
792.339187,-383.047749,-962.267725,9992.780217
792.339503,-306.438199,-962.267725,9844.739029
792.339819,383.047749,-1036.288319,10140.821405
792.340134,536.266849,-518.144159,10510.924376
792.340450,383.047749,296.082377,9548.656652
792.340766,0.000000,148.041188,8882.471304
792.341082,459.657299,-74.020594,8660.409521
792.341397,689.485948,-74.020594,8808.450710
792.341713,1072.533697,-592.164754,9474.636058
792.342029,919.314598,-1332.370696,9474.636058
792.342344,229.828649,-1776.494261,8956.491898
792.342660,0.000000,-1554.432478,9622.677246
792.342976,0.000000,-666.185348,9696.697840
792.343292,459.657299,-666.185348,9474.636058
792.343607,995.924147,-518.144159,9030.512492
792.343923,-306.438199,-592.164754,8512.368333
792.344239,-536.266849,-592.164754,9696.697840
792.344555,306.438199,-148.041188,8660.409521
792.344870,689.485948,-0.000000,8734.430116
792.345186,919.314598,-518.144159,9474.636058
792.345502,-76.609550,-740.205942,9474.636058
792.345818,0.000000,-222.061783,8734.430116
792.346133,229.828649,-0.000000,9326.594869
792.346449,612.876398,-0.000000,9400.615463
792.346765,1149.143247,444.123565,9104.533087
792.347081,919.314598,518.144159,9030.512492
792.347396,-153.219100,962.267725,8882.471304
792.347712,-229.828649,1184.329507,8808.450710
792.348028,1072.533697,370.102971,9326.594869
792.348343,919.314598,740.205942,9474.636058
792.348659,459.657299,444.123565,9548.656652
792.348975,383.047749,-0.000000,9696.697840
792.349291,-153.219100,-74.020594,9474.636058
792.349606,536.266849,-518.144159,10288.862594
792.349922,383.047749,-518.144159,10066.800811
792.350238,229.828649,-0.000000,10214.842000
792.350554,0.000000,-0.000000,10140.821405
792.350869,0.000000,222.061783,9104.533087
792.351185,689.485948,740.205942,9030.512492
792.351501,1149.143247,-222.061783,9474.636058
792.351817,1072.533697,-518.144159,9252.574275
792.352132,383.047749,-1184.329507,10288.862594
792.352448,306.438199,-1480.411884,9918.759623
792.352764,766.095498,-518.144159,9474.636058
792.353080,1302.362347,-370.102971,9844.739029
792.353395,995.924147,-444.123565,9474.636058
792.353711,383.047749,-370.102971,9992.780217
792.354027,0.000000,-444.123565,9918.759623
792.354343,919.314598,-518.144159,9474.636058
792.354658,1149.143247,-148.041188,9622.677246
792.354974,1378.971896,-370.102971,9252.574275
792.355290,383.047749,-888.247130,9326.594869
792.355605,76.609550,-1110.308913,10288.862594
792.355921,229.828649,-370.102971,9696.697840
792.356237,842.705048,148.041188,9770.718434
792.356553,689.485948,-148.041188,9770.718434
792.356868,153.219100,-148.041188,9622.677246
792.357184,-459.657299,-444.123565,9326.594869
792.357500,0.000000,-444.123565,9770.718434
792.357816,536.266849,-370.102971,9548.656652
792.358131,842.705048,-592.164754,9474.636058
792.358447,536.266849,-888.247130,9326.594869
792.358763,-689.485948,-1258.350101,9696.697840
792.359079,76.609550,-518.144159,9918.759623
792.359394,459.657299,-296.082377,9548.656652
792.359710,1072.533697,-0.000000,9696.697840
792.360026,995.924147,-0.000000,8882.471304
792.360342,1072.533697,-0.000000,8438.347739
792.360657,766.095498,-74.020594,8734.430116
792.360973,1378.971896,-0.000000,9104.533087
792.361289,2068.457845,740.205942,8660.409521
792.361605,1991.848295,1184.329507,7550.100608
792.361920,383.047749,-0.000000,9400.615463
792.362236,612.876398,-370.102971,9252.574275
792.362552,459.657299,-296.082377,8808.450710
792.362867,459.657299,-370.102971,10214.842000
792.363183,153.219100,-296.082377,9844.739029
792.363499,0.000000,-0.000000,9474.636058
792.363815,-842.705048,666.185348,8808.450710
792.364130,-383.047749,222.061783,9622.677246
792.364446,459.657299,-148.041188,10066.800811
792.364762,76.609550,-0.000000,9474.636058
792.365078,-1149.143247,-888.247130,9696.697840
792.365393,-995.924147,-814.226536,10510.924376
792.365709,-229.828649,-592.164754,9918.759623
792.366025,0.000000,-518.144159,9622.677246
792.366341,612.876398,592.164754,9548.656652
792.366656,306.438199,222.061783,9770.718434
792.366972,229.828649,-0.000000,8882.471304
792.367288,612.876398,740.205942,9474.636058
792.367604,1532.190996,-148.041188,9400.615463
792.367919,1149.143247,444.123565,9030.512492
792.368235,766.095498,-0.000000,9474.636058
792.368551,306.438199,-1184.329507,9400.615463
792.368867,689.485948,-1110.308913,9992.780217
792.369182,919.314598,-814.226536,10436.903782
792.369498,1149.143247,-296.082377,10288.862594
792.369814,306.438199,444.123565,9178.553681
792.370130,-153.219100,-74.020594,9474.636058
792.370445,76.609550,296.082377,9326.594869
792.370761,766.095498,222.061783,9844.739029
792.371077,842.705048,-0.000000,9474.636058
792.371392,383.047749,-444.123565,9474.636058
792.371708,-153.219100,-1036.288319,10214.842000
792.372024,153.219100,-296.082377,10140.821405
792.372340,153.219100,-0.000000,9326.594869
792.372655,766.095498,296.082377,10140.821405
792.372971,383.047749,740.205942,8882.471304
792.373287,-306.438199,148.041188,9474.636058
792.373603,383.047749,-0.000000,9548.656652
792.373918,766.095498,-518.144159,8956.491898
792.374234,1072.533697,296.082377,9770.718434
792.374550,1455.581446,-222.061783,9548.656652
792.374866,383.047749,-222.061783,9326.594869
792.375181,76.609550,-0.000000,9326.594869
792.375497,459.657299,-222.061783,8586.388927
792.375813,1149.143247,-148.041188,9622.677246
792.376129,995.924147,74.020594,10066.800811
792.376444,0.000000,-0.000000,8882.471304
792.376760,76.609550,-74.020594,9178.553681
792.377076,536.266849,740.205942,9400.615463
792.377392,1149.143247,518.144159,8660.409521
792.377707,1378.971896,222.061783,9104.533087
792.378023,383.047749,-740.205942,9696.697840
792.378339,-459.657299,-1184.329507,10362.883188
792.378654,0.000000,-518.144159,9400.615463
792.378970,766.095498,-74.020594,9474.636058
792.379286,842.705048,74.020594,9844.739029
792.379602,76.609550,-148.041188,9326.594869
792.379917,-306.438199,-518.144159,9622.677246
792.380233,153.219100,222.061783,9252.574275
792.380549,306.438199,148.041188,9104.533087
792.380865,689.485948,-592.164754,10066.800811
792.381180,383.047749,-296.082377,9622.677246
792.381496,-612.876398,-444.123565,9622.677246
792.381812,0.000000,-148.041188,9770.718434
792.382128,612.876398,-222.061783,9844.739029
792.382443,766.095498,-0.000000,9474.636058
792.382759,612.876398,-74.020594,9622.677246
792.383075,-306.438199,-444.123565,9696.697840
792.383391,0.000000,-74.020594,9548.656652
792.383706,1072.533697,370.102971,9326.594869
792.384022,1532.190996,-0.000000,9326.594869
792.384338,919.314598,296.082377,9400.615463
792.384654,306.438199,-666.185348,9918.759623
792.384969,0.000000,-0.000000,9326.594869
792.385285,383.047749,-888.247130,9992.780217
792.385601,995.924147,-740.205942,10362.883188
792.385916,919.314598,-740.205942,9770.718434
792.386232,-229.828649,-518.144159,9474.636058
792.386548,229.828649,-444.123565,9178.553681
792.386864,0.000000,-0.000000,8808.450710
792.387179,766.095498,-296.082377,9548.656652
792.387495,306.438199,-296.082377,9178.553681
792.387811,-229.828649,-1406.391290,9696.697840
792.388127,-536.266849,-1628.453072,9400.615463
792.388442,-306.438199,-1110.308913,9104.533087
792.388758,153.219100,-1184.329507,9992.780217
792.389074,383.047749,-888.247130,9770.718434
792.389390,-306.438199,-1036.288319,9474.636058
792.389705,-689.485948,-370.102971,9474.636058
792.390021,-229.828649,-74.020594,8882.471304
792.390337,306.438199,-592.164754,8956.491898
792.390653,689.485948,-1332.370696,9844.739029
792.390968,76.609550,-962.267725,9622.677246
792.391284,0.000000,-1628.453072,9104.533087
792.391600,0.000000,-740.205942,8882.471304
792.391916,612.876398,-814.226536,9622.677246
792.392231,995.924147,148.041188,9622.677246
792.392547,612.876398,148.041188,8956.491898
792.392863,229.828649,-0.000000,8734.430116
792.393179,689.485948,-0.000000,8956.491898
792.393494,1225.752797,-0.000000,8956.491898
792.393810,1378.971896,-74.020594,9400.615463
792.394126,995.924147,-444.123565,9030.512492
792.394441,612.876398,-814.226536,9104.533087
792.394757,229.828649,-592.164754,9918.759623
792.395073,919.314598,296.082377,9030.512492
792.395389,1072.533697,-0.000000,9696.697840
792.395704,612.876398,592.164754,10066.800811
792.396020,153.219100,222.061783,9252.574275
792.396336,153.219100,370.102971,8808.450710
792.396652,229.828649,222.061783,9696.697840
792.396967,1149.143247,-148.041188,10140.821405
792.397283,1225.752797,-74.020594,9104.533087
792.397599,0.000000,-0.000000,9474.636058
792.397915,0.000000,-518.144159,10658.965565
792.398230,766.095498,-0.000000,10288.862594
792.398546,766.095498,-0.000000,9474.636058
792.398862,689.485948,888.247130,9696.697840
792.399178,689.485948,814.226536,9474.636058
792.399493,229.828649,370.102971,9548.656652
792.399809,919.314598,-0.000000,9696.697840
792.400125,995.924147,74.020594,9474.636058
792.400441,1378.971896,222.061783,9474.636058
792.400756,1072.533697,-296.082377,9844.739029
792.401072,153.219100,-666.185348,9770.718434
792.401388,842.705048,-0.000000,10066.800811
792.401703,1302.362347,148.041188,10140.821405
792.402019,1302.362347,592.164754,9474.636058
792.402335,1072.533697,814.226536,9400.615463
792.402651,0.000000,1036.288319,8512.368333
792.402966,536.266849,296.082377,9030.512492
792.403282,612.876398,-0.000000,10214.842000
792.403598,995.924147,296.082377,9770.718434
792.403914,0.000000,-148.041188,9178.553681
792.404229,-689.485948,-1110.308913,9844.739029
792.404545,-612.876398,-962.267725,10584.944971
792.404861,0.000000,-592.164754,10288.862594
792.405177,689.485948,518.144159,9844.739029
792.405492,0.000000,296.082377,9770.718434
792.405808,76.609550,-0.000000,10140.821405
792.406124,383.047749,444.123565,8660.409521
792.406440,842.705048,962.267725,8660.409521
792.406755,1608.800546,-0.000000,9622.677246
792.407071,1149.143247,-0.000000,8956.491898
792.407387,153.219100,-0.000000,8142.265362
792.407703,0.000000,-1110.308913,9918.759623
792.408018,306.438199,-148.041188,9474.636058
792.408334,229.828649,-222.061783,9918.759623
792.408650,0.000000,-74.020594,9622.677246
792.408965,76.609550,-0.000000,9844.739029
792.409281,-153.219100,-74.020594,8882.471304
792.409597,153.219100,1110.308913,8364.327145
792.409913,842.705048,-888.247130,9178.553681
792.410228,536.266849,-444.123565,9252.574275
792.410544,459.657299,-222.061783,8882.471304
792.410860,-766.095498,-1406.391290,9104.533087
792.411176,0.000000,-1406.391290,9918.759623
792.411491,0.000000,-1406.391290,9918.759623
792.411807,536.266849,-222.061783,8956.491898
792.412123,459.657299,-0.000000,9178.553681
792.412439,-306.438199,-814.226536,8956.491898
792.412754,689.485948,148.041188,8808.450710
792.413070,1149.143247,-592.164754,8956.491898
792.413386,919.314598,-222.061783,9326.594869
792.413702,689.485948,-592.164754,9474.636058
792.414017,76.609550,-1110.308913,9030.512492
792.414333,459.657299,-518.144159,9474.636058
792.414649,306.438199,-518.144159,9252.574275
792.414965,1149.143247,-1036.288319,10066.800811
792.415280,842.705048,-518.144159,9992.780217
792.415596,-229.828649,-296.082377,9992.780217
792.415912,229.828649,-0.000000,9104.533087
792.416227,1149.143247,-148.041188,9400.615463
792.416543,1378.971896,-0.000000,9326.594869
792.416859,1072.533697,-370.102971,9252.574275
792.417175,0.000000,-1036.288319,9622.677246
792.417490,306.438199,-1998.556043,10214.842000
792.417806,153.219100,-1406.391290,10807.006753
792.418122,919.314598,-814.226536,10510.924376
792.418438,766.095498,-0.000000,9178.553681
792.418753,383.047749,444.123565,9326.594869
792.419069,306.438199,-0.000000,9548.656652
792.419385,1302.362347,740.205942,9474.636058
792.419701,1378.971896,370.102971,9104.533087
792.420016,1608.800546,-0.000000,9252.574275
792.420332,612.876398,-518.144159,9030.512492
792.420648,0.000000,-1332.370696,9104.533087
792.420964,459.657299,-592.164754,10288.862594
792.421279,1149.143247,-0.000000,10066.800811
792.421595,306.438199,444.123565,9252.574275
792.421911,0.000000,666.185348,9622.677246
792.422227,-612.876398,-0.000000,9326.594869
792.422542,76.609550,-0.000000,9400.615463
792.422858,612.876398,296.082377,8956.491898
792.423174,306.438199,-962.267725,9474.636058
792.423490,153.219100,-1480.411884,10066.800811
792.423805,-842.705048,-1554.432478,10066.800811
792.424121,0.000000,-888.247130,9548.656652
792.424437,689.485948,-0.000000,9326.594869
792.424752,842.705048,740.205942,8956.491898
792.425068,842.705048,296.082377,9030.512492
792.425384,229.828649,-74.020594,8882.471304
792.425700,689.485948,444.123565,8660.409521
792.426015,1072.533697,296.082377,8512.368333
792.426331,1149.143247,222.061783,8586.388927
792.426647,919.314598,-370.102971,8734.430116
792.426963,-383.047749,-1110.308913,9326.594869
792.427278,-459.657299,-1480.411884,10658.965565
792.427594,-153.219100,-518.144159,9548.656652
792.427910,0.000000,148.041188,9400.615463
792.428226,0.000000,370.102971,9622.677246
792.428541,-1225.752797,-666.185348,10214.842000
792.428857,-919.314598,-74.020594,9844.739029
792.429173,-229.828649,1480.411884,8882.471304
792.429489,842.705048,888.247130,8956.491898
792.429804,919.314598,814.226536,8956.491898
792.430120,306.438199,-296.082377,9104.533087
792.430436,0.000000,-740.205942,9844.739029
792.430752,612.876398,-370.102971,10288.862594
792.431067,842.705048,370.102971,9770.718434
792.431383,766.095498,1110.308913,9474.636058
792.431699,306.438199,370.102971,9474.636058
792.432014,229.828649,592.164754,10140.821405
792.432330,1072.533697,1480.411884,9252.574275
792.432646,1455.581446,740.205942,8956.491898
792.432962,1532.190996,370.102971,9696.697840
792.433277,1149.143247,-666.185348,10066.800811
792.433593,536.266849,-814.226536,9326.594869
792.433909,842.705048,-148.041188,10584.944971
792.434225,1225.752797,-666.185348,10584.944971
792.434540,842.705048,814.226536,9178.553681
792.434856,536.266849,370.102971,9326.594869
792.435172,76.609550,-74.020594,9770.718434
792.435488,689.485948,-740.205942,10066.800811
792.435803,842.705048,296.082377,9622.677246
792.436119,1378.971896,-222.061783,9326.594869
792.436435,612.876398,-888.247130,9548.656652
792.436751,0.000000,-1258.350101,10510.924376
792.437066,0.000000,-444.123565,9252.574275
792.437382,536.266849,-222.061783,9400.615463
792.437698,536.266849,-222.061783,9992.780217
792.438014,229.828649,-518.144159,10658.965565
792.438329,153.219100,-814.226536,10436.903782
792.438645,153.219100,-0.000000,8586.388927
792.438961,766.095498,296.082377,8882.471304
792.439276,1149.143247,-888.247130,9548.656652
792.439592,1072.533697,-1258.350101,9474.636058
792.439908,-229.828649,-1036.288319,9030.512492
792.440224,-383.047749,-1332.370696,10140.821405
792.440539,842.705048,-814.226536,9770.718434
792.440855,766.095498,-666.185348,9474.636058
792.441171,536.266849,296.082377,8882.471304
792.441487,459.657299,-0.000000,9104.533087
792.441802,459.657299,-0.000000,8216.285956
792.442118,1072.533697,592.164754,8808.450710
792.442434,842.705048,-74.020594,8808.450710
792.442750,1302.362347,-888.247130,8586.388927
792.443065,1149.143247,-740.205942,9474.636058
792.443380,-229.828649,-1110.308913,9844.739029
792.443696,383.047749,-296.082377,9326.594869
792.444012,766.095498,148.041188,9178.553681
792.444328,1149.143247,740.205942,8808.450710
792.444644,689.485948,666.185348,8734.430116
792.444959,0.000000,-74.020594,9030.512492
792.445275,383.047749,518.144159,9326.594869
792.445591,459.657299,-296.082377,9844.739029
792.445907,1072.533697,-148.041188,8882.471304
792.446223,0.000000,222.061783,9474.636058
792.446538,0.000000,-962.267725,9844.739029
792.446854,229.828649,-518.144159,9474.636058
792.447170,229.828649,-0.000000,9844.739029
792.447486,689.485948,444.123565,9992.780217
792.447802,689.485948,296.082377,8956.491898
792.448117,153.219100,-444.123565,9400.615463
792.448433,536.266849,444.123565,9178.553681
792.448749,1149.143247,-0.000000,9474.636058
792.449065,1532.190996,-0.000000,9326.594869
792.449381,842.705048,-0.000000,9178.553681
792.449696,0.000000,-1850.514855,9696.697840
792.450012,383.047749,-518.144159,10066.800811
792.450328,689.485948,296.082377,9326.594869
792.450644,306.438199,-370.102971,9992.780217
792.450960,459.657299,-222.061783,10066.800811
792.451275,-766.095498,-148.041188,9178.553681
792.451591,-459.657299,-0.000000,9548.656652
792.451907,0.000000,-74.020594,9548.656652
792.452223,153.219100,-148.041188,9844.739029
792.452539,689.485948,-0.000000,9548.656652
792.452854,-995.924147,-1110.308913,9400.615463
792.453170,-1302.362347,-1628.453072,10288.862594
792.453486,-383.047749,-962.267725,10955.047942
792.453802,-153.219100,-222.061783,9548.656652
792.454118,-383.047749,370.102971,9992.780217
792.454433,-612.876398,-74.020594,10658.965565
792.454749,-459.657299,-74.020594,9918.759623
792.455065,-306.438199,148.041188,9474.636058
792.455381,689.485948,-148.041188,9992.780217
792.455697,919.314598,-222.061783,8808.450710
792.456012,229.828649,-222.061783,9326.594869
792.456328,0.000000,-518.144159,9770.718434
792.456644,306.438199,-222.061783,9696.697840
792.456960,1302.362347,1110.308913,8808.450710
792.457276,1149.143247,814.226536,8586.388927
792.457591,153.219100,-0.000000,9548.656652
792.457907,229.828649,-814.226536,9178.553681
792.458223,459.657299,-592.164754,9400.615463
792.458539,1072.533697,-296.082377,8956.491898
792.458855,1302.362347,-666.185348,9400.615463
792.459170,1225.752797,-370.102971,9622.677246
792.459486,229.828649,-814.226536,9030.512492
792.459802,76.609550,-666.185348,9252.574275
792.460118,919.314598,-518.144159,9474.636058
792.460434,766.095498,-222.061783,9104.533087
792.460749,612.876398,-518.144159,9400.615463
792.461065,0.000000,-1036.288319,9992.780217
792.461381,689.485948,-370.102971,8660.409521
792.461697,1149.143247,-0.000000,9030.512492
792.462013,1149.143247,-0.000000,8364.327145
792.462328,1455.581446,-1110.308913,9400.615463
792.462644,153.219100,-1332.370696,9770.718434
792.462960,306.438199,-1184.329507,9622.677246
792.463276,689.485948,-296.082377,9400.615463
792.463592,919.314598,-444.123565,9326.594869
792.463907,612.876398,-370.102971,9844.739029
792.464223,229.828649,-740.205942,9992.780217
792.464539,306.438199,-74.020594,9770.718434
792.464855,766.095498,-0.000000,8956.491898
792.465171,1149.143247,-222.061783,9178.553681
792.465486,1532.190996,-518.144159,10140.821405
792.465802,1149.143247,-518.144159,9474.636058
792.466118,459.657299,-296.082377,9030.512492
792.466434,689.485948,-0.000000,9696.697840
792.466750,1072.533697,222.061783,9770.718434
792.467065,1915.238745,814.226536,8882.471304
792.467381,229.828649,592.164754,9030.512492
792.467697,76.609550,-0.000000,10362.883188
792.468013,766.095498,-0.000000,9030.512492
792.468329,1072.533697,222.061783,8734.430116
792.468644,306.438199,-0.000000,9844.739029
792.468960,306.438199,-888.247130,10288.862594
792.469276,-306.438199,-814.226536,10288.862594
792.469592,-1225.752797,-0.000000,9622.677246
792.469908,-995.924147,-0.000000,10436.903782
792.470223,229.828649,-222.061783,11029.068536
792.470539,-612.876398,296.082377,9400.615463
792.470855,-842.705048,-0.000000,9696.697840
792.471171,0.000000,-592.164754,9252.574275
792.471487,383.047749,-222.061783,8512.368333
792.471802,0.000000,-370.102971,9770.718434
792.472118,689.485948,-740.205942,10140.821405
792.472434,0.000000,-962.267725,9474.636058
792.472750,-536.266849,666.185348,8808.450710
792.473066,612.876398,-148.041188,9474.636058
792.473381,459.657299,-740.205942,9992.780217
792.473697,0.000000,518.144159,9252.574275
792.474013,-459.657299,-296.082377,9178.553681
792.474329,-153.219100,-222.061783,9474.636058
792.474645,1302.362347,962.267725,9178.553681
792.474960,536.266849,222.061783,8142.265362
792.475276,842.705048,-296.082377,10140.821405
792.475592,76.609550,-1036.288319,9548.656652
792.475908,-383.047749,-444.123565,9474.636058
792.476224,-306.438199,148.041188,9918.759623
792.476539,459.657299,-814.226536,9844.739029
792.476855,612.876398,740.205942,9178.553681
792.477171,0.000000,740.205942,9326.594869
792.477487,-306.438199,370.102971,9844.739029
792.477803,612.876398,444.123565,9104.533087
792.478118,383.047749,666.185348,7920.203579
792.478434,919.314598,-0.000000,9548.656652
792.478750,842.705048,-1184.329507,10584.944971
792.479066,153.219100,-1258.350101,10214.842000
792.479382,0.000000,-666.185348,9622.677246
792.479697,995.924147,-0.000000,10140.821405
792.480013,1455.581446,592.164754,9474.636058
792.480329,919.314598,1924.535449,8068.244768
792.480645,612.876398,370.102971,8882.471304
792.480961,1072.533697,-296.082377,9548.656652
792.481276,1302.362347,74.020594,9326.594869
792.481592,1532.190996,-814.226536,9178.553681
792.481908,1225.752797,-1036.288319,9104.533087
792.482224,306.438199,-1850.514855,11251.130318
792.482540,229.828649,-666.185348,10066.800811
792.482855,1072.533697,-0.000000,9400.615463
792.483171,766.095498,-0.000000,9844.739029
792.483487,689.485948,518.144159,9622.677246
792.483803,1225.752797,-518.144159,9326.594869
792.484119,306.438199,-1184.329507,9696.697840
792.484434,1072.533697,296.082377,8734.430116
792.484750,1302.362347,-740.205942,8956.491898
792.485066,1838.629195,-1184.329507,10066.800811
792.485382,229.828649,-592.164754,9474.636058
792.485698,0.000000,-666.185348,9474.636058
792.486013,536.266849,-0.000000,9178.553681
792.486329,766.095498,-1036.288319,9918.759623
792.486645,612.876398,-74.020594,9178.553681
792.486961,612.876398,-296.082377,10140.821405
792.487277,-536.266849,-1480.411884,10140.821405
792.487592,612.876398,-0.000000,9326.594869
792.487908,459.657299,-0.000000,8512.368333
792.488224,536.266849,-74.020594,9104.533087
792.488540,153.219100,-888.247130,9992.780217
792.488856,-612.876398,-1332.370696,9770.718434
792.489171,-689.485948,-962.267725,9326.594869
792.489487,-306.438199,-1258.350101,9326.594869
792.489803,153.219100,-888.247130,9696.697840
792.490119,-229.828649,-0.000000,8956.491898
792.490435,-689.485948,-222.061783,8438.347739
792.490750,-153.219100,814.226536,8364.327145
792.491066,383.047749,-0.000000,8364.327145
792.491382,153.219100,-444.123565,9326.594869
792.491698,-153.219100,-740.205942,9474.636058
792.492014,-1149.143247,-1924.535449,9918.759623
792.492329,-689.485948,-1332.370696,10288.862594
792.492645,-459.657299,-444.123565,9844.739029
792.492961,306.438199,296.082377,10140.821405
792.493277,-459.657299,962.267725,9474.636058
792.493593,-459.657299,444.123565,9104.533087
792.493908,612.876398,1184.329507,9104.533087
792.494224,842.705048,814.226536,8438.347739
792.494540,1455.581446,-0.000000,8660.409521
792.494856,995.924147,-444.123565,9770.718434
792.495172,153.219100,-1184.329507,9696.697840
792.495487,229.828649,-370.102971,9548.656652
792.495803,153.219100,444.123565,9918.759623
792.496119,536.266849,370.102971,9918.759623
792.496435,536.266849,444.123565,9622.677246
792.496751,0.000000,518.144159,9622.677246
792.497066,76.609550,-444.123565,10140.821405
792.497382,689.485948,-222.061783,9844.739029
792.497698,1455.581446,-518.144159,9326.594869
792.498014,1378.971896,-0.000000,9622.677246
792.498330,1225.752797,-370.102971,10066.800811
792.498645,842.705048,-148.041188,9104.533087
792.498961,1378.971896,962.267725,9622.677246
792.499277,1838.629195,592.164754,10140.821405
792.499593,1762.019645,740.205942,8438.347739
792.499909,1532.190996,814.226536,9030.512492
792.500224,919.314598,-222.061783,10436.903782
792.500540,1225.752797,222.061783,9326.594869
792.500856,1991.848295,888.247130,8882.471304
792.501172,1302.362347,444.123565,8660.409521
792.501488,919.314598,-592.164754,10066.800811
792.501803,383.047749,-962.267725,10584.944971
792.502119,-459.657299,-666.185348,9918.759623
792.502435,-383.047749,-444.123565,10955.047942
792.502751,383.047749,-370.102971,10362.883188
792.503067,-153.219100,-0.000000,9400.615463
792.503382,-536.266849,-0.000000,10066.800811
792.503698,153.219100,-666.185348,9400.615463
792.504014,1149.143247,-148.041188,8882.471304
792.504330,919.314598,-296.082377,9178.553681
792.504646,1149.143247,-1036.288319,9844.739029
792.504961,459.657299,-1406.391290,9474.636058
792.505277,0.000000,-444.123565,9030.512492
792.505593,842.705048,-370.102971,9400.615463
792.505909,1149.143247,-296.082377,9326.594869
792.506225,766.095498,148.041188,9178.553681
792.506540,383.047749,-370.102971,8216.285956
792.506856,0.000000,-222.061783,8956.491898
792.507172,612.876398,-740.205942,9104.533087
792.507488,995.924147,-370.102971,8808.450710
792.507804,689.485948,-518.144159,9252.574275
792.508119,0.000000,-1702.473667,9770.718434
792.508435,-459.657299,-1332.370696,10066.800811
792.508751,-383.047749,-592.164754,9104.533087
792.509067,-153.219100,-74.020594,9030.512492
792.509383,153.219100,148.041188,9696.697840
792.509698,0.000000,-222.061783,8882.471304
792.510014,0.000000,-370.102971,8882.471304
792.510330,-153.219100,296.082377,9326.594869
792.510646,306.438199,-370.102971,9030.512492
792.510962,766.095498,-0.000000,8734.430116
792.511277,76.609550,-148.041188,9474.636058
792.511593,-995.924147,-296.082377,9622.677246
792.511909,0.000000,-592.164754,10584.944971
792.512225,-459.657299,-444.123565,10510.924376
792.512541,-229.828649,-0.000000,10140.821405
792.512856,306.438199,296.082377,8956.491898
792.513172,-153.219100,-0.000000,9178.553681
792.513488,306.438199,-74.020594,9844.739029
792.513804,1302.362347,-0.000000,9400.615463
792.514120,1762.019645,222.061783,8734.430116
792.514435,995.924147,-0.000000,9326.594869
792.514751,536.266849,-1110.308913,9918.759623
792.515067,612.876398,-0.000000,8734.430116
792.515383,766.095498,-0.000000,9548.656652
792.515699,766.095498,-444.123565,9844.739029
792.516014,1225.752797,148.041188,9844.739029
792.516330,766.095498,-74.020594,9326.594869
792.516646,0.000000,-0.000000,9178.553681
792.516962,689.485948,-592.164754,10066.800811
792.517278,1378.971896,-296.082377,9844.739029
792.517593,689.485948,370.102971,9178.553681
792.517909,0.000000,-592.164754,9844.739029
792.518225,0.000000,-592.164754,10436.903782
792.518541,229.828649,296.082377,9548.656652
792.518857,459.657299,-74.020594,9696.697840
792.519172,383.047749,296.082377,10214.842000
792.519488,0.000000,-814.226536,9622.677246
792.519804,0.000000,-666.185348,10362.883188
792.520120,536.266849,-0.000000,9474.636058
792.520436,919.314598,-74.020594,9178.553681
792.520751,1149.143247,-0.000000,9178.553681
792.521067,459.657299,-666.185348,9622.677246
792.521383,229.828649,-592.164754,10140.821405
792.521699,766.095498,370.102971,8882.471304
792.522015,1149.143247,518.144159,9252.574275
792.522330,1225.752797,666.185348,9474.636058
792.522646,919.314598,370.102971,8956.491898
792.522962,229.828649,-74.020594,8142.265362
792.523278,842.705048,-0.000000,9474.636058
792.523594,1838.629195,-148.041188,8882.471304
792.523909,842.705048,-0.000000,9030.512492
792.524225,459.657299,-0.000000,9474.636058
792.524541,-536.266849,-1258.350101,10140.821405
792.524857,-612.876398,-518.144159,10140.821405
792.525173,0.000000,-0.000000,9474.636058
792.525488,0.000000,148.041188,9622.677246
792.525804,306.438199,296.082377,9696.697840
792.526120,0.000000,-370.102971,9252.574275
792.526436,0.000000,-148.041188,8956.491898
792.526752,919.314598,-148.041188,9326.594869
792.527067,1072.533697,-0.000000,8882.471304
792.527383,459.657299,-222.061783,8734.430116
792.527699,229.828649,-444.123565,9474.636058
792.528015,229.828649,-0.000000,9474.636058
792.528331,842.705048,444.123565,9622.677246
792.528646,842.705048,-444.123565,9474.636058
792.528962,153.219100,-0.000000,9622.677246
792.529278,-536.266849,-296.082377,9992.780217
792.529594,0.000000,-74.020594,9474.636058
792.529910,0.000000,888.247130,8734.430116
792.530225,153.219100,-74.020594,9474.636058
792.530541,766.095498,-666.185348,9918.759623
792.530857,229.828649,-592.164754,8882.471304
792.531173,-383.047749,-666.185348,9844.739029
792.531489,76.609550,-222.061783,9548.656652
792.531804,612.876398,-296.082377,10214.842000
792.532120,995.924147,740.205942,9030.512492
792.532436,536.266849,222.061783,8882.471304
792.532752,612.876398,-370.102971,9326.594869
792.533068,612.876398,-222.061783,9104.533087
792.533383,689.485948,-222.061783,9252.574275
792.533699,919.314598,-592.164754,10066.800811
792.534015,306.438199,-666.185348,9696.697840
792.534331,-153.219100,-222.061783,9474.636058
792.534647,76.609550,148.041188,9770.718434
792.534962,153.219100,-222.061783,9918.759623
792.535278,306.438199,-148.041188,9844.739029
792.535594,0.000000,-0.000000,9030.512492
792.535910,-1149.143247,-1036.288319,9474.636058
792.536226,-459.657299,-592.164754,10436.903782
792.536541,842.705048,-814.226536,9326.594869
792.536857,612.876398,-1554.432478,9844.739029
792.537173,0.000000,-888.247130,9770.718434
792.537489,-383.047749,-1776.494261,10584.944971
792.537805,-306.438199,-592.164754,9622.677246
792.538120,306.438199,-222.061783,10140.821405
792.538436,766.095498,-444.123565,9992.780217
792.538752,766.095498,370.102971,8660.409521
792.539068,229.828649,-148.041188,8808.450710
792.539384,229.828649,-1110.308913,9992.780217
792.539699,1072.533697,-222.061783,8882.471304
792.540015,1149.143247,-370.102971,7920.203579
792.540331,842.705048,148.041188,9622.677246
792.540647,842.705048,-1036.288319,9992.780217
792.540963,229.828649,-1184.329507,8586.388927
792.541278,229.828649,-222.061783,9030.512492
792.541594,383.047749,-592.164754,9918.759623
792.541910,919.314598,-0.000000,9252.574275
792.542226,229.828649,-148.041188,9104.533087
792.542542,-459.657299,-0.000000,9252.574275
792.542857,0.000000,-0.000000,9918.759623
792.543173,459.657299,-740.205942,9030.512492
792.543489,229.828649,-0.000000,9030.512492
792.543805,0.000000,-370.102971,10140.821405
792.544121,0.000000,-666.185348,9178.553681
792.544436,306.438199,370.102971,10214.842000
792.544752,1225.752797,518.144159,9326.594869
792.545068,1225.752797,-74.020594,9252.574275
792.545384,766.095498,518.144159,9104.533087
792.545700,536.266849,592.164754,8882.471304
792.546016,1149.143247,518.144159,8956.491898
792.546331,1532.190996,370.102971,9252.574275
792.546647,1685.410096,740.205942,8808.450710
792.546963,1378.971896,296.082377,9104.533087
792.547279,612.876398,-518.144159,9696.697840
792.547595,459.657299,-740.205942,9770.718434
792.547910,689.485948,148.041188,9992.780217
792.548226,1378.971896,-0.000000,10732.986159
792.548542,689.485948,370.102971,10066.800811
792.548858,612.876398,814.226536,9030.512492
792.549174,76.609550,-0.000000,9326.594869
792.549490,612.876398,-148.041188,9844.739029
792.549805,1378.971896,-444.123565,9770.718434
792.550121,995.924147,-0.000000,9326.594869
792.550437,306.438199,-370.102971,9474.636058
792.550753,229.828649,-444.123565,9622.677246
792.551069,689.485948,444.123565,9548.656652
792.551384,766.095498,-0.000000,9400.615463
792.551700,612.876398,370.102971,10140.821405
792.552016,76.609550,148.041188,9474.636058
792.552332,76.609550,-370.102971,9178.553681
792.552648,306.438199,-74.020594,9770.718434
792.552964,459.657299,-296.082377,9622.677246
792.553279,306.438199,-666.185348,9474.636058
792.553595,-536.266849,-666.185348,9992.780217
792.553911,-995.924147,-1554.432478,10732.986159
792.554227,-536.266849,-296.082377,9770.718434
792.554543,0.000000,-148.041188,9622.677246
792.554858,-383.047749,-148.041188,9770.718434
792.555174,229.828649,-74.020594,9918.759623
792.555490,-919.314598,-518.144159,8290.306550
792.555806,0.000000,148.041188,9400.615463
792.556122,689.485948,-0.000000,9622.677246
792.556438,612.876398,-0.000000,8364.327145
792.556753,536.266849,296.082377,8734.430116
792.557069,-306.438199,-888.247130,9696.697840
792.557385,306.438199,-666.185348,9474.636058
792.557701,0.000000,296.082377,9178.553681
792.558017,0.000000,-222.061783,9474.636058
792.558332,153.219100,-0.000000,9178.553681
792.558648,153.219100,-518.144159,9474.636058
792.558964,-383.047749,370.102971,8364.327145
792.559280,0.000000,-0.000000,9030.512492
792.559596,306.438199,-814.226536,8808.450710
792.559912,229.828649,-1332.370696,9474.636058
792.560227,-995.924147,-1924.535449,9844.739029
792.560543,-612.876398,-1924.535449,9992.780217
792.560859,-536.266849,-1406.391290,10362.883188
792.561175,229.828649,-2146.597232,10732.986159
792.561491,919.314598,-1258.350101,10362.883188
792.561807,919.314598,-1110.308913,9474.636058
792.562122,919.314598,-666.185348,8068.244768
792.562438,1838.629195,-74.020594,8586.388927
792.562754,2604.724693,-1332.370696,8882.471304
792.563070,2987.772442,-370.102971,8882.471304
792.563386,2681.334243,-888.247130,7994.224174
792.563701,2298.286494,-1480.411884,9178.553681
792.564017,2451.505594,-666.185348,8882.471304
792.564333,1991.848295,-962.267725,8512.368333
792.564649,2451.505594,-444.123565,9178.553681
792.564965,1608.800546,-888.247130,8956.491898
792.565281,153.219100,-1776.494261,9696.697840
792.565596,-153.219100,-1554.432478,9770.718434
792.565912,-229.828649,-2220.617826,10510.924376
792.566228,-842.705048,-1702.473667,9918.759623
792.566544,-995.924147,-1998.556043,9844.739029
792.566860,-1991.848295,-2664.741391,10288.862594
792.567175,-2374.896044,-2368.659014,11325.150913
792.567491,-1762.019645,-1776.494261,10510.924376
792.567807,-1455.581446,-1776.494261,10140.821405
792.568123,-919.314598,-888.247130,9992.780217
792.568439,-689.485948,-222.061783,9030.512492
792.568755,-995.924147,-962.267725,8512.368333
792.569070,-766.095498,-740.205942,8882.471304
792.569386,-536.266849,-814.226536,8364.327145
792.569702,-459.657299,-1480.411884,9252.574275
792.570018,-919.314598,-1850.514855,9918.759623
792.570334,-1608.800546,-2294.638420,9548.656652
792.570649,-1838.629195,-1110.308913,9918.759623
792.570965,-1915.238745,-740.205942,9104.533087
792.571281,-2068.457845,-1628.453072,9622.677246
792.571597,-1685.410096,-740.205942,9622.677246
792.571913,-2451.505594,-1850.514855,9178.553681
792.572229,-2451.505594,-2368.659014,9918.759623
792.572544,-2911.162892,-1258.350101,9326.594869
792.572860,-2681.334243,-1776.494261,9178.553681
792.573176,-2298.286494,-1924.535449,9622.677246
792.573492,-2681.334243,-2590.720797,10140.821405
792.573808,-3140.991542,-3478.967927,10584.944971
792.574123,-2681.334243,-2738.761985,10881.027347
792.574439,-2911.162892,-2072.576638,9770.718434
792.574755,-1838.629195,-1554.432478,9474.636058
792.575071,-1072.533697,-1110.308913,9400.615463
792.575387,-1072.533697,-1332.370696,8364.327145
792.575703,-919.314598,-518.144159,8660.409521
792.576018,-306.438199,-370.102971,8216.285956
792.576334,-153.219100,-222.061783,6809.894666
792.576650,-229.828649,-222.061783,7624.121203
792.576966,-306.438199,-1850.514855,7920.203579
792.577282,-1302.362347,-2294.638420,8216.285956
792.577598,-2298.286494,-2812.782580,9918.759623
792.577913,-3217.601092,-3256.906145,10066.800811
792.578229,-3753.867940,-2886.803174,10510.924376
792.578545,-4290.134789,-2368.659014,10510.924376
792.578861,-3983.696590,-3256.906145,10436.903782
792.579177,-3983.696590,-3627.009116,11843.295072
792.579492,-4213.525239,-3478.967927,11843.295072
792.579808,-3217.601092,-2442.679609,9400.615463
792.580124,-2451.505594,-2220.617826,9030.512492
792.580440,-1608.800546,-1628.453072,8956.491898
792.580756,-536.266849,-1258.350101,7698.141797
792.581072,766.095498,-2146.597232,8660.409521
792.581387,612.876398,-1554.432478,8512.368333
792.581703,536.266849,-1110.308913,7402.059420
792.582019,1302.362347,-1406.391290,7920.203579
792.582335,383.047749,-1036.288319,8438.347739
792.582651,306.438199,-962.267725,9104.533087
792.582966,383.047749,-1850.514855,9622.677246
792.583282,-536.266849,-2368.659014,9178.553681
792.583598,-2068.457845,-2294.638420,9918.759623
792.583914,-2221.676944,-3627.009116,10881.027347
792.584230,-2221.676944,-3034.844362,10066.800811
792.584546,-3217.601092,-1702.473667,10436.903782
792.584861,-2911.162892,-2368.659014,10510.924376
792.585177,-2374.896044,-2886.803174,9770.718434
792.585493,-2451.505594,-3330.926739,9622.677246
792.585809,-2604.724693,-3182.885551,9992.780217
792.586125,-1915.238745,-3849.070898,10066.800811
792.586440,-1225.752797,-3478.967927,10066.800811
792.586756,-1072.533697,-2590.720797,9918.759623
792.587072,-536.266849,-2294.638420,9696.697840
792.587388,153.219100,-2146.597232,9030.512492
792.587704,0.000000,-1998.556043,8808.450710
792.588020,306.438199,-1998.556043,9030.512492
792.588335,306.438199,-1850.514855,8882.471304
792.588651,0.000000,-1776.494261,8586.388927
792.588967,306.438199,-1702.473667,8512.368333
792.589283,229.828649,-2072.576638,8216.285956
792.589599,-1149.143247,-1628.453072,8068.244768
792.589914,-1608.800546,-2294.638420,8808.450710
792.590230,-1532.190996,-3330.926739,9104.533087
792.590546,-2987.772442,-4071.132681,9918.759623
792.590862,-3983.696590,-4515.256246,10510.924376
792.591178,-4443.353888,-4811.338623,10807.006753
792.591494,-4903.011187,-5255.462188,11769.274478
792.591809,-4903.011187,-5033.400406,11917.315666
792.592125,-4673.182538,-2812.782580,11177.109724
792.592441,-3830.477490,-1554.432478,9844.739029
792.592757,-2528.115143,-1110.308913,9326.594869
792.593073,-1149.143247,-1998.556043,8882.471304
792.593388,-612.876398,-1110.308913,7920.203579
792.593704,-153.219100,-888.247130,7105.977043
792.594020,612.876398,-1776.494261,7476.080014
792.594336,995.924147,-1924.535449,7772.162391
792.594652,306.438199,-888.247130,8142.265362
792.594968,-306.438199,-518.144159,8290.306550
792.595283,-1072.533697,-74.020594,8142.265362
792.595599,-1302.362347,-1554.432478,8956.491898
792.595915,-1608.800546,-1924.535449,9474.636058
792.596231,-2221.676944,-2368.659014,10214.842000
792.596547,-2528.115143,-2960.823768,11029.068536
792.596863,-2834.553343,-2812.782580,11103.089130
792.597178,-3140.991542,-2368.659014,11103.089130
792.597494,-2528.115143,-1776.494261,10288.862594
792.597810,-2681.334243,-444.123565,9622.677246
792.598126,-2911.162892,-148.041188,8660.409521
792.598442,-1838.629195,-740.205942,8216.285956
792.598757,-536.266849,-740.205942,8068.244768
792.599073,0.000000,-888.247130,7550.100608
792.599389,76.609550,-2294.638420,8216.285956
792.599705,-612.876398,-3552.988522,9326.594869
792.600021,-1149.143247,-3849.070898,9844.739029
792.600337,-1762.019645,-3256.906145,10510.924376
792.600652,-1915.238745,-2368.659014,11103.089130
792.600968,-2604.724693,-2072.576638,11325.150913
792.601284,-2451.505594,-1628.453072,10658.965565
792.601600,-2298.286494,-1332.370696,10066.800811
792.601916,-2068.457845,-888.247130,9622.677246
792.602231,-1455.581446,-1036.288319,8734.430116
792.602547,-995.924147,-2072.576638,8660.409521
792.602863,-995.924147,-2442.679609,8512.368333
792.603179,-995.924147,-3108.864956,9178.553681
792.603495,-1378.971896,-3404.947333,9770.718434
792.603811,-1915.238745,-3552.988522,10362.883188
792.604126,-1762.019645,-3627.009116,10732.986159
792.604442,-2145.067394,-2960.823768,11029.068536
792.604758,-1991.848295,-2146.597232,10510.924376
792.605074,-1685.410096,-1850.514855,10066.800811
792.605390,-1455.581446,-1036.288319,9622.677246
792.605705,-1149.143247,-1110.308913,8808.450710
792.606021,-1072.533697,-518.144159,8290.306550
792.606337,-766.095498,-962.267725,8586.388927
792.606653,-1225.752797,-1924.535449,8512.368333
792.606969,-1378.971896,-2664.741391,9030.512492
792.607285,-1532.190996,-3775.050304,9474.636058
792.607600,-1608.800546,-4219.173869,9770.718434
792.607916,-1991.848295,-3923.091493,9992.780217
792.608232,-2068.457845,-3849.070898,10214.842000
792.608548,-2451.505594,-3627.009116,10288.862594
792.608864,-2451.505594,-3108.864956,10584.944971
792.609179,-2374.896044,-2590.720797,10140.821405
792.609495,-2221.676944,-1998.556043,9474.636058
792.609811,-1455.581446,-1258.350101,8882.471304
792.610127,-842.705048,-1332.370696,8438.347739
792.610443,-383.047749,-1184.329507,8068.244768
792.610759,76.609550,-962.267725,7476.080014
792.611074,0.000000,-1258.350101,7031.956449
792.611390,76.609550,-1776.494261,7550.100608
792.611706,229.828649,-2368.659014,7550.100608
792.612022,-995.924147,-2590.720797,8438.347739
792.612338,-1762.019645,-3552.988522,9548.656652
792.612654,-2834.553343,-4515.256246,10436.903782
792.612969,-3907.087040,-5329.482782,11399.171507
792.613285,-4443.353888,-5921.647536,11843.295072
792.613601,-4443.353888,-5255.462188,12287.418637
792.613917,-4136.915689,-4441.235652,12213.398043
792.614233,-3830.477490,-3404.947333,11621.233289
792.614548,-2298.286494,-1776.494261,10214.842000
792.614864,-995.924147,-814.226536,8660.409521
792.615180,0.000000,-370.102971,7772.162391
792.615496,1225.752797,-222.061783,6735.874072
792.615812,2374.896044,-296.082377,6143.709319
792.616128,2834.553343,-666.185348,5921.647536
792.616443,2757.943793,-1184.329507,6217.729913
792.616759,2145.067394,-1702.473667,7105.977043
792.617075,766.095498,-2442.679609,8586.388927
792.617391,-612.876398,-3330.926739,9844.739029
792.617707,-2374.896044,-3701.029710,10881.027347
792.618022,-3753.867940,-3478.967927,11399.171507
792.618338,-4596.572988,-2738.761985,11769.274478
792.618654,-4826.401637,-2442.679609,11917.315666
792.618970,-4673.182538,-1924.535449,11621.233289
792.619286,-3677.258390,-1332.370696,10955.047942
792.619602,-3600.648841,-1628.453072,10140.821405
792.619917,-3217.601092,-2294.638420,9622.677246
792.620233,-2374.896044,-2368.659014,8956.491898
792.620549,-1532.190996,-1998.556043,8660.409521
792.620865,-1072.533697,-1406.391290,8068.244768
792.621181,-766.095498,-888.247130,8068.244768
792.621496,-536.266849,-1184.329507,8882.471304
792.621812,-689.485948,-1998.556043,9252.574275
792.622128,-842.705048,-2072.576638,9770.718434
792.622444,-1302.362347,-2220.617826,9770.718434
792.622760,-1302.362347,-1628.453072,10436.903782
792.623076,-1532.190996,-1110.308913,10584.944971
792.623391,-1838.629195,-1110.308913,10362.883188
792.623707,-1685.410096,-1258.350101,9844.739029
792.624023,-2068.457845,-1628.453072,9622.677246
792.624339,-2145.067394,-2220.617826,9844.739029
792.624655,-1991.848295,-2516.700203,9770.718434
792.624970,-1302.362347,-2960.823768,9548.656652
792.625286,-612.876398,-3404.947333,9326.594869
792.625602,-689.485948,-2812.782580,9178.553681
792.625918,-766.095498,-2664.741391,9252.574275
792.626234,-306.438199,-3552.988522,9474.636058
792.626550,0.000000,-2368.659014,9696.697840
792.626865,-229.828649,-2146.597232,9326.594869
792.627181,0.000000,-1702.473667,9474.636058
792.627497,459.657299,-1036.288319,9400.615463
792.627813,383.047749,-814.226536,8808.450710
792.628129,612.876398,-444.123565,9178.553681
792.628444,536.266849,-1036.288319,8512.368333
792.628760,612.876398,-1184.329507,8216.285956
792.629076,536.266849,-1406.391290,8586.388927
792.629392,612.876398,-1554.432478,8438.347739
792.629708,76.609550,-2146.597232,8290.306550
792.630024,-612.876398,-2220.617826,8882.471304
792.630339,-1225.752797,-2812.782580,9474.636058
792.630655,-2298.286494,-2516.700203,10066.800811
792.630971,-3140.991542,-2146.597232,10362.883188
792.631287,-3677.258390,-1702.473667,10510.924376
792.631603,-3294.210641,-888.247130,10362.883188
792.631919,-2911.162892,-370.102971,9918.759623
792.632234,-2757.943793,-74.020594,9400.615463
792.632550,-2068.457845,-296.082377,9326.594869
792.632866,-1378.971896,-962.267725,9474.636058
792.633182,-689.485948,-1258.350101,8882.471304
792.633498,-306.438199,-1184.329507,8364.327145
792.633813,-612.876398,-1036.288319,8512.368333
792.634129,-919.314598,-1628.453072,8512.368333
792.634445,-1225.752797,-2146.597232,8882.471304
792.634761,-1915.238745,-1924.535449,9252.574275
792.635077,-2834.553343,-2220.617826,9696.697840
792.635393,-3064.381992,-2516.700203,9844.739029
792.635708,-3524.039291,-2812.782580,10140.821405
792.636024,-4366.744339,-3182.885551,10658.965565
792.636340,-4519.963438,-3108.864956,10881.027347
792.636656,-4749.792088,-3182.885551,10732.986159
792.636972,-4826.401637,-3552.988522,10510.924376
792.637287,-4749.792088,-4071.132681,10658.965565
792.637603,-4213.525239,-4441.235652,10510.924376
792.637919,-3600.648841,-4367.215058,9918.759623
792.638235,-2911.162892,-4367.215058,9696.697840
792.638551,-2374.896044,-3997.112087,9252.574275
792.638867,-995.924147,-3997.112087,9030.512492
792.639182,-1302.362347,-4145.153275,8956.491898
792.639498,-1225.752797,-3849.070898,8808.450710
792.639814,-1455.581446,-3627.009116,9104.533087
792.640130,-1762.019645,-3404.947333,9104.533087
792.640446,-1991.848295,-3627.009116,9474.636058
792.640761,-2221.676944,-3775.050304,9474.636058
792.641077,-1915.238745,-3627.009116,9918.759623
792.641393,-2068.457845,-3775.050304,9696.697840
792.641709,-1915.238745,-3701.029710,9696.697840
792.642025,-1302.362347,-3478.967927,10362.883188
792.642341,-1225.752797,-3404.947333,9326.594869
792.642656,-612.876398,-3108.864956,8734.430116
792.642972,-689.485948,-2664.741391,8438.347739
792.643288,-306.438199,-2220.617826,7994.224174
792.643604,-536.266849,-1998.556043,7698.141797
792.643920,-229.828649,-2146.597232,7772.162391
792.644235,-842.705048,-2590.720797,7698.141797
792.644551,-1149.143247,-2664.741391,8438.347739
792.644867,-1455.581446,-2738.761985,9178.553681
792.645183,-2451.505594,-3775.050304,10066.800811
792.645499,-2528.115143,-3552.988522,10066.800811
792.645814,-2681.334243,-3182.885551,10214.842000
792.646130,-2834.553343,-3256.906145,10362.883188
792.646446,-2451.505594,-2960.823768,10584.944971
792.646762,-1685.410096,-3034.844362,10362.883188
792.647078,-1225.752797,-2072.576638,9696.697840
792.647393,-383.047749,-1480.411884,9178.553681
792.647709,536.266849,-518.144159,8586.388927
792.648025,919.314598,296.082377,7698.141797
792.648341,1455.581446,814.226536,7328.038826
792.648657,1762.019645,1036.288319,7031.956449
792.648972,1608.800546,518.144159,6809.894666
792.649288,1302.362347,-74.020594,7105.977043
792.649604,536.266849,-1406.391290,8142.265362
792.649920,-536.266849,-2442.679609,9326.594869
792.650236,-2068.457845,-2960.823768,10732.986159
792.650551,-3064.381992,-4293.194464,11917.315666
792.650867,-3983.696590,-4885.359217,13249.686362
792.651183,-4749.792088,-4885.359217,13841.851115
792.651499,-4519.963438,-3627.009116,13471.748144
792.651815,-3600.648841,-2442.679609,12139.377449
792.652130,-2451.505594,-592.164754,10658.965565
792.652446,-995.924147,666.185348,9178.553681
792.652762,383.047749,1184.329507,7550.100608
792.653078,612.876398,1480.411884,6661.853478
792.653394,1149.143247,1258.350101,5921.647536
792.653709,1149.143247,444.123565,6217.729913
792.654025,612.876398,-370.102971,7105.977043
792.654341,-153.219100,-1628.453072,8290.306550
792.654657,-1455.581446,-2812.782580,10066.800811
792.654973,-3140.991542,-3849.070898,11621.233289
792.655288,-4673.182538,-4367.215058,12953.603985
792.655604,-5362.668486,-3775.050304,13693.809927
792.655920,-5362.668486,-2812.782580,13397.727550
792.656236,-5209.449386,-1554.432478,12287.418637
792.656552,-4519.963438,-444.123565,10955.047942
792.656867,-4290.134789,-0.000000,9696.697840
792.657183,-2987.772442,-518.144159,8882.471304
792.657499,-1915.238745,-666.185348,8142.265362
792.657815,-1072.533697,-1628.453072,8216.285956
792.658131,-1149.143247,-2146.597232,8290.306550
792.658446,-1225.752797,-2368.659014,8216.285956
792.658762,-766.095498,-2146.597232,8068.244768
792.659078,-766.095498,-1924.535449,8512.368333
792.659394,-1302.362347,-1850.514855,9400.615463
792.659710,-1608.800546,-2220.617826,9178.553681
792.660025,-1991.848295,-2590.720797,9622.677246
792.660341,-2451.505594,-3182.885551,10066.800811
792.660657,-2451.505594,-3627.009116,10881.027347
792.660973,-2911.162892,-3552.988522,10955.047942
792.661289,-3600.648841,-3182.885551,10732.986159
792.661604,-2757.943793,-3404.947333,10510.924376
792.661920,-1762.019645,-3701.029710,9844.739029
792.662236,-1455.581446,-3256.906145,9104.533087
792.662552,-612.876398,-3034.844362,7994.224174
792.662868,0.000000,-3404.947333,7179.997637
792.663183,1149.143247,-3923.091493,7179.997637
792.663499,383.047749,-3849.070898,7920.203579
792.663815,-383.047749,-3701.029710,8512.368333
792.664131,-995.924147,-3923.091493,8956.491898
792.664447,-1378.971896,-4219.173869,9696.697840
792.664762,-1455.581446,-3849.070898,10362.883188
792.665078,-1762.019645,-2664.741391,9918.759623
792.665394,-1378.971896,-1924.535449,9548.656652
792.665710,-612.876398,-2442.679609,9474.636058
792.666026,306.438199,-3108.864956,8956.491898
792.666342,306.438199,-2146.597232,8438.347739
792.666657,76.609550,-2072.576638,8068.244768
792.666973,76.609550,-2442.679609,7772.162391
792.667289,-306.438199,-2516.700203,8290.306550
792.667605,-842.705048,-3478.967927,8586.388927
792.667921,-1149.143247,-3849.070898,9178.553681
792.668236,-1838.629195,-4441.235652,9918.759623
792.668552,-2757.943793,-4219.173869,10214.842000
792.668868,-2681.334243,-3627.009116,9918.759623
792.669184,-2451.505594,-2220.617826,10140.821405
792.669500,-2681.334243,-962.267725,9918.759623
792.669815,-2221.676944,-74.020594,9548.656652
792.670131,-1378.971896,-592.164754,9326.594869
792.670447,-1225.752797,-1406.391290,9178.553681
792.670763,-995.924147,-1184.329507,9178.553681
792.671079,-306.438199,-1406.391290,8586.388927
792.671394,0.000000,-1036.288319,7994.224174
792.671710,-459.657299,-814.226536,8142.265362
792.672026,-459.657299,-1628.453072,8290.306550
792.672342,-842.705048,-2516.700203,9696.697840
792.672658,-2451.505594,-2664.741391,10214.842000
792.672973,-3140.991542,-2812.782580,11103.089130
792.673289,-3677.258390,-3034.844362,11769.274478
792.673605,-4060.306139,-2368.659014,11917.315666
792.673921,-3983.696590,-1258.350101,11843.295072
792.674237,-3370.820191,-1258.350101,11843.295072
792.674552,-2834.553343,-1036.288319,10807.006753
792.674868,-2757.943793,-0.000000,9252.574275
792.675184,-1225.752797,-0.000000,8882.471304
792.675500,0.000000,-74.020594,8290.306550
792.675816,153.219100,-74.020594,7994.224174
792.676131,842.705048,-0.000000,7254.018232
792.676447,612.876398,-1258.350101,7328.038826
792.676763,306.438199,-1776.494261,8808.450710
792.677079,-842.705048,-2220.617826,10288.862594
792.677395,-1302.362347,-2738.761985,9844.739029
792.677710,-2604.724693,-2590.720797,10658.965565
792.678026,-3677.258390,-2516.700203,11695.253884
792.678342,-3677.258390,-2294.638420,11917.315666
792.678658,-4290.134789,-740.205942,11547.212695
792.678974,-4136.915689,-74.020594,10584.944971
792.679289,-3217.601092,370.102971,9770.718434
792.679605,-2298.286494,-296.082377,9178.553681
792.679921,-1455.581446,-1036.288319,8882.471304
792.680237,-536.266849,-1406.391290,8290.306550
792.680553,0.000000,-1702.473667,7550.100608
792.680868,0.000000,-666.185348,7624.121203
792.681184,76.609550,-370.102971,7846.182985
792.681500,919.314598,-962.267725,8216.285956
792.681816,0.000000,-1406.391290,9400.615463
792.682132,-1608.800546,-1628.453072,9844.739029
792.682447,-2145.067394,-1850.514855,10955.047942
792.682763,-2068.457845,-666.185348,10288.862594
792.683079,-1378.971896,-1332.370696,10658.965565
792.683395,-1149.143247,-1924.535449,11695.253884
792.683711,-1685.410096,-888.247130,10658.965565
792.684026,-1302.362347,-1776.494261,9770.718434
792.684342,-766.095498,-2516.700203,9696.697840
792.684658,612.876398,-518.144159,9326.594869
792.684974,1838.629195,-666.185348,7772.162391
792.685290,2757.943793,-518.144159,7772.162391
792.685605,2221.676944,740.205942,6513.812290
792.685921,2374.896044,-814.226536,7328.038826
792.686237,2221.676944,-814.226536,7402.059420
792.686553,1915.238745,-1406.391290,8142.265362
792.686869,1455.581446,-2368.659014,8660.409521
792.687184,536.266849,-2812.782580,11103.089130
792.687500,-842.705048,-2738.761985,11399.171507
792.687816,-689.485948,-2368.659014,11177.109724
792.688132,-919.314598,-1850.514855,10732.986159
792.688448,-383.047749,-1036.288319,10807.006753
792.688763,-612.876398,-592.164754,11177.109724
792.689079,-229.828649,-740.205942,9030.512492
792.689395,0.000000,-0.000000,7772.162391
792.689711,1225.752797,1110.308913,7920.203579
792.690027,1378.971896,-148.041188,7254.018232
792.690342,995.924147,-666.185348,7402.059420
792.690658,0.000000,-740.205942,9326.594869
792.690974,-766.095498,-2072.576638,9696.697840
792.691290,-919.314598,-1480.411884,10214.842000
792.691606,-842.705048,-296.082377,10584.944971
792.691921,-919.314598,-740.205942,10658.965565
792.692237,-1225.752797,296.082377,11473.192101
792.692553,-1762.019645,-148.041188,11547.212695
792.692869,-766.095498,-0.000000,11103.089130
792.693185,842.705048,592.164754,10214.842000
792.693500,1455.581446,518.144159,8882.471304
792.693816,1378.971896,962.267725,8438.347739
792.694132,1838.629195,-0.000000,8512.368333
792.694448,1915.238745,-370.102971,7994.224174
792.694764,2681.334243,1554.432478,7772.162391
792.695080,2374.896044,296.082377,8068.244768
792.695395,1149.143247,-592.164754,8068.244768
792.695711,76.609550,-740.205942,9474.636058
792.696027,-689.485948,-1850.514855,10362.883188
792.696343,-1149.143247,-1480.411884,10288.862594
792.696659,-842.705048,-2590.720797,11473.192101
792.696974,-1915.238745,-1850.514855,11547.212695
792.697290,-1915.238745,-1702.473667,11917.315666
792.697606,-1762.019645,-2220.617826,11029.068536
792.697922,-1072.533697,-1554.432478,10510.924376
792.698238,536.266849,-518.144159,10214.842000
792.698553,1685.410096,-518.144159,8586.388927
792.698869,1762.019645,-0.000000,7994.224174
792.699185,2221.676944,444.123565,7920.203579
792.699501,2911.162892,666.185348,7476.080014
792.699817,3830.477490,1332.370696,7105.977043
792.700132,3370.820191,1184.329507,7772.162391
792.700448,2528.115143,-0.000000,7920.203579
792.700764,1378.971896,-962.267725,8956.491898
792.701080,0.000000,-370.102971,10584.944971
792.701396,0.000000,-518.144159,10807.006753
792.701711,-1072.533697,-666.185348,11251.130318
792.702027,-1685.410096,-0.000000,11325.150913
792.702343,-2298.286494,-0.000000,11177.109724
792.702659,-1149.143247,444.123565,9770.718434
792.702975,-383.047749,1184.329507,9326.594869
792.703290,842.705048,-0.000000,9326.594869
792.703606,842.705048,-0.000000,8512.368333
792.703922,766.095498,370.102971,8290.306550
792.704238,995.924147,-296.082377,7920.203579
792.704554,1762.019645,148.041188,8586.388927
792.704869,1225.752797,222.061783,9030.512492
792.705185,766.095498,148.041188,9696.697840
792.705501,0.000000,888.247130,8734.430116
792.705817,0.000000,814.226536,8956.491898
792.706133,76.609550,1110.308913,9548.656652
792.706448,76.609550,666.185348,10140.821405
792.706764,0.000000,-0.000000,10510.924376
792.707080,-306.438199,-148.041188,9918.759623
792.707396,-459.657299,-148.041188,9844.739029
792.707712,-229.828649,-222.061783,9844.739029
792.708027,1072.533697,370.102971,10066.800811
792.708343,995.924147,-74.020594,9400.615463
792.708659,766.095498,370.102971,8512.368333
792.708975,612.876398,148.041188,8364.327145
792.709291,1378.971896,-222.061783,8956.491898
792.709606,1685.410096,-370.102971,9770.718434
792.709922,842.705048,-814.226536,9474.636058
792.710238,536.266849,-814.226536,10288.862594
792.710554,-459.657299,-222.061783,10140.821405
792.710870,-612.876398,-518.144159,9844.739029
792.711185,-383.047749,-518.144159,11177.109724
792.711501,766.095498,-1110.308913,11473.192101
792.711817,-306.438199,-592.164754,9770.718434
792.712133,-153.219100,-444.123565,9992.780217
792.712449,459.657299,-444.123565,9326.594869
792.712764,1762.019645,-296.082377,8660.409521
792.713080,1915.238745,-444.123565,8660.409521
792.713396,1838.629195,-222.061783,8734.430116
792.713712,689.485948,-814.226536,8808.450710
792.714028,459.657299,-1406.391290,8882.471304
792.714343,689.485948,-1406.391290,9770.718434
792.714659,76.609550,-2072.576638,10510.924376
792.714975,-689.485948,-1924.535449,10436.903782
792.715291,-1455.581446,-1258.350101,10732.986159
792.715607,-1072.533697,-1332.370696,10881.027347
792.715922,0.000000,-296.082377,10140.821405
792.716238,459.657299,518.144159,8512.368333
792.716554,383.047749,-0.000000,9844.739029
792.716870,842.705048,-296.082377,8882.471304
792.717186,1072.533697,-370.102971,8216.285956
792.717501,1991.848295,-444.123565,8808.450710
792.717817,2451.505594,-222.061783,8956.491898
792.718133,2145.067394,-0.000000,8068.244768
792.718449,2068.457845,296.082377,7550.100608
792.718765,995.924147,-0.000000,8290.306550
792.719080,842.705048,-0.000000,9178.553681
792.719396,1378.971896,370.102971,9178.553681
792.719712,459.657299,-740.205942,9326.594869
792.720028,-306.438199,-888.247130,9770.718434
792.720344,-689.485948,-1628.453072,10436.903782
792.720659,-766.095498,-1332.370696,10436.903782
792.720975,0.000000,-296.082377,9622.677246
792.721291,-383.047749,-518.144159,10214.842000
792.721607,-153.219100,-0.000000,9178.553681
792.721923,-612.876398,444.123565,8364.327145
792.722238,383.047749,-444.123565,8142.265362
792.722554,1378.971896,222.061783,8216.285956
792.722870,1608.800546,-370.102971,8068.244768
792.723186,995.924147,-592.164754,9104.533087
792.723502,459.657299,-444.123565,9326.594869
792.723818,536.266849,-74.020594,8956.491898
792.724133,459.657299,-0.000000,9918.759623
792.724449,-306.438199,296.082377,10214.842000
792.724765,-459.657299,296.082377,10288.862594
792.725081,-919.314598,444.123565,9770.718434
792.725397,-1149.143247,-222.061783,10288.862594
792.725712,0.000000,666.185348,10510.924376
792.726028,76.609550,296.082377,9326.594869
792.726344,76.609550,222.061783,9474.636058
792.726660,229.828649,518.144159,9622.677246
792.726976,612.876398,444.123565,9252.574275
792.727291,995.924147,1036.288319,8734.430116
792.727607,1072.533697,740.205942,9622.677246
792.727923,1302.362347,-222.061783,10288.862594
792.728239,536.266849,296.082377,9474.636058
792.728555,0.000000,222.061783,9400.615463
792.728870,995.924147,-0.000000,9696.697840
792.729186,612.876398,148.041188,10510.924376
792.729502,0.000000,-444.123565,9770.718434
792.729818,-229.828649,-296.082377,10955.047942
792.730134,-383.047749,-518.144159,10510.924376
792.730449,0.000000,-222.061783,10140.821405
792.730765,612.876398,222.061783,10584.944971
792.731081,842.705048,-222.061783,9622.677246
792.731397,842.705048,222.061783,9030.512492
792.731713,612.876398,296.082377,9326.594869
792.732028,1455.581446,444.123565,8956.491898
792.732344,1532.190996,814.226536,8882.471304
792.732660,919.314598,-222.061783,9474.636058
792.732976,689.485948,-592.164754,9992.780217
792.733292,459.657299,-888.247130,9622.677246
792.733607,0.000000,-814.226536,10066.800811
792.733923,689.485948,-962.267725,10436.903782
792.734239,153.219100,-1702.473667,11029.068536
792.734555,306.438199,-740.205942,10436.903782
792.734871,229.828649,518.144159,8512.368333
792.735186,995.924147,148.041188,8734.430116
792.735502,1685.410096,296.082377,9178.553681
792.735818,1685.410096,-74.020594,8660.409521
792.736134,1762.019645,-222.061783,8364.327145
792.736450,1149.143247,-1258.350101,8438.347739
792.736765,842.705048,-1258.350101,9030.512492
792.737081,1838.629195,-592.164754,8660.409521
792.737397,1149.143247,-888.247130,9104.533087
792.737713,0.000000,-518.144159,9548.656652
792.738029,-459.657299,-814.226536,9326.594869
792.738344,-383.047749,-888.247130,8808.450710
792.738660,-459.657299,222.061783,9104.533087
792.738976,-153.219100,-74.020594,9104.533087
792.739292,-229.828649,-740.205942,9400.615463
792.739608,-919.314598,-888.247130,9104.533087
792.739923,-766.095498,-962.267725,9326.594869
792.740239,766.095498,-666.185348,9400.615463
792.740555,383.047749,-592.164754,8956.491898
792.740871,0.000000,-74.020594,9030.512492
792.741187,76.609550,814.226536,8808.450710
792.741502,76.609550,518.144159,8216.285956
792.741818,0.000000,814.226536,8734.430116
792.742134,919.314598,-148.041188,9696.697840
792.742450,0.000000,-592.164754,9252.574275
792.742766,-306.438199,-0.000000,9548.656652
792.743081,-153.219100,-370.102971,9326.594869
792.743397,-229.828649,-592.164754,10288.862594
792.743713,0.000000,-0.000000,10288.862594
792.744029,-306.438199,222.061783,10288.862594
792.744345,0.000000,592.164754,9548.656652
792.744661,-689.485948,814.226536,8734.430116
792.744976,306.438199,370.102971,9696.697840
792.745292,1302.362347,222.061783,9178.553681
792.745608,1378.971896,-740.205942,9622.677246
792.745924,766.095498,-74.020594,9548.656652
792.746240,536.266849,-444.123565,9326.594869
792.746556,919.314598,-1184.329507,9252.574275
792.746871,689.485948,148.041188,10066.800811
792.747187,536.266849,-222.061783,10510.924376
792.747503,0.000000,-296.082377,10436.903782
792.747819,-536.266849,-0.000000,10288.862594
792.748135,-306.438199,-814.226536,10214.842000
792.748451,536.266849,-74.020594,10288.862594
792.748766,919.314598,-814.226536,10214.842000
792.749082,306.438199,-740.205942,10140.821405
792.749398,536.266849,-518.144159,10881.027347
792.749714,536.266849,-222.061783,9770.718434
792.750030,1455.581446,740.205942,9548.656652
792.750346,1608.800546,444.123565,9474.636058
792.750661,1838.629195,592.164754,9474.636058
792.750977,1762.019645,888.247130,8734.430116
792.751293,1378.971896,-0.000000,8808.450710
792.751609,1915.238745,1036.288319,9474.636058
792.751925,2451.505594,-0.000000,8882.471304
792.752241,1302.362347,-0.000000,8734.430116
792.752556,689.485948,-0.000000,9400.615463
792.752872,-153.219100,-592.164754,9326.594869
792.753188,229.828649,-518.144159,10288.862594
792.753504,-459.657299,-370.102971,9918.759623
792.753820,-459.657299,-666.185348,10362.883188
792.754135,-459.657299,-0.000000,9400.615463
792.754451,-995.924147,-148.041188,8660.409521
792.754767,0.000000,-0.000000,9474.636058
792.755083,612.876398,666.185348,8882.471304
792.755399,612.876398,222.061783,8142.265362
792.755715,689.485948,-518.144159,8734.430116
792.756030,0.000000,-1184.329507,9104.533087
792.756346,-229.828649,-814.226536,9474.636058
792.756662,536.266849,-0.000000,9326.594869
792.756978,306.438199,-74.020594,9548.656652
792.757294,76.609550,592.164754,9252.574275
792.757610,0.000000,740.205942,8660.409521
792.757925,-612.876398,-148.041188,8512.368333
792.758241,536.266849,-0.000000,9548.656652
792.758557,612.876398,-888.247130,9474.636058
792.758873,536.266849,-1036.288319,8956.491898
792.759189,0.000000,-962.267725,9548.656652
792.759505,-76.609550,-962.267725,9548.656652
792.759820,153.219100,-222.061783,9474.636058
792.760136,383.047749,-518.144159,9474.636058
792.760452,0.000000,-296.082377,9178.553681
792.760768,0.000000,-0.000000,8586.388927
792.761084,0.000000,-962.267725,8882.471304
792.761400,76.609550,-814.226536,9548.656652
792.761715,995.924147,-962.267725,10066.800811
792.762031,459.657299,-1184.329507,9252.574275
792.762347,76.609550,-888.247130,9622.677246
792.762663,-306.438199,-1036.288319,9696.697840
792.762979,306.438199,-888.247130,10288.862594
792.763295,1149.143247,-518.144159,10584.944971
792.763610,766.095498,-74.020594,8956.491898
792.763926,689.485948,-148.041188,9918.759623
792.764242,842.705048,-444.123565,9918.759623
792.764558,1225.752797,666.185348,8808.450710
792.764874,1608.800546,1184.329507,8734.430116
792.765189,1915.238745,-0.000000,9030.512492
792.765505,1072.533697,148.041188,9474.636058
792.765821,766.095498,-888.247130,10214.842000
792.766137,612.876398,-666.185348,10066.800811
792.766453,766.095498,-666.185348,10807.006753
792.766769,1149.143247,-888.247130,10955.047942
792.767084,153.219100,222.061783,9992.780217
792.767400,0.000000,370.102971,9326.594869
792.767716,306.438199,740.205942,10066.800811
792.768032,1302.362347,-0.000000,9770.718434
792.768348,1302.362347,444.123565,8882.471304
792.768664,995.924147,-444.123565,9252.574275
792.768979,76.609550,-1332.370696,9548.656652
792.769295,383.047749,-1480.411884,10658.965565
792.769611,536.266849,-962.267725,9696.697840
792.769927,766.095498,-666.185348,9918.759623
792.770243,306.438199,-74.020594,9326.594869
792.770559,76.609550,148.041188,9104.533087
792.770874,-153.219100,444.123565,8586.388927
792.771190,919.314598,518.144159,9030.512492
792.771506,919.314598,-444.123565,9030.512492
792.771822,306.438199,-592.164754,9178.553681
792.772138,-229.828649,-814.226536,9178.553681
792.772454,-689.485948,-1924.535449,9548.656652
792.772769,-536.266849,-962.267725,9696.697840
792.773085,0.000000,-888.247130,9992.780217
792.773401,-306.438199,-888.247130,10140.821405
792.773717,-612.876398,-74.020594,10288.862594
792.774033,-536.266849,-148.041188,9548.656652
792.774349,383.047749,592.164754,9104.533087
792.774664,995.924147,1702.473667,8068.244768
792.774980,1072.533697,518.144159,8068.244768
792.775296,689.485948,-0.000000,8364.327145
792.775612,459.657299,-1184.329507,9178.553681
792.775928,766.095498,-222.061783,9400.615463
792.776243,689.485948,444.123565,9104.533087
792.776559,229.828649,-222.061783,9696.697840
792.776875,229.828649,370.102971,9548.656652
792.777191,-229.828649,740.205942,8734.430116
792.777507,689.485948,666.185348,9104.533087
792.777823,842.705048,1110.308913,9030.512492
792.778138,919.314598,-74.020594,8956.491898
792.778454,229.828649,-370.102971,9548.656652
792.778770,0.000000,-592.164754,8808.450710
792.779086,-229.828649,-740.205942,10214.842000
792.779402,459.657299,-0.000000,9992.780217
792.779718,-383.047749,-370.102971,9918.759623
792.780033,-689.485948,-444.123565,9770.718434
792.780349,0.000000,-0.000000,10436.903782
792.780665,-306.438199,-0.000000,9844.739029
792.780981,459.657299,888.247130,9252.574275
792.781297,995.924147,-74.020594,10140.821405
792.781613,842.705048,-518.144159,9770.718434
792.781928,766.095498,-0.000000,10066.800811
792.782244,612.876398,-74.020594,9548.656652
792.782560,1455.581446,-0.000000,9992.780217
792.782876,1608.800546,-296.082377,10584.944971
792.783192,1225.752797,-148.041188,10436.903782
792.783508,536.266849,370.102971,9992.780217
792.783823,842.705048,222.061783,9104.533087
792.784139,1455.581446,666.185348,9030.512492
792.784455,1532.190996,370.102971,9548.656652
792.784771,689.485948,-444.123565,9474.636058
792.785087,306.438199,-444.123565,9992.780217
792.785403,153.219100,-962.267725,10214.842000
792.785718,0.000000,-370.102971,9622.677246
792.786034,306.438199,-370.102971,9548.656652
792.786350,76.609550,-814.226536,10140.821405
792.786666,0.000000,-592.164754,10288.862594
792.786982,-612.876398,-74.020594,9696.697840
792.787298,76.609550,592.164754,8512.368333
792.787613,1225.752797,740.205942,8660.409521
792.787929,919.314598,-0.000000,9104.533087
792.788245,842.705048,-296.082377,9326.594869
792.788561,306.438199,-370.102971,9030.512492
792.788877,76.609550,-814.226536,9474.636058
792.789192,689.485948,-740.205942,10140.821405
792.789508,766.095498,-814.226536,9548.656652
792.789824,-153.219100,-0.000000,8586.388927
792.790140,-459.657299,666.185348,9178.553681
792.790456,76.609550,-0.000000,9474.636058
792.790772,766.095498,888.247130,8364.327145
792.791087,0.000000,666.185348,8956.491898
792.791403,689.485948,-740.205942,9548.656652
792.791719,76.609550,-1036.288319,8438.347739
792.792035,-383.047749,-518.144159,9400.615463
792.792351,383.047749,-888.247130,9252.574275
792.792667,689.485948,-1480.411884,10288.862594
792.792982,229.828649,-740.205942,9474.636058
792.793298,0.000000,-0.000000,9104.533087
792.793614,0.000000,-222.061783,8660.409521
792.793930,689.485948,-74.020594,9104.533087
792.794246,612.876398,-518.144159,9844.739029
792.794562,459.657299,-962.267725,9548.656652
792.794877,383.047749,-370.102971,9622.677246
792.795193,-229.828649,-1332.370696,9400.615463
792.795509,229.828649,-518.144159,9474.636058
792.795825,1149.143247,-370.102971,9474.636058
792.796141,689.485948,-666.185348,9252.574275
792.796457,0.000000,74.020594,9770.718434
792.796772,0.000000,-148.041188,9696.697840
792.797088,919.314598,-0.000000,9104.533087
792.797404,919.314598,296.082377,8956.491898
792.797720,1225.752797,-444.123565,10584.944971
792.798036,1149.143247,-370.102971,9252.574275
792.798352,229.828649,-666.185348,9252.574275
792.798667,229.828649,-814.226536,10288.862594
