#time,accel_x,accel_y,accel_z
645.170607,1532.190996,1110.308913,9252.574275
645.170923,2221.676944,1480.411884,8882.471304
645.171239,2681.334243,1480.411884,8364.327145
645.171555,2834.553343,2664.741391,8068.244768
645.171870,2528.115143,1924.535449,8512.368333
645.172186,2681.334243,1776.494261,8882.471304
645.172502,2068.457845,1702.473667,9400.615463
645.172817,1608.800546,1406.391290,9548.656652
645.173133,1378.971896,1258.350101,10140.821405
645.173449,842.705048,1184.329507,10288.862594
645.173764,459.657299,814.226536,10584.944971
645.174080,536.266849,296.082377,10658.965565
645.174396,383.047749,222.061783,10881.027347
645.174711,995.924147,444.123565,10510.924376
645.175027,919.314598,370.102971,10066.800811
645.175343,1455.581446,814.226536,10140.821405
645.175658,1915.238745,814.226536,9918.759623
645.175974,2451.505594,1406.391290,9474.636058
645.176290,3064.381992,1554.432478,9030.512492
645.176605,2987.772442,1776.494261,8660.409521
645.176921,3370.820191,2294.638420,8734.430116
645.177237,3524.039291,2516.700203,8660.409521
645.177552,3983.696590,2886.803174,8882.471304
645.177868,3677.258390,2812.782580,8882.471304
645.178184,3524.039291,2886.803174,8956.491898
645.178499,3677.258390,2368.659014,9178.553681
645.178815,3217.601092,2220.617826,9400.615463
645.179131,3524.039291,1850.514855,9548.656652
645.179446,3217.601092,1702.473667,9622.677246
645.179762,3064.381992,1850.514855,9696.697840
645.180078,3140.991542,1850.514855,9696.697840
645.180393,3294.210641,2072.576638,9474.636058
645.180709,3447.429741,2442.679609,9474.636058
645.181025,3447.429741,2664.741391,9400.615463
645.181340,3524.039291,3182.885551,9326.594869
645.181656,3830.477490,3775.050304,8808.450710
645.181972,4213.525239,3923.091493,8734.430116
645.182287,4826.401637,4071.132681,8586.388927
645.182603,4136.915689,3923.091493,8586.388927
645.182919,4290.134789,4071.132681,8734.430116
645.183235,3983.696590,4071.132681,8734.430116
645.183550,4136.915689,3849.070898,9030.512492
645.183866,3370.820191,3701.029710,9474.636058
645.184182,2834.553343,3330.926739,9548.656652
645.184497,2068.457845,3034.844362,9548.656652
645.184813,1685.410096,2960.823768,9992.780217
645.185129,1532.190996,2516.700203,10288.862594
645.185444,919.314598,2220.617826,10510.924376
645.185760,689.485948,1998.556043,10881.027347
645.186076,536.266849,1554.432478,11103.089130
645.186391,766.095498,1628.453072,11325.150913
645.186707,1072.533697,1776.494261,11399.171507
645.187023,1685.410096,2294.638420,10584.944971
645.187338,2221.676944,2590.720797,9992.780217
645.187654,2757.943793,3182.885551,9400.615463
645.187970,3753.867940,3849.070898,9104.533087
645.188285,4366.744339,4145.153275,8512.368333
645.188601,4903.011187,4071.132681,7994.224174
645.188917,4903.011187,3627.009116,7550.100608
645.189232,4749.792088,3108.864956,8216.285956
645.189548,4213.525239,2516.700203,8734.430116
645.189864,2911.162892,1776.494261,9400.615463
645.190179,1532.190996,1110.308913,9770.718434
645.190495,306.438199,444.123565,10436.903782
645.190811,-383.047749,-296.082377,11177.109724
645.191126,-1149.143247,-1258.350101,11695.253884
645.191442,-1762.019645,-1332.370696,11843.295072
645.191758,-2145.067394,-2072.576638,12139.377449
645.192073,-1378.971896,-2220.617826,11991.336260
645.192389,-689.485948,-2220.617826,11843.295072
645.192705,153.219100,-1258.350101,11547.212695
645.193020,1685.410096,-74.020594,10362.883188
645.193336,3217.601092,888.247130,9030.512492
645.193652,4979.620737,1998.556043,7772.162391
645.193968,6358.592633,1924.535449,7254.018232
645.194283,7124.688131,2664.741391,5995.668130
645.194599,7507.735880,3256.906145,5477.523971
645.194915,7048.078582,2886.803174,5329.482782
645.195230,6588.421283,2294.638420,6365.771101
645.195546,4673.182538,1332.370696,7031.956449
645.195861,2757.943793,148.041188,7846.182985
645.196177,459.657299,-1924.535449,9548.656652
645.196493,-1685.410096,-3775.050304,11769.274478
645.196808,-3370.820191,-5033.400406,13249.686362
645.197124,-4749.792088,-5403.503377,14063.912898
645.197439,-4673.182538,-4663.297435,13989.892304
645.197755,-4749.792088,-3627.009116,13175.665768
645.198070,-3064.381992,-1998.556043,11843.295072
645.198386,-1149.143247,-370.102971,10066.800811
645.198702,689.485948,666.185348,8660.409521
645.199017,2528.115143,2220.617826,6291.750507
645.199333,4749.792088,2664.741391,4737.318029
645.199648,6205.373534,2738.761985,4367.215058
645.199964,6588.421283,2590.720797,4293.194464
645.200279,5822.325785,2146.597232,4885.359217
645.200595,5592.497135,740.205942,5995.668130
645.200911,3677.258390,-962.267725,7994.224174
645.201226,1762.019645,-1998.556043,10288.862594
645.201542,-306.438199,-3108.864956,12065.356855
645.201857,-1991.848295,-3404.947333,13249.686362
645.202173,-2757.943793,-2220.617826,13841.851115
645.202489,-2834.553343,-1332.370696,13027.624579
645.202804,-2221.676944,148.041188,11843.295072
645.203120,-1838.629195,2294.638420,9992.780217
645.203435,-689.485948,2294.638420,8882.471304
645.203751,383.047749,2072.576638,7698.141797
645.204066,1915.238745,1332.370696,7105.977043
645.204382,3140.991542,814.226536,6513.812290
645.204698,3140.991542,592.164754,6957.935855
645.205013,2604.724693,1406.391290,7105.977043
645.205329,2068.457845,222.061783,8956.491898
645.205644,1455.581446,-296.082377,10214.842000
645.205960,153.219100,222.061783,10881.027347
645.206275,-536.266849,-222.061783,11547.212695
645.206591,-919.314598,-0.000000,11769.274478
645.206907,-1455.581446,1184.329507,11325.150913
645.207222,-1685.410096,2960.823768,11029.068536
645.207538,-1608.800546,3404.947333,9844.739029
645.207853,-1302.362347,3034.844362,9622.677246
645.208169,-612.876398,1480.411884,9548.656652
645.208485,-612.876398,-148.041188,9400.615463
645.208800,-612.876398,-888.247130,9548.656652
645.209116,-766.095498,-222.061783,9696.697840
645.209431,-689.485948,-74.020594,9622.677246
645.209747,-766.095498,-74.020594,10436.903782
645.210062,-1149.143247,-518.144159,11547.212695
645.210378,-1072.533697,-666.185348,11473.192101
645.210694,-995.924147,148.041188,10807.006753
645.211009,-1378.971896,1554.432478,10362.883188
645.211325,0.000000,3108.864956,9548.656652
645.211640,919.314598,3923.091493,9400.615463
645.211956,1838.629195,4145.153275,8734.430116
645.212271,1838.629195,3108.864956,7920.203579
645.212587,2757.943793,1036.288319,8290.306550
645.212903,2374.896044,-0.000000,8512.368333
645.213218,1838.629195,-444.123565,8808.450710
645.213534,2068.457845,-444.123565,9326.594869
645.213849,1149.143247,-888.247130,9696.697840
645.214165,459.657299,-1628.453072,10214.842000
645.214481,-536.266849,-1998.556043,10436.903782
645.214796,-1532.190996,-1702.473667,10288.862594
645.215112,-1608.800546,-1258.350101,10510.924376
645.215427,-1149.143247,-370.102971,9992.780217
645.215743,-842.705048,444.123565,10140.821405
645.216058,-689.485948,666.185348,9548.656652
645.216374,76.609550,-222.061783,9326.594869
645.216690,995.924147,-1110.308913,9474.636058
645.217005,1455.581446,-2442.679609,9548.656652
645.217321,2451.505594,-1628.453072,9104.533087
645.217636,3217.601092,-1036.288319,8734.430116
645.217952,3524.039291,-222.061783,7920.203579
645.218267,3140.991542,370.102971,7550.100608
645.218583,3294.210641,592.164754,6957.935855
645.218899,3064.381992,74.020594,7254.018232
645.219214,2221.676944,-444.123565,8586.388927
645.219530,1072.533697,-888.247130,9104.533087
645.219845,306.438199,-1258.350101,9326.594869
645.220161,-842.705048,-1554.432478,9918.759623
645.220477,-1455.581446,-1776.494261,10658.965565
645.220792,-2068.457845,-2220.617826,11029.068536
645.221108,-2451.505594,-2590.720797,11325.150913
645.221423,-1225.752797,-2516.700203,11103.089130
645.221739,-1225.752797,-2368.659014,10140.821405
645.222054,-612.876398,-1702.473667,9104.533087
645.222370,153.219100,-1258.350101,8364.327145
645.222686,1455.581446,-592.164754,7920.203579
645.223001,1991.848295,-222.061783,7920.203579
645.223317,2757.943793,-962.267725,7920.203579
645.223632,2068.457845,-888.247130,8290.306550
645.223948,1762.019645,-592.164754,8586.388927
645.224263,1378.971896,-444.123565,8660.409521
645.224579,919.314598,-222.061783,9474.636058
645.224895,153.219100,-74.020594,10066.800811
645.225210,-306.438199,-518.144159,10362.883188
645.225526,-766.095498,-222.061783,10066.800811
645.225841,-919.314598,-0.000000,9844.739029
645.226157,-459.657299,-0.000000,9474.636058
645.226473,0.000000,-74.020594,9474.636058
645.226788,612.876398,-370.102971,9548.656652
645.227104,229.828649,-814.226536,9548.656652
645.227419,76.609550,-444.123565,9400.615463
645.227735,153.219100,-740.205942,9400.615463
645.228050,0.000000,-222.061783,9548.656652
645.228366,76.609550,-0.000000,9918.759623
645.228682,-306.438199,-296.082377,10214.842000
645.228997,-383.047749,-0.000000,10362.883188
645.229313,-1072.533697,296.082377,9844.739029
645.229628,-689.485948,888.247130,9696.697840
645.229944,-612.876398,814.226536,9696.697840
645.230259,-383.047749,666.185348,9696.697840
645.230575,459.657299,592.164754,10066.800811
645.230891,459.657299,-0.000000,9326.594869
645.231206,689.485948,-222.061783,8956.491898
645.231522,919.314598,-74.020594,9326.594869
645.231837,689.485948,222.061783,9474.636058
645.232153,1072.533697,518.144159,9696.697840
645.232469,1072.533697,444.123565,9622.677246
645.232784,459.657299,666.185348,9696.697840
645.233100,229.828649,1184.329507,9548.656652
645.233415,0.000000,1184.329507,9400.615463
645.233731,0.000000,1332.370696,9474.636058
645.234046,229.828649,1258.350101,9622.677246
645.234362,306.438199,814.226536,9622.677246
645.234678,459.657299,444.123565,9696.697840
645.234993,612.876398,-0.000000,9622.677246
645.235309,306.438199,148.041188,9474.636058
645.235624,612.876398,148.041188,9696.697840
645.235940,1302.362347,370.102971,9622.677246
645.236255,1455.581446,444.123565,9548.656652
645.236571,1455.581446,592.164754,9326.594869
645.236887,1149.143247,740.205942,8808.450710
645.237202,1455.581446,1258.350101,8808.450710
645.237518,1455.581446,1258.350101,8734.430116
645.237833,1532.190996,1036.288319,8956.491898
645.238149,1225.752797,814.226536,8882.471304
645.238464,1149.143247,296.082377,9178.553681
645.238780,306.438199,-370.102971,9548.656652
645.239096,229.828649,-740.205942,10066.800811
645.239411,229.828649,-370.102971,10214.842000
645.239727,383.047749,-296.082377,10510.924376
645.240042,842.705048,-444.123565,10214.842000
645.240358,1072.533697,-148.041188,9770.718434
645.240674,1149.143247,296.082377,9104.533087
645.240989,1762.019645,518.144159,8808.450710
645.241305,1991.848295,666.185348,8734.430116
645.241620,2374.896044,148.041188,8586.388927
645.241936,2068.457845,-296.082377,8364.327145
645.242251,1378.971896,-666.185348,8586.388927
645.242567,919.314598,-888.247130,9326.594869
645.242883,0.000000,-1110.308913,9622.677246
645.243198,-536.266849,-740.205942,10140.821405
645.243514,-766.095498,-888.247130,10732.986159
645.243829,-1149.143247,-1554.432478,10881.027347
645.244145,-1455.581446,-1406.391290,10584.944971
645.244460,-1762.019645,-1110.308913,10288.862594
645.244776,-766.095498,-1258.350101,9992.780217
645.245092,0.000000,-962.267725,9326.594869
645.245407,459.657299,-888.247130,9548.656652
645.245723,842.705048,-1110.308913,9252.574275
645.246038,536.266849,-814.226536,8882.471304
645.246354,689.485948,-1110.308913,8660.409521
645.246670,919.314598,-740.205942,8882.471304
645.246985,689.485948,-1036.288319,9252.574275
645.247301,459.657299,-814.226536,9696.697840
645.247616,76.609550,-814.226536,9918.759623
645.247932,-383.047749,-1110.308913,9252.574275
645.248247,-306.438199,-296.082377,9030.512492
645.248563,-383.047749,296.082377,9030.512492
645.248879,0.000000,-0.000000,9104.533087
645.249194,153.219100,-666.185348,9400.615463
645.249510,0.000000,-962.267725,9178.553681
645.249825,-229.828649,-1480.411884,9178.553681
645.250141,-153.219100,-1850.514855,9474.636058
645.250456,306.438199,-1628.453072,9770.718434
645.250772,-229.828649,-1184.329507,10436.903782
645.251088,76.609550,-888.247130,9844.739029
645.251403,-153.219100,-518.144159,9548.656652
645.251719,-306.438199,-0.000000,9326.594869
645.252034,76.609550,-0.000000,9030.512492
645.252350,536.266849,222.061783,9104.533087
645.252666,689.485948,148.041188,8808.450710
645.252981,1149.143247,-74.020594,9104.533087
645.253297,1072.533697,-518.144159,9030.512492
645.253612,1149.143247,-814.226536,9030.512492
645.253928,766.095498,-666.185348,9252.574275
645.254243,536.266849,-518.144159,9844.739029
645.254559,842.705048,-222.061783,9992.780217
645.254875,689.485948,-0.000000,9770.718434
645.255190,612.876398,444.123565,9252.574275
645.255506,689.485948,518.144159,8734.430116
645.255821,919.314598,740.205942,8438.347739
645.256137,1225.752797,888.247130,9030.512492
645.256452,1378.971896,148.041188,9104.533087
645.256768,1149.143247,-666.185348,9252.574275
645.257084,689.485948,-444.123565,9474.636058
645.257399,306.438199,-666.185348,9622.677246
645.257715,153.219100,-444.123565,9770.718434
645.258030,0.000000,-0.000000,10066.800811
645.258346,229.828649,296.082377,10584.944971
645.258662,0.000000,222.061783,10140.821405
645.258977,0.000000,444.123565,9918.759623
645.259293,229.828649,740.205942,9030.512492
645.259608,689.485948,814.226536,9104.533087
645.259924,1072.533697,888.247130,9178.553681
645.260239,1455.581446,518.144159,9104.533087
645.260555,995.924147,222.061783,9548.656652
645.260871,995.924147,-296.082377,9252.574275
645.261186,383.047749,-444.123565,9474.636058
645.261502,383.047749,-592.164754,9992.780217
645.261817,229.828649,-148.041188,10288.862594
645.262133,153.219100,-0.000000,10658.965565
645.262448,0.000000,370.102971,10362.883188
645.262764,-383.047749,740.205942,9918.759623
645.263080,-459.657299,1036.288319,9178.553681
645.263395,229.828649,1554.432478,9178.553681
645.263711,612.876398,1036.288319,8882.471304
645.264026,995.924147,222.061783,9326.594869
645.264342,612.876398,-518.144159,9400.615463
645.264658,306.438199,-740.205942,9474.636058
645.264973,76.609550,-962.267725,9622.677246
645.265289,153.219100,-666.185348,9770.718434
645.265604,0.000000,-444.123565,10214.842000
645.265920,-459.657299,-370.102971,10584.944971
645.266235,-766.095498,-296.082377,10288.862594
645.266551,-383.047749,-222.061783,9622.677246
645.266867,-459.657299,-148.041188,9326.594869
645.267182,-459.657299,-0.000000,9252.574275
645.267498,229.828649,-0.000000,9326.594869
645.267813,766.095498,-370.102971,9104.533087
645.268129,612.876398,-740.205942,8956.491898
645.268444,612.876398,-1110.308913,8882.471304
645.268760,306.438199,-1554.432478,9474.636058
645.269076,536.266849,-962.267725,9104.533087
645.269391,612.876398,-814.226536,9696.697840
645.269707,689.485948,-814.226536,9992.780217
645.270022,383.047749,-296.082377,9770.718434
645.270338,153.219100,-0.000000,9104.533087
645.270654,383.047749,148.041188,8586.388927
645.270969,842.705048,592.164754,8734.430116
645.271285,1225.752797,296.082377,8586.388927
645.271600,1608.800546,-370.102971,8882.471304
645.271916,919.314598,-444.123565,8882.471304
645.272231,536.266849,-888.247130,8882.471304
645.272547,459.657299,-1184.329507,9326.594869
645.272863,306.438199,-1036.288319,9918.759623
645.273178,229.828649,-1110.308913,10140.821405
645.273494,306.438199,-814.226536,10510.924376
645.273809,229.828649,-518.144159,9918.759623
645.274125,0.000000,-444.123565,9326.594869
645.274440,0.000000,148.041188,9326.594869
645.274756,766.095498,-222.061783,9178.553681
645.275072,995.924147,-222.061783,9252.574275
645.275387,995.924147,-222.061783,9326.594869
645.275703,1072.533697,-518.144159,8882.471304
645.276018,1072.533697,-592.164754,9030.512492
645.276334,1455.581446,-1258.350101,9474.636058
645.276650,995.924147,-0.000000,9622.677246
645.276965,1225.752797,-148.041188,9918.759623
645.277281,1149.143247,-0.000000,9992.780217
645.277596,1072.533697,444.123565,9696.697840
645.277912,536.266849,666.185348,8882.471304
645.278227,842.705048,888.247130,9178.553681
645.278543,1072.533697,962.267725,9326.594869
645.278859,1225.752797,518.144159,9400.615463
645.279174,919.314598,-0.000000,9400.615463
645.279490,383.047749,-518.144159,9400.615463
645.279805,306.438199,-518.144159,9844.739029
645.280121,-229.828649,-666.185348,9992.780217
645.280436,-229.828649,-444.123565,10436.903782
645.280752,-383.047749,-666.185348,10881.027347
645.281068,-383.047749,-296.082377,10362.883188
645.281383,-842.705048,-74.020594,10066.800811
645.281699,-919.314598,222.061783,9696.697840
645.282014,-153.219100,666.185348,9474.636058
645.282330,76.609550,1036.288319,9326.594869
645.282646,459.657299,444.123565,9104.533087
645.282961,229.828649,148.041188,9400.615463
645.283277,536.266849,-370.102971,9400.615463
645.283592,383.047749,-592.164754,9474.636058
645.283908,536.266849,-370.102971,9622.677246
645.284223,536.266849,-518.144159,9992.780217
645.284539,612.876398,-148.041188,10288.862594
645.284855,459.657299,-0.000000,9992.780217
645.285170,306.438199,370.102971,9252.574275
645.285486,306.438199,740.205942,8734.430116
645.285801,459.657299,814.226536,9252.574275
645.286117,919.314598,814.226536,8882.471304
645.286432,766.095498,-0.000000,8734.430116
645.286748,689.485948,-370.102971,8956.491898
645.287064,766.095498,-592.164754,9104.533087
645.287379,459.657299,-740.205942,9474.636058
645.287695,229.828649,-1184.329507,9696.697840
645.288010,229.828649,-1036.288319,10362.883188
645.288326,0.000000,-1110.308913,10584.944971
645.288642,0.000000,-814.226536,9992.780217
645.288957,0.000000,-740.205942,9252.574275
645.289273,0.000000,444.123565,9104.533087
645.289588,919.314598,592.164754,8660.409521
645.289904,1149.143247,444.123565,8956.491898
645.290219,1302.362347,-74.020594,8882.471304
645.290535,1149.143247,-666.185348,8586.388927
645.290851,1302.362347,-814.226536,8586.388927
645.291166,1225.752797,-740.205942,9104.533087
645.291482,919.314598,-666.185348,9696.697840
645.291797,995.924147,-444.123565,10214.842000
645.292113,842.705048,-444.123565,9844.739029
645.292428,383.047749,-0.000000,10288.862594
645.292744,536.266849,592.164754,9400.615463
645.293060,536.266849,518.144159,9104.533087
645.293375,842.705048,370.102971,8956.491898
645.293691,1302.362347,-0.000000,9252.574275
645.294006,995.924147,-296.082377,9178.553681
645.294322,612.876398,-666.185348,9030.512492
645.294638,229.828649,-1184.329507,9030.512492
645.294953,0.000000,-888.247130,10066.800811
645.295269,-153.219100,-962.267725,9770.718434
645.295584,0.000000,-888.247130,10362.883188
645.295900,-229.828649,-888.247130,10288.862594
645.296215,0.000000,-370.102971,9770.718434
645.296533,-153.219100,-74.020594,9474.636058
645.296849,0.000000,148.041188,9400.615463
645.297164,306.438199,222.061783,9030.512492
645.297480,766.095498,-370.102971,9104.533087
645.297795,766.095498,-740.205942,9400.615463
645.298111,536.266849,-1110.308913,9548.656652
645.298427,383.047749,-888.247130,9696.697840
645.298742,153.219100,-888.247130,9696.697840
645.299058,229.828649,-370.102971,9696.697840
645.299373,229.828649,-296.082377,10140.821405
645.299689,76.609550,-148.041188,10214.842000
645.300005,153.219100,-222.061783,9178.553681
645.300320,0.000000,444.123565,8956.491898
645.300636,536.266849,666.185348,8808.450710
645.300952,766.095498,444.123565,8882.471304
645.301267,842.705048,-74.020594,9252.574275
645.301583,383.047749,-962.267725,9622.677246
645.301898,0.000000,-1184.329507,9474.636058
645.302214,-306.438199,-1184.329507,9622.677246
645.302530,-459.657299,-888.247130,9992.780217
645.302845,-536.266849,-740.205942,10362.883188
645.303161,0.000000,-0.000000,10658.965565
645.303476,-842.705048,-148.041188,9992.780217
645.303792,-612.876398,-0.000000,9474.636058
645.304108,-306.438199,296.082377,9474.636058
645.304423,0.000000,370.102971,9030.512492
645.304739,536.266849,740.205942,9474.636058
645.305054,1149.143247,-0.000000,9178.553681
645.305370,919.314598,-370.102971,9178.553681
645.305686,766.095498,-444.123565,8956.491898
645.306001,689.485948,-592.164754,9104.533087
645.306317,842.705048,-222.061783,9400.615463
645.306632,766.095498,-0.000000,9844.739029
645.306948,612.876398,-148.041188,9844.739029
645.307264,612.876398,296.082377,9622.677246
645.307579,153.219100,592.164754,9030.512492
645.307895,612.876398,814.226536,9178.553681
645.308210,995.924147,1036.288319,8882.471304
645.308526,919.314598,666.185348,8956.491898
645.308842,1072.533697,222.061783,8956.491898
645.309157,919.314598,-0.000000,8956.491898
645.309473,536.266849,-0.000000,9548.656652
645.309788,612.876398,-592.164754,9474.636058
645.310104,612.876398,-296.082377,9918.759623
645.310420,842.705048,-0.000000,10066.800811
645.310735,766.095498,-0.000000,9992.780217
645.311051,536.266849,-0.000000,9696.697840
645.311367,153.219100,888.247130,9104.533087
645.311682,766.095498,814.226536,8882.471304
645.311998,995.924147,888.247130,8660.409521
645.312313,1455.581446,962.267725,9178.553681
645.312629,1455.581446,370.102971,9252.574275
645.312945,1225.752797,-0.000000,8882.471304
645.313260,1072.533697,-74.020594,9548.656652
645.313576,842.705048,-148.041188,9548.656652
645.313891,766.095498,-74.020594,9992.780217
645.314207,306.438199,-370.102971,10510.924376
645.314523,0.000000,-296.082377,10362.883188
645.314838,229.828649,-0.000000,10140.821405
645.315154,0.000000,444.123565,9474.636058
645.315469,153.219100,740.205942,9474.636058
645.315785,1225.752797,296.082377,9400.615463
645.316101,995.924147,518.144159,9326.594869
645.316416,612.876398,592.164754,9252.574275
645.316732,459.657299,-444.123565,8956.491898
645.317047,766.095498,-444.123565,9474.636058
645.317363,0.000000,-962.267725,9696.697840
645.317679,-153.219100,-740.205942,10288.862594
645.317994,0.000000,-814.226536,10288.862594
645.318310,-842.705048,-666.185348,10362.883188
645.318625,-689.485948,-518.144159,10288.862594
645.318941,-766.095498,148.041188,9622.677246
645.319257,-536.266849,370.102971,9400.615463
645.319572,-229.828649,148.041188,9178.553681
645.319888,0.000000,-592.164754,9326.594869
645.320204,612.876398,-1036.288319,9474.636058
645.320519,0.000000,-1110.308913,9770.718434
645.320835,76.609550,-1258.350101,9474.636058
645.321150,153.219100,-1110.308913,9696.697840
645.321466,76.609550,-444.123565,9844.739029
645.321782,153.219100,-370.102971,10066.800811
645.322097,0.000000,-444.123565,9844.739029
645.322413,0.000000,-222.061783,8956.491898
645.322728,76.609550,-74.020594,8512.368333
645.323044,536.266849,-0.000000,8882.471304
645.323360,995.924147,-74.020594,8660.409521
645.323675,1149.143247,-814.226536,8512.368333
645.323991,459.657299,-1184.329507,8808.450710
645.324306,0.000000,-1480.411884,9104.533087
645.324622,-153.219100,-1480.411884,9474.636058
645.324938,-229.828649,-1554.432478,9770.718434
645.325253,-153.219100,-1332.370696,10288.862594
645.325569,-306.438199,-1406.391290,10510.924376
645.325884,-459.657299,-740.205942,9770.718434
645.326200,-306.438199,-444.123565,9030.512492
645.326516,0.000000,-0.000000,8808.450710
645.326831,383.047749,-296.082377,8216.285956
645.327147,1072.533697,-296.082377,8660.409521
645.327462,919.314598,-1110.308913,8734.430116
645.327778,1072.533697,-1184.329507,8808.450710
645.328094,995.924147,-1258.350101,8808.450710
645.328409,1072.533697,-962.267725,9474.636058
645.328725,1225.752797,-444.123565,9400.615463
645.329041,1225.752797,-74.020594,9844.739029
645.329356,1302.362347,-0.000000,9770.718434
645.329672,1072.533697,296.082377,9326.594869
645.329987,766.095498,518.144159,8734.430116
645.330303,919.314598,962.267725,8660.409521
645.330619,1378.971896,1036.288319,9252.574275
645.330934,1608.800546,222.061783,9400.615463
645.331250,1532.190996,-148.041188,9252.574275
645.331565,919.314598,-740.205942,9252.574275
645.331881,306.438199,-1036.288319,9622.677246
645.332197,229.828649,-666.185348,9992.780217
645.332512,76.609550,-370.102971,10584.944971
645.332828,383.047749,-0.000000,10584.944971
645.333143,612.876398,-0.000000,10584.944971
645.333459,76.609550,370.102971,10066.800811
645.333775,76.609550,518.144159,9178.553681
645.334090,612.876398,888.247130,9474.636058
645.334406,1149.143247,888.247130,9104.533087
645.334721,1685.410096,740.205942,9400.615463
645.335037,1225.752797,296.082377,9252.574275
645.335353,1149.143247,-0.000000,9104.533087
645.335668,995.924147,-222.061783,9474.636058
645.335984,766.095498,-222.061783,9622.677246
645.336299,306.438199,-74.020594,10584.944971
645.336615,842.705048,-0.000000,10362.883188
645.336931,76.609550,-0.000000,10510.924376
645.337246,0.000000,518.144159,9918.759623
645.337562,459.657299,740.205942,9326.594869
645.337877,459.657299,1184.329507,9178.553681
645.338193,689.485948,962.267725,9030.512492
645.338509,689.485948,370.102971,9178.553681
645.338824,459.657299,-296.082377,9326.594869
645.339140,76.609550,-814.226536,9326.594869
645.339456,0.000000,-1110.308913,9770.718434
645.339771,-306.438199,-1036.288319,9844.739029
645.340087,-153.219100,-296.082377,10362.883188
645.340402,-153.219100,-148.041188,10510.924376
645.340718,0.000000,-148.041188,10066.800811
645.341034,-459.657299,-0.000000,9400.615463
645.341349,-459.657299,370.102971,9104.533087
645.341665,0.000000,148.041188,9030.512492
645.341980,306.438199,296.082377,8956.491898
645.342296,306.438199,-74.020594,9104.533087
645.342612,536.266849,-518.144159,8882.471304
645.342927,76.609550,-962.267725,8882.471304
645.343243,0.000000,-962.267725,9252.574275
645.343558,229.828649,-666.185348,9474.636058
645.343874,1072.533697,-814.226536,9992.780217
645.344190,689.485948,-370.102971,10066.800811
645.344505,612.876398,-148.041188,9474.636058
645.344821,766.095498,148.041188,8882.471304
645.345136,842.705048,592.164754,8586.388927
645.345452,1149.143247,1258.350101,8216.285956
645.345768,1532.190996,518.144159,8438.347739
645.346083,1532.190996,-222.061783,8512.368333
645.346399,842.705048,-666.185348,8734.430116
645.346714,383.047749,-1110.308913,9104.533087
645.347030,612.876398,-1110.308913,9696.697840
645.347346,76.609550,-1110.308913,9770.718434
645.347661,0.000000,-962.267725,10436.903782
645.347977,0.000000,-592.164754,10584.944971
645.348293,-306.438199,-592.164754,9918.759623
645.348608,-612.876398,-222.061783,9326.594869
645.348924,229.828649,222.061783,9178.553681
645.349239,919.314598,370.102971,9030.512492
645.349555,1532.190996,-74.020594,9104.533087
645.349871,1608.800546,-222.061783,9178.553681
645.350186,1455.581446,-222.061783,8660.409521
645.350502,1149.143247,-592.164754,8956.491898
645.350817,1532.190996,-296.082377,9252.574275
645.351133,1455.581446,-74.020594,9548.656652
645.351449,1302.362347,-148.041188,10140.821405
645.351764,842.705048,-222.061783,10214.842000
645.352080,536.266849,-0.000000,9622.677246
645.352395,229.828649,-0.000000,9474.636058
645.352711,383.047749,518.144159,9252.574275
645.353027,919.314598,222.061783,9326.594869
645.353342,842.705048,-74.020594,9474.636058
645.353658,229.828649,-444.123565,9400.615463
645.353973,153.219100,-666.185348,9548.656652
645.354289,0.000000,-740.205942,10140.821405
645.354605,-536.266849,-592.164754,9474.636058
645.354920,-229.828649,-296.082377,10510.924376
645.355236,0.000000,-444.123565,10658.965565
645.355551,-229.828649,-444.123565,10140.821405
645.355867,-536.266849,-0.000000,9992.780217
645.356183,0.000000,666.185348,9474.636058
645.356498,0.000000,518.144159,9252.574275
645.356814,536.266849,592.164754,9178.553681
645.357130,842.705048,-0.000000,9178.553681
645.357445,612.876398,-148.041188,9178.553681
645.357761,842.705048,-888.247130,8882.471304
645.358076,0.000000,-814.226536,9178.553681
645.358392,76.609550,-666.185348,9696.697840
645.358708,383.047749,-666.185348,10288.862594
645.359023,76.609550,-148.041188,10288.862594
645.359339,0.000000,-148.041188,9918.759623
645.359654,0.000000,-0.000000,9178.553681
645.359970,0.000000,444.123565,8808.450710
645.360286,306.438199,666.185348,8586.388927
645.360601,383.047749,518.144159,8956.491898
645.360917,766.095498,-518.144159,9178.553681
645.361232,459.657299,-740.205942,8882.471304
645.361548,0.000000,-962.267725,8882.471304
645.361864,0.000000,-1184.329507,9400.615463
645.362179,0.000000,-740.205942,9770.718434
645.362495,-459.657299,-444.123565,10214.842000
645.362810,0.000000,-518.144159,10140.821405
645.363126,-153.219100,-666.185348,9844.739029
645.363442,-229.828649,-74.020594,9326.594869
645.363757,0.000000,222.061783,9252.574275
645.364073,536.266849,370.102971,8586.388927
645.364388,1149.143247,592.164754,9030.512492
645.364704,689.485948,-0.000000,8660.409521
645.365020,842.705048,-518.144159,8882.471304
645.365335,919.314598,-888.247130,8882.471304
645.365651,842.705048,-740.205942,9548.656652
645.365967,612.876398,-666.185348,9844.739029
645.366282,689.485948,-296.082377,10140.821405
645.366598,536.266849,-0.000000,9992.780217
645.366913,612.876398,-0.000000,9918.759623
645.367229,536.266849,518.144159,9030.512492
645.367545,842.705048,888.247130,9030.512492
645.367860,842.705048,666.185348,8956.491898
645.368176,1302.362347,-0.000000,9400.615463
645.368491,1302.362347,-518.144159,9400.615463
645.368807,919.314598,-740.205942,9326.594869
645.369123,383.047749,-888.247130,9622.677246
645.369438,383.047749,-592.164754,9622.677246
645.369754,689.485948,-592.164754,10288.862594
645.370069,0.000000,-296.082377,10214.842000
645.370385,0.000000,-148.041188,10436.903782
645.370701,0.000000,-74.020594,9622.677246
645.371016,76.609550,-0.000000,9548.656652
645.371332,536.266849,-0.000000,9326.594869
645.371647,1072.533697,-0.000000,9252.574275
645.371963,1072.533697,-74.020594,9400.615463
645.372279,1149.143247,-370.102971,9252.574275
645.372594,536.266849,-296.082377,8808.450710
645.372910,842.705048,-370.102971,9474.636058
645.373225,459.657299,-370.102971,9622.677246
645.373541,766.095498,-296.082377,10066.800811
645.373857,612.876398,-74.020594,10140.821405
645.374172,76.609550,-0.000000,9844.739029
645.374488,-153.219100,222.061783,9474.636058
645.374803,383.047749,740.205942,8808.450710
645.375119,153.219100,518.144159,8808.450710
645.375435,229.828649,370.102971,8882.471304
645.375750,459.657299,-444.123565,9030.512492
645.376066,0.000000,-592.164754,9178.553681
645.376382,-459.657299,-1036.288319,9400.615463
645.376697,-766.095498,-888.247130,9696.697840
645.377013,-612.876398,-814.226536,9770.718434
645.377328,-612.876398,-518.144159,10214.842000
645.377644,-842.705048,-370.102971,10510.924376
645.377960,-612.876398,-296.082377,10214.842000
645.378275,-536.266849,-0.000000,9400.615463
645.378591,-536.266849,-74.020594,9252.574275
645.378906,153.219100,-0.000000,9178.553681
645.379222,689.485948,-0.000000,9326.594869
645.379538,536.266849,-148.041188,8882.471304
645.379853,536.266849,-148.041188,8734.430116
645.380169,689.485948,-444.123565,8956.491898
645.380484,1072.533697,-666.185348,9178.553681
645.380800,919.314598,-370.102971,9622.677246
645.381116,919.314598,-370.102971,9992.780217
645.381431,766.095498,-222.061783,10066.800811
645.381747,842.705048,-74.020594,9548.656652
645.382062,689.485948,444.123565,9252.574275
645.382378,689.485948,666.185348,9104.533087
645.382694,919.314598,740.205942,9030.512492
645.383009,1149.143247,222.061783,9104.533087
645.383325,1455.581446,-370.102971,9400.615463
645.383640,919.314598,-444.123565,9178.553681
645.383956,536.266849,-740.205942,9104.533087
645.384272,919.314598,-888.247130,9696.697840
645.384587,383.047749,-740.205942,9844.739029
645.384903,459.657299,-518.144159,10584.944971
645.385219,306.438199,-518.144159,10288.862594
645.385534,0.000000,-74.020594,9474.636058
645.385850,0.000000,296.082377,9104.533087
645.386165,689.485948,222.061783,8882.471304
645.386481,842.705048,222.061783,9104.533087
645.386797,1149.143247,592.164754,9326.594869
645.387112,1608.800546,-0.000000,8512.368333
645.387428,1302.362347,-222.061783,9178.553681
645.387743,1072.533697,-0.000000,9326.594869
645.388059,766.095498,-444.123565,9400.615463
645.388375,1072.533697,-148.041188,10140.821405
645.388690,842.705048,-74.020594,10362.883188
645.389006,766.095498,296.082377,9992.780217
645.389321,766.095498,814.226536,9696.697840
645.389637,612.876398,1258.350101,8660.409521
645.389953,1149.143247,1924.535449,9252.574275
645.390268,1225.752797,740.205942,8882.471304
645.390584,1149.143247,592.164754,9474.636058
645.390899,689.485948,-74.020594,9252.574275
645.391215,306.438199,-444.123565,9622.677246
645.391531,0.000000,-962.267725,10362.883188
645.391846,-306.438199,-888.247130,10066.800811
645.392162,76.609550,-370.102971,10584.944971
645.392477,0.000000,-592.164754,10732.986159
645.392793,-229.828649,-370.102971,10436.903782
645.393109,-1072.533697,-0.000000,9474.636058
645.393424,-459.657299,370.102971,9400.615463
645.393740,-153.219100,296.082377,9474.636058
645.394056,306.438199,148.041188,9178.553681
645.394371,689.485948,-666.185348,9104.533087
645.394687,689.485948,-962.267725,9326.594869
645.395002,153.219100,-962.267725,8956.491898
645.395318,306.438199,-1406.391290,9400.615463
645.395634,383.047749,-1110.308913,9548.656652
645.395949,76.609550,-666.185348,10288.862594
645.396265,0.000000,-592.164754,10214.842000
645.396580,459.657299,-74.020594,9696.697840
645.396896,0.000000,296.082377,9252.574275
645.397212,0.000000,518.144159,8808.450710
645.397527,306.438199,740.205942,8734.430116
645.397843,153.219100,222.061783,8512.368333
645.398159,536.266849,-370.102971,8660.409521
645.398475,76.609550,-1036.288319,8660.409521
645.398790,0.000000,-1628.453072,9474.636058
645.399106,-383.047749,-1702.473667,9548.656652
645.399422,-766.095498,-1554.432478,9918.759623
645.399738,-612.876398,-1406.391290,10584.944971
645.400054,-383.047749,-666.185348,10140.821405
645.400369,-536.266849,-296.082377,9622.677246
645.400685,-536.266849,-0.000000,9252.574275
645.401001,229.828649,-0.000000,8586.388927
645.401317,383.047749,148.041188,8660.409521
645.401632,1072.533697,-444.123565,8734.430116
645.401948,1072.533697,-962.267725,8734.430116
645.402264,766.095498,-1036.288319,8808.450710
645.402580,919.314598,-1258.350101,9474.636058
645.402896,612.876398,-1406.391290,9474.636058
645.403211,612.876398,-296.082377,9844.739029
645.403527,1072.533697,-296.082377,9992.780217
645.403843,995.924147,-74.020594,10066.800811
645.404159,766.095498,-0.000000,9400.615463
645.404474,919.314598,666.185348,8882.471304
645.404790,1225.752797,962.267725,9030.512492
645.405106,1302.362347,296.082377,8808.450710
645.405422,1455.581446,296.082377,8882.471304
645.405738,1378.971896,-74.020594,8882.471304
645.406053,766.095498,-740.205942,9104.533087
645.406369,536.266849,-666.185348,9622.677246
645.406685,459.657299,-962.267725,9622.677246
645.407001,536.266849,-592.164754,10362.883188
645.407316,306.438199,-74.020594,10732.986159
645.407632,0.000000,-0.000000,10140.821405
645.407948,-153.219100,370.102971,9548.656652
645.408264,76.609550,814.226536,9252.574275
645.408579,383.047749,666.185348,9474.636058
645.408895,536.266849,370.102971,9252.574275
645.409211,842.705048,-0.000000,9178.553681
645.409527,536.266849,-222.061783,9400.615463
645.409843,383.047749,-444.123565,9400.615463
645.410158,459.657299,-518.144159,9844.739029
645.410474,459.657299,-296.082377,9844.739029
645.410790,689.485948,-74.020594,10510.924376
645.411106,612.876398,-0.000000,10288.862594
645.411421,306.438199,-0.000000,10362.883188
645.411737,459.657299,518.144159,9474.636058
645.412053,76.609550,1184.329507,9178.553681
645.412369,766.095498,962.267725,9104.533087
645.412685,919.314598,666.185348,9326.594869
645.413000,842.705048,-0.000000,9104.533087
645.413316,459.657299,-518.144159,8956.491898
645.413632,0.000000,-740.205942,9474.636058
645.413948,0.000000,-1110.308913,9992.780217
645.414263,0.000000,-666.185348,10066.800811
645.414579,-229.828649,-518.144159,10362.883188
645.414895,-383.047749,-74.020594,10732.986159
645.415211,-689.485948,-370.102971,10066.800811
645.415527,-842.705048,-0.000000,9622.677246
645.415842,-229.828649,222.061783,9400.615463
645.416158,0.000000,222.061783,9178.553681
645.416474,383.047749,-0.000000,9474.636058
645.416790,689.485948,-518.144159,9030.512492
645.417105,689.485948,-814.226536,8882.471304
645.417421,766.095498,-962.267725,9030.512492
645.417737,536.266849,-888.247130,9400.615463
645.418053,919.314598,-296.082377,9548.656652
645.418369,919.314598,-0.000000,9622.677246
645.418684,1072.533697,222.061783,9326.594869
645.419000,689.485948,222.061783,9252.574275
645.419316,536.266849,740.205942,8660.409521
645.419632,919.314598,592.164754,8512.368333
645.419947,1149.143247,666.185348,8660.409521
645.420263,1378.971896,370.102971,8660.409521
645.420579,995.924147,-148.041188,8586.388927
645.420895,536.266849,-296.082377,8882.471304
645.421211,229.828649,-888.247130,9400.615463
645.421526,0.000000,-740.205942,9622.677246
645.421842,153.219100,-444.123565,10214.842000
645.422158,76.609550,-222.061783,10436.903782
645.422474,-612.876398,-296.082377,9918.759623
645.422789,-306.438199,-296.082377,9622.677246
645.423105,0.000000,148.041188,9252.574275
645.423421,153.219100,-0.000000,9326.594869
645.423737,536.266849,148.041188,8882.471304
645.424053,995.924147,-296.082377,9178.553681
645.424368,842.705048,-296.082377,9178.553681
645.424684,1072.533697,-444.123565,8512.368333
645.425000,995.924147,-666.185348,9178.553681
645.425316,1149.143247,-666.185348,9696.697840
645.425631,1302.362347,-444.123565,10288.862594
645.425947,995.924147,-0.000000,10066.800811
645.426263,689.485948,148.041188,10140.821405
645.426579,612.876398,296.082377,9844.739029
645.426894,1072.533697,740.205942,9400.615463
645.427210,1072.533697,666.185348,8882.471304
645.427526,1225.752797,592.164754,9178.553681
645.427842,995.924147,-296.082377,9548.656652
645.428158,995.924147,-740.205942,9252.574275
645.428473,383.047749,-666.185348,9622.677246
645.428789,153.219100,-888.247130,9992.780217
645.429105,0.000000,-666.185348,9992.780217
645.429421,0.000000,-74.020594,10362.883188
645.429736,-306.438199,-148.041188,10436.903782
645.430052,0.000000,-592.164754,10658.965565
645.430368,-842.705048,-74.020594,9844.739029
645.430684,-536.266849,-0.000000,9696.697840
645.431000,76.609550,-0.000000,9474.636058
645.431315,689.485948,222.061783,9474.636058
645.431631,842.705048,-0.000000,9400.615463
645.431947,842.705048,-444.123565,8956.491898
645.432263,536.266849,-370.102971,9030.512492
645.432578,689.485948,-740.205942,9548.656652
645.432894,612.876398,-814.226536,9622.677246
645.433210,689.485948,-444.123565,10066.800811
645.433526,689.485948,-370.102971,10066.800811
645.433842,383.047749,-0.000000,9474.636058
645.434157,153.219100,-0.000000,9178.553681
645.434473,229.828649,370.102971,9030.512492
645.434789,689.485948,296.082377,8586.388927
645.435105,766.095498,-0.000000,8882.471304
645.435420,459.657299,-518.144159,9326.594869
645.435736,306.438199,-888.247130,9252.574275
645.436052,-306.438199,-1554.432478,9326.594869
645.436368,-383.047749,-1924.535449,9696.697840
645.436684,-383.047749,-1480.411884,10362.883188
645.436999,-383.047749,-814.226536,10362.883188
645.437315,0.000000,-666.185348,9770.718434
645.437631,383.047749,-0.000000,9326.594869
645.437947,153.219100,-0.000000,8734.430116
645.438262,229.828649,444.123565,8734.430116
645.438578,1072.533697,222.061783,8660.409521
645.438894,1455.581446,-222.061783,8734.430116
645.439210,1225.752797,-370.102971,8808.450710
645.439526,919.314598,-666.185348,8882.471304
645.439841,842.705048,-1036.288319,9252.574275
645.440157,842.705048,-666.185348,9326.594869
645.440473,842.705048,-296.082377,10362.883188
645.440789,689.485948,-666.185348,10436.903782
645.441104,306.438199,-592.164754,10288.862594
645.441420,0.000000,-222.061783,9844.739029
645.441736,0.000000,370.102971,9474.636058
645.442052,459.657299,740.205942,8956.491898
645.442368,842.705048,888.247130,9030.512492
645.442683,1225.752797,518.144159,8956.491898
645.442999,919.314598,-148.041188,9030.512492
645.443315,995.924147,-592.164754,8956.491898
645.443631,383.047749,-1184.329507,9400.615463
645.443946,842.705048,-740.205942,9770.718434
645.444262,536.266849,-222.061783,10140.821405
645.444578,459.657299,-296.082377,10658.965565
645.444894,0.000000,-0.000000,9992.780217
645.445209,-153.219100,370.102971,9622.677246
645.445525,153.219100,666.185348,9030.512492
645.445841,536.266849,518.144159,9252.574275
645.446157,459.657299,222.061783,9474.636058
645.446473,459.657299,-222.061783,9252.574275
645.446788,536.266849,-814.226536,9252.574275
645.447104,459.657299,-592.164754,9178.553681
645.447420,76.609550,-888.247130,9918.759623
645.447736,76.609550,-740.205942,10214.842000
645.448051,306.438199,-296.082377,10362.883188
645.448367,76.609550,-370.102971,10436.903782
645.448683,0.000000,222.061783,9992.780217
645.448999,76.609550,444.123565,9474.636058
645.449315,229.828649,814.226536,9030.512492
645.449630,536.266849,518.144159,8808.450710
645.449946,689.485948,666.185348,9104.533087
645.450262,919.314598,-0.000000,8734.430116
645.450578,689.485948,-592.164754,8882.471304
645.450893,383.047749,-592.164754,9474.636058
645.451209,76.609550,-1184.329507,9548.656652
645.451525,0.000000,-666.185348,10140.821405
645.451841,0.000000,-518.144159,10510.924376
645.452157,-459.657299,-518.144159,10288.862594
645.452472,-536.266849,-222.061783,9696.697840
645.452788,-459.657299,-0.000000,9548.656652
645.453104,0.000000,148.041188,9178.553681
645.453420,459.657299,-0.000000,9030.512492
645.453735,459.657299,-222.061783,9030.512492
645.454051,612.876398,-518.144159,8956.491898
645.454367,1072.533697,-1036.288319,8660.409521
645.454683,612.876398,-888.247130,8882.471304
645.454999,612.876398,-740.205942,9252.574275
645.455314,689.485948,-222.061783,9770.718434
645.455630,919.314598,-148.041188,9548.656652
645.455946,842.705048,-296.082377,9696.697840
645.456262,689.485948,222.061783,9400.615463
645.456577,459.657299,370.102971,8808.450710
645.456893,919.314598,814.226536,8808.450710
645.457209,995.924147,814.226536,8734.430116
645.457525,1072.533697,148.041188,9178.553681
645.457841,1378.971896,-74.020594,9030.512492
645.458156,612.876398,-370.102971,8882.471304
645.458472,153.219100,-592.164754,9252.574275
645.458788,229.828649,-1110.308913,9918.759623
645.459104,76.609550,-74.020594,10510.924376
645.459419,0.000000,-148.041188,10510.924376
645.459735,76.609550,-148.041188,10362.883188
645.460051,-306.438199,296.082377,9548.656652
645.460367,0.000000,370.102971,9326.594869
645.460682,383.047749,518.144159,9326.594869
645.460998,842.705048,518.144159,9030.512492
645.461314,1072.533697,222.061783,8808.450710
645.461630,1302.362347,-0.000000,8956.491898
645.461946,1378.971896,-814.226536,9104.533087
645.462261,1225.752797,-370.102971,8734.430116
645.462577,612.876398,-222.061783,9326.594869
645.462893,766.095498,-222.061783,9844.739029
645.463209,766.095498,-0.000000,10214.842000
645.463524,383.047749,-148.041188,10140.821405
645.463840,0.000000,370.102971,9622.677246
645.464156,306.438199,592.164754,9622.677246
645.464472,76.609550,592.164754,9178.553681
645.464788,612.876398,888.247130,9474.636058
645.465103,612.876398,-0.000000,9400.615463
645.465419,229.828649,-0.000000,9326.594869
645.465735,0.000000,-444.123565,9400.615463
645.466051,0.000000,-1036.288319,10362.883188
645.466366,153.219100,-592.164754,10436.903782
645.466682,766.095498,-148.041188,10510.924376
645.466998,306.438199,-0.000000,10362.883188
645.467314,0.000000,-0.000000,10140.821405
645.467630,-153.219100,444.123565,9548.656652
645.467945,229.828649,814.226536,9104.533087
645.468261,536.266849,666.185348,9178.553681
645.468577,842.705048,370.102971,9326.594869
645.468893,1072.533697,-222.061783,9104.533087
645.469208,536.266849,-592.164754,9178.553681
645.469524,383.047749,-814.226536,9400.615463
645.469840,306.438199,-962.267725,9474.636058
645.470156,76.609550,-740.205942,9844.739029
645.470472,153.219100,-1036.288319,10436.903782
645.470787,76.609550,-666.185348,10214.842000
645.471103,0.000000,-148.041188,9992.780217
645.471419,-536.266849,-666.185348,9030.512492
645.471735,0.000000,-148.041188,9400.615463
645.472050,383.047749,-0.000000,9104.533087
645.472366,842.705048,-518.144159,9030.512492
645.472682,1072.533697,-666.185348,8586.388927
645.472998,536.266849,-888.247130,8808.450710
645.473314,306.438199,-962.267725,8586.388927
645.473629,306.438199,-1258.350101,9474.636058
645.473945,306.438199,-1184.329507,10288.862594
645.474261,459.657299,-1258.350101,9844.739029
645.474577,0.000000,-592.164754,9992.780217
645.474892,306.438199,-370.102971,9326.594869
645.475208,76.609550,-222.061783,9030.512492
645.475524,229.828649,-0.000000,8956.491898
645.475840,383.047749,-74.020594,9030.512492
645.476156,919.314598,-296.082377,8956.491898
645.476471,1072.533697,-592.164754,9252.574275
645.476787,995.924147,-962.267725,8956.491898
645.477103,766.095498,-814.226536,9178.553681
645.477419,612.876398,-888.247130,9474.636058
645.477734,919.314598,-740.205942,9992.780217
645.478050,995.924147,-0.000000,9844.739029
645.478366,1225.752797,222.061783,9622.677246
645.478682,1302.362347,148.041188,9326.594869
645.478997,1072.533697,518.144159,8660.409521
645.479313,1302.362347,814.226536,8734.430116
645.479629,1455.581446,814.226536,8512.368333
645.479945,1608.800546,-0.000000,9178.553681
645.480261,1149.143247,-962.267725,9178.553681
645.480576,536.266849,-740.205942,9104.533087
645.480892,76.609550,-962.267725,9622.677246
645.481208,-76.609550,-1110.308913,10288.862594
645.481524,0.000000,-814.226536,11029.068536
645.481839,-229.828649,-666.185348,10658.965565
645.482155,-612.876398,-518.144159,10732.986159
645.482471,-689.485948,148.041188,9844.739029
645.482787,-459.657299,888.247130,9252.574275
645.483103,459.657299,370.102971,9326.594869
645.483418,612.876398,518.144159,9326.594869
645.483734,995.924147,-0.000000,9252.574275
645.484050,1072.533697,-222.061783,9030.512492
645.484366,1072.533697,-296.082377,9104.533087
645.484681,995.924147,-592.164754,9400.615463
645.484997,995.924147,-148.041188,9622.677246
645.485313,995.924147,-74.020594,10140.821405
645.485629,459.657299,-0.000000,10658.965565
645.485945,306.438199,-148.041188,10066.800811
645.486260,229.828649,518.144159,9178.553681
645.486576,306.438199,666.185348,9030.512492
645.486892,383.047749,888.247130,8956.491898
645.487208,689.485948,370.102971,9400.615463
645.487523,536.266849,-222.061783,9104.533087
645.487839,383.047749,-888.247130,8882.471304
645.488155,0.000000,-1036.288319,9326.594869
645.488471,-459.657299,-888.247130,10288.862594
645.488787,-383.047749,-592.164754,10066.800811
645.489102,-306.438199,-444.123565,10288.862594
645.489418,-383.047749,-222.061783,10288.862594
645.489734,-536.266849,-370.102971,9770.718434
645.490050,-536.266849,-0.000000,9252.574275
645.490365,-229.828649,370.102971,8882.471304
645.490681,153.219100,296.082377,9030.512492
645.490997,919.314598,-0.000000,9104.533087
645.491313,1072.533697,-370.102971,9104.533087
645.491629,536.266849,-592.164754,8808.450710
645.491944,459.657299,-518.144159,9030.512492
645.492260,919.314598,-296.082377,9252.574275
645.492576,919.314598,-0.000000,9992.780217
645.492892,995.924147,296.082377,9918.759623
645.493207,842.705048,888.247130,9622.677246
645.493523,766.095498,888.247130,8956.491898
645.493839,612.876398,1332.370696,9104.533087
645.494155,766.095498,888.247130,8956.491898
645.494471,995.924147,444.123565,9326.594869
645.494786,919.314598,222.061783,9178.553681
645.495102,766.095498,-74.020594,9030.512492
645.495418,689.485948,-444.123565,9030.512492
645.495734,306.438199,-222.061783,9622.677246
645.496049,306.438199,-444.123565,9696.697840
645.496365,306.438199,-222.061783,10066.800811
645.496681,153.219100,-148.041188,10288.862594
645.496997,76.609550,-518.144159,10436.903782
645.497312,229.828649,-74.020594,9696.697840
645.497628,612.876398,444.123565,8882.471304
645.497944,536.266849,518.144159,9030.512492
645.498260,842.705048,148.041188,8882.471304
645.498576,1378.971896,-148.041188,9326.594869
645.498891,1149.143247,-518.144159,9178.553681
645.499207,689.485948,-666.185348,9252.574275
645.499523,459.657299,-888.247130,9696.697840
645.499838,612.876398,-592.164754,9622.677246
645.500154,306.438199,-444.123565,10066.800811
645.500470,383.047749,296.082377,10214.842000
645.500785,229.828649,-0.000000,9548.656652
645.501101,306.438199,296.082377,9104.533087
645.501417,459.657299,-0.000000,9326.594869
645.501732,612.876398,148.041188,9622.677246
645.502048,842.705048,-222.061783,9548.656652
645.502364,842.705048,-666.185348,9474.636058
645.502679,459.657299,-888.247130,9474.636058
645.502995,229.828649,-888.247130,9400.615463
645.503311,229.828649,-1332.370696,9918.759623
645.503627,0.000000,-444.123565,10140.821405
645.503942,0.000000,-0.000000,10288.862594
645.504258,-229.828649,-296.082377,10288.862594
645.504574,-229.828649,-296.082377,9844.739029
645.504889,-459.657299,-74.020594,9548.656652
645.505205,0.000000,-0.000000,9474.636058
645.505521,306.438199,-222.061783,9178.553681
645.505836,612.876398,-148.041188,9326.594869
645.506152,536.266849,-592.164754,8956.491898
645.506468,842.705048,-962.267725,9030.512492
645.506783,0.000000,-888.247130,9400.615463
645.507099,383.047749,-888.247130,9622.677246
645.507415,383.047749,-740.205942,9770.718434
645.507730,306.438199,-444.123565,10214.842000
645.508046,459.657299,-444.123565,9918.759623
645.508362,0.000000,-222.061783,9252.574275
645.508678,76.609550,-0.000000,8882.471304
645.508993,153.219100,370.102971,8808.450710
645.509309,766.095498,-0.000000,8882.471304
645.509625,995.924147,-518.144159,8882.471304
645.509940,306.438199,-666.185348,8734.430116
645.510256,229.828649,-814.226536,8808.450710
645.510572,76.609550,-962.267725,9030.512492
645.510887,0.000000,-1184.329507,9400.615463
645.511203,0.000000,-740.205942,10066.800811
645.511519,0.000000,-888.247130,10140.821405
645.511834,-383.047749,-740.205942,9918.759623
645.512150,-612.876398,-518.144159,9622.677246
645.512466,-229.828649,-0.000000,9326.594869
645.512782,0.000000,148.041188,9104.533087
645.513097,689.485948,370.102971,9030.512492
645.513413,612.876398,-0.000000,8882.471304
645.513729,919.314598,-444.123565,8882.471304
645.514044,536.266849,-888.247130,9178.553681
645.514360,459.657299,-814.226536,9030.512492
645.514676,612.876398,-592.164754,9696.697840
645.514991,766.095498,-74.020594,10214.842000
645.515307,689.485948,-0.000000,10214.842000
645.515623,919.314598,-0.000000,9770.718434
645.515938,536.266849,592.164754,9326.594869
645.516254,766.095498,962.267725,9178.553681
645.516570,1225.752797,1036.288319,9178.553681
645.516885,1225.752797,888.247130,9400.615463
645.517201,1608.800546,370.102971,9474.636058
645.517517,1225.752797,-0.000000,9400.615463
645.517833,689.485948,-148.041188,9252.574275
645.518148,459.657299,-444.123565,9844.739029
645.518464,612.876398,-740.205942,10584.944971
645.518780,76.609550,-222.061783,10807.006753
645.519095,306.438199,-0.000000,10436.903782
645.519411,0.000000,148.041188,10362.883188
645.519727,0.000000,370.102971,9696.697840
645.520042,229.828649,518.144159,9252.574275
645.520358,689.485948,666.185348,9252.574275
645.520674,919.314598,370.102971,9104.533087
645.520989,1149.143247,148.041188,9178.553681
645.521305,1072.533697,-370.102971,9252.574275
645.521621,919.314598,-888.247130,9326.594869
645.521936,153.219100,-592.164754,9696.697840
645.522252,383.047749,-296.082377,10214.842000
645.522568,383.047749,-222.061783,10214.842000
645.522884,383.047749,-74.020594,10214.842000
645.523199,306.438199,148.041188,9770.718434
645.523515,153.219100,518.144159,9030.512492
645.523831,76.609550,666.185348,9030.512492
645.524146,689.485948,518.144159,8956.491898
645.524462,919.314598,-148.041188,9104.533087
645.524778,612.876398,-148.041188,9104.533087
645.525093,0.000000,-888.247130,9178.553681
645.525409,-229.828649,-1480.411884,9770.718434
645.525725,-229.828649,-1332.370696,9918.759623
645.526040,-306.438199,-888.247130,10066.800811
645.526356,-306.438199,-888.247130,10140.821405
645.526672,-536.266849,-370.102971,9992.780217
645.526988,-689.485948,-518.144159,9548.656652
645.527303,0.000000,-222.061783,9326.594869
645.527619,0.000000,-0.000000,9178.553681
645.527935,383.047749,-74.020594,8808.450710
645.528250,842.705048,-74.020594,8660.409521
645.528566,995.924147,-518.144159,8586.388927
645.528882,766.095498,-888.247130,8586.388927
645.529197,689.485948,-1110.308913,8882.471304
645.529513,689.485948,-1036.288319,9474.636058
645.529829,536.266849,-814.226536,9844.739029
645.530144,459.657299,-444.123565,10214.842000
645.530460,612.876398,-0.000000,9918.759623
645.530776,383.047749,370.102971,9326.594869
645.531091,306.438199,370.102971,8734.430116
645.531407,766.095498,518.144159,8586.388927
645.531723,1532.190996,296.082377,8956.491898
645.532039,1225.752797,-592.164754,8808.450710
645.532354,1072.533697,-370.102971,8882.471304
645.532670,1072.533697,-370.102971,8882.471304
645.532986,612.876398,-814.226536,9400.615463
645.533301,689.485948,-444.123565,9770.718434
645.533617,383.047749,-444.123565,10288.862594
645.533933,306.438199,-0.000000,10288.862594
645.534248,306.438199,148.041188,9770.718434
645.534564,0.000000,296.082377,9400.615463
645.534880,383.047749,-0.000000,9326.594869
645.535195,383.047749,296.082377,9326.594869
645.535511,612.876398,-74.020594,9400.615463
645.535827,766.095498,-296.082377,9622.677246
645.536142,689.485948,-296.082377,9400.615463
645.536458,766.095498,-296.082377,9400.615463
645.536774,612.876398,-592.164754,9918.759623
645.537090,689.485948,-148.041188,10066.800811
645.537405,842.705048,148.041188,10362.883188
645.537721,1072.533697,444.123565,10214.842000
645.538037,766.095498,370.102971,9844.739029
645.538352,766.095498,666.185348,9622.677246
645.538668,766.095498,888.247130,9030.512492
645.538984,1072.533697,666.185348,9178.553681
645.539299,995.924147,370.102971,9400.615463
645.539615,995.924147,-148.041188,9326.594869
645.539931,612.876398,-74.020594,9474.636058
645.540246,153.219100,-444.123565,9548.656652
645.540562,-153.219100,-888.247130,9918.759623
645.540878,-229.828649,-814.226536,10510.924376
645.541194,-306.438199,-666.185348,10584.944971
645.541509,-306.438199,-444.123565,10658.965565
645.541825,-842.705048,-444.123565,10362.883188
645.542141,-689.485948,-370.102971,9770.718434
645.542456,-306.438199,-0.000000,9474.636058
645.542772,76.609550,296.082377,9178.553681
645.543088,919.314598,-148.041188,8512.368333
645.543403,995.924147,-222.061783,8808.450710
645.543719,536.266849,-444.123565,8586.388927
645.544035,612.876398,-592.164754,8956.491898
645.544350,689.485948,-666.185348,9400.615463
645.544666,995.924147,-518.144159,10066.800811
645.544982,995.924147,-148.041188,9918.759623
645.545297,459.657299,-0.000000,9474.636058
645.545613,76.609550,518.144159,9474.636058
645.545929,76.609550,444.123565,9104.533087
645.546245,153.219100,444.123565,8882.471304
645.546560,306.438199,296.082377,9326.594869
645.546876,459.657299,-444.123565,9326.594869
645.547192,536.266849,-962.267725,9178.553681
645.547507,-153.219100,-1406.391290,9474.636058
645.547823,0.000000,-1850.514855,9474.636058
645.548139,0.000000,-1184.329507,9622.677246
645.548454,76.609550,-888.247130,9992.780217
645.548770,-153.219100,-888.247130,10066.800811
645.549086,-153.219100,-740.205942,9992.780217
645.549401,0.000000,-444.123565,9992.780217
645.549717,0.000000,-296.082377,8882.471304
645.550033,383.047749,-444.123565,9030.512492
645.550348,919.314598,-370.102971,8734.430116
645.550664,995.924147,-740.205942,8660.409521
645.550980,1378.971896,-1036.288319,8660.409521
645.551296,842.705048,-1258.350101,9252.574275
645.551611,766.095498,-1480.411884,9400.615463
645.551927,689.485948,-1480.411884,9622.677246
645.552243,842.705048,-962.267725,10066.800811
645.552558,919.314598,-592.164754,9918.759623
645.552874,536.266849,-222.061783,9548.656652
645.553190,459.657299,296.082377,8956.491898
645.553505,536.266849,296.082377,8586.388927
645.553821,995.924147,444.123565,8512.368333
645.554137,1532.190996,-0.000000,8438.347739
645.554452,1149.143247,-296.082377,8882.471304
645.554768,995.924147,-592.164754,9030.512492
645.555084,536.266849,-666.185348,9474.636058
645.555400,229.828649,-666.185348,9622.677246
645.555715,229.828649,-222.061783,10288.862594
645.556031,76.609550,296.082377,10288.862594
645.556347,0.000000,592.164754,10436.903782
645.556662,76.609550,518.144159,9918.759623
645.556978,-383.047749,666.185348,9548.656652
645.557294,0.000000,1258.350101,9622.677246
645.557609,689.485948,1702.473667,9030.512492
645.557925,536.266849,1036.288319,9326.594869
645.558241,919.314598,888.247130,9474.636058
645.558556,306.438199,444.123565,9252.574275
645.558872,612.876398,370.102971,9326.594869
645.559188,229.828649,-0.000000,9474.636058
645.559503,612.876398,296.082377,10436.903782
645.559819,612.876398,666.185348,10658.965565
645.560135,153.219100,444.123565,10436.903782
645.560451,383.047749,666.185348,9992.780217
645.560766,0.000000,1332.370696,9178.553681
645.561082,76.609550,1480.411884,9178.553681
645.561398,536.266849,1406.391290,9252.574275
645.561713,995.924147,1110.308913,9400.615463
645.562029,612.876398,-74.020594,9326.594869
645.562345,153.219100,-518.144159,9104.533087
645.562660,0.000000,-1258.350101,9474.636058
645.562976,0.000000,-1184.329507,9992.780217
645.563292,-306.438199,-1258.350101,10436.903782
645.563607,-306.438199,-814.226536,10140.821405
645.563923,-306.438199,-222.061783,10436.903782
645.564239,-383.047749,-296.082377,9992.780217
645.564554,-842.705048,-74.020594,9474.636058
645.564870,0.000000,74.020594,9030.512492
645.565186,306.438199,-0.000000,9104.533087
645.565502,536.266849,-296.082377,8956.491898
645.565817,766.095498,-592.164754,9030.512492
645.566133,612.876398,-740.205942,8956.491898
645.566449,229.828649,-962.267725,9400.615463
645.566764,536.266849,-370.102971,9474.636058
645.567080,919.314598,296.082377,9622.677246
645.567396,842.705048,296.082377,9770.718434
645.567711,612.876398,370.102971,9622.677246
645.568027,919.314598,370.102971,9474.636058
645.568343,995.924147,444.123565,8882.471304
645.568658,1225.752797,592.164754,8512.368333
645.568974,1378.971896,370.102971,8882.471304
645.569290,1378.971896,222.061783,8808.450710
645.569606,1302.362347,-222.061783,8734.430116
645.569921,766.095498,-296.082377,8956.491898
645.570237,995.924147,-296.082377,9178.553681
645.570553,306.438199,-370.102971,9622.677246
645.570868,536.266849,-222.061783,10362.883188
645.571184,459.657299,-222.061783,10214.842000
645.571500,383.047749,-0.000000,9326.594869
645.571815,383.047749,296.082377,9326.594869
645.572131,612.876398,444.123565,9252.574275
645.572447,842.705048,518.144159,8734.430116
645.572762,995.924147,666.185348,8956.491898
645.573078,1225.752797,-0.000000,9178.553681
645.573394,919.314598,-222.061783,9252.574275
645.573709,459.657299,-518.144159,9252.574275
645.574025,689.485948,-296.082377,9992.780217
645.574341,612.876398,-222.061783,9992.780217
645.574657,689.485948,-0.000000,9918.759623
645.574972,689.485948,370.102971,9770.718434
645.575288,459.657299,518.144159,9548.656652
645.575604,306.438199,444.123565,9178.553681
645.575919,383.047749,444.123565,9252.574275
645.576235,689.485948,666.185348,9252.574275
645.576551,995.924147,222.061783,9474.636058
645.576866,919.314598,-148.041188,9474.636058
645.577182,689.485948,-370.102971,9104.533087
645.577498,76.609550,-370.102971,9400.615463
645.577813,-306.438199,-666.185348,10140.821405
645.578129,-383.047749,-814.226536,10658.965565
645.578445,-459.657299,-814.226536,10807.006753
645.578760,-612.876398,-592.164754,10658.965565
645.579076,-766.095498,-0.000000,9992.780217
645.579392,-766.095498,-74.020594,9696.697840
645.579708,-306.438199,-0.000000,9548.656652
645.580023,0.000000,296.082377,9326.594869
645.580339,383.047749,-74.020594,9622.677246
645.580655,612.876398,-296.082377,9474.636058
645.580970,536.266849,-370.102971,9326.594869
645.581286,612.876398,-1036.288319,9474.636058
645.581602,536.266849,-666.185348,10362.883188
645.581917,995.924147,-370.102971,10140.821405
645.582233,383.047749,-296.082377,10362.883188
645.582549,459.657299,-0.000000,10066.800811
645.582864,536.266849,-0.000000,9326.594869
645.583180,306.438199,296.082377,8882.471304
645.583496,689.485948,296.082377,9030.512492
645.583812,1149.143247,-74.020594,9104.533087
645.584127,1072.533697,-814.226536,8882.471304
645.584443,842.705048,-1332.370696,9326.594869
645.584759,612.876398,-1776.494261,8882.471304
645.585074,0.000000,-2072.576638,9474.636058
645.585390,0.000000,-1554.432478,9622.677246
645.585706,0.000000,-1776.494261,10066.800811
645.586021,0.000000,-1480.411884,9992.780217
645.586337,-229.828649,-1332.370696,9918.759623
645.586653,-459.657299,-1110.308913,9326.594869
645.586968,-153.219100,-666.185348,8808.450710
645.587284,76.609550,-444.123565,8734.430116
645.587600,1225.752797,-444.123565,8586.388927
645.587915,919.314598,-1036.288319,8808.450710
645.588231,689.485948,-1554.432478,8882.471304
645.588547,919.314598,-1406.391290,8882.471304
645.588863,459.657299,-1554.432478,9104.533087
645.589178,612.876398,-1258.350101,9548.656652
645.589494,536.266849,-592.164754,9474.636058
645.589810,766.095498,-370.102971,9770.718434
645.590125,459.657299,-0.000000,9474.636058
645.590441,536.266849,-148.041188,8956.491898
645.590757,689.485948,148.041188,8586.388927
645.591072,842.705048,148.041188,8586.388927
645.591388,1378.971896,-0.000000,9104.533087
645.591704,1302.362347,-518.144159,9104.533087
645.592019,1225.752797,-444.123565,8734.430116
645.592335,459.657299,-370.102971,9252.574275
645.592651,459.657299,-222.061783,9474.636058
645.592966,306.438199,-0.000000,9992.780217
645.593282,153.219100,148.041188,10510.924376
645.593598,-153.219100,-0.000000,10288.862594
645.593914,-383.047749,148.041188,10362.883188
645.594229,-229.828649,222.061783,9548.656652
645.594545,0.000000,814.226536,9326.594869
645.594861,842.705048,740.205942,9548.656652
645.595176,842.705048,-0.000000,9400.615463
645.595492,689.485948,148.041188,9252.574275
645.595808,536.266849,148.041188,9400.615463
645.596123,459.657299,-0.000000,9474.636058
645.596439,536.266849,-0.000000,9622.677246
645.596755,766.095498,-222.061783,10288.862594
645.597071,459.657299,-0.000000,10362.883188
645.597387,536.266849,222.061783,10288.862594
645.597702,229.828649,148.041188,9696.697840
645.598018,153.219100,666.185348,9178.553681
645.598334,383.047749,814.226536,9104.533087
645.598650,689.485948,1332.370696,9474.636058
645.598966,459.657299,518.144159,9548.656652
645.599282,153.219100,-222.061783,9474.636058
645.599597,0.000000,-296.082377,9474.636058
645.599913,-229.828649,-814.226536,10140.821405
645.600229,-536.266849,-518.144159,10066.800811
645.600545,-459.657299,-222.061783,10584.944971
645.600861,-383.047749,-0.000000,10584.944971
645.601176,-689.485948,-296.082377,10510.924376
645.601492,-306.438199,-148.041188,9696.697840
645.601808,-612.876398,518.144159,9326.594869
645.602124,-153.219100,666.185348,9104.533087
645.602440,842.705048,592.164754,9178.553681
645.602756,1072.533697,444.123565,9030.512492
645.603071,689.485948,-74.020594,9030.512492
645.603387,536.266849,-370.102971,8956.491898
645.603703,766.095498,-518.144159,9326.594869
645.604019,766.095498,-370.102971,9474.636058
645.604335,1149.143247,-148.041188,9918.759623
645.604651,1532.190996,-296.082377,10066.800811
645.604966,995.924147,-0.000000,9696.697840
645.605282,459.657299,518.144159,8808.450710
645.605598,536.266849,592.164754,8586.388927
645.605914,1072.533697,518.144159,8364.327145
645.606230,1378.971896,-74.020594,8734.430116
645.606545,1149.143247,-518.144159,8734.430116
645.606861,689.485948,-1110.308913,8808.450710
645.607177,536.266849,-1480.411884,9474.636058
645.607493,153.219100,-1554.432478,9326.594869
645.607809,76.609550,-1480.411884,9622.677246
645.608125,76.609550,-1184.329507,10140.821405
645.608440,459.657299,-888.247130,10436.903782
645.608756,383.047749,-592.164754,9548.656652
645.609072,229.828649,-74.020594,9030.512492
645.609388,689.485948,-222.061783,8586.388927
645.609704,1302.362347,-74.020594,8512.368333
645.610019,1455.581446,-74.020594,8660.409521
645.610335,1608.800546,-444.123565,8586.388927
645.610651,1532.190996,-814.226536,8660.409521
645.610967,1608.800546,-1184.329507,9178.553681
645.611283,842.705048,-1036.288319,9400.615463
645.611599,612.876398,-666.185348,9844.739029
645.611914,612.876398,-148.041188,10436.903782
645.612230,383.047749,-148.041188,10362.883188
645.612546,383.047749,-74.020594,10140.821405
645.612862,229.828649,444.123565,9326.594869
645.613178,0.000000,666.185348,9104.533087
645.613493,383.047749,370.102971,9178.553681
645.613809,842.705048,-370.102971,9474.636058
645.614125,229.828649,-666.185348,9918.759623
645.614441,76.609550,-1110.308913,9622.677246
645.614757,-306.438199,-1110.308913,9918.759623
645.615073,-153.219100,-962.267725,9992.780217
645.615388,0.000000,-740.205942,10362.883188
645.615704,76.609550,-370.102971,10732.986159
645.616020,-229.828649,-518.144159,10362.883188
645.616336,-459.657299,-222.061783,9770.718434
645.616652,0.000000,-0.000000,9548.656652
645.616967,0.000000,-148.041188,9474.636058
645.617283,383.047749,-518.144159,9474.636058
645.617599,229.828649,-740.205942,9696.697840
645.617915,459.657299,-814.226536,9474.636058
645.618231,306.438199,-1036.288319,9400.615463
645.618547,76.609550,-888.247130,9548.656652
645.618862,76.609550,-1036.288319,9696.697840
645.619178,229.828649,-592.164754,10214.842000
645.619494,153.219100,-222.061783,10362.883188
645.619810,229.828649,-296.082377,10066.800811
645.620126,0.000000,-296.082377,9474.636058
645.620442,153.219100,-222.061783,8882.471304
645.620757,459.657299,518.144159,8956.491898
645.621073,1072.533697,296.082377,8512.368333
645.621389,919.314598,-444.123565,8808.450710
645.621705,612.876398,-814.226536,8882.471304
645.622021,306.438199,-1258.350101,9252.574275
645.622336,76.609550,-1554.432478,9696.697840
645.622652,0.000000,-962.267725,9474.636058
645.622968,0.000000,-370.102971,9918.759623
645.623284,229.828649,-592.164754,9992.780217
645.623600,-153.219100,-370.102971,9770.718434
645.623916,-536.266849,-0.000000,9104.533087
645.624231,0.000000,444.123565,8882.471304
645.624547,612.876398,-0.000000,8586.388927
645.624863,919.314598,296.082377,8734.430116
645.625179,1302.362347,-74.020594,8438.347739
645.625495,1225.752797,-296.082377,8512.368333
645.625810,919.314598,-222.061783,8956.491898
645.626126,459.657299,-222.061783,8956.491898
645.626442,842.705048,-74.020594,9548.656652
645.626758,766.095498,-74.020594,10066.800811
645.627074,766.095498,148.041188,10214.842000
645.627390,689.485948,148.041188,9696.697840
645.627705,766.095498,592.164754,9252.574275
645.628021,536.266849,1184.329507,8586.388927
645.628337,1225.752797,1554.432478,8660.409521
645.628653,1455.581446,1332.370696,8734.430116
645.628969,1532.190996,888.247130,8808.450710
645.629284,842.705048,666.185348,8808.450710
645.629600,229.828649,-74.020594,9104.533087
645.629916,153.219100,-814.226536,9474.636058
645.630232,459.657299,-0.000000,10214.842000
645.630548,0.000000,296.082377,10510.924376
645.630864,0.000000,444.123565,10584.944971
645.631179,-459.657299,666.185348,10140.821405
645.631495,-306.438199,1036.288319,9992.780217
645.631811,-153.219100,740.205942,9474.636058
645.632127,153.219100,962.267725,9770.718434
645.632443,612.876398,592.164754,9918.759623
645.632758,1302.362347,296.082377,9696.697840
645.633074,1072.533697,740.205942,9844.739029
645.633390,1072.533697,666.185348,9548.656652
645.633706,1149.143247,518.144159,9696.697840
645.634022,1149.143247,518.144159,9770.718434
645.634338,1072.533697,-0.000000,10510.924376
645.634653,995.924147,-148.041188,10807.006753
645.634969,536.266849,222.061783,10362.883188
645.635285,306.438199,666.185348,9474.636058
645.635601,383.047749,888.247130,9400.615463
645.635917,919.314598,888.247130,9178.553681
645.636232,842.705048,444.123565,9474.636058
645.636548,536.266849,-0.000000,9696.697840
645.636864,153.219100,-962.267725,9696.697840
645.637180,0.000000,-1554.432478,9992.780217
645.637496,-306.438199,-1850.514855,10436.903782
645.637812,0.000000,-1628.453072,10732.986159
645.638127,-229.828649,-1406.391290,10584.944971
645.638443,-306.438199,-888.247130,10362.883188
645.638759,-536.266849,-814.226536,9400.615463
645.639075,0.000000,-592.164754,9104.533087
645.639391,153.219100,-0.000000,8882.471304
645.639707,995.924147,-148.041188,8882.471304
645.640022,1302.362347,-518.144159,8438.347739
645.640338,1072.533697,-888.247130,8438.347739
645.640654,1149.143247,-962.267725,8660.409521
645.640970,842.705048,-1480.411884,8808.450710
645.641286,459.657299,-888.247130,9104.533087
645.641601,459.657299,-814.226536,9770.718434
645.641917,229.828649,-444.123565,9696.697840
645.642233,536.266849,-666.185348,9548.656652
645.642549,76.609550,-444.123565,8956.491898
645.642865,459.657299,-0.000000,8586.388927
645.643181,842.705048,-0.000000,8290.306550
645.643496,1072.533697,-0.000000,8512.368333
645.643812,842.705048,-0.000000,8216.285956
645.644128,1149.143247,-296.082377,8290.306550
645.644444,459.657299,-814.226536,8808.450710
645.644760,229.828649,-1258.350101,9326.594869
645.645075,0.000000,-1406.391290,9844.739029
645.645391,76.609550,-1184.329507,10140.821405
645.645707,0.000000,-666.185348,9918.759623
645.646023,-153.219100,-0.000000,9696.697840
645.646339,0.000000,740.205942,8882.471304
645.646655,842.705048,1184.329507,8660.409521
645.646970,1072.533697,814.226536,8734.430116
645.647286,995.924147,666.185348,8660.409521
645.647602,1225.752797,-74.020594,8438.347739
645.647918,1072.533697,-666.185348,8882.471304
645.648234,536.266849,-1110.308913,9548.656652
645.648549,383.047749,-740.205942,9770.718434
645.648865,536.266849,-370.102971,9992.780217
645.649181,306.438199,148.041188,10362.883188
645.649497,76.609550,518.144159,10288.862594
645.649813,0.000000,666.185348,9770.718434
645.650129,-229.828649,1258.350101,9326.594869
645.650444,153.219100,1406.391290,9326.594869
645.650760,383.047749,1258.350101,9326.594869
645.651076,306.438199,444.123565,9696.697840
645.651392,229.828649,-0.000000,9474.636058
645.651708,0.000000,-0.000000,9474.636058
645.652023,0.000000,-74.020594,9992.780217
645.652339,0.000000,-222.061783,10658.965565
645.652655,-153.219100,222.061783,10955.047942
645.652971,76.609550,740.205942,10732.986159
645.653287,-306.438199,1258.350101,10510.924376
645.653603,-459.657299,1406.391290,9992.780217
645.653918,-383.047749,1924.535449,9770.718434
645.654234,383.047749,1850.514855,9474.636058
645.654550,383.047749,1258.350101,9474.636058
645.654866,766.095498,666.185348,9992.780217
645.655182,612.876398,-74.020594,9844.739029
645.655498,459.657299,-148.041188,9918.759623
645.655813,536.266849,-296.082377,10584.944971
645.656129,536.266849,-0.000000,10436.903782
645.656445,459.657299,370.102971,10288.862594
645.656761,689.485948,518.144159,10362.883188
645.657077,459.657299,518.144159,9992.780217
645.657392,919.314598,296.082377,9548.656652
645.657708,612.876398,518.144159,8882.471304
645.658024,919.314598,222.061783,8808.450710
645.658340,1302.362347,-148.041188,9104.533087
645.658656,1455.581446,-740.205942,8956.491898
645.658972,1149.143247,-1332.370696,9326.594869
645.659287,536.266849,-1924.535449,9030.512492
645.659603,153.219100,-2146.597232,9622.677246
645.659919,0.000000,-2146.597232,10214.842000
645.660235,76.609550,-1998.556043,10214.842000
645.660551,229.828649,-1924.535449,10214.842000
645.660866,76.609550,-1258.350101,9474.636058
645.661182,306.438199,-962.267725,8808.450710
645.661498,306.438199,-888.247130,8512.368333
645.661814,1072.533697,-1406.391290,8216.285956
645.662130,1072.533697,-1258.350101,8068.244768
645.662446,1302.362347,-1776.494261,8290.306550
645.662761,1072.533697,-2368.659014,8586.388927
645.663077,919.314598,-2516.700203,9030.512492
645.663393,612.876398,-2072.576638,9104.533087
645.663709,689.485948,-1850.514855,9252.574275
645.664025,766.095498,-1258.350101,9622.677246
645.664340,689.485948,-1036.288319,9548.656652
645.664656,689.485948,-1036.288319,9030.512492
645.664972,229.828649,-444.123565,8512.368333
645.665288,153.219100,-148.041188,8586.388927
645.665604,612.876398,-222.061783,8512.368333
645.665920,536.266849,-740.205942,8586.388927
645.666235,383.047749,-1036.288319,8808.450710
645.666551,153.219100,-1332.370696,9030.512492
645.666867,-383.047749,-1406.391290,9252.574275
645.667183,-306.438199,-1184.329507,9548.656652
645.667499,-153.219100,-592.164754,10140.821405
645.667814,-383.047749,-518.144159,10214.842000
645.668130,-306.438199,-592.164754,10140.821405
645.668446,-766.095498,-296.082377,9770.718434
645.668762,-459.657299,-74.020594,9326.594869
645.669078,0.000000,296.082377,8882.471304
645.669394,0.000000,444.123565,9178.553681
645.669709,153.219100,-0.000000,9326.594869
645.670025,306.438199,-370.102971,9474.636058
645.670341,-153.219100,-370.102971,9474.636058
645.670657,76.609550,-518.144159,9548.656652
645.670973,0.000000,-518.144159,9918.759623
645.671288,153.219100,-296.082377,10362.883188
645.671604,0.000000,-222.061783,10584.944971
645.671920,153.219100,-74.020594,10288.862594
645.672236,0.000000,296.082377,9844.739029
645.672552,153.219100,888.247130,9400.615463
645.672868,229.828649,1406.391290,9252.574275
645.673183,766.095498,1036.288319,9548.656652
645.673499,919.314598,444.123565,9622.677246
645.673815,536.266849,370.102971,9548.656652
645.674131,383.047749,-0.000000,9622.677246
645.674447,0.000000,-296.082377,10066.800811
645.674763,0.000000,-0.000000,10436.903782
645.675078,0.000000,148.041188,10955.047942
645.675394,0.000000,-0.000000,10955.047942
645.675710,-306.438199,296.082377,10584.944971
645.676026,-536.266849,592.164754,9992.780217
645.676342,-76.609550,1036.288319,9548.656652
645.676657,459.657299,1184.329507,9474.636058
645.676973,995.924147,740.205942,9548.656652
645.677289,1149.143247,1036.288319,9252.574275
645.677605,995.924147,814.226536,9104.533087
645.677921,1072.533697,148.041188,9030.512492
645.678237,1685.410096,222.061783,9918.759623
645.678552,1532.190996,148.041188,9844.739029
645.678868,1685.410096,444.123565,9844.739029
645.679184,1685.410096,666.185348,10066.800811
645.679500,1455.581446,962.267725,9548.656652
645.679816,1378.971896,1258.350101,8808.450710
645.680131,919.314598,1406.391290,8882.471304
645.680447,1608.800546,1998.556043,8142.265362
645.680763,1762.019645,1258.350101,8586.388927
645.681079,1915.238745,592.164754,8586.388927
645.681395,1302.362347,-0.000000,8808.450710
645.681711,919.314598,-740.205942,9030.512492
645.682026,459.657299,-1036.288319,9844.739029
645.682342,229.828649,-962.267725,10362.883188
645.682658,306.438199,-592.164754,10584.944971
645.682974,76.609550,-74.020594,10066.800811
645.683290,612.876398,-222.061783,9696.697840
645.683605,153.219100,222.061783,9178.553681
645.683921,689.485948,888.247130,8660.409521
645.684237,995.924147,296.082377,8438.347739
645.684553,1762.019645,-0.000000,8734.430116
645.684869,1378.971896,-740.205942,8660.409521
645.685185,1072.533697,-1110.308913,8956.491898
645.685500,995.924147,-1406.391290,9326.594869
645.685816,995.924147,-1036.288319,9474.636058
645.686132,383.047749,-740.205942,9622.677246
645.686448,229.828649,-888.247130,10288.862594
645.686764,229.828649,-666.185348,10066.800811
645.687079,0.000000,-666.185348,9770.718434
645.687395,-459.657299,-0.000000,9178.553681
645.687711,-153.219100,-370.102971,9252.574275
645.688027,229.828649,-814.226536,9326.594869
645.688343,153.219100,-740.205942,8956.491898
645.688659,0.000000,-1110.308913,9030.512492
645.688974,0.000000,-1480.411884,9326.594869
645.689290,-459.657299,-2072.576638,9844.739029
645.689606,-689.485948,-1554.432478,9918.759623
645.689922,-689.485948,-1406.391290,10362.883188
645.690238,-459.657299,-1184.329507,10584.944971
645.690554,-842.705048,-814.226536,10214.842000
645.690869,-612.876398,-592.164754,9696.697840
645.691185,-383.047749,-296.082377,9104.533087
645.691501,-229.828649,-518.144159,9104.533087
645.691817,229.828649,-740.205942,9178.553681
645.692133,536.266849,-814.226536,9326.594869
645.692448,536.266849,-1258.350101,9326.594869
645.692764,306.438199,-888.247130,9400.615463
645.693080,229.828649,-1406.391290,9622.677246
645.693396,0.000000,-1258.350101,9918.759623
645.693712,0.000000,-1480.411884,10214.842000
645.694028,76.609550,-1036.288319,10214.842000
645.694343,76.609550,-814.226536,9992.780217
645.694659,0.000000,-666.185348,8956.491898
645.694975,306.438199,-296.082377,9104.533087
645.695291,76.609550,-370.102971,8808.450710
645.695607,919.314598,-370.102971,9178.553681
645.695922,766.095498,-592.164754,9104.533087
645.696238,383.047749,-592.164754,8808.450710
645.696554,76.609550,-1036.288319,9178.553681
645.696870,383.047749,-1258.350101,9326.594869
645.697186,0.000000,-1036.288319,9696.697840
645.697502,76.609550,-592.164754,9918.759623
645.697817,153.219100,-518.144159,9918.759623
645.698133,612.876398,-444.123565,9474.636058
645.698449,229.828649,-74.020594,9252.574275
645.698765,459.657299,666.185348,8734.430116
645.699081,995.924147,1110.308913,8364.327145
645.699396,1455.581446,888.247130,8660.409521
645.699712,1302.362347,296.082377,8808.450710
645.700028,1608.800546,444.123565,8586.388927
645.700344,1378.971896,-0.000000,8734.430116
645.700660,1455.581446,-0.000000,9326.594869
645.700975,1455.581446,814.226536,9474.636058
645.701291,1378.971896,1110.308913,9992.780217
645.701607,1149.143247,1628.453072,9992.780217
645.701923,919.314598,1554.432478,9474.636058
645.702239,689.485948,1406.391290,9252.574275
645.702554,1072.533697,1776.494261,9252.574275
645.702870,1149.143247,1850.514855,9400.615463
645.703186,1532.190996,1184.329507,9252.574275
645.703502,1149.143247,1036.288319,9104.533087
645.703818,995.924147,1036.288319,9030.512492
645.704133,689.485948,370.102971,9474.636058
645.704449,153.219100,518.144159,10066.800811
645.704765,76.609550,148.041188,10436.903782
645.705081,76.609550,74.020594,10881.027347
645.705396,-153.219100,444.123565,10584.944971
645.705712,383.047749,148.041188,10066.800811
645.706028,-229.828649,222.061783,9918.759623
645.706344,153.219100,888.247130,9622.677246
645.706660,459.657299,888.247130,9326.594869
645.706975,842.705048,370.102971,9178.553681
645.707291,919.314598,-74.020594,9326.594869
645.707607,766.095498,-444.123565,9474.636058
645.707923,383.047749,-444.123565,9696.697840
645.708238,459.657299,-148.041188,9696.697840
645.708554,536.266849,-0.000000,10140.821405
645.708870,766.095498,-0.000000,10436.903782
645.709186,383.047749,-0.000000,10510.924376
645.709502,-153.219100,296.082377,9844.739029
645.709817,-306.438199,592.164754,9474.636058
645.710133,153.219100,518.144159,9622.677246
645.710449,536.266849,370.102971,9474.636058
645.710765,229.828649,-74.020594,9696.697840
645.711081,153.219100,-444.123565,9548.656652
645.711396,0.000000,-370.102971,9400.615463
645.711712,0.000000,-740.205942,9770.718434
645.712028,-153.219100,-222.061783,10732.986159
645.712344,0.000000,-370.102971,10510.924376
645.712659,0.000000,-296.082377,10066.800811
645.712975,-306.438199,-74.020594,9918.759623
645.713291,-612.876398,-370.102971,9400.615463
645.713607,-536.266849,-222.061783,9178.553681
645.713923,0.000000,-0.000000,9252.574275
645.714238,383.047749,-592.164754,8808.450710
645.714554,689.485948,-888.247130,8808.450710
645.714870,842.705048,-1702.473667,8586.388927
645.715186,919.314598,-2146.597232,8956.491898
645.715502,306.438199,-2146.597232,8956.491898
645.715817,459.657299,-1924.535449,9474.636058
645.716133,459.657299,-1406.391290,9326.594869
645.716449,612.876398,-1110.308913,9104.533087
645.716765,689.485948,-1036.288319,8882.471304
645.717080,383.047749,-444.123565,8364.327145
645.717396,842.705048,-296.082377,8290.306550
645.717712,1302.362347,-444.123565,8142.265362
645.718028,1302.362347,-1332.370696,8216.285956
645.718344,1072.533697,-1480.411884,8216.285956
645.718659,766.095498,-1258.350101,8142.265362
645.718975,536.266849,-1702.473667,9178.553681
645.719291,383.047749,-1480.411884,9548.656652
645.719607,153.219100,-888.247130,9844.739029
645.719922,459.657299,-888.247130,10066.800811
645.720238,0.000000,-370.102971,9844.739029
645.720554,0.000000,-0.000000,9474.636058
645.720870,0.000000,518.144159,9178.553681
645.721186,306.438199,814.226536,8956.491898
645.721501,995.924147,814.226536,8882.471304
645.721817,766.095498,666.185348,9252.574275
645.722133,919.314598,370.102971,9252.574275
645.722449,995.924147,-0.000000,9252.574275
645.722765,842.705048,-222.061783,9178.553681
645.723080,919.314598,-0.000000,9918.759623
645.723396,1149.143247,518.144159,10362.883188
645.723712,689.485948,1110.308913,9844.739029
645.724028,766.095498,1332.370696,9992.780217
645.724343,459.657299,1554.432478,9548.656652
645.724659,459.657299,1776.494261,9474.636058
645.724975,766.095498,1702.473667,9178.553681
645.725291,919.314598,1554.432478,9474.636058
645.725607,766.095498,666.185348,9696.697840
645.725922,612.876398,370.102971,9844.739029
645.726238,0.000000,296.082377,9622.677246
645.726554,-306.438199,518.144159,10140.821405
645.726870,0.000000,740.205942,10807.006753
645.727185,0.000000,740.205942,10881.027347
645.727501,0.000000,1036.288319,10807.006753
645.727817,-153.219100,518.144159,10510.924376
645.728133,-459.657299,740.205942,10066.800811
645.728449,-459.657299,888.247130,9918.759623
645.728764,0.000000,1036.288319,9548.656652
645.729080,536.266849,1110.308913,9474.636058
645.729396,306.438199,592.164754,9474.636058
645.729712,536.266849,-0.000000,9622.677246
645.730028,306.438199,-222.061783,9622.677246
645.730343,536.266849,-296.082377,9918.759623
645.730659,536.266849,-74.020594,9844.739029
645.730975,1072.533697,-0.000000,10140.821405
645.731291,842.705048,222.061783,9992.780217
645.731606,612.876398,370.102971,9548.656652
645.731922,306.438199,296.082377,9030.512492
645.732238,612.876398,518.144159,8882.471304
645.732554,612.876398,148.041188,8956.491898
645.732870,536.266849,-370.102971,9178.553681
645.733185,612.876398,-888.247130,9104.533087
645.733501,153.219100,-1332.370696,9030.512492
645.733817,-76.609550,-1702.473667,9622.677246
645.734133,-153.219100,-1998.556043,9844.739029
645.734449,-306.438199,-1332.370696,10140.821405
645.734764,0.000000,-1258.350101,10288.862594
645.735080,0.000000,-1110.308913,9992.780217
645.735396,0.000000,-1258.350101,9696.697840
645.735712,76.609550,-888.247130,9030.512492
645.736027,0.000000,-888.247130,8734.430116
645.736343,766.095498,-888.247130,8586.388927
645.736659,1378.971896,-962.267725,8438.347739
645.736975,1378.971896,-1184.329507,8364.327145
645.737291,1378.971896,-1480.411884,8364.327145
645.737606,1225.752797,-1776.494261,8586.388927
645.737922,1302.362347,-1628.453072,9030.512492
645.738238,1072.533697,-1628.453072,9474.636058
645.738554,1455.581446,-1628.453072,9918.759623
645.738869,1072.533697,-1406.391290,9474.636058
645.739185,689.485948,-1258.350101,8956.491898
645.739501,306.438199,-666.185348,8512.368333
645.739817,842.705048,-444.123565,8364.327145
645.740133,842.705048,-592.164754,8512.368333
645.740448,766.095498,-1258.350101,8364.327145
645.740764,383.047749,-2146.597232,8808.450710
645.741080,0.000000,-2146.597232,9030.512492
645.741396,0.000000,-2294.638420,9474.636058
645.741712,0.000000,-2738.761985,9622.677246
645.742027,-383.047749,-1850.514855,10510.924376
645.742343,-536.266849,-1480.411884,10362.883188
645.742659,-612.876398,-814.226536,9992.780217
645.742975,-766.095498,-592.164754,9622.677246
645.743290,-306.438199,-222.061783,9104.533087
645.743606,0.000000,-0.000000,9030.512492
645.743922,306.438199,-0.000000,8734.430116
645.744238,842.705048,-74.020594,9326.594869
645.744554,766.095498,-518.144159,9326.594869
645.744869,536.266849,-222.061783,9326.594869
645.745185,229.828649,-518.144159,9770.718434
645.745501,229.828649,-370.102971,10214.842000
645.745817,536.266849,-0.000000,10436.903782
645.746132,229.828649,222.061783,10881.027347
645.746448,153.219100,296.082377,10436.903782
645.746764,-536.266849,814.226536,9992.780217
645.747080,0.000000,1184.329507,9474.636058
645.747396,0.000000,1406.391290,9474.636058
645.747711,229.828649,888.247130,9252.574275
645.748027,689.485948,592.164754,9474.636058
645.748343,76.609550,518.144159,9400.615463
645.748659,0.000000,-148.041188,9474.636058
645.748975,-153.219100,-148.041188,9992.780217
645.749290,-229.828649,-74.020594,10288.862594
645.749606,0.000000,296.082377,11029.068536
645.749922,0.000000,666.185348,10658.965565
645.750238,-612.876398,740.205942,10362.883188
645.750553,-229.828649,1406.391290,9474.636058
645.750869,383.047749,1480.411884,9178.553681
645.751185,306.438199,1480.411884,9178.553681
645.751501,766.095498,814.226536,9104.533087
645.751817,919.314598,666.185348,9326.594869
645.752132,766.095498,296.082377,9474.636058
645.752448,995.924147,-74.020594,9548.656652
645.752764,612.876398,518.144159,9474.636058
645.753080,612.876398,370.102971,9918.759623
645.753395,995.924147,962.267725,10214.842000
645.753711,919.314598,814.226536,9844.739029
645.754027,995.924147,666.185348,9474.636058
645.754343,995.924147,1110.308913,9104.533087
645.754659,1302.362347,1406.391290,8660.409521
645.754974,1685.410096,1480.411884,8808.450710
645.755290,1608.800546,888.247130,8660.409521
645.755606,1991.848295,444.123565,8956.491898
645.755922,1378.971896,370.102971,8734.430116
645.756238,919.314598,-74.020594,9252.574275
645.756553,766.095498,-518.144159,9548.656652
645.756869,766.095498,-296.082377,9992.780217
645.757185,766.095498,-148.041188,10288.862594
645.757501,459.657299,-74.020594,10066.800811
645.757816,306.438199,148.041188,9548.656652
645.758132,153.219100,296.082377,9030.512492
645.758448,306.438199,296.082377,8882.471304
645.758764,919.314598,-74.020594,8734.430116
645.759080,689.485948,-444.123565,9104.533087
645.759395,1072.533697,-740.205942,8956.491898
645.759711,842.705048,-1110.308913,9252.574275
645.760027,459.657299,-1036.288319,9622.677246
645.760343,842.705048,-740.205942,9696.697840
645.760659,612.876398,-444.123565,9696.697840
645.760974,995.924147,-222.061783,9770.718434
645.761290,612.876398,-148.041188,9548.656652
645.761606,612.876398,-222.061783,9104.533087
645.761922,689.485948,296.082377,8734.430116
645.762237,612.876398,370.102971,8808.450710
645.762553,842.705048,-74.020594,8882.471304
645.762869,919.314598,-962.267725,9030.512492
645.763185,459.657299,-1110.308913,9178.553681
645.763501,-229.828649,-1110.308913,9622.677246
645.763816,-612.876398,-1480.411884,9992.780217
645.764132,-689.485948,-1702.473667,10288.862594
645.764448,-995.924147,-1776.494261,10732.986159
645.764764,-995.924147,-1036.288319,10658.965565
645.765079,-1072.533697,-1036.288319,10140.821405
645.765395,-1455.581446,-1036.288319,9400.615463
645.765711,-612.876398,-444.123565,9252.574275
645.766027,-459.657299,-296.082377,9178.553681
645.766343,76.609550,-370.102971,9178.553681
645.766658,229.828649,-740.205942,9252.574275
645.766974,153.219100,-1110.308913,9104.533087
645.767290,306.438199,-1332.370696,9548.656652
645.767606,76.609550,-1702.473667,9696.697840
645.767922,229.828649,-1480.411884,10288.862594
645.768237,153.219100,-1110.308913,10584.944971
645.768553,536.266849,-962.267725,10288.862594
645.768869,153.219100,-592.164754,9770.718434
645.769185,0.000000,296.082377,8956.491898
645.769500,229.828649,370.102971,8438.347739
645.769816,612.876398,-0.000000,8660.409521
645.770132,766.095498,-518.144159,8956.491898
645.770448,612.876398,-1184.329507,8808.450710
645.770764,229.828649,-1924.535449,9178.553681
645.771079,0.000000,-2072.576638,9992.780217
645.771395,-229.828649,-1850.514855,9992.780217
645.771711,-229.828649,-1332.370696,10140.821405
645.772027,76.609550,-1110.308913,10362.883188
645.772342,0.000000,-1036.288319,10066.800811
645.772658,-459.657299,-740.205942,9622.677246
645.772974,0.000000,-370.102971,9252.574275
645.773290,383.047749,-296.082377,8956.491898
645.773606,1072.533697,-370.102971,8956.491898
645.773921,1302.362347,-74.020594,8808.450710
645.774237,1532.190996,-518.144159,8586.388927
645.774553,1685.410096,-888.247130,8734.430116
645.774869,1378.971896,-1184.329507,9178.553681
645.775185,919.314598,-740.205942,9474.636058
645.775500,1225.752797,-592.164754,9918.759623
645.775816,1455.581446,-370.102971,10066.800811
645.776132,1225.752797,222.061783,9622.677246
645.776448,842.705048,888.247130,9400.615463
645.776763,1149.143247,1258.350101,8808.450710
645.777079,1072.533697,1406.391290,8438.347739
645.777395,1378.971896,888.247130,8364.327145
645.777711,1378.971896,222.061783,8808.450710
645.778027,1149.143247,-296.082377,8734.430116
645.778342,612.876398,-962.267725,8808.450710
645.778658,383.047749,-888.247130,9178.553681
645.778974,306.438199,-666.185348,9844.739029
645.779290,0.000000,-74.020594,9918.759623
645.779605,229.828649,370.102971,10584.944971
645.779921,0.000000,370.102971,10066.800811
645.780237,-612.876398,814.226536,9696.697840
645.780553,-306.438199,1036.288319,9400.615463
645.780869,229.828649,1406.391290,9326.594869
645.781184,689.485948,1184.329507,9104.533087
645.781500,612.876398,1110.308913,9252.574275
645.781816,689.485948,740.205942,9030.512492
645.782132,306.438199,592.164754,9326.594869
645.782448,229.828649,888.247130,9770.718434
645.782763,306.438199,962.267725,10510.924376
645.783079,306.438199,1184.329507,10288.862594
645.783395,383.047749,1332.370696,10584.944971
645.783711,536.266849,1406.391290,10066.800811
645.784026,0.000000,1850.514855,9844.739029
645.784342,153.219100,2146.597232,9548.656652
645.784658,536.266849,1776.494261,9326.594869
645.784974,1072.533697,1628.453072,9622.677246
645.785290,919.314598,962.267725,9474.636058
645.785605,766.095498,296.082377,9474.636058
645.785921,0.000000,222.061783,10066.800811
645.786237,0.000000,-0.000000,10214.842000
645.786553,-306.438199,296.082377,10510.924376
645.786869,-306.438199,962.267725,10881.027347
645.787184,-383.047749,740.205942,10881.027347
645.787500,0.000000,518.144159,10436.903782
645.787816,-306.438199,518.144159,9622.677246
645.788132,-383.047749,-0.000000,9548.656652
645.788447,0.000000,-370.102971,9548.656652
645.788763,229.828649,-1036.288319,9770.718434
645.789079,536.266849,-666.185348,9326.594869
645.789395,459.657299,-1036.288319,9400.615463
645.789711,459.657299,-962.267725,9622.677246
645.790026,383.047749,-814.226536,9548.656652
645.790342,766.095498,-814.226536,9622.677246
645.790658,766.095498,-444.123565,9696.697840
645.790974,1455.581446,-222.061783,9622.677246
645.791289,995.924147,-518.144159,8882.471304
645.791605,1225.752797,-148.041188,8808.450710
645.791921,1685.410096,-370.102971,8438.347739
645.792237,1532.190996,296.082377,8290.306550
645.792553,1378.971896,-74.020594,8512.368333
645.792868,1149.143247,-666.185348,8660.409521
645.793184,919.314598,-1110.308913,8956.491898
645.793500,306.438199,-1258.350101,9548.656652
645.793816,0.000000,-1702.473667,9548.656652
645.794132,0.000000,-1628.453072,10436.903782
645.794447,0.000000,-1036.288319,10214.842000
645.794763,-229.828649,-740.205942,9548.656652
645.795079,-153.219100,-592.164754,9474.636058
645.795395,0.000000,-296.082377,8882.471304
645.795710,76.609550,-148.041188,8586.388927
645.796026,459.657299,-592.164754,8808.450710
645.796342,766.095498,-666.185348,8734.430116
645.796658,1149.143247,-1110.308913,8734.430116
645.796974,919.314598,-1036.288319,9030.512492
645.797289,919.314598,-814.226536,8956.491898
645.797605,1149.143247,-666.185348,9030.512492
645.797921,1378.971896,-370.102971,9252.574275
645.798237,995.924147,-444.123565,9696.697840
645.798552,689.485948,-0.000000,9474.636058
645.798868,536.266849,-0.000000,8956.491898
645.799184,229.828649,296.082377,8586.388927
645.799500,229.828649,666.185348,8956.491898
645.799816,612.876398,222.061783,9104.533087
645.800131,306.438199,-444.123565,9104.533087
645.800447,0.000000,-666.185348,8882.471304
645.800763,-229.828649,-1184.329507,9770.718434
645.801079,-689.485948,-1184.329507,10214.842000
645.801395,-306.438199,-1110.308913,10881.027347
645.801710,-612.876398,-370.102971,10955.047942
645.802026,-612.876398,-296.082377,10732.986159
645.802342,0.000000,-222.061783,10288.862594
645.802658,-383.047749,666.185348,9770.718434
645.802974,-306.438199,1110.308913,9326.594869
645.803290,0.000000,962.267725,9178.553681
645.803605,689.485948,592.164754,9178.553681
645.803921,919.314598,-518.144159,9252.574275
645.804237,689.485948,-148.041188,9548.656652
645.804553,383.047749,-592.164754,9844.739029
645.804869,229.828649,-518.144159,10066.800811
645.805185,459.657299,-0.000000,10436.903782
645.805500,229.828649,148.041188,10362.883188
645.805816,766.095498,740.205942,10362.883188
645.806132,459.657299,888.247130,9992.780217
645.806448,76.609550,1110.308913,9548.656652
645.806764,766.095498,1332.370696,9548.656652
645.807080,995.924147,1184.329507,9400.615463
645.807396,1149.143247,962.267725,9400.615463
645.807711,995.924147,-0.000000,9474.636058
645.808027,536.266849,-222.061783,9548.656652
645.808343,536.266849,-518.144159,9918.759623
645.808659,459.657299,-592.164754,9918.759623
645.808975,459.657299,-444.123565,10584.944971
645.809291,383.047749,-74.020594,10658.965565
645.809606,612.876398,-74.020594,10140.821405
645.809922,995.924147,148.041188,9844.739029
645.810238,306.438199,296.082377,9400.615463
645.810554,842.705048,444.123565,9030.512492
645.810870,1149.143247,296.082377,8734.430116
645.811186,1455.581446,-148.041188,8512.368333
645.811501,1302.362347,-814.226536,9030.512492
645.811817,995.924147,-1184.329507,9030.512492
645.812133,995.924147,-1554.432478,9400.615463
645.812449,842.705048,-1924.535449,9474.636058
645.812765,842.705048,-1332.370696,9474.636058
645.813081,612.876398,-1406.391290,9474.636058
645.813397,842.705048,-814.226536,10140.821405
645.813712,612.876398,-370.102971,9252.574275
645.814028,689.485948,-444.123565,8512.368333
645.814344,1072.533697,-74.020594,8068.244768
645.814660,1302.362347,-592.164754,8364.327145
645.814976,1072.533697,-962.267725,8216.285956
645.815292,1072.533697,-1184.329507,8512.368333
645.815607,383.047749,-1554.432478,8586.388927
645.815923,0.000000,-2072.576638,9178.553681
645.816239,153.219100,-1850.514855,9844.739029
645.816555,-153.219100,-1332.370696,9918.759623
645.816871,-383.047749,-814.226536,10066.800811
645.817187,-306.438199,-962.267725,9696.697840
645.817502,-459.657299,-740.205942,9178.553681
645.817818,-306.438199,-148.041188,8956.491898
645.818134,0.000000,-0.000000,8734.430116
645.818450,306.438199,-222.061783,8586.388927
645.818766,612.876398,-518.144159,8808.450710
645.819082,689.485948,-370.102971,8734.430116
645.819398,76.609550,-444.123565,9400.615463
645.819713,76.609550,-444.123565,9548.656652
645.820029,153.219100,-592.164754,9622.677246
645.820345,0.000000,-592.164754,9992.780217
645.820661,153.219100,-370.102971,10140.821405
645.820977,306.438199,-222.061783,9548.656652
645.821293,-229.828649,518.144159,9400.615463
645.821608,0.000000,1036.288319,9474.636058
645.821924,153.219100,888.247130,8660.409521
645.822240,536.266849,296.082377,9178.553681
645.822556,383.047749,-444.123565,9474.636058
645.822872,153.219100,-518.144159,9400.615463
645.823188,0.000000,-1110.308913,9770.718434
645.823503,-76.609550,-1184.329507,9918.759623
645.823819,-153.219100,-740.205942,10658.965565
645.824135,0.000000,-518.144159,10807.006753
645.824451,-383.047749,-0.000000,10362.883188
645.824767,-306.438199,222.061783,10140.821405
645.825083,0.000000,518.144159,9474.636058
645.825399,0.000000,666.185348,9178.553681
645.825714,536.266849,222.061783,9178.553681
645.826030,1149.143247,-0.000000,9326.594869
645.826346,1072.533697,-370.102971,9622.677246
645.826662,536.266849,-518.144159,9696.697840
645.826978,383.047749,-666.185348,9548.656652
645.827294,919.314598,-296.082377,9918.759623
645.827609,1072.533697,296.082377,9918.759623
645.827925,842.705048,370.102971,10510.924376
645.828241,995.924147,814.226536,10288.862594
645.828557,995.924147,1258.350101,9622.677246
645.828873,689.485948,1332.370696,8882.471304
645.829189,1149.143247,1332.370696,9178.553681
645.829504,1455.581446,1258.350101,8882.471304
645.829820,1762.019645,1184.329507,8808.450710
645.830136,1991.848295,814.226536,8956.491898
645.830452,1378.971896,296.082377,8882.471304
645.830768,1302.362347,-0.000000,9548.656652
645.831084,995.924147,-0.000000,9696.697840
645.831400,766.095498,-0.000000,9918.759623
645.831715,459.657299,148.041188,10584.944971
645.832031,383.047749,666.185348,10066.800811
645.832347,612.876398,1110.308913,9326.594869
645.832663,306.438199,1406.391290,8660.409521
645.832979,459.657299,1332.370696,8586.388927
645.833295,612.876398,1110.308913,8956.491898
645.833610,1225.752797,-0.000000,8808.450710
645.833926,1072.533697,-444.123565,8734.430116
645.834242,1072.533697,-962.267725,9252.574275
645.834558,766.095498,-962.267725,9400.615463
645.834874,842.705048,-444.123565,9696.697840
645.835190,536.266849,370.102971,9770.718434
645.835505,766.095498,370.102971,9770.718434
645.835821,306.438199,444.123565,9474.636058
645.836137,153.219100,666.185348,9252.574275
645.836453,229.828649,-0.000000,9178.553681
645.836769,459.657299,-0.000000,8882.471304
645.837085,842.705048,-148.041188,9104.533087
645.837401,612.876398,-518.144159,9252.574275
645.837716,536.266849,-888.247130,9474.636058
645.838032,-612.876398,-1110.308913,9548.656652
645.838348,-153.219100,-814.226536,9474.636058
645.838664,-383.047749,-1110.308913,10362.883188
645.838980,-612.876398,-1036.288319,10658.965565
645.839296,-842.705048,-1110.308913,10510.924376
645.839611,-995.924147,-1036.288319,10288.862594
645.839927,-1149.143247,-666.185348,9696.697840
645.840243,-919.314598,-74.020594,9326.594869
645.840559,-612.876398,-0.000000,9178.553681
645.840875,0.000000,-222.061783,9548.656652
645.841191,0.000000,-1036.288319,9844.739029
645.841506,76.609550,-1406.391290,9400.615463
645.841822,0.000000,-1628.453072,9844.739029
645.842138,76.609550,-1702.473667,10140.821405
645.842454,536.266849,-1184.329507,9992.780217
645.842770,383.047749,-592.164754,10288.862594
645.843086,536.266849,-74.020594,9844.739029
645.843402,459.657299,-74.020594,9326.594869
645.843717,459.657299,-0.000000,8956.491898
645.844033,995.924147,-0.000000,8956.491898
645.844349,1225.752797,-74.020594,9104.533087
645.844665,766.095498,-962.267725,9030.512492
645.844981,766.095498,-1184.329507,9030.512492
645.845297,383.047749,-1554.432478,9400.615463
645.845612,0.000000,-1924.535449,10066.800811
645.845928,0.000000,-1776.494261,10066.800811
645.846244,-153.219100,-1702.473667,10510.924376
645.846560,0.000000,-1776.494261,10510.924376
645.846876,229.828649,-2220.617826,10362.883188
645.847192,0.000000,-592.164754,10066.800811
645.847507,306.438199,-222.061783,9104.533087
645.847823,229.828649,-0.000000,8660.409521
645.848139,1149.143247,-222.061783,8364.327145
645.848455,1532.190996,-518.144159,8512.368333
645.848771,1608.800546,-1110.308913,8364.327145
645.849087,1455.581446,-1480.411884,8660.409521
645.849403,1455.581446,-1628.453072,9178.553681
645.849718,1455.581446,-1480.411884,9474.636058
645.850034,1762.019645,-1184.329507,9696.697840
645.850350,1455.581446,-592.164754,9474.636058
645.850666,1302.362347,-0.000000,9326.594869
645.850982,689.485948,222.061783,8364.327145
645.851298,842.705048,814.226536,8142.265362
645.851613,995.924147,962.267725,8438.347739
645.851929,1225.752797,444.123565,8586.388927
645.852245,1149.143247,296.082377,8512.368333
645.852561,536.266849,-0.000000,8512.368333
645.852877,76.609550,-518.144159,8882.471304
645.853193,0.000000,-814.226536,9548.656652
645.853508,-229.828649,-222.061783,9918.759623
645.853824,-306.438199,296.082377,10362.883188
645.854140,-383.047749,518.144159,10362.883188
645.854456,-459.657299,888.247130,9844.739029
645.854772,-536.266849,1628.453072,9474.636058
645.855088,-153.219100,2072.576638,9030.512492
645.855404,229.828649,2368.659014,8882.471304
645.855719,689.485948,2368.659014,8734.430116
645.856035,306.438199,1628.453072,8956.491898
645.856351,536.266849,1628.453072,8882.471304
645.856667,229.828649,740.205942,9622.677246
645.856983,306.438199,444.123565,10140.821405
645.857299,229.828649,592.164754,10510.924376
645.857614,229.828649,1406.391290,10732.986159
645.857930,153.219100,1702.473667,10436.903782
645.858246,76.609550,1924.535449,10214.842000
645.858562,0.000000,2146.597232,9622.677246
645.858878,536.266849,2146.597232,9548.656652
645.859194,459.657299,1998.556043,9474.636058
645.859509,536.266849,1406.391290,9696.697840
645.859825,383.047749,592.164754,9992.780217
645.860141,0.000000,-0.000000,9918.759623
645.860457,229.828649,-370.102971,10288.862594
645.860773,-153.219100,-666.185348,10362.883188
645.861089,-383.047749,-370.102971,11177.109724
645.861405,-153.219100,-74.020594,11325.150913
645.861720,0.000000,-148.041188,11103.089130
645.862036,-306.438199,-74.020594,10510.924376
645.862352,0.000000,370.102971,9770.718434
645.862668,153.219100,666.185348,9474.636058
645.862984,766.095498,222.061783,9474.636058
645.863300,1072.533697,-0.000000,9400.615463
645.863615,766.095498,-1036.288319,9030.512492
645.863931,689.485948,-1110.308913,9326.594869
645.864247,766.095498,-1184.329507,9696.697840
645.864563,842.705048,-1110.308913,9918.759623
645.864879,1149.143247,-888.247130,10140.821405
645.865195,1455.581446,-666.185348,9844.739029
645.865510,1072.533697,-0.000000,9178.553681
645.865826,1149.143247,-0.000000,8808.450710
645.866142,995.924147,-0.000000,8660.409521
645.866458,1302.362347,-370.102971,8512.368333
645.866774,1685.410096,-222.061783,8216.285956
645.867090,1532.190996,-370.102971,8216.285956
645.867406,1455.581446,-592.164754,8290.306550
645.867721,1225.752797,-1258.350101,8438.347739
645.868037,689.485948,-1776.494261,9030.512492
645.868353,536.266849,-1702.473667,9400.615463
645.868669,383.047749,-1332.370696,9844.739029
645.868985,0.000000,-1110.308913,9770.718434
645.869301,76.609550,-740.205942,9104.533087
645.869616,153.219100,-370.102971,8808.450710
645.869932,383.047749,-148.041188,8734.430116
645.870248,536.266849,-296.082377,8216.285956
645.870564,995.924147,-222.061783,7920.203579
645.870880,1072.533697,-740.205942,7994.224174
645.871196,919.314598,-740.205942,8512.368333
645.871511,766.095498,-1332.370696,8956.491898
645.871827,536.266849,-814.226536,8882.471304
645.872143,766.095498,-740.205942,9178.553681
645.872459,536.266849,-592.164754,9918.759623
645.872775,536.266849,-444.123565,9770.718434
645.873091,153.219100,-296.082377,9252.574275
645.873407,459.657299,592.164754,8956.491898
645.873722,229.828649,592.164754,8660.409521
645.874038,229.828649,148.041188,8956.491898
645.874354,0.000000,-0.000000,9178.553681
645.874670,0.000000,-518.144159,9326.594869
645.874986,-306.438199,-518.144159,9474.636058
645.875302,-842.705048,-592.164754,9474.636058
645.875617,-842.705048,-592.164754,10140.821405
645.875933,-689.485948,-518.144159,10732.986159
645.876249,-612.876398,-518.144159,10881.027347
645.876565,-1072.533697,-370.102971,10732.986159
645.876881,-995.924147,-222.061783,10288.862594
645.877197,-689.485948,592.164754,10214.842000
645.877512,0.000000,592.164754,9400.615463
645.877828,0.000000,1110.308913,9696.697840
645.878144,229.828649,888.247130,9548.656652
645.878460,383.047749,592.164754,9252.574275
645.878776,229.828649,-0.000000,9548.656652
645.879092,383.047749,-444.123565,10066.800811
645.879408,383.047749,-148.041188,10362.883188
645.879723,689.485948,296.082377,10510.924376
645.880039,459.657299,592.164754,10732.986159
645.880355,229.828649,518.144159,10436.903782
645.880671,153.219100,814.226536,9992.780217
645.880987,459.657299,962.267725,9696.697840
645.881303,612.876398,1110.308913,9326.594869
645.881618,689.485948,1036.288319,9474.636058
645.881934,1149.143247,-0.000000,9622.677246
645.882250,689.485948,-0.000000,9474.636058
645.882566,229.828649,-666.185348,9696.697840
645.882882,306.438199,-814.226536,10362.883188
645.883198,306.438199,-518.144159,10362.883188
645.883513,459.657299,-370.102971,10436.903782
645.883829,459.657299,-370.102971,10510.924376
645.884145,536.266849,-370.102971,10436.903782
645.884461,612.876398,-0.000000,9474.636058
645.884777,919.314598,592.164754,9252.574275
645.885093,1532.190996,370.102971,8808.450710
645.885409,1915.238745,370.102971,8290.306550
645.885724,2145.067394,-0.000000,8290.306550
645.886040,1991.848295,-888.247130,8216.285956
645.886356,1378.971896,-1406.391290,8734.430116
645.886672,1608.800546,-1776.494261,9178.553681
645.886988,1302.362347,-1480.411884,9474.636058
645.887304,995.924147,-1406.391290,9474.636058
645.887619,612.876398,-888.247130,9548.656652
645.887935,536.266849,-666.185348,9400.615463
645.888251,229.828649,-740.205942,9030.512492
645.888567,383.047749,-370.102971,8438.347739
645.888883,689.485948,-444.123565,7920.203579
645.889199,995.924147,-814.226536,8438.347739
645.889514,1072.533697,-1258.350101,8290.306550
645.889830,995.924147,-1332.370696,8364.327145
645.890146,383.047749,-1480.411884,8734.430116
645.890462,0.000000,-1554.432478,8882.471304
645.890778,0.000000,-1332.370696,9474.636058
645.891094,-229.828649,-1332.370696,10066.800811
645.891410,0.000000,-1036.288319,9770.718434
645.891725,-766.095498,-814.226536,9548.656652
645.892041,-536.266849,-444.123565,9178.553681
645.892357,0.000000,-74.020594,8660.409521
645.892673,0.000000,-0.000000,8438.347739
645.892989,0.000000,-0.000000,8660.409521
645.893305,459.657299,-370.102971,8734.430116
645.893620,306.438199,-518.144159,8882.471304
645.893936,0.000000,-814.226536,9474.636058
645.894252,-306.438199,-1036.288319,9770.718434
645.894568,76.609550,-962.267725,10140.821405
645.894884,76.609550,-518.144159,10510.924376
645.895200,-229.828649,-370.102971,10510.924376
645.895515,-383.047749,222.061783,9918.759623
645.895831,0.000000,814.226536,9474.636058
645.896147,0.000000,1110.308913,9548.656652
645.896463,459.657299,888.247130,9030.512492
645.896779,229.828649,592.164754,9178.553681
645.897095,0.000000,-148.041188,9474.636058
645.897411,306.438199,-1110.308913,9770.718434
645.897726,-306.438199,-1110.308913,10140.821405
645.898042,-306.438199,-1036.288319,10584.944971
645.898358,-383.047749,-888.247130,10807.006753
645.898674,-306.438199,-370.102971,11103.089130
645.898990,-229.828649,-444.123565,10732.986159
645.899306,-306.438199,-0.000000,10214.842000
645.899621,-306.438199,518.144159,9918.759623
645.899937,0.000000,592.164754,9252.574275
645.900253,536.266849,296.082377,9622.677246
645.900569,995.924147,-0.000000,9622.677246
645.900885,919.314598,-0.000000,8882.471304
645.901201,1149.143247,-0.000000,9252.574275
645.901516,995.924147,-814.226536,9992.780217
645.901832,995.924147,-0.000000,9548.656652
645.902148,1149.143247,-0.000000,10140.821405
645.902464,1302.362347,444.123565,9844.739029
645.902780,1378.971896,962.267725,9770.718434
645.903096,919.314598,1480.411884,9104.533087
645.903411,1149.143247,1628.453072,8734.430116
645.903727,1225.752797,1332.370696,8586.388927
645.904043,1608.800546,962.267725,8734.430116
645.904359,1838.629195,592.164754,8586.388927
645.904674,1532.190996,222.061783,9104.533087
645.904990,995.924147,-296.082377,9326.594869
645.905306,689.485948,-444.123565,9548.656652
645.905622,766.095498,-222.061783,9548.656652
645.905937,689.485948,222.061783,9622.677246
645.906253,689.485948,148.041188,10066.800811
645.906569,689.485948,518.144159,9474.636058
645.906885,459.657299,888.247130,8660.409521
645.907200,229.828649,814.226536,8660.409521
645.907516,766.095498,814.226536,8512.368333
645.907832,1455.581446,296.082377,8364.327145
645.908148,1225.752797,-148.041188,8512.368333
645.908463,995.924147,-148.041188,8734.430116
645.908779,919.314598,-592.164754,9178.553681
645.909095,689.485948,-518.144159,9474.636058
645.909410,995.924147,-74.020594,9844.739029
645.909726,1072.533697,222.061783,10066.800811
645.910042,766.095498,444.123565,9696.697840
645.910358,689.485948,740.205942,9178.553681
645.910673,306.438199,1110.308913,8808.450710
645.910989,842.705048,1036.288319,9104.533087
645.911305,383.047749,370.102971,8734.430116
645.911621,459.657299,-0.000000,9178.553681
645.911936,306.438199,-592.164754,9474.636058
645.912252,0.000000,-1258.350101,9622.677246
645.912568,-459.657299,-1776.494261,10066.800811
645.912884,-766.095498,-1628.453072,10510.924376
645.913199,-766.095498,-1258.350101,10955.047942
645.913515,-1302.362347,-814.226536,10658.965565
645.913831,-995.924147,-962.267725,10807.006753
645.914147,-689.485948,-592.164754,10288.862594
645.914462,-1225.752797,-296.082377,9696.697840
645.914778,-766.095498,-74.020594,9622.677246
645.915094,0.000000,-222.061783,9474.636058
645.915410,-76.609550,-814.226536,9252.574275
645.915725,153.219100,-370.102971,9474.636058
645.916041,76.609550,-1110.308913,9696.697840
645.916357,0.000000,-1406.391290,9992.780217
645.916673,0.000000,-1036.288319,9918.759623
645.916988,459.657299,-740.205942,10362.883188
645.917304,0.000000,-0.000000,10510.924376
645.917620,383.047749,-0.000000,9844.739029
645.917936,76.609550,-74.020594,9844.739029
645.918251,383.047749,148.041188,8882.471304
645.918567,536.266849,-74.020594,9252.574275
645.918883,842.705048,-0.000000,8734.430116
645.919199,842.705048,-592.164754,8882.471304
645.919514,459.657299,-1110.308913,9178.553681
645.919830,0.000000,-1628.453072,9696.697840
645.920146,76.609550,-1850.514855,9992.780217
645.920462,153.219100,-1702.473667,10214.842000
645.920777,153.219100,-1258.350101,10288.862594
645.921093,229.828649,-1110.308913,10214.842000
645.921409,612.876398,-1036.288319,9770.718434
645.921725,919.314598,-666.185348,8956.491898
645.922040,766.095498,-222.061783,8882.471304
645.922356,1302.362347,-0.000000,8290.306550
645.922672,1685.410096,-222.061783,8216.285956
645.922988,1608.800546,-666.185348,8512.368333
645.923303,1838.629195,-1406.391290,8734.430116
645.923619,1378.971896,-1628.453072,8808.450710
645.923935,995.924147,-1480.411884,9252.574275
645.924251,1455.581446,-1110.308913,9622.677246
645.924566,1532.190996,-740.205942,9548.656652
645.924882,1149.143247,-222.061783,9770.718434
645.925198,1072.533697,-74.020594,9178.553681
645.925514,689.485948,-0.000000,8734.430116
645.925829,612.876398,-0.000000,8882.471304
645.926145,842.705048,-0.000000,8660.409521
645.926461,1149.143247,-370.102971,8364.327145
645.926777,689.485948,-148.041188,9104.533087
645.927092,536.266849,-370.102971,8808.450710
645.927408,0.000000,-740.205942,9548.656652
645.927724,76.609550,-814.226536,9844.739029
645.928040,0.000000,-592.164754,10140.821405
645.928355,-153.219100,-444.123565,10214.842000
645.928671,-229.828649,-222.061783,10362.883188
645.928987,-536.266849,-0.000000,9918.759623
645.929303,-459.657299,592.164754,9474.636058
645.929618,0.000000,962.267725,8956.491898
645.929934,0.000000,1258.350101,8956.491898
645.930250,995.924147,888.247130,8956.491898
645.930566,612.876398,666.185348,8882.471304
645.930881,459.657299,148.041188,9252.574275
645.931197,0.000000,-0.000000,9622.677246
645.931513,229.828649,-0.000000,9696.697840
645.931829,153.219100,444.123565,10066.800811
645.932144,0.000000,666.185348,10658.965565
645.932460,0.000000,518.144159,10436.903782
645.932776,-306.438199,1036.288319,9548.656652
645.933092,-536.266849,1554.432478,9696.697840
645.933407,153.219100,1702.473667,9326.594869
645.933723,229.828649,1776.494261,9400.615463
645.934039,0.000000,666.185348,9622.677246
645.934355,153.219100,370.102971,9844.739029
645.934670,76.609550,-74.020594,10066.800811
645.934986,-229.828649,-444.123565,10140.821405
645.935302,0.000000,-74.020594,10584.944971
645.935618,-229.828649,666.185348,10881.027347
645.935933,0.000000,666.185348,10510.924376
645.936249,153.219100,1036.288319,10362.883188
645.936565,0.000000,1258.350101,9474.636058
645.936881,153.219100,1258.350101,9474.636058
645.937196,689.485948,666.185348,9030.512492
645.937512,919.314598,518.144159,9400.615463
645.937828,1072.533697,-74.020594,9400.615463
645.938144,919.314598,-814.226536,9400.615463
645.938459,76.609550,-1036.288319,9326.594869
645.938775,0.000000,-1406.391290,9770.718434
645.939091,536.266849,-740.205942,10140.821405
645.939407,306.438199,-148.041188,10362.883188
645.939722,612.876398,-0.000000,9992.780217
645.940038,536.266849,-148.041188,9474.636058
645.940354,842.705048,-0.000000,9400.615463
645.940670,919.314598,-0.000000,8808.450710
645.940985,1149.143247,-0.000000,8142.265362
645.941301,1608.800546,-0.000000,8290.306550
645.941617,1762.019645,-370.102971,8290.306550
645.941933,1532.190996,-222.061783,8438.347739
645.942248,766.095498,-1036.288319,9104.533087
645.942564,536.266849,-1110.308913,9400.615463
645.942880,459.657299,-962.267725,9622.677246
645.943196,229.828649,-740.205942,10140.821405
645.943511,383.047749,-592.164754,9844.739029
645.943827,153.219100,-444.123565,9474.636058
645.944143,229.828649,-296.082377,8956.491898
645.944459,459.657299,222.061783,8438.347739
645.944774,919.314598,222.061783,8660.409521
645.945090,1378.971896,-296.082377,9030.512492
645.945406,1302.362347,-444.123565,8734.430116
645.945722,995.924147,-444.123565,8660.409521
645.946037,995.924147,-1184.329507,9104.533087
645.946353,536.266849,-962.267725,9474.636058
645.946669,842.705048,-444.123565,9844.739029
645.946985,1149.143247,-74.020594,9696.697840
645.947300,919.314598,-0.000000,9400.615463
645.947616,0.000000,-0.000000,9178.553681
645.947932,766.095498,666.185348,8660.409521
645.948248,612.876398,962.267725,8586.388927
645.948563,536.266849,148.041188,8512.368333
645.948879,536.266849,-74.020594,9030.512492
645.949195,306.438199,-740.205942,9104.533087
645.949511,0.000000,-888.247130,9178.553681
645.949826,-536.266849,-1110.308913,9696.697840
645.950142,-536.266849,-1332.370696,10140.821405
645.950458,-612.876398,-1258.350101,10732.986159
645.950774,-1072.533697,-814.226536,10658.965565
645.951089,-1149.143247,-592.164754,10732.986159
645.951405,-1302.362347,-74.020594,10214.842000
645.951721,-1302.362347,444.123565,9696.697840
645.952037,-612.876398,518.144159,9696.697840
645.952352,0.000000,370.102971,9474.636058
645.952668,76.609550,-370.102971,9474.636058
645.952984,153.219100,-370.102971,9548.656652
645.953300,153.219100,-370.102971,9770.718434
645.953615,153.219100,-592.164754,10066.800811
645.953931,76.609550,-148.041188,10140.821405
645.954247,842.705048,-0.000000,10288.862594
645.954563,383.047749,370.102971,10436.903782
645.954878,536.266849,592.164754,9992.780217
645.955194,306.438199,666.185348,9548.656652
645.955510,153.219100,814.226536,9252.574275
645.955826,766.095498,814.226536,9178.553681
645.956141,995.924147,814.226536,9326.594869
645.956457,1302.362347,-0.000000,9474.636058
645.956773,842.705048,-444.123565,9400.615463
645.957089,459.657299,-740.205942,9696.697840
645.957404,383.047749,-1258.350101,9992.780217
645.957720,306.438199,-888.247130,10510.924376
645.958036,383.047749,-888.247130,10510.924376
645.958352,536.266849,-1036.288319,10658.965565
645.958667,306.438199,-444.123565,9992.780217
645.958983,383.047749,-74.020594,9400.615463
645.959299,612.876398,-0.000000,8586.388927
645.959615,1225.752797,296.082377,8512.368333
645.959930,1838.629195,-222.061783,8512.368333
645.960246,1762.019645,-814.226536,8586.388927
645.960562,1532.190996,-1110.308913,8734.430116
645.960878,1149.143247,-1702.473667,9326.594869
645.961193,842.705048,-1628.453072,9474.636058
645.961509,1225.752797,-1184.329507,9400.615463
645.961825,1149.143247,-740.205942,9696.697840
645.962141,1302.362347,-222.061783,9696.697840
645.962456,766.095498,-0.000000,9178.553681
645.962772,459.657299,222.061783,8512.368333
645.963088,689.485948,-0.000000,8586.388927
645.963404,1072.533697,148.041188,8438.347739
645.963719,1225.752797,-370.102971,8290.306550
645.964035,919.314598,-888.247130,8808.450710
645.964351,612.876398,-1554.432478,8956.491898
645.964667,76.609550,-1850.514855,9178.553681
645.964982,-229.828649,-1406.391290,9770.718434
645.965298,0.000000,-740.205942,9844.739029
645.965614,-153.219100,-666.185348,9992.780217
645.965930,-153.219100,-296.082377,9992.780217
645.966245,-459.657299,-222.061783,9622.677246
645.966561,-459.657299,222.061783,8808.450710
645.966877,0.000000,592.164754,8808.450710
645.967193,383.047749,-0.000000,8882.471304
645.967508,229.828649,-296.082377,8808.450710
645.967824,612.876398,-592.164754,8586.388927
645.968140,229.828649,-814.226536,9474.636058
645.968456,229.828649,-1036.288319,9474.636058
645.968771,76.609550,-592.164754,9918.759623
645.969087,76.609550,-370.102971,10288.862594
645.969403,0.000000,-0.000000,10140.821405
645.969719,229.828649,666.185348,9918.759623
645.970034,383.047749,888.247130,9474.636058
645.970350,536.266849,888.247130,9178.553681
645.970666,612.876398,962.267725,9030.512492
645.970982,689.485948,518.144159,9252.574275
645.971297,689.485948,-148.041188,9178.553681
645.971613,536.266849,-370.102971,9474.636058
645.971929,0.000000,-888.247130,9770.718434
645.972244,-306.438199,-1184.329507,10214.842000
645.972560,-383.047749,-1110.308913,10510.924376
645.972876,-459.657299,-962.267725,10881.027347
645.973192,-612.876398,-666.185348,10955.047942
645.973507,-383.047749,-592.164754,10807.006753
645.973823,-536.266849,-148.041188,10214.842000
645.974139,0.000000,592.164754,9622.677246
645.974455,76.609550,296.082377,9252.574275
645.974770,766.095498,518.144159,9178.553681
645.975086,919.314598,-0.000000,8882.471304
645.975402,689.485948,-592.164754,9104.533087
645.975718,842.705048,-740.205942,9696.697840
645.976033,612.876398,-518.144159,9548.656652
645.976349,612.876398,-148.041188,9918.759623
645.976665,919.314598,-74.020594,10214.842000
645.976981,1225.752797,-0.000000,10066.800811
645.977296,459.657299,666.185348,9992.780217
645.977612,459.657299,888.247130,9030.512492
645.977928,383.047749,666.185348,9178.553681
645.978244,842.705048,666.185348,8808.450710
645.978559,1225.752797,740.205942,8438.347739
645.978875,995.924147,148.041188,8808.450710
645.979191,766.095498,-74.020594,8734.430116
645.979507,536.266849,-444.123565,9030.512492
645.979822,459.657299,-592.164754,9474.636058
645.980138,842.705048,-666.185348,9918.759623
645.980454,842.705048,-296.082377,9770.718434
645.980770,689.485948,-0.000000,10066.800811
645.981085,995.924147,222.061783,9622.677246
645.981401,689.485948,592.164754,8882.471304
645.981717,1225.752797,1110.308913,8808.450710
645.982033,1455.581446,1258.350101,8438.347739
645.982348,1838.629195,962.267725,8216.285956
645.982664,1532.190996,666.185348,8290.306550
645.982980,1378.971896,148.041188,8660.409521
645.983296,1378.971896,-666.185348,9400.615463
645.983611,995.924147,-370.102971,9622.677246
645.983927,1225.752797,-370.102971,10140.821405
645.984243,919.314598,-0.000000,10214.842000
645.984559,766.095498,592.164754,10066.800811
645.984874,459.657299,740.205942,9622.677246
645.985190,383.047749,1184.329507,9252.574275
645.985506,536.266849,1036.288319,9474.636058
645.985822,689.485948,444.123565,9178.553681
645.986137,842.705048,-74.020594,9474.636058
645.986453,919.314598,-666.185348,9252.574275
645.986769,306.438199,-666.185348,9400.615463
645.987085,0.000000,-666.185348,9992.780217
645.987400,0.000000,-740.205942,10066.800811
645.987716,0.000000,-814.226536,10658.965565
645.988032,-229.828649,-370.102971,10584.944971
645.988348,-995.924147,-222.061783,10436.903782
645.988663,-919.314598,-296.082377,10140.821405
645.988979,-919.314598,222.061783,9548.656652
645.989295,-689.485948,592.164754,9474.636058
645.989611,76.609550,148.041188,9326.594869
645.989926,153.219100,-296.082377,8956.491898
645.990242,0.000000,-1110.308913,9400.615463
645.990558,0.000000,-1332.370696,9918.759623
645.990874,-229.828649,-1776.494261,10362.883188
645.991189,0.000000,-888.247130,10436.903782
645.991505,0.000000,-444.123565,10436.903782
645.991821,153.219100,-0.000000,10510.924376
645.992137,0.000000,-0.000000,9770.718434
645.992452,229.828649,370.102971,9104.533087
645.992768,153.219100,370.102971,8882.471304
645.993084,689.485948,-0.000000,8956.491898
645.993400,919.314598,-296.082377,8586.388927
645.993715,1532.190996,-814.226536,8808.450710
645.994031,689.485948,-888.247130,8882.471304
645.994347,306.438199,-1036.288319,8956.491898
