#time,accel_x,accel_y,accel_z
509.955970,2528.115143,666.185348,9622.677246
509.956285,2145.067394,518.144159,9622.677246
509.956601,1532.190996,222.061783,9622.677246
509.956917,1608.800546,-148.041188,9770.718434
509.957232,1302.362347,-74.020594,9696.697840
509.957548,1072.533697,-296.082377,9992.780217
509.957863,995.924147,-74.020594,9474.636058
509.958179,1149.143247,-0.000000,9474.636058
509.958495,1225.752797,370.102971,9178.553681
509.958810,1302.362347,444.123565,9252.574275
509.959126,1072.533697,814.226536,9326.594869
509.959441,1149.143247,888.247130,9178.553681
509.959757,919.314598,814.226536,9030.512492
509.960072,612.876398,1258.350101,9104.533087
509.960388,842.705048,1110.308913,9474.636058
509.960704,536.266849,962.267725,9622.677246
509.961019,536.266849,1036.288319,9548.656652
509.961335,612.876398,148.041188,9696.697840
509.961650,459.657299,518.144159,9770.718434
509.961966,76.609550,370.102971,10214.842000
509.962282,153.219100,444.123565,9844.739029
509.962597,76.609550,518.144159,9992.780217
509.962913,383.047749,962.267725,9696.697840
509.963228,612.876398,962.267725,9474.636058
509.963544,689.485948,1184.329507,9474.636058
509.963860,766.095498,1110.308913,9252.574275
509.964175,1072.533697,962.267725,9030.512492
509.964491,842.705048,962.267725,8882.471304
509.964806,919.314598,888.247130,9400.615463
509.965122,612.876398,888.247130,9474.636058
509.965438,842.705048,444.123565,9770.718434
509.965753,536.266849,-0.000000,9992.780217
509.966069,689.485948,-222.061783,10214.842000
509.966384,612.876398,-296.082377,10436.903782
509.966700,919.314598,-518.144159,10362.883188
509.967015,995.924147,-370.102971,10140.821405
509.967331,1455.581446,-0.000000,9844.739029
509.967647,1608.800546,-0.000000,9622.677246
509.967962,1532.190996,74.020594,9474.636058
509.968278,1762.019645,148.041188,9326.594869
509.968593,1991.848295,592.164754,8956.491898
509.968909,1838.629195,370.102971,8586.388927
509.969225,1685.410096,444.123565,8956.491898
509.969540,1455.581446,-0.000000,9030.512492
509.969856,1225.752797,-74.020594,9252.574275
509.970171,842.705048,-296.082377,9622.677246
509.970487,689.485948,-148.041188,9696.697840
509.970803,612.876398,-518.144159,9844.739029
509.971118,383.047749,-222.061783,9770.718434
509.971434,76.609550,-74.020594,9474.636058
509.971749,153.219100,-148.041188,9548.656652
509.972065,76.609550,-518.144159,9326.594869
509.972380,0.000000,-592.164754,9474.636058
509.972696,153.219100,-518.144159,9252.574275
509.973012,153.219100,-370.102971,9400.615463
509.973327,0.000000,-222.061783,9326.594869
509.973643,612.876398,-296.082377,9400.615463
509.973958,536.266849,-0.000000,9030.512492
509.974274,1072.533697,296.082377,8808.450710
509.974590,995.924147,518.144159,8882.471304
509.974905,995.924147,814.226536,8882.471304
509.975221,229.828649,666.185348,8734.430116
509.975536,919.314598,740.205942,8734.430116
509.975852,612.876398,370.102971,8956.491898
509.976168,306.438199,222.061783,9104.533087
509.976483,536.266849,-296.082377,9474.636058
509.976799,536.266849,-148.041188,9770.718434
509.977114,536.266849,-370.102971,9696.697840
509.977430,153.219100,-370.102971,9400.615463
509.977746,153.219100,-518.144159,9918.759623
509.978061,229.828649,-296.082377,9548.656652
509.978377,229.828649,-148.041188,9474.636058
509.978692,536.266849,-148.041188,9400.615463
509.979008,612.876398,148.041188,9474.636058
509.979323,689.485948,296.082377,9548.656652
509.979639,842.705048,-0.000000,9104.533087
509.979955,612.876398,296.082377,9326.594869
509.980270,689.485948,148.041188,9400.615463
509.980586,919.314598,222.061783,9400.615463
509.980901,766.095498,-0.000000,9474.636058
509.981217,689.485948,-0.000000,9400.615463
509.981533,612.876398,-0.000000,9696.697840
509.981848,383.047749,-0.000000,9844.739029
509.982164,153.219100,-148.041188,10066.800811
509.982480,229.828649,-74.020594,9918.759623
509.982795,0.000000,-148.041188,9696.697840
509.983111,0.000000,-74.020594,9992.780217
509.983426,-153.219100,-222.061783,9696.697840
509.983742,-383.047749,-0.000000,9918.759623
509.984058,-229.828649,-74.020594,9918.759623
509.984373,-153.219100,-148.041188,9548.656652
509.984689,-383.047749,-148.041188,9844.739029
509.985005,-76.609550,-0.000000,9844.739029
509.985320,153.219100,-74.020594,9474.636058
509.985636,612.876398,222.061783,9474.636058
509.985952,612.876398,-0.000000,9548.656652
509.986267,459.657299,444.123565,9474.636058
509.986583,689.485948,370.102971,9252.574275
509.986898,612.876398,222.061783,9252.574275
509.987214,383.047749,-0.000000,9326.594869
509.987530,383.047749,-0.000000,9326.594869
509.987845,459.657299,-0.000000,9252.574275
509.988161,0.000000,-444.123565,9400.615463
509.988477,-153.219100,-444.123565,9400.615463
509.988792,0.000000,-888.247130,9696.697840
509.989108,-459.657299,-592.164754,9770.718434
509.989424,0.000000,-814.226536,9474.636058
509.989739,-153.219100,-814.226536,9400.615463
509.990055,-153.219100,-1110.308913,9474.636058
509.990370,306.438199,-888.247130,9400.615463
509.990686,0.000000,-1110.308913,9474.636058
509.991002,-153.219100,-1036.288319,9400.615463
509.991317,229.828649,-962.267725,9474.636058
509.991633,306.438199,-962.267725,9326.594869
509.991949,766.095498,-962.267725,9252.574275
509.992264,536.266849,-888.247130,9104.533087
509.992580,536.266849,-962.267725,9178.553681
509.992896,536.266849,-814.226536,9178.553681
509.993211,689.485948,-814.226536,9104.533087
509.993527,842.705048,-814.226536,8956.491898
509.993842,612.876398,-740.205942,9030.512492
509.994158,689.485948,-740.205942,8956.491898
509.994474,459.657299,-592.164754,9030.512492
509.994789,459.657299,-740.205942,9178.553681
509.995105,0.000000,-814.226536,9474.636058
509.995421,153.219100,-814.226536,9400.615463
509.995736,153.219100,-962.267725,9548.656652
509.996052,0.000000,-592.164754,9622.677246
509.996368,383.047749,-888.247130,9548.656652
509.996683,229.828649,-296.082377,9326.594869
509.996999,229.828649,-74.020594,9326.594869
509.997314,459.657299,-0.000000,9104.533087
509.997630,612.876398,592.164754,9104.533087
509.997946,919.314598,592.164754,8882.471304
509.998261,1149.143247,814.226536,9030.512492
509.998577,842.705048,814.226536,9104.533087
509.998893,766.095498,814.226536,9178.553681
509.999208,1225.752797,592.164754,9326.594869
509.999524,1149.143247,444.123565,9474.636058
509.999840,842.705048,592.164754,9622.677246
510.000155,995.924147,370.102971,9770.718434
510.000471,612.876398,518.144159,9696.697840
510.000786,153.219100,592.164754,9844.739029
510.001102,536.266849,444.123565,9844.739029
510.001418,383.047749,518.144159,9918.759623
510.001733,536.266849,740.205942,9844.739029
510.002049,383.047749,592.164754,9844.739029
510.002365,842.705048,666.185348,9844.739029
510.002680,459.657299,592.164754,9918.759623
510.002996,919.314598,518.144159,9770.718434
510.003312,766.095498,592.164754,9548.656652
510.003627,919.314598,592.164754,9696.697840
510.003943,1072.533697,518.144159,9622.677246
510.004258,919.314598,444.123565,9622.677246
510.004574,995.924147,592.164754,9844.739029
510.004890,842.705048,444.123565,9622.677246
510.005205,689.485948,518.144159,9622.677246
510.005521,76.609550,592.164754,9918.759623
510.005837,383.047749,222.061783,9770.718434
510.006152,612.876398,370.102971,9548.656652
510.006468,76.609550,518.144159,9622.677246
510.006784,0.000000,-0.000000,9474.636058
510.007099,-306.438199,-0.000000,9622.677246
510.007415,-459.657299,-296.082377,9696.697840
510.007730,-459.657299,-444.123565,9696.697840
510.008046,-689.485948,-740.205942,9770.718434
510.008362,-842.705048,-666.185348,10066.800811
510.008677,-459.657299,-888.247130,10140.821405
510.008993,-306.438199,-518.144159,9770.718434
510.009309,-153.219100,-296.082377,9548.656652
510.009624,0.000000,-296.082377,9474.636058
510.009940,612.876398,-518.144159,9178.553681
510.010256,306.438199,-444.123565,9178.553681
510.010571,459.657299,-0.000000,8882.471304
510.010887,536.266849,-296.082377,8734.430116
510.011202,612.876398,-518.144159,8882.471304
510.011518,76.609550,-444.123565,9252.574275
510.011834,306.438199,-814.226536,8882.471304
510.012149,306.438199,-888.247130,9252.574275
510.012465,153.219100,-1036.288319,9178.553681
510.012781,383.047749,-1036.288319,9326.594869
510.013096,76.609550,-1406.391290,9548.656652
510.013412,153.219100,-1258.350101,9548.656652
510.013728,0.000000,-1258.350101,9252.574275
510.014043,0.000000,-1258.350101,9400.615463
510.014359,383.047749,-1258.350101,9326.594869
510.014674,459.657299,-1036.288319,9474.636058
510.014990,919.314598,-1110.308913,9252.574275
510.015306,1072.533697,-962.267725,8882.471304
510.015621,1302.362347,-888.247130,8808.450710
510.015937,1608.800546,-962.267725,8882.471304
510.016253,1149.143247,-962.267725,9104.533087
510.016568,1838.629195,-592.164754,9030.512492
510.016884,1762.019645,-592.164754,8956.491898
510.017200,1685.410096,-370.102971,9104.533087
510.017515,1302.362347,-592.164754,9252.574275
510.017831,1225.752797,-296.082377,9696.697840
510.018146,1455.581446,-370.102971,9178.553681
510.018462,919.314598,-444.123565,9252.574275
510.018778,842.705048,-370.102971,9770.718434
510.019093,689.485948,-370.102971,9770.718434
510.019409,612.876398,-370.102971,9622.677246
510.019725,689.485948,-296.082377,9844.739029
510.020040,689.485948,-0.000000,9548.656652
510.020356,612.876398,-0.000000,9770.718434
510.020672,612.876398,-0.000000,9696.697840
510.020987,612.876398,-0.000000,9622.677246
510.021303,459.657299,-0.000000,9622.677246
510.021618,536.266849,222.061783,9696.697840
510.021934,766.095498,370.102971,9474.636058
510.022250,612.876398,518.144159,9622.677246
510.022565,612.876398,370.102971,9622.677246
510.022881,536.266849,666.185348,9474.636058
510.023197,306.438199,666.185348,9622.677246
510.023512,383.047749,444.123565,9696.697840
510.023828,0.000000,518.144159,9844.739029
510.024144,0.000000,740.205942,9548.656652
510.024459,-612.876398,296.082377,9844.739029
510.024775,-459.657299,370.102971,9770.718434
510.025090,-536.266849,-0.000000,9844.739029
510.025406,-306.438199,-444.123565,9918.759623
510.025722,-766.095498,-222.061783,9918.759623
510.026037,-919.314598,-592.164754,10140.821405
510.026353,-842.705048,-296.082377,10140.821405
510.026669,-766.095498,-296.082377,10066.800811
510.026984,-459.657299,-74.020594,10066.800811
510.027300,-612.876398,-0.000000,9992.780217
510.027616,76.609550,-0.000000,9474.636058
510.027931,0.000000,148.041188,9326.594869
510.028247,306.438199,148.041188,9326.594869
510.028562,306.438199,-0.000000,9252.574275
510.028878,919.314598,148.041188,9030.512492
510.029194,383.047749,296.082377,9252.574275
510.029509,536.266849,-148.041188,8956.491898
510.029825,306.438199,222.061783,9696.697840
510.030141,0.000000,-296.082377,9474.636058
510.030456,153.219100,-0.000000,9400.615463
510.030772,383.047749,-296.082377,9252.574275
510.031088,76.609550,-370.102971,9548.656652
510.031403,229.828649,-444.123565,9548.656652
510.031719,0.000000,-444.123565,9474.636058
510.032034,76.609550,-296.082377,9548.656652
510.032350,689.485948,-222.061783,9326.594869
510.032666,689.485948,-74.020594,9104.533087
510.032981,766.095498,-148.041188,8882.471304
510.033297,1149.143247,-74.020594,9178.553681
510.033613,1149.143247,296.082377,8734.430116
510.033928,1455.581446,-0.000000,8882.471304
510.034244,1532.190996,-0.000000,9030.512492
510.034560,1302.362347,-0.000000,9252.574275
510.034875,1455.581446,-0.000000,8956.491898
510.035191,1378.971896,-0.000000,9104.533087
510.035506,1685.410096,-0.000000,9252.574275
510.035822,1072.533697,-222.061783,9400.615463
510.036138,1072.533697,-148.041188,9548.656652
510.036453,689.485948,-222.061783,9548.656652
510.036769,1072.533697,-148.041188,9474.636058
510.037085,536.266849,-222.061783,9622.677246
510.037400,1072.533697,-222.061783,9622.677246
510.037716,919.314598,-296.082377,9474.636058
510.038032,766.095498,-74.020594,9400.615463
510.038347,842.705048,-296.082377,9474.636058
510.038663,919.314598,-296.082377,9400.615463
510.038978,612.876398,-74.020594,9844.739029
510.039294,919.314598,-0.000000,9474.636058
510.039610,1072.533697,-0.000000,9474.636058
510.039925,689.485948,-0.000000,9474.636058
510.040241,689.485948,-0.000000,9622.677246
510.040557,919.314598,-0.000000,9548.656652
510.040872,689.485948,-0.000000,9622.677246
510.041188,383.047749,-0.000000,9548.656652
510.041504,229.828649,-0.000000,9474.636058
510.041819,0.000000,-222.061783,9696.697840
510.042135,-229.828649,-222.061783,9622.677246
510.042450,-383.047749,-370.102971,9844.739029
510.042766,-612.876398,-370.102971,9844.739029
510.043082,-689.485948,-740.205942,9844.739029
510.043397,-766.095498,-888.247130,9992.780217
510.043713,-1225.752797,-1036.288319,9992.780217
510.044029,-1225.752797,-666.185348,10140.821405
510.044344,-1072.533697,-370.102971,9770.718434
510.044660,-919.314598,-370.102971,9696.697840
510.044976,-612.876398,-222.061783,9770.718434
510.045291,-459.657299,-148.041188,9474.636058
510.045607,-306.438199,-0.000000,9474.636058
510.045922,-153.219100,-74.020594,9252.574275
510.046238,0.000000,-74.020594,9030.512492
510.046554,-76.609550,-74.020594,9178.553681
510.046869,383.047749,-148.041188,8882.471304
510.047185,0.000000,-370.102971,9178.553681
510.047501,0.000000,-370.102971,9326.594869
510.047816,0.000000,-592.164754,9400.615463
510.048132,-536.266849,-888.247130,9400.615463
510.048448,-306.438199,-592.164754,9474.636058
510.048763,-536.266849,-814.226536,9548.656652
510.049079,-383.047749,-814.226536,9548.656652
510.049394,-536.266849,-666.185348,9844.739029
510.049710,0.000000,-592.164754,9474.636058
510.050026,229.828649,-148.041188,9474.636058
510.050341,229.828649,-518.144159,9326.594869
510.050657,689.485948,-296.082377,9030.512492
510.050973,842.705048,-296.082377,8808.450710
510.051288,1072.533697,-222.061783,9030.512492
510.051604,1608.800546,-222.061783,8882.471304
510.051920,1915.238745,-74.020594,9252.574275
510.052235,1685.410096,-0.000000,8956.491898
510.052551,1762.019645,-0.000000,9252.574275
510.052866,1455.581446,-74.020594,9400.615463
510.053182,1302.362347,-0.000000,9252.574275
510.053498,1072.533697,-0.000000,9252.574275
510.053813,1149.143247,-0.000000,9548.656652
510.054129,1072.533697,-0.000000,9474.636058
510.054445,1225.752797,-74.020594,9696.697840
510.054760,1149.143247,-0.000000,9622.677246
510.055076,1072.533697,-0.000000,9474.636058
510.055392,919.314598,-0.000000,9696.697840
510.055707,919.314598,-74.020594,9178.553681
510.056023,1225.752797,-74.020594,9696.697840
510.056338,842.705048,296.082377,9844.739029
510.056654,1225.752797,444.123565,9474.636058
510.056970,995.924147,296.082377,9548.656652
510.057285,1149.143247,296.082377,9474.636058
510.057601,919.314598,296.082377,9622.677246
510.057917,842.705048,444.123565,9622.677246
510.058232,919.314598,444.123565,9696.697840
510.058548,919.314598,-0.000000,9548.656652
510.058864,536.266849,222.061783,9992.780217
510.059179,766.095498,-0.000000,9844.739029
510.059495,0.000000,-74.020594,9844.739029
510.059810,-153.219100,-74.020594,9696.697840
510.060126,-459.657299,-222.061783,9844.739029
510.060442,-536.266849,-444.123565,9696.697840
510.060757,-766.095498,-370.102971,9918.759623
510.061073,-689.485948,-814.226536,9992.780217
510.061389,-842.705048,-962.267725,9992.780217
510.061704,-766.095498,-814.226536,10140.821405
510.062020,-842.705048,-740.205942,10066.800811
510.062336,-689.485948,-296.082377,9770.718434
510.062651,-459.657299,-740.205942,9696.697840
510.062967,-153.219100,-296.082377,9548.656652
510.063282,229.828649,-222.061783,9400.615463
510.063598,229.828649,-370.102971,9104.533087
510.063914,306.438199,-222.061783,9178.553681
510.064229,459.657299,-296.082377,8808.450710
510.064545,459.657299,-222.061783,9178.553681
510.064861,459.657299,-296.082377,9030.512492
510.065176,536.266849,-518.144159,9252.574275
510.065492,153.219100,-444.123565,9326.594869
510.065808,306.438199,-592.164754,9474.636058
510.066123,-153.219100,-888.247130,9474.636058
510.066439,0.000000,-888.247130,9474.636058
510.066754,76.609550,-666.185348,9474.636058
510.067070,0.000000,-740.205942,9400.615463
510.067386,0.000000,-518.144159,9474.636058
510.067701,76.609550,-518.144159,9400.615463
510.068017,383.047749,-444.123565,9104.533087
510.068333,995.924147,-296.082377,9178.553681
510.068648,1072.533697,-148.041188,8956.491898
510.068964,1149.143247,-370.102971,8808.450710
510.069280,1378.971896,-0.000000,8660.409521
510.069595,1762.019645,-0.000000,8808.450710
510.069911,2298.286494,-0.000000,8808.450710
510.070226,1838.629195,148.041188,8956.491898
510.070542,1838.629195,222.061783,8956.491898
510.070858,1532.190996,222.061783,9252.574275
510.071173,1378.971896,222.061783,9326.594869
510.071489,1532.190996,-0.000000,9474.636058
510.071805,1072.533697,-0.000000,9622.677246
510.072120,1072.533697,-0.000000,9474.636058
510.072436,1072.533697,-0.000000,9474.636058
510.072752,919.314598,-0.000000,9622.677246
510.073067,1378.971896,-74.020594,9400.615463
510.073383,842.705048,-0.000000,9548.656652
510.073698,995.924147,296.082377,9622.677246
510.074014,995.924147,444.123565,9474.636058
510.074330,1915.238745,296.082377,9696.697840
510.074645,1302.362347,222.061783,9474.636058
510.074961,1608.800546,444.123565,9548.656652
510.075277,1149.143247,518.144159,9474.636058
510.075592,1149.143247,666.185348,9696.697840
510.075908,919.314598,962.267725,9474.636058
510.076224,995.924147,518.144159,9622.677246
510.076539,842.705048,444.123565,9770.718434
510.076855,383.047749,592.164754,9622.677246
510.077170,76.609550,296.082377,9844.739029
510.077486,0.000000,-0.000000,10140.821405
510.077802,0.000000,-74.020594,9696.697840
510.078117,-383.047749,-222.061783,9770.718434
510.078433,-689.485948,-370.102971,9918.759623
510.078749,-766.095498,-222.061783,10066.800811
510.079064,-536.266849,-962.267725,10362.883188
510.079380,-689.485948,-740.205942,10214.842000
510.079696,-919.314598,-370.102971,10140.821405
510.080011,-766.095498,-296.082377,10066.800811
510.080327,-536.266849,-296.082377,9548.656652
510.080642,-306.438199,-222.061783,9474.636058
510.080958,-306.438199,-74.020594,9326.594869
510.081274,229.828649,-74.020594,9104.533087
510.081589,0.000000,-0.000000,9104.533087
510.081905,0.000000,-74.020594,9030.512492
510.082221,536.266849,-222.061783,8882.471304
510.082536,0.000000,-370.102971,9030.512492
510.082852,-229.828649,-592.164754,9400.615463
510.083168,-306.438199,-666.185348,9474.636058
510.083483,-383.047749,-740.205942,9474.636058
510.083799,-842.705048,-814.226536,9918.759623
510.084114,-766.095498,-1036.288319,9326.594869
510.084430,-842.705048,-1184.329507,9696.697840
510.084746,-459.657299,-1110.308913,9474.636058
510.085061,-153.219100,-1036.288319,9474.636058
510.085377,0.000000,-1184.329507,9400.615463
510.085693,0.000000,-740.205942,9030.512492
510.086008,153.219100,-1036.288319,8808.450710
510.086324,536.266849,-740.205942,8956.491898
510.086639,1072.533697,-370.102971,8808.450710
510.086955,842.705048,-592.164754,8660.409521
510.087271,1455.581446,-370.102971,8660.409521
510.087586,1608.800546,-222.061783,8512.368333
510.087902,1532.190996,-296.082377,8882.471304
510.088218,1685.410096,-814.226536,8882.471304
510.088533,1225.752797,-296.082377,9104.533087
510.088849,1149.143247,-222.061783,9178.553681
510.089164,919.314598,-444.123565,9400.615463
510.089480,766.095498,-296.082377,9400.615463
510.089796,689.485948,-148.041188,9622.677246
510.090111,536.266849,-592.164754,9548.656652
510.090427,766.095498,-444.123565,9696.697840
510.090743,689.485948,-148.041188,9548.656652
510.091058,919.314598,-296.082377,9548.656652
510.091374,1225.752797,-0.000000,9548.656652
510.091689,842.705048,-0.000000,9474.636058
510.092005,1072.533697,-0.000000,9548.656652
510.092321,1072.533697,-148.041188,9474.636058
510.092636,919.314598,-0.000000,9474.636058
510.092952,1302.362347,296.082377,9548.656652
510.093268,1072.533697,370.102971,9400.615463
510.093583,766.095498,222.061783,9548.656652
510.093899,689.485948,370.102971,9548.656652
510.094214,383.047749,666.185348,9770.718434
510.094530,459.657299,296.082377,9918.759623
510.094846,0.000000,444.123565,9622.677246
510.095161,-153.219100,-0.000000,9844.739029
510.095477,-229.828649,148.041188,9992.780217
510.095793,0.000000,-370.102971,9992.780217
510.096108,-689.485948,-148.041188,10066.800811
510.096424,-842.705048,-444.123565,10288.862594
510.096740,-842.705048,-518.144159,10288.862594
510.097055,-842.705048,-444.123565,10140.821405
510.097371,-689.485948,-370.102971,10288.862594
510.097686,-612.876398,-0.000000,10066.800811
510.098002,-459.657299,-0.000000,9696.697840
510.098318,-306.438199,-0.000000,9474.636058
510.098633,-306.438199,-0.000000,9844.739029
510.098949,76.609550,148.041188,9252.574275
510.099265,306.438199,-0.000000,9252.574275
510.099580,229.828649,-0.000000,9326.594869
510.099896,229.828649,-296.082377,9104.533087
510.100211,229.828649,-0.000000,9178.553681
510.100527,229.828649,-222.061783,9252.574275
510.100843,76.609550,-296.082377,9252.574275
510.101158,76.609550,-444.123565,9474.636058
510.101474,-153.219100,-370.102971,9548.656652
510.101790,-229.828649,-518.144159,9844.739029
510.102105,0.000000,-666.185348,9696.697840
510.102421,0.000000,-666.185348,9474.636058
510.102736,0.000000,-666.185348,9474.636058
510.103052,76.609550,-592.164754,9548.656652
510.103368,0.000000,-148.041188,9474.636058
510.103683,612.876398,-0.000000,9178.553681
510.103999,842.705048,-148.041188,8956.491898
510.104315,919.314598,-0.000000,9030.512492
510.104630,1225.752797,-74.020594,8660.409521
510.104946,1455.581446,-74.020594,8808.450710
510.105261,1608.800546,-0.000000,8882.471304
510.105577,1838.629195,148.041188,9030.512492
510.105893,1532.190996,-0.000000,9030.512492
510.106208,1608.800546,148.041188,8882.471304
510.106524,1378.971896,-222.061783,9030.512492
510.106840,995.924147,-0.000000,9400.615463
510.107155,1225.752797,-0.000000,9474.636058
510.107471,1225.752797,-74.020594,9474.636058
510.107786,1455.581446,-0.000000,9548.656652
510.108102,995.924147,-148.041188,9548.656652
510.108418,1072.533697,-0.000000,9622.677246
510.108733,1072.533697,-222.061783,9474.636058
510.109049,1149.143247,-0.000000,9474.636058
510.109365,1455.581446,-0.000000,9326.594869
510.109680,1302.362347,-222.061783,9178.553681
510.109996,1149.143247,222.061783,9696.697840
510.110312,1532.190996,-0.000000,9622.677246
510.110627,1302.362347,370.102971,9548.656652
510.110943,1225.752797,222.061783,9548.656652
510.111258,919.314598,370.102971,9622.677246
510.111574,919.314598,370.102971,9548.656652
510.111890,766.095498,296.082377,9548.656652
510.112205,536.266849,370.102971,9548.656652
510.112521,842.705048,148.041188,9918.759623
510.112837,383.047749,296.082377,9770.718434
510.113152,306.438199,-74.020594,9844.739029
510.113468,0.000000,-222.061783,9992.780217
510.113783,-229.828649,-444.123565,10214.842000
510.114099,-919.314598,-814.226536,10140.821405
510.114415,-689.485948,-740.205942,10436.903782
510.114730,-536.266849,-666.185348,10362.883188
510.115046,-536.266849,-296.082377,10066.800811
510.115362,-459.657299,-222.061783,9992.780217
510.115677,-919.314598,-74.020594,9918.759623
510.115993,-383.047749,-518.144159,9622.677246
510.116308,0.000000,-0.000000,9622.677246
510.116624,229.828649,-0.000000,9400.615463
510.116940,229.828649,-148.041188,9104.533087
510.117255,306.438199,-296.082377,8956.491898
510.117571,306.438199,-444.123565,9104.533087
510.117887,153.219100,-296.082377,9252.574275
510.118202,306.438199,-444.123565,9178.553681
510.118518,76.609550,-666.185348,9252.574275
510.118833,0.000000,-666.185348,9474.636058
510.119149,-459.657299,-888.247130,9474.636058
510.119465,-306.438199,-962.267725,9548.656652
510.119780,-459.657299,-962.267725,9474.636058
510.120096,-383.047749,-962.267725,9622.677246
510.120412,-229.828649,-814.226536,9474.636058
510.120727,0.000000,-888.247130,9400.615463
510.121043,153.219100,-740.205942,9178.553681
510.121358,459.657299,-592.164754,8956.491898
510.121674,459.657299,-518.144159,8882.471304
510.121990,1072.533697,-296.082377,8660.409521
510.122305,1532.190996,-518.144159,8660.409521
510.122621,1072.533697,-444.123565,8660.409521
510.122937,1532.190996,-222.061783,8734.430116
510.123252,1608.800546,-296.082377,8660.409521
510.123568,1302.362347,-74.020594,8956.491898
510.123884,1149.143247,-296.082377,9030.512492
510.124199,1302.362347,-222.061783,9400.615463
510.124515,1149.143247,-222.061783,9252.574275
510.124830,919.314598,-0.000000,9474.636058
510.125146,689.485948,-518.144159,9400.615463
510.125462,995.924147,-222.061783,9474.636058
510.125777,459.657299,-74.020594,9474.636058
510.126093,766.095498,-148.041188,9622.677246
510.126409,1302.362347,-74.020594,9474.636058
510.126724,842.705048,-74.020594,9474.636058
510.127040,842.705048,-222.061783,9252.574275
510.127355,766.095498,-0.000000,9548.656652
510.127671,842.705048,-0.000000,9548.656652
510.127987,1685.410096,222.061783,9622.677246
510.128302,1072.533697,518.144159,9474.636058
510.128618,919.314598,222.061783,9548.656652
510.128934,766.095498,444.123565,9918.759623
510.129249,689.485948,370.102971,9696.697840
510.129565,536.266849,518.144159,9992.780217
510.129880,383.047749,-0.000000,9770.718434
510.130196,153.219100,-0.000000,9770.718434
510.130512,0.000000,-0.000000,9844.739029
510.130827,0.000000,-0.000000,9844.739029
510.131143,-229.828649,-222.061783,9992.780217
510.131459,-459.657299,-370.102971,9992.780217
510.131774,-536.266849,-518.144159,10288.862594
510.132090,-536.266849,-666.185348,10288.862594
510.132405,-766.095498,-592.164754,10140.821405
510.132721,-919.314598,-518.144159,10362.883188
510.133037,-689.485948,-222.061783,10214.842000
510.133352,-612.876398,-148.041188,9696.697840
510.133668,-383.047749,-222.061783,9770.718434
510.133984,0.000000,-518.144159,9474.636058
510.134299,229.828649,-296.082377,9252.574275
510.134615,383.047749,-370.102971,9104.533087
510.134930,229.828649,-222.061783,8882.471304
510.135246,306.438199,-222.061783,9178.553681
510.135562,306.438199,-296.082377,9400.615463
510.135877,229.828649,-592.164754,9252.574275
510.136193,0.000000,-666.185348,9104.533087
510.136509,0.000000,-666.185348,9548.656652
510.136824,-153.219100,-814.226536,9622.677246
510.137140,-536.266849,-962.267725,9400.615463
510.137456,-229.828649,-666.185348,9696.697840
510.137771,0.000000,-666.185348,9474.636058
510.138087,0.000000,-740.205942,9400.615463
510.138402,0.000000,-444.123565,9400.615463
510.138718,306.438199,-518.144159,9474.636058
510.139034,459.657299,-370.102971,9178.553681
510.139349,689.485948,-222.061783,8956.491898
510.139665,1225.752797,-296.082377,8808.450710
510.139981,1608.800546,-222.061783,8882.471304
510.140296,1225.752797,-74.020594,8586.388927
510.140612,1378.971896,-148.041188,8956.491898
510.140927,1302.362347,222.061783,9030.512492
510.141243,1532.190996,148.041188,8882.471304
510.141559,1455.581446,-0.000000,9326.594869
510.141874,1225.752797,222.061783,9178.553681
510.142190,995.924147,-74.020594,9178.553681
510.142506,1072.533697,-0.000000,9474.636058
510.142821,995.924147,-0.000000,9400.615463
510.143137,919.314598,-0.000000,9622.677246
510.143452,306.438199,-148.041188,9474.636058
510.143768,919.314598,-0.000000,9400.615463
510.144084,1072.533697,-0.000000,9548.656652
510.144399,1302.362347,148.041188,9474.636058
510.144715,1149.143247,222.061783,9548.656652
510.145031,1072.533697,518.144159,9548.656652
510.145346,995.924147,370.102971,9548.656652
510.145662,1225.752797,518.144159,9548.656652
510.145977,1302.362347,296.082377,9622.677246
510.146293,919.314598,592.164754,9622.677246
510.146609,995.924147,518.144159,9770.718434
510.146924,766.095498,370.102971,9474.636058
510.147240,459.657299,666.185348,9622.677246
510.147556,0.000000,444.123565,10140.821405
510.147871,0.000000,296.082377,9696.697840
510.148187,0.000000,222.061783,9992.780217
510.148502,0.000000,148.041188,9844.739029
510.148818,-153.219100,-0.000000,9770.718434
510.149134,-459.657299,-222.061783,10288.862594
510.149449,-766.095498,-370.102971,10140.821405
510.149765,-689.485948,-444.123565,10140.821405
510.150081,-995.924147,-296.082377,10214.842000
510.150396,-306.438199,-592.164754,10362.883188
510.150712,-919.314598,-222.061783,9992.780217
510.151027,-842.705048,-148.041188,9918.759623
510.151343,0.000000,-0.000000,9770.718434
510.151659,-229.828649,148.041188,9474.636058
510.151974,0.000000,-0.000000,9400.615463
510.152290,153.219100,-0.000000,9030.512492
510.152606,536.266849,-74.020594,9178.553681
510.152921,229.828649,-148.041188,9252.574275
510.153237,383.047749,-148.041188,9326.594869
510.153553,0.000000,-518.144159,9178.553681
510.153868,0.000000,-1036.288319,9622.677246
510.154184,0.000000,-666.185348,9474.636058
510.154499,-306.438199,-592.164754,9548.656652
510.154815,-306.438199,-962.267725,9770.718434
510.155131,0.000000,-1110.308913,9622.677246
510.155446,-229.828649,-1036.288319,9548.656652
510.155762,0.000000,-888.247130,9400.615463
510.156078,0.000000,-740.205942,9548.656652
510.156393,76.609550,-888.247130,9178.553681
510.156709,689.485948,-518.144159,9030.512492
510.157024,689.485948,-740.205942,9104.533087
510.157340,1072.533697,-222.061783,8586.388927
510.157656,1302.362347,-296.082377,8660.409521
510.157971,1455.581446,-444.123565,8660.409521
510.158287,1455.581446,-222.061783,8882.471304
510.158603,1532.190996,-148.041188,8956.491898
510.158918,1378.971896,-370.102971,8956.491898
510.159234,1225.752797,-370.102971,8882.471304
510.159549,1302.362347,-148.041188,9178.553681
510.159865,1532.190996,-296.082377,9326.594869
510.160181,1149.143247,-296.082377,9474.636058
510.160496,842.705048,-518.144159,9326.594869
510.160812,919.314598,-444.123565,9474.636058
510.161128,689.485948,-444.123565,9474.636058
510.161443,229.828649,-518.144159,9622.677246
510.161759,766.095498,-296.082377,9474.636058
510.162074,842.705048,-148.041188,9474.636058
510.162390,919.314598,-148.041188,9474.636058
510.162706,919.314598,-74.020594,9400.615463
510.163021,919.314598,-148.041188,9548.656652
510.163337,1225.752797,-0.000000,9474.636058
510.163653,919.314598,74.020594,9474.636058
510.163968,995.924147,222.061783,9474.636058
510.164284,842.705048,222.061783,9548.656652
510.164599,536.266849,-148.041188,9844.739029
510.164915,536.266849,-0.000000,9548.656652
510.165231,459.657299,148.041188,9918.759623
510.165546,76.609550,-0.000000,9844.739029
510.165862,153.219100,-0.000000,9770.718434
510.166178,0.000000,-0.000000,9918.759623
510.166493,-766.095498,-222.061783,9918.759623
510.166809,0.000000,-74.020594,9770.718434
510.167125,-306.438199,-296.082377,10066.800811
510.167440,-612.876398,-666.185348,10140.821405
510.167756,-842.705048,-592.164754,10732.986159
510.168071,-536.266849,-518.144159,10066.800811
510.168387,-612.876398,-444.123565,10066.800811
510.168703,-459.657299,-296.082377,9918.759623
510.169018,-383.047749,-0.000000,9918.759623
510.169334,-306.438199,-148.041188,9474.636058
510.169650,0.000000,-0.000000,9030.512492
510.169965,229.828649,-0.000000,9400.615463
510.170281,306.438199,-0.000000,9474.636058
510.170596,383.047749,-74.020594,9326.594869
510.170912,536.266849,-222.061783,9474.636058
510.171228,459.657299,-370.102971,9326.594869
510.171543,0.000000,-518.144159,9548.656652
510.171859,0.000000,-444.123565,9548.656652
510.172175,76.609550,-814.226536,9474.636058
510.172490,153.219100,-592.164754,9992.780217
510.172806,0.000000,-444.123565,9622.677246
510.173121,0.000000,-666.185348,9548.656652
510.173437,76.609550,-740.205942,9474.636058
510.173753,-153.219100,-592.164754,9400.615463
510.174068,383.047749,-518.144159,9252.574275
510.174384,842.705048,-444.123565,9178.553681
510.174700,689.485948,-0.000000,9104.533087
510.175015,995.924147,-0.000000,8882.471304
510.175331,1378.971896,-222.061783,8882.471304
510.175646,1378.971896,-74.020594,8808.450710
510.175962,1608.800546,-0.000000,8660.409521
510.176278,1072.533697,-74.020594,8660.409521
510.176593,1532.190996,-0.000000,8956.491898
510.176909,1302.362347,148.041188,9252.574275
510.177225,1149.143247,-0.000000,9326.594869
510.177540,1225.752797,-0.000000,9326.594869
510.177856,995.924147,-74.020594,9326.594869
510.178171,842.705048,-74.020594,9252.574275
510.178487,1455.581446,-222.061783,9326.594869
510.178803,1149.143247,-0.000000,9474.636058
510.179118,1072.533697,296.082377,9474.636058
510.179434,1072.533697,-0.000000,9474.636058
510.179750,1072.533697,-0.000000,9252.574275
510.180065,689.485948,-0.000000,9622.677246
510.180381,1225.752797,148.041188,9548.656652
510.180697,1072.533697,370.102971,9474.636058
510.181012,1072.533697,296.082377,9622.677246
510.181328,1072.533697,222.061783,9474.636058
510.181643,1378.971896,296.082377,9622.677246
510.181959,1072.533697,518.144159,9548.656652
510.182275,1149.143247,740.205942,9548.656652
510.182590,689.485948,296.082377,9696.697840
510.182906,536.266849,518.144159,9844.739029
510.183222,459.657299,370.102971,9918.759623
510.183538,76.609550,444.123565,9770.718434
510.183854,0.000000,-0.000000,9918.759623
510.184170,-229.828649,-74.020594,9992.780217
510.184486,0.000000,-296.082377,10214.842000
510.184801,-153.219100,-370.102971,10584.944971
510.185117,-612.876398,-444.123565,10362.883188
510.185433,-766.095498,-370.102971,10066.800811
510.185748,-919.314598,-518.144159,10140.821405
510.186064,-842.705048,-370.102971,9992.780217
510.186380,-536.266849,-148.041188,9844.739029
510.186696,-229.828649,-0.000000,9474.636058
510.187011,-229.828649,-74.020594,9548.656652
510.187327,0.000000,-0.000000,9400.615463
510.187643,153.219100,-74.020594,9252.574275
510.187959,0.000000,-222.061783,9030.512492
510.188274,0.000000,-370.102971,9400.615463
510.188590,76.609550,-444.123565,9178.553681
510.188906,0.000000,-518.144159,9326.594869
510.189222,0.000000,-592.164754,9770.718434
510.189537,-306.438199,-740.205942,9548.656652
510.189853,-383.047749,-666.185348,9548.656652
510.190169,-536.266849,-814.226536,9474.636058
510.190484,-383.047749,-1036.288319,9622.677246
510.190800,-383.047749,-666.185348,9622.677246
510.191116,-306.438199,-740.205942,9696.697840
510.191432,0.000000,-888.247130,9548.656652
510.191747,0.000000,-592.164754,9326.594869
510.192063,0.000000,-444.123565,9104.533087
510.192379,612.876398,-666.185348,8660.409521
510.192695,842.705048,-518.144159,8660.409521
510.193010,1149.143247,-518.144159,8734.430116
510.193326,995.924147,-370.102971,8586.388927
510.193642,1532.190996,-444.123565,8734.430116
510.193958,1302.362347,-444.123565,8882.471304
510.194273,995.924147,-296.082377,9104.533087
510.194589,1149.143247,-222.061783,9030.512492
510.194905,995.924147,-370.102971,9326.594869
510.195220,919.314598,-444.123565,9326.594869
510.195536,689.485948,-296.082377,9474.636058
510.195852,612.876398,-296.082377,9474.636058
510.196168,919.314598,-222.061783,9696.697840
510.196483,689.485948,-296.082377,9030.512492
510.196799,689.485948,-222.061783,9474.636058
510.197115,842.705048,-74.020594,9474.636058
510.197431,766.095498,-0.000000,9548.656652
510.197746,842.705048,-74.020594,9474.636058
510.198062,1225.752797,-148.041188,9104.533087
510.198378,842.705048,-0.000000,9474.636058
510.198693,995.924147,74.020594,9252.574275
510.199009,1072.533697,222.061783,9474.636058
510.199325,919.314598,518.144159,9548.656652
510.199641,842.705048,148.041188,9622.677246
510.199956,536.266849,444.123565,9622.677246
510.200272,229.828649,148.041188,9770.718434
510.200588,229.828649,222.061783,9770.718434
510.200904,306.438199,296.082377,10214.842000
510.201219,306.438199,-74.020594,9992.780217
510.201535,0.000000,-0.000000,9696.697840
510.201851,-536.266849,-74.020594,9918.759623
510.202167,-459.657299,-296.082377,9918.759623
510.202482,-459.657299,-370.102971,9918.759623
510.202798,-689.485948,-370.102971,10288.862594
510.203114,-229.828649,-518.144159,10362.883188
510.203429,-383.047749,-518.144159,10288.862594
510.203745,-383.047749,-370.102971,9992.780217
510.204061,-153.219100,-444.123565,9992.780217
510.204377,-229.828649,-148.041188,10214.842000
510.204692,76.609550,-0.000000,9622.677246
510.205008,306.438199,-0.000000,9400.615463
510.205324,229.828649,-74.020594,9252.574275
510.205640,383.047749,-148.041188,9400.615463
510.205955,306.438199,-222.061783,9326.594869
510.206271,383.047749,-148.041188,9252.574275
510.206587,536.266849,-592.164754,9326.594869
510.206902,459.657299,-370.102971,9400.615463
510.207218,76.609550,-1258.350101,9474.636058
510.207534,0.000000,-592.164754,9770.718434
510.207850,153.219100,-666.185348,9474.636058
510.208165,-229.828649,-1036.288319,9622.677246
510.208481,0.000000,-666.185348,9548.656652
510.208797,229.828649,-888.247130,9548.656652
510.209113,0.000000,-592.164754,9326.594869
510.209428,383.047749,-518.144159,9326.594869
510.209744,536.266849,-370.102971,9104.533087
510.210060,995.924147,-296.082377,8956.491898
510.210376,1225.752797,-296.082377,9030.512492
510.210691,1225.752797,-0.000000,8882.471304
510.211007,1455.581446,-0.000000,8808.450710
510.211323,1532.190996,-0.000000,8882.471304
510.211638,1685.410096,-0.000000,8882.471304
510.211954,1455.581446,222.061783,8956.491898
510.212270,1532.190996,-0.000000,8956.491898
510.212586,1302.362347,-0.000000,9104.533087
510.212901,1225.752797,-74.020594,9252.574275
510.213217,1149.143247,-0.000000,9474.636058
510.213533,1072.533697,-148.041188,9178.553681
510.213849,689.485948,-74.020594,9548.656652
510.214164,689.485948,-222.061783,9548.656652
510.214480,919.314598,-74.020594,9474.636058
510.214796,766.095498,148.041188,9474.636058
510.215111,612.876398,-74.020594,9770.718434
510.215427,842.705048,296.082377,9548.656652
510.215743,1149.143247,-0.000000,9400.615463
510.216059,995.924147,222.061783,9548.656652
510.216374,1302.362347,222.061783,9400.615463
510.216690,1455.581446,444.123565,9696.697840
510.217006,1302.362347,592.164754,9474.636058
510.217322,1072.533697,592.164754,9474.636058
510.217637,1072.533697,518.144159,9474.636058
510.217953,689.485948,666.185348,9622.677246
510.218269,536.266849,444.123565,9548.656652
510.218585,153.219100,518.144159,9548.656652
510.218900,0.000000,222.061783,9622.677246
510.219216,-153.219100,148.041188,9844.739029
510.219532,0.000000,222.061783,10066.800811
510.219847,0.000000,-222.061783,10436.903782
510.220163,-459.657299,-518.144159,10066.800811
510.220479,-766.095498,-370.102971,10362.883188
510.220795,-766.095498,-370.102971,10362.883188
510.221110,-842.705048,-370.102971,10288.862594
510.221426,-612.876398,-74.020594,10140.821405
510.221742,-612.876398,-0.000000,9844.739029
510.222058,-306.438199,-0.000000,9918.759623
510.222373,0.000000,148.041188,9548.656652
510.222689,0.000000,-0.000000,9474.636058
510.223005,76.609550,-0.000000,9474.636058
510.223321,76.609550,-74.020594,9252.574275
510.223636,383.047749,-0.000000,9400.615463
510.223952,229.828649,-222.061783,9400.615463
510.224268,229.828649,-518.144159,9548.656652
510.224583,0.000000,-444.123565,9474.636058
510.224899,-153.219100,-518.144159,9474.636058
510.225215,-306.438199,-740.205942,9548.656652
510.225531,-689.485948,-814.226536,9474.636058
510.225846,-153.219100,-592.164754,9844.739029
510.226162,-229.828649,-814.226536,9474.636058
510.226478,-612.876398,-814.226536,9400.615463
510.226794,0.000000,-814.226536,9474.636058
510.227109,76.609550,-518.144159,9178.553681
510.227425,383.047749,-444.123565,9030.512492
510.227741,612.876398,-518.144159,8808.450710
510.228056,1072.533697,-296.082377,8956.491898
510.228372,1225.752797,-370.102971,8882.471304
510.228688,1762.019645,-296.082377,8808.450710
510.229004,1762.019645,-148.041188,8882.471304
510.229319,1915.238745,-148.041188,8734.430116
510.229635,995.924147,-444.123565,8882.471304
510.229951,1302.362347,-148.041188,8956.491898
510.230267,612.876398,-444.123565,9178.553681
510.230582,1072.533697,-222.061783,9326.594869
510.230898,842.705048,-222.061783,9400.615463
510.231214,995.924147,-370.102971,9474.636058
510.231530,689.485948,-148.041188,9474.636058
510.231845,536.266849,-296.082377,9474.636058
510.232161,766.095498,-296.082377,9474.636058
510.232477,536.266849,-370.102971,9548.656652
510.232792,766.095498,-222.061783,9400.615463
510.233108,766.095498,-0.000000,9474.636058
510.233424,612.876398,-222.061783,9474.636058
510.233740,995.924147,-0.000000,9474.636058
510.234055,919.314598,-74.020594,9548.656652
510.234371,919.314598,-0.000000,9474.636058
510.234687,1149.143247,-0.000000,9844.739029
510.235003,689.485948,-0.000000,9474.636058
510.235318,689.485948,-0.000000,9548.656652
510.235634,383.047749,296.082377,9918.759623
510.235950,459.657299,-0.000000,9770.718434
510.236265,306.438199,-148.041188,9770.718434
510.236581,76.609550,-0.000000,9844.739029
510.236897,0.000000,-0.000000,9770.718434
510.237213,-536.266849,-0.000000,9696.697840
510.237528,-459.657299,-296.082377,9918.759623
510.237844,-612.876398,-592.164754,10066.800811
510.238160,-612.876398,-740.205942,10362.883188
510.238476,-766.095498,-740.205942,10214.842000
510.238791,-919.314598,-444.123565,10362.883188
510.239107,-766.095498,-1184.329507,10288.862594
510.239423,-612.876398,-444.123565,9992.780217
510.239739,-306.438199,-148.041188,9696.697840
510.240054,-306.438199,-148.041188,9548.656652
510.240370,0.000000,-0.000000,9474.636058
510.240686,383.047749,-0.000000,9400.615463
510.241001,306.438199,-74.020594,9252.574275
510.241317,536.266849,-296.082377,9178.553681
510.241633,229.828649,-296.082377,9252.574275
510.241949,306.438199,-740.205942,9326.594869
510.242264,153.219100,-444.123565,9474.636058
510.242580,0.000000,-592.164754,9400.615463
510.242896,76.609550,-666.185348,9474.636058
510.243212,0.000000,-814.226536,9474.636058
510.243527,0.000000,-814.226536,9770.718434
510.243843,-229.828649,-740.205942,9326.594869
510.244159,0.000000,-666.185348,9622.677246
510.244474,0.000000,-518.144159,9326.594869
510.244790,306.438199,-370.102971,9178.553681
510.245106,306.438199,-222.061783,9104.533087
510.245422,1378.971896,-666.185348,8808.450710
510.245737,766.095498,-148.041188,8956.491898
510.246053,1149.143247,-148.041188,8808.450710
510.246369,1302.362347,-0.000000,8734.430116
510.246685,1532.190996,-148.041188,8734.430116
510.247000,1378.971896,148.041188,8956.491898
510.247316,1532.190996,-0.000000,8956.491898
510.247632,1532.190996,148.041188,8882.471304
510.247948,1225.752797,222.061783,9178.553681
510.248263,1072.533697,-0.000000,9252.574275
510.248579,842.705048,-148.041188,9474.636058
510.248895,1455.581446,-0.000000,9252.574275
510.249210,1072.533697,-0.000000,9326.594869
510.249526,1302.362347,148.041188,9474.636058
510.249842,1302.362347,-0.000000,9474.636058
510.250158,1302.362347,222.061783,9400.615463
510.250473,1225.752797,296.082377,9474.636058
510.250789,1072.533697,222.061783,9326.594869
510.251105,1302.362347,296.082377,9696.697840
510.251421,1072.533697,-0.000000,9474.636058
510.251736,1302.362347,296.082377,9252.574275
510.252052,1378.971896,444.123565,9400.615463
510.252368,1302.362347,444.123565,9622.677246
510.252684,1072.533697,296.082377,9474.636058
510.252999,1225.752797,814.226536,10066.800811
510.253315,842.705048,592.164754,9696.697840
510.253631,766.095498,666.185348,9696.697840
510.253946,229.828649,592.164754,9696.697840
510.254262,306.438199,444.123565,9844.739029
510.254578,229.828649,-0.000000,9992.780217
510.254894,0.000000,222.061783,9918.759623
510.255209,-229.828649,-0.000000,9844.739029
510.255525,-229.828649,-296.082377,10066.800811
510.255841,-306.438199,-296.082377,10288.862594
510.256157,-536.266849,-444.123565,10510.924376
510.256472,-536.266849,-222.061783,10140.821405
510.256788,-689.485948,-0.000000,10140.821405
510.257104,-459.657299,-0.000000,9992.780217
510.257419,0.000000,148.041188,9622.677246
510.257735,0.000000,-0.000000,9770.718434
510.258051,153.219100,-74.020594,9474.636058
510.258367,0.000000,-0.000000,9474.636058
510.258682,306.438199,-0.000000,9326.594869
510.258998,306.438199,-518.144159,9178.553681
510.259314,306.438199,-296.082377,9400.615463
510.259630,153.219100,-444.123565,9326.594869
510.259945,0.000000,-518.144159,9252.574275
510.260261,0.000000,-666.185348,9326.594869
510.260577,76.609550,-740.205942,9474.636058
510.260893,-459.657299,-1110.308913,9548.656652
510.261208,-383.047749,-740.205942,9622.677246
510.261524,-383.047749,-962.267725,9474.636058
510.261840,-383.047749,-962.267725,9548.656652
510.262155,-536.266849,-814.226536,9770.718434
510.262471,76.609550,-592.164754,9326.594869
510.262787,306.438199,-814.226536,9178.553681
510.263103,536.266849,-666.185348,8956.491898
510.263418,842.705048,-592.164754,8808.450710
510.263734,1455.581446,-444.123565,8808.450710
510.264050,1072.533697,-666.185348,8808.450710
510.264366,1302.362347,-370.102971,8882.471304
510.264681,1302.362347,-296.082377,8660.409521
510.264997,1302.362347,-296.082377,8956.491898
510.265313,459.657299,-666.185348,9178.553681
510.265628,1149.143247,-518.144159,9030.512492
510.265944,919.314598,-518.144159,9178.553681
510.266260,842.705048,-518.144159,9252.574275
510.266576,919.314598,-222.061783,9326.594869
510.266891,689.485948,-444.123565,9474.636058
510.267207,995.924147,-444.123565,9326.594869
510.267523,1072.533697,-370.102971,9178.553681
510.267839,919.314598,-222.061783,9326.594869
510.268154,995.924147,-222.061783,9400.615463
510.268470,842.705048,-74.020594,9326.594869
510.268786,919.314598,-222.061783,9178.553681
510.269102,1072.533697,-148.041188,9252.574275
510.269417,995.924147,148.041188,9252.574275
510.269733,1149.143247,-0.000000,9548.656652
510.270049,919.314598,148.041188,9548.656652
510.270364,689.485948,296.082377,9622.677246
510.270680,842.705048,222.061783,9770.718434
510.270996,383.047749,222.061783,9844.739029
510.271312,536.266849,-0.000000,9992.780217
510.271627,0.000000,296.082377,9696.697840
510.271943,76.609550,148.041188,9770.718434
510.272259,-153.219100,-0.000000,9770.718434
510.272575,-229.828649,-148.041188,9992.780217
510.272890,-306.438199,-148.041188,10214.842000
510.273206,-153.219100,-0.000000,10066.800811
510.273522,-536.266849,-222.061783,10140.821405
510.273838,-689.485948,-370.102971,10288.862594
510.274153,-689.485948,-444.123565,10214.842000
510.274469,-766.095498,-444.123565,10066.800811
510.274785,-459.657299,-148.041188,10066.800811
510.275100,-229.828649,-0.000000,9474.636058
510.275416,-229.828649,148.041188,9696.697840
510.275732,-383.047749,-222.061783,9474.636058
510.276048,153.219100,74.020594,9474.636058
510.276363,383.047749,-74.020594,9400.615463
510.276679,306.438199,-0.000000,9400.615463
510.276995,306.438199,-148.041188,9252.574275
510.277311,536.266849,-222.061783,9400.615463
510.277626,76.609550,-444.123565,9548.656652
510.277942,0.000000,-518.144159,9474.636058
510.278258,0.000000,-592.164754,9548.656652
510.278573,-153.219100,-444.123565,9696.697840
510.278889,0.000000,-740.205942,9844.739029
510.279205,0.000000,-444.123565,9696.697840
510.279521,-229.828649,-444.123565,9400.615463
510.279836,-153.219100,-370.102971,9474.636058
510.280152,76.609550,-370.102971,9104.533087
510.280468,383.047749,-222.061783,8956.491898
510.280784,766.095498,-74.020594,9030.512492
510.281099,842.705048,-148.041188,9030.512492
510.281415,1072.533697,-296.082377,8734.430116
510.281731,1532.190996,-0.000000,8734.430116
510.282047,1225.752797,-0.000000,8882.471304
510.282362,1532.190996,-0.000000,8882.471304
510.282678,1149.143247,-0.000000,9104.533087
510.282994,1302.362347,-0.000000,9030.512492
510.283309,1072.533697,-0.000000,9326.594869
510.283625,842.705048,-148.041188,9400.615463
510.283941,919.314598,-0.000000,9474.636058
510.284257,842.705048,-0.000000,9474.636058
510.284572,612.876398,-0.000000,9400.615463
510.284888,689.485948,-222.061783,9696.697840
510.285204,766.095498,-0.000000,9474.636058
510.285520,1072.533697,-0.000000,9326.594869
510.285835,1072.533697,148.041188,9252.574275
510.286151,689.485948,-0.000000,9474.636058
510.286467,1072.533697,222.061783,9400.615463
510.286782,919.314598,-0.000000,9474.636058
510.287098,1455.581446,-0.000000,9400.615463
510.287414,1302.362347,222.061783,9400.615463
510.287730,1225.752797,296.082377,9696.697840
510.288045,919.314598,296.082377,9326.594869
510.288361,1072.533697,370.102971,9474.636058
510.288677,766.095498,444.123565,9474.636058
510.288993,689.485948,222.061783,9548.656652
510.289308,76.609550,296.082377,9548.656652
510.289624,229.828649,148.041188,9992.780217
510.289940,153.219100,-0.000000,9548.656652
510.290255,76.609550,-0.000000,9844.739029
510.290571,-383.047749,-444.123565,10066.800811
510.290887,-612.876398,-518.144159,9992.780217
510.291203,-766.095498,-666.185348,10140.821405
510.291518,-766.095498,-370.102971,10436.903782
510.291834,-689.485948,-370.102971,10214.842000
510.292150,-612.876398,-370.102971,9992.780217
510.292466,-306.438199,-148.041188,9844.739029
510.292781,-383.047749,-74.020594,9770.718434
510.293097,0.000000,-74.020594,9696.697840
510.293413,76.609550,-0.000000,9400.615463
510.293728,383.047749,-74.020594,9326.594869
510.294044,229.828649,-74.020594,9326.594869
510.294360,229.828649,-370.102971,9178.553681
510.294676,383.047749,-148.041188,9326.594869
510.294991,459.657299,-444.123565,9326.594869
510.295307,76.609550,-666.185348,9400.615463
510.295623,0.000000,-740.205942,9326.594869
510.295939,-536.266849,-814.226536,9622.677246
510.296254,-229.828649,-814.226536,9844.739029
510.296570,-229.828649,-1036.288319,9622.677246
510.296886,0.000000,-814.226536,9770.718434
510.297202,-536.266849,-814.226536,9548.656652
510.297517,0.000000,-814.226536,9400.615463
510.297833,153.219100,-592.164754,9326.594869
510.298149,229.828649,-370.102971,9252.574275
510.298464,842.705048,-444.123565,8660.409521
510.298780,919.314598,-296.082377,8808.450710
510.299096,1302.362347,-518.144159,8438.347739
510.299412,1149.143247,-222.061783,8660.409521
510.299727,1455.581446,-74.020594,8660.409521
510.300043,1532.190996,-222.061783,8734.430116
510.300359,1455.581446,-444.123565,8882.471304
510.300675,1149.143247,-74.020594,9030.512492
510.300990,1149.143247,-74.020594,9252.574275
510.301306,919.314598,-370.102971,9326.594869
510.301622,919.314598,-296.082377,9474.636058
510.301937,1455.581446,-592.164754,9252.574275
510.302253,995.924147,-296.082377,9474.636058
510.302569,612.876398,-444.123565,9178.553681
510.302885,766.095498,-222.061783,9252.574275
510.303200,766.095498,-0.000000,9400.615463
510.303516,1072.533697,-148.041188,9474.636058
510.303832,766.095498,-148.041188,9400.615463
510.304148,1072.533697,-0.000000,9326.594869
510.304463,919.314598,-0.000000,9400.615463
510.304779,689.485948,-0.000000,9474.636058
510.305095,842.705048,-0.000000,9178.553681
510.305410,612.876398,-0.000000,9474.636058
510.305726,689.485948,370.102971,9474.636058
510.306042,766.095498,518.144159,9770.718434
510.306358,689.485948,222.061783,9770.718434
510.306673,612.876398,-0.000000,9770.718434
510.306989,306.438199,-0.000000,9474.636058
510.307305,-229.828649,-0.000000,9622.677246
510.307621,0.000000,-0.000000,9918.759623
510.307936,0.000000,-148.041188,9918.759623
510.308252,-536.266849,-222.061783,9844.739029
510.308568,-459.657299,-296.082377,10140.821405
510.308883,-612.876398,-592.164754,10140.821405
510.309199,-612.876398,-592.164754,10362.883188
510.309515,0.000000,-666.185348,10288.862594
510.309831,-536.266849,-444.123565,10288.862594
510.310146,-306.438199,-148.041188,10140.821405
510.310462,-153.219100,-222.061783,9844.739029
510.310778,0.000000,-148.041188,9622.677246
510.311094,-153.219100,-222.061783,9326.594869
510.311409,306.438199,-74.020594,9474.636058
510.311725,536.266849,-148.041188,9252.574275
510.312041,383.047749,-222.061783,9178.553681
510.312356,536.266849,-296.082377,9178.553681
510.312672,459.657299,-370.102971,9474.636058
510.312988,229.828649,-518.144159,9474.636058
510.313304,0.000000,-592.164754,9622.677246
510.313619,0.000000,-666.185348,9548.656652
510.313935,153.219100,-1110.308913,10066.800811
510.314251,-153.219100,-814.226536,9622.677246
510.314567,-153.219100,-814.226536,9474.636058
510.314882,0.000000,-814.226536,9474.636058
510.315198,229.828649,-666.185348,9252.574275
510.315514,0.000000,-370.102971,9400.615463
510.315830,612.876398,-370.102971,9178.553681
510.316145,842.705048,-370.102971,8956.491898
510.316461,1072.533697,-296.082377,8734.430116
510.316777,1225.752797,-222.061783,8808.450710
510.317092,1685.410096,-370.102971,8734.430116
510.317408,1149.143247,-148.041188,8808.450710
510.317724,1532.190996,-148.041188,9104.533087
510.318040,1762.019645,-0.000000,8882.471304
510.318355,1302.362347,-222.061783,8808.450710
510.318671,1378.971896,-296.082377,9178.553681
510.318987,1149.143247,-74.020594,9178.553681
510.319303,995.924147,-74.020594,9400.615463
510.319618,919.314598,-148.041188,9400.615463
510.319934,1378.971896,-444.123565,9252.574275
510.320250,842.705048,-148.041188,9474.636058
510.320565,766.095498,-0.000000,9252.574275
510.320881,995.924147,-0.000000,9474.636058
510.321197,1072.533697,-0.000000,9474.636058
510.321513,919.314598,370.102971,9474.636058
510.321828,1225.752797,-0.000000,9178.553681
510.322144,1225.752797,-0.000000,9400.615463
510.322460,995.924147,296.082377,9474.636058
510.322776,1072.533697,296.082377,9548.656652
510.323091,1149.143247,370.102971,9696.697840
510.323407,689.485948,592.164754,9696.697840
510.323723,689.485948,370.102971,9622.677246
510.324038,612.876398,518.144159,9770.718434
510.324354,612.876398,444.123565,9622.677246
510.324670,459.657299,444.123565,9696.697840
510.324986,0.000000,444.123565,9770.718434
510.325301,0.000000,370.102971,9844.739029
510.325617,-153.219100,148.041188,9844.739029
510.325933,-383.047749,-0.000000,9770.718434
510.326249,-536.266849,-222.061783,10288.862594
510.326564,-689.485948,-222.061783,10288.862594
510.326880,-842.705048,-370.102971,10140.821405
510.327196,-612.876398,-0.000000,10584.944971
510.327511,-306.438199,-370.102971,10066.800811
510.327827,-383.047749,296.082377,9918.759623
510.328143,-383.047749,-0.000000,9770.718434
510.328459,-76.609550,-0.000000,9622.677246
510.328774,0.000000,-0.000000,9474.636058
510.329090,0.000000,-0.000000,9548.656652
510.329406,306.438199,-0.000000,9252.574275
510.329722,76.609550,-0.000000,9400.615463
510.330037,229.828649,-0.000000,9400.615463
510.330353,383.047749,-222.061783,9548.656652
510.330669,-383.047749,-592.164754,9474.636058
510.330984,0.000000,-444.123565,9474.636058
510.331300,-306.438199,-592.164754,9548.656652
510.331616,-229.828649,-814.226536,9696.697840
510.331932,-383.047749,-666.185348,9622.677246
510.332247,-459.657299,-962.267725,9622.677246
510.332563,-229.828649,-888.247130,9622.677246
510.332879,0.000000,-814.226536,9474.636058
510.333195,76.609550,-666.185348,9326.594869
510.333510,459.657299,-592.164754,8956.491898
510.333826,612.876398,-518.144159,9178.553681
510.334142,919.314598,-370.102971,8734.430116
510.334458,1149.143247,-370.102971,8808.450710
510.334773,1149.143247,-370.102971,8882.471304
510.335089,1838.629195,-444.123565,8808.450710
510.335405,1378.971896,-296.082377,8882.471304
510.335720,1302.362347,-296.082377,8956.491898
510.336036,1302.362347,-222.061783,9104.533087
510.336352,1149.143247,-444.123565,9030.512492
510.336668,1455.581446,-518.144159,9326.594869
510.336983,1225.752797,-444.123565,9104.533087
510.337299,766.095498,-370.102971,9252.574275
510.337615,612.876398,-518.144159,9474.636058
510.337931,689.485948,-370.102971,9326.594869
510.338246,689.485948,-370.102971,9252.574275
510.338562,766.095498,-296.082377,9326.594869
510.338878,995.924147,-148.041188,9178.553681
510.339193,919.314598,-296.082377,9326.594869
510.339509,689.485948,-74.020594,9326.594869
510.339825,1072.533697,-148.041188,9474.636058
510.340141,995.924147,-0.000000,9474.636058
510.340456,919.314598,-148.041188,9400.615463
510.340772,995.924147,-0.000000,9326.594869
510.341088,689.485948,-0.000000,9400.615463
510.341404,383.047749,-74.020594,9770.718434
510.341719,383.047749,-0.000000,9622.677246
510.342035,306.438199,148.041188,9844.739029
510.342351,76.609550,-148.041188,9474.636058
510.342666,0.000000,-0.000000,9622.677246
510.342982,0.000000,-0.000000,9844.739029
510.343298,-689.485948,-148.041188,9844.739029
510.343614,-153.219100,-296.082377,9918.759623
510.343929,-536.266849,-518.144159,10066.800811
510.344245,-536.266849,-666.185348,10066.800811
510.344561,-459.657299,-592.164754,10140.821405
510.344877,-766.095498,-518.144159,10066.800811
510.345192,-383.047749,-370.102971,10214.842000
510.345508,-383.047749,-296.082377,10214.842000
510.345824,229.828649,-222.061783,9992.780217
510.346139,0.000000,-222.061783,9992.780217
510.346455,0.000000,-222.061783,9474.636058
510.346771,153.219100,-0.000000,9400.615463
510.347087,383.047749,-74.020594,9326.594869
510.347402,383.047749,-74.020594,9326.594869
510.347718,229.828649,-296.082377,9030.512492
510.348034,229.828649,-296.082377,9400.615463
510.348350,0.000000,-518.144159,9326.594869
510.348665,-153.219100,-296.082377,9622.677246
510.348981,76.609550,-296.082377,9548.656652
510.349297,-383.047749,-518.144159,9770.718434
510.349612,-229.828649,-888.247130,9770.718434
510.349928,0.000000,-814.226536,9622.677246
510.350244,229.828649,-444.123565,9548.656652
510.350560,689.485948,-666.185348,9400.615463
510.350875,153.219100,-370.102971,9252.574275
510.351191,689.485948,-222.061783,9252.574275
510.351507,766.095498,-0.000000,9178.553681
510.351823,1302.362347,-148.041188,8956.491898
510.352138,995.924147,-148.041188,8808.450710
510.352454,1302.362347,-222.061783,9030.512492
510.352770,1991.848295,-0.000000,8882.471304
510.353085,1532.190996,-0.000000,8882.471304
510.353401,1685.410096,-0.000000,9030.512492
510.353717,1838.629195,296.082377,9030.512492
510.354033,1378.971896,-0.000000,9252.574275
510.354348,1225.752797,-0.000000,9252.574275
510.354664,1225.752797,-148.041188,9326.594869
510.354980,995.924147,-0.000000,9326.594869
510.355296,842.705048,-296.082377,9252.574275
510.355611,766.095498,-296.082377,9548.656652
510.355927,995.924147,-0.000000,9326.594869
510.356243,1072.533697,-0.000000,9400.615463
510.356559,842.705048,-0.000000,9400.615463
510.356874,1302.362347,-0.000000,9474.636058
510.357190,1225.752797,-0.000000,9252.574275
510.357506,1149.143247,-0.000000,9400.615463
510.357821,1225.752797,-0.000000,9178.553681
510.358137,1072.533697,222.061783,9178.553681
510.358453,1072.533697,518.144159,9696.697840
510.358769,1072.533697,370.102971,9474.636058
510.359084,536.266849,444.123565,9548.656652
510.359400,766.095498,370.102971,9548.656652
510.359716,536.266849,296.082377,9548.656652
510.360032,153.219100,370.102971,9770.718434
510.360347,306.438199,-0.000000,9770.718434
510.360663,76.609550,-0.000000,9696.697840
510.360979,-306.438199,-222.061783,9622.677246
510.361294,-459.657299,-370.102971,9770.718434
510.361610,-766.095498,-370.102971,9992.780217
510.361926,-689.485948,-666.185348,10066.800811
510.362242,-536.266849,-370.102971,10140.821405
510.362557,-612.876398,-370.102971,10140.821405
510.362873,-306.438199,-222.061783,10362.883188
510.363189,-536.266849,-148.041188,9918.759623
510.363505,-229.828649,-148.041188,9770.718434
510.363820,-76.609550,-148.041188,9474.636058
510.364136,0.000000,-0.000000,9474.636058
510.364452,459.657299,-148.041188,9326.594869
510.364767,383.047749,-74.020594,9400.615463
510.365083,306.438199,-296.082377,9104.533087
510.365399,229.828649,-518.144159,9252.574275
510.365715,76.609550,-444.123565,9326.594869
510.366030,-153.219100,-518.144159,9622.677246
510.366346,-153.219100,-666.185348,9622.677246
510.366662,0.000000,-962.267725,9622.677246
510.366978,-229.828649,-962.267725,9622.677246
510.367293,-459.657299,-1110.308913,9548.656652
510.367609,-459.657299,-814.226536,9918.759623
510.367925,0.000000,-814.226536,9622.677246
510.368240,-153.219100,-962.267725,9326.594869
510.368556,229.828649,-740.205942,9252.574275
510.368872,153.219100,-592.164754,9030.512492
510.369188,612.876398,-444.123565,9104.533087
510.369503,919.314598,-444.123565,8660.409521
510.369819,1225.752797,-370.102971,8586.388927
510.370135,995.924147,-222.061783,8956.491898
510.370451,1608.800546,-74.020594,8808.450710
510.370766,1455.581446,-222.061783,8882.471304
510.371082,1302.362347,-148.041188,8808.450710
510.371398,1532.190996,-148.041188,9030.512492
510.371713,1225.752797,-444.123565,9252.574275
510.372029,842.705048,-296.082377,9104.533087
510.372345,689.485948,-222.061783,9400.615463
510.372661,766.095498,-148.041188,9326.594869
510.372976,766.095498,-296.082377,9326.594869
510.373292,995.924147,-370.102971,9474.636058
510.373608,689.485948,-0.000000,9474.636058
510.373924,766.095498,-74.020594,9474.636058
510.374239,842.705048,-74.020594,9474.636058
510.374555,766.095498,-148.041188,9326.594869
510.374871,1072.533697,-0.000000,9326.594869
510.375187,1072.533697,148.041188,9104.533087
510.375502,1072.533697,-0.000000,9474.636058
510.375818,1072.533697,296.082377,9474.636058
510.376134,919.314598,296.082377,9548.656652
510.376449,995.924147,148.041188,9474.636058
510.376765,689.485948,296.082377,9474.636058
510.377081,383.047749,444.123565,9696.697840
510.377397,229.828649,222.061783,9844.739029
510.377712,229.828649,-0.000000,9844.739029
510.378028,229.828649,-0.000000,9918.759623
510.378344,0.000000,-0.000000,9992.780217
510.378660,0.000000,-222.061783,9918.759623
510.378975,-383.047749,-222.061783,9992.780217
510.379291,-459.657299,-296.082377,10066.800811
510.379607,-689.485948,-666.185348,10214.842000
510.379922,-689.485948,-444.123565,10362.883188
510.380238,-766.095498,-518.144159,10066.800811
510.380554,-689.485948,-444.123565,10140.821405
510.380870,-229.828649,-444.123565,9844.739029
510.381185,229.828649,-222.061783,9548.656652
510.381501,76.609550,-0.000000,9622.677246
510.381817,0.000000,-0.000000,9474.636058
510.382133,153.219100,-0.000000,9326.594869
510.382448,153.219100,-148.041188,9326.594869
510.382764,306.438199,-74.020594,9252.574275
510.383080,306.438199,-370.102971,9400.615463
510.383395,229.828649,-592.164754,9400.615463
510.383711,0.000000,-740.205942,9326.594869
510.384027,76.609550,-666.185348,9696.697840
510.384343,76.609550,-1036.288319,9844.739029
510.384658,-459.657299,-962.267725,9474.636058
510.384974,-383.047749,-888.247130,9770.718434
510.385290,-383.047749,-740.205942,9548.656652
510.385605,0.000000,-740.205942,9548.656652
510.385921,-306.438199,-592.164754,9474.636058
510.386237,229.828649,-666.185348,9326.594869
510.386552,612.876398,-592.164754,9030.512492
510.386868,766.095498,-370.102971,8882.471304
510.387183,306.438199,-518.144159,8956.491898
510.387499,1378.971896,-444.123565,8808.450710
510.387815,1455.581446,-74.020594,8660.409521
510.388130,1532.190996,-148.041188,8512.368333
510.388446,1532.190996,-296.082377,8808.450710
510.388761,1838.629195,-296.082377,8882.471304
510.389077,1302.362347,-0.000000,9252.574275
510.389392,1455.581446,-148.041188,9178.553681
510.389708,1072.533697,-74.020594,9326.594869
510.390024,919.314598,-74.020594,9326.594869
510.390339,1072.533697,-148.041188,9548.656652
510.390655,1072.533697,-148.041188,9178.553681
510.390970,1378.971896,-74.020594,9178.553681
510.391286,1072.533697,-0.000000,9400.615463
510.391602,919.314598,-0.000000,9400.615463
510.391917,1378.971896,-296.082377,9622.677246
510.392233,1149.143247,222.061783,9326.594869
510.392548,1149.143247,222.061783,9326.594869
510.392864,1072.533697,296.082377,9252.574275
510.393180,1762.019645,222.061783,9400.615463
510.393495,1532.190996,296.082377,9400.615463
510.393811,995.924147,518.144159,9474.636058
510.394126,1378.971896,518.144159,9474.636058
510.394442,689.485948,518.144159,9400.615463
510.394758,766.095498,666.185348,9548.656652
510.395073,536.266849,296.082377,9548.656652
510.395389,383.047749,518.144159,9770.718434
510.395704,0.000000,370.102971,9770.718434
510.396020,0.000000,222.061783,9770.718434
510.396335,0.000000,-222.061783,9844.739029
510.396651,-536.266849,370.102971,10214.842000
510.396967,-459.657299,-222.061783,9918.759623
510.397282,-766.095498,-296.082377,10362.883188
510.397598,-766.095498,-148.041188,10288.862594
510.397913,-842.705048,-148.041188,10214.842000
510.398229,-383.047749,-0.000000,9992.780217
510.398545,-383.047749,-0.000000,9918.759623
510.398860,-229.828649,-0.000000,9622.677246
510.399176,0.000000,148.041188,9548.656652
510.399491,153.219100,148.041188,9696.697840
510.399807,229.828649,370.102971,9474.636058
510.400123,612.876398,222.061783,9474.636058
510.400438,306.438199,-74.020594,9326.594869
510.400754,306.438199,-0.000000,9400.615463
510.401069,306.438199,-370.102971,9622.677246
510.401385,0.000000,-370.102971,9400.615463
510.401700,0.000000,-518.144159,9696.697840
510.402016,-459.657299,-518.144159,9696.697840
510.402332,-306.438199,-592.164754,9622.677246
510.402647,-229.828649,-962.267725,9696.697840
510.402963,-612.876398,-1036.288319,9770.718434
510.403278,-383.047749,-1036.288319,9696.697840
510.403594,0.000000,-888.247130,9474.636058
510.403910,153.219100,-740.205942,9474.636058
510.404225,459.657299,-296.082377,9622.677246
510.404541,842.705048,-370.102971,9030.512492
510.404856,919.314598,-444.123565,8808.450710
510.405172,1072.533697,-296.082377,8808.450710
510.405488,1378.971896,-296.082377,8808.450710
510.405803,1302.362347,-222.061783,8660.409521
510.406119,1455.581446,-74.020594,9030.512492
510.406434,1302.362347,-148.041188,8882.471304
510.406750,1302.362347,-148.041188,9178.553681
510.407066,1225.752797,-444.123565,9104.533087
510.407381,842.705048,-370.102971,9400.615463
510.407697,766.095498,-592.164754,9326.594869
510.408012,612.876398,-370.102971,9400.615463
510.408328,766.095498,-370.102971,9548.656652
510.408643,306.438199,-444.123565,9474.636058
510.408959,766.095498,-370.102971,9400.615463
510.409275,612.876398,-444.123565,9326.594869
510.409590,612.876398,-444.123565,9326.594869
510.409906,919.314598,-0.000000,9474.636058
510.410221,766.095498,-222.061783,9326.594869
510.410537,1149.143247,-148.041188,9326.594869
510.410853,1149.143247,-74.020594,9400.615463
510.411168,1149.143247,-0.000000,9178.553681
510.411484,995.924147,148.041188,9326.594869
510.411799,689.485948,-0.000000,9474.636058
510.412115,766.095498,296.082377,9770.718434
510.412431,459.657299,74.020594,9548.656652
510.412746,383.047749,-0.000000,9548.656652
510.413062,76.609550,-74.020594,9844.739029
510.413377,-153.219100,-222.061783,9992.780217
510.413693,-229.828649,-0.000000,9770.718434
510.414008,-383.047749,-444.123565,9548.656652
510.414324,-383.047749,-296.082377,9992.780217
510.414640,-536.266849,-888.247130,9992.780217
510.414955,-612.876398,-740.205942,10288.862594
510.415271,-612.876398,-296.082377,10362.883188
510.415586,-536.266849,-222.061783,10140.821405
510.415902,-459.657299,-370.102971,10214.842000
510.416218,-842.705048,-222.061783,9918.759623
510.416533,-229.828649,-148.041188,9696.697840
510.416849,0.000000,-74.020594,9474.636058
510.417164,229.828649,-0.000000,9474.636058
510.417480,306.438199,-0.000000,9474.636058
510.417796,459.657299,-74.020594,9326.594869
510.418111,306.438199,-296.082377,9400.615463
510.418427,306.438199,-222.061783,9400.615463
510.418742,383.047749,-222.061783,9400.615463
510.419058,76.609550,-592.164754,9474.636058
510.419373,0.000000,-518.144159,9770.718434
510.419689,-153.219100,-666.185348,9696.697840
510.420005,-306.438199,-518.144159,9844.739029
510.420320,-229.828649,-592.164754,9622.677246
510.420636,-306.438199,-888.247130,9548.656652
510.420951,0.000000,-592.164754,9474.636058
510.421267,76.609550,-444.123565,9474.636058
510.421583,153.219100,-370.102971,9252.574275
510.421898,689.485948,-296.082377,9326.594869
510.422214,919.314598,-592.164754,9326.594869
510.422529,995.924147,-222.061783,8882.471304
510.422845,1225.752797,-0.000000,8734.430116
510.423161,1378.971896,-74.020594,8734.430116
510.423476,1378.971896,148.041188,8956.491898
510.423792,1532.190996,370.102971,8956.491898
510.424107,1455.581446,-0.000000,8956.491898
510.424423,1302.362347,-0.000000,8956.491898
510.424739,1225.752797,-74.020594,9252.574275
510.425054,919.314598,-222.061783,9178.553681
510.425370,995.924147,-444.123565,8956.491898
510.425685,1149.143247,-0.000000,9474.636058
510.426001,1072.533697,-148.041188,9474.636058
510.426316,689.485948,-148.041188,9474.636058
510.426632,689.485948,-148.041188,9400.615463
510.426948,919.314598,-0.000000,9326.594869
510.427263,995.924147,-0.000000,9474.636058
510.427579,1072.533697,-0.000000,9252.574275
510.427894,1225.752797,222.061783,9474.636058
510.428210,842.705048,296.082377,9400.615463
510.428526,1225.752797,-0.000000,9474.636058
510.428841,1378.971896,518.144159,9474.636058
510.429157,1532.190996,518.144159,9474.636058
510.429472,842.705048,592.164754,9622.677246
510.429788,842.705048,444.123565,9622.677246
510.430104,689.485948,-0.000000,9474.636058
510.430419,306.438199,296.082377,9548.656652
510.430735,306.438199,370.102971,9622.677246
510.431050,0.000000,-0.000000,9844.739029
510.431366,0.000000,-0.000000,9770.718434
510.431681,-229.828649,-444.123565,10288.862594
510.431997,-76.609550,-222.061783,9918.759623
510.432313,-536.266849,-370.102971,10140.821405
510.432628,-766.095498,-518.144159,10140.821405
510.432944,-536.266849,-370.102971,10214.842000
510.433259,-689.485948,-592.164754,9918.759623
510.433575,-689.485948,-148.041188,9918.759623
510.433891,-459.657299,-222.061783,9844.739029
510.434206,-229.828649,-74.020594,9622.677246
510.434522,0.000000,-74.020594,9474.636058
510.434837,0.000000,-0.000000,9474.636058
510.435153,76.609550,-148.041188,9326.594869
510.435469,229.828649,-0.000000,9178.553681
510.435784,76.609550,-222.061783,9400.615463
510.436100,76.609550,-370.102971,9252.574275
510.436415,306.438199,-888.247130,9474.636058
510.436731,-229.828649,-814.226536,9474.636058
510.437047,0.000000,-740.205942,9474.636058
510.437362,-459.657299,-740.205942,9548.656652
510.437678,-76.609550,-888.247130,9548.656652
510.437993,0.000000,-888.247130,9622.677246
510.438309,-153.219100,-592.164754,9696.697840
510.438624,0.000000,-740.205942,9622.677246
510.438940,0.000000,-666.185348,9474.636058
510.439256,76.609550,-518.144159,9326.594869
510.439571,-383.047749,-888.247130,9326.594869
510.439887,995.924147,-444.123565,8882.471304
510.440202,919.314598,-148.041188,8808.450710
510.440518,1455.581446,-74.020594,9030.512492
510.440834,1608.800546,-148.041188,8734.430116
510.441149,1685.410096,-222.061783,8882.471304
510.441465,1532.190996,-370.102971,9030.512492
510.441780,1532.190996,-222.061783,9104.533087
510.442096,1302.362347,-148.041188,9178.553681
510.442412,1072.533697,-148.041188,9178.553681
510.442727,383.047749,-666.185348,9474.636058
510.443043,766.095498,-518.144159,9252.574275
510.443358,766.095498,-296.082377,9474.636058
510.443674,766.095498,-370.102971,9326.594869
510.443989,536.266849,-148.041188,9326.594869
510.444305,1302.362347,-592.164754,9474.636058
510.444621,919.314598,-74.020594,9252.574275
510.444936,919.314598,-148.041188,9252.574275
510.445252,995.924147,222.061783,9326.594869
510.445567,919.314598,-0.000000,9326.594869
510.445883,919.314598,-0.000000,9770.718434
510.446199,919.314598,148.041188,9474.636058
510.446514,919.314598,222.061783,9326.594869
510.446830,919.314598,222.061783,9474.636058
510.447145,459.657299,296.082377,9548.656652
510.447461,689.485948,-0.000000,9474.636058
510.447777,383.047749,-0.000000,9474.636058
510.448092,0.000000,148.041188,9770.718434
510.448408,0.000000,-0.000000,9770.718434
510.448723,0.000000,-0.000000,9696.697840
510.449039,153.219100,-74.020594,9918.759623
510.449354,0.000000,-370.102971,9696.697840
510.449670,-459.657299,-148.041188,9844.739029
510.449986,-459.657299,-444.123565,9844.739029
510.450301,-612.876398,-592.164754,10140.821405
510.450617,-306.438199,-296.082377,10362.883188
510.450932,-766.095498,-666.185348,10214.842000
510.451248,-229.828649,-370.102971,9696.697840
510.451564,-459.657299,-444.123565,9918.759623
510.451879,0.000000,-296.082377,9548.656652
510.452195,76.609550,-0.000000,9770.718434
510.452510,229.828649,-0.000000,9474.636058
510.452826,459.657299,-0.000000,9400.615463
510.453142,306.438199,-296.082377,9178.553681
510.453457,536.266849,-222.061783,9252.574275
510.453773,459.657299,-444.123565,9326.594869
510.454088,229.828649,-518.144159,9770.718434
510.454404,383.047749,-444.123565,9252.574275
510.454720,76.609550,-814.226536,9696.697840
510.455035,-153.219100,-888.247130,9548.656652
510.455351,76.609550,-888.247130,9622.677246
510.455666,-306.438199,-888.247130,9696.697840
510.455982,0.000000,-814.226536,9622.677246
510.456297,0.000000,-666.185348,9474.636058
510.456613,612.876398,-592.164754,9474.636058
510.456929,306.438199,-148.041188,9622.677246
510.457244,459.657299,-666.185348,9104.533087
510.457560,919.314598,-222.061783,8956.491898
510.457875,1225.752797,-296.082377,8734.430116
510.458191,1455.581446,-148.041188,8882.471304
510.458507,1225.752797,-592.164754,9104.533087
510.458822,1532.190996,-222.061783,8808.450710
510.459138,1532.190996,-74.020594,8734.430116
510.459453,1608.800546,-0.000000,8956.491898
510.459769,1225.752797,-74.020594,9178.553681
510.460085,1455.581446,-148.041188,9326.594869
510.460400,1149.143247,-0.000000,9400.615463
510.460716,1072.533697,-148.041188,9474.636058
510.461031,1225.752797,-0.000000,9548.656652
510.461347,766.095498,-222.061783,9474.636058
510.461662,842.705048,-222.061783,9178.553681
510.461978,995.924147,-74.020594,9400.615463
510.462294,842.705048,-0.000000,9474.636058
510.462609,1072.533697,-0.000000,9326.594869
510.462925,1149.143247,-0.000000,9326.594869
510.463240,689.485948,-74.020594,9252.574275
510.463556,1302.362347,222.061783,9548.656652
510.463872,1378.971896,296.082377,9474.636058
510.464187,1302.362347,444.123565,9548.656652
510.464503,1149.143247,370.102971,9400.615463
510.464818,1149.143247,444.123565,9474.636058
510.465134,919.314598,444.123565,9474.636058
510.465450,612.876398,518.144159,9622.677246
510.465765,459.657299,444.123565,9474.636058
510.466081,306.438199,370.102971,9770.718434
510.466396,153.219100,-0.000000,9844.739029
510.466712,153.219100,-0.000000,9770.718434
510.467028,-459.657299,-222.061783,9918.759623
510.467343,-383.047749,-148.041188,10066.800811
510.467659,-766.095498,-370.102971,10066.800811
510.467974,-229.828649,-148.041188,10362.883188
510.468290,-536.266849,-222.061783,10140.821405
510.468605,-689.485948,-222.061783,10140.821405
510.468921,-536.266849,-0.000000,9992.780217
510.469237,-229.828649,148.041188,9844.739029
510.469552,995.924147,-0.000000,9622.677246
510.469868,0.000000,148.041188,9548.656652
510.470183,0.000000,-0.000000,9474.636058
510.470499,153.219100,-0.000000,9178.553681
510.470815,306.438199,-74.020594,9326.594869
510.471130,0.000000,-222.061783,9474.636058
510.471446,0.000000,-148.041188,9326.594869
510.471761,153.219100,-148.041188,9474.636058
510.472077,76.609550,-370.102971,9474.636058
510.472393,0.000000,-444.123565,9474.636058
510.472708,-153.219100,-814.226536,9548.656652
510.473024,-153.219100,-666.185348,9844.739029
510.473339,-612.876398,-962.267725,9548.656652
510.473655,-306.438199,-962.267725,9474.636058
510.473970,0.000000,-814.226536,9548.656652
510.474286,0.000000,-814.226536,9696.697840
510.474602,0.000000,-666.185348,9178.553681
510.474917,536.266849,-370.102971,9104.533087
510.475233,766.095498,-222.061783,9030.512492
510.475548,1302.362347,-222.061783,8586.388927
510.475864,1455.581446,-296.082377,9104.533087
510.476180,1302.362347,-222.061783,8734.430116
510.476495,1608.800546,-222.061783,8808.450710
510.476811,1455.581446,-222.061783,8808.450710
510.477126,1149.143247,-148.041188,8882.471304
510.477442,1149.143247,-0.000000,8956.491898
510.477758,1149.143247,-222.061783,9400.615463
510.478073,919.314598,-222.061783,9252.574275
510.478389,995.924147,-370.102971,9474.636058
510.478704,995.924147,-370.102971,9622.677246
510.479020,612.876398,-74.020594,9548.656652
510.479335,612.876398,-592.164754,9400.615463
510.479651,612.876398,-296.082377,9474.636058
510.479967,919.314598,-296.082377,9252.574275
510.480282,995.924147,-148.041188,9326.594869
510.480598,1225.752797,-0.000000,9622.677246
510.480913,995.924147,-74.020594,9400.615463
510.481229,919.314598,148.041188,9474.636058
510.481545,995.924147,74.020594,9178.553681
510.481860,919.314598,-74.020594,9178.553681
510.482176,1378.971896,-0.000000,9400.615463
510.482491,689.485948,222.061783,9326.594869
510.482807,689.485948,222.061783,9474.636058
510.483123,536.266849,-74.020594,9474.636058
510.483438,229.828649,-0.000000,9696.697840
510.483754,76.609550,-0.000000,10140.821405
510.484069,0.000000,-0.000000,9918.759623
510.484385,-306.438199,-222.061783,9844.739029
510.484701,-459.657299,-296.082377,9696.697840
510.485016,-536.266849,-444.123565,9992.780217
510.485332,-1149.143247,-592.164754,10140.821405
510.485647,-766.095498,-592.164754,10066.800811
510.485963,-919.314598,-592.164754,10066.800811
510.486278,-689.485948,-592.164754,10140.821405
510.486594,-536.266849,-296.082377,9918.759623
510.486910,0.000000,-74.020594,9992.780217
510.487225,0.000000,-0.000000,9992.780217
510.487541,0.000000,-148.041188,9474.636058
510.487856,383.047749,148.041188,9400.615463
510.488172,459.657299,-0.000000,9474.636058
510.488487,76.609550,-222.061783,9400.615463
510.488803,536.266849,-222.061783,9178.553681
510.489118,306.438199,-148.041188,9400.615463
510.489434,306.438199,-518.144159,9252.574275
510.489750,76.609550,-592.164754,9474.636058
510.490065,-383.047749,-962.267725,9770.718434
510.490381,0.000000,-666.185348,9474.636058
510.490696,0.000000,-592.164754,9696.697840
510.491012,0.000000,-518.144159,9770.718434
510.491327,0.000000,-592.164754,9622.677246
510.491643,76.609550,-518.144159,9548.656652
510.491959,229.828649,-592.164754,9400.615463
510.492274,536.266849,-370.102971,9252.574275
510.492590,689.485948,-148.041188,9178.553681
510.492905,1302.362347,-296.082377,8956.491898
510.493221,1225.752797,-148.041188,8956.491898
510.493536,1455.581446,-148.041188,8660.409521
510.493852,1532.190996,-0.000000,8660.409521
510.494167,1532.190996,-0.000000,8734.430116
510.494483,1685.410096,-0.000000,8882.471304
510.494799,1455.581446,-74.020594,8808.450710
510.495114,1378.971896,-0.000000,9178.553681
510.495430,995.924147,-222.061783,9178.553681
510.495745,1149.143247,-74.020594,9474.636058
510.496061,919.314598,-666.185348,9548.656652
510.496376,612.876398,-74.020594,9474.636058
510.496692,919.314598,-296.082377,9474.636058
510.497007,842.705048,-0.000000,9400.615463
510.497323,1072.533697,-0.000000,9252.574275
510.497639,919.314598,222.061783,9252.574275
510.497954,1072.533697,-0.000000,9104.533087
510.498270,1378.971896,444.123565,9474.636058
510.498585,1455.581446,222.061783,9326.594869
510.498901,1455.581446,222.061783,9326.594869
510.499216,1608.800546,148.041188,9400.615463
510.499532,1378.971896,444.123565,9252.574275
510.499847,1302.362347,518.144159,9548.656652
510.500163,1072.533697,444.123565,9474.636058
510.500479,1225.752797,296.082377,9548.656652
510.500794,612.876398,444.123565,9770.718434
510.501110,459.657299,370.102971,9548.656652
510.501425,0.000000,296.082377,9770.718434
510.501741,0.000000,148.041188,9622.677246
510.502056,0.000000,-0.000000,9844.739029
510.502372,0.000000,-0.000000,10214.842000
510.502687,-383.047749,-370.102971,9992.780217
510.503003,-383.047749,-592.164754,9992.780217
510.503319,-612.876398,-444.123565,10140.821405
510.503634,-766.095498,-740.205942,10066.800811
510.503950,-536.266849,-148.041188,10214.842000
510.504265,-689.485948,-148.041188,10066.800811
510.504581,-229.828649,-74.020594,9770.718434
510.504896,0.000000,222.061783,9622.677246
510.505212,0.000000,-0.000000,9548.656652
510.505527,306.438199,-0.000000,9326.594869
510.505843,153.219100,-74.020594,9252.574275
510.506159,153.219100,-0.000000,9474.636058
510.506474,229.828649,-296.082377,9252.574275
510.506790,0.000000,-370.102971,9548.656652
510.507105,-306.438199,-888.247130,9400.615463
510.507421,0.000000,-666.185348,9548.656652
510.507736,-536.266849,-962.267725,9770.718434
510.508052,-612.876398,-962.267725,9696.697840
510.508367,0.000000,-666.185348,9548.656652
510.508683,-459.657299,-1036.288319,9696.697840
510.508999,-459.657299,-888.247130,9622.677246
510.509314,-306.438199,-962.267725,9400.615463
510.509630,76.609550,-888.247130,9400.615463
510.509945,306.438199,-592.164754,9030.512492
510.510261,612.876398,-518.144159,8882.471304
510.510576,842.705048,-444.123565,9104.533087
510.510892,1225.752797,-148.041188,8882.471304
510.511208,1378.971896,-296.082377,8660.409521
510.511523,1608.800546,-0.000000,8956.491898
510.511839,1685.410096,-148.041188,8882.471304
510.512154,1762.019645,-74.020594,8882.471304
510.512470,1455.581446,-74.020594,9030.512492
510.512785,1378.971896,-222.061783,9326.594869
510.513101,1302.362347,-222.061783,9326.594869
510.513416,766.095498,-296.082377,9696.697840
510.513732,536.266849,-296.082377,9326.594869
510.514048,612.876398,-370.102971,9474.636058
510.514363,919.314598,-222.061783,9474.636058
510.514679,612.876398,-74.020594,9474.636058
510.514994,766.095498,-222.061783,9474.636058
510.515310,842.705048,-148.041188,9400.615463
510.515625,995.924147,148.041188,9400.615463
510.515941,995.924147,370.102971,9400.615463
510.516256,919.314598,74.020594,9400.615463
510.516572,1225.752797,-0.000000,9400.615463
510.516888,995.924147,-0.000000,9178.553681
510.517203,995.924147,370.102971,9326.594869
510.517519,919.314598,518.144159,9622.677246
510.517834,612.876398,370.102971,9622.677246
510.518150,766.095498,444.123565,9770.718434
510.518465,612.876398,148.041188,9770.718434
510.518781,306.438199,-0.000000,9696.697840
510.519096,0.000000,-222.061783,9844.739029
510.519412,-76.609550,-0.000000,9770.718434
510.519728,-459.657299,-222.061783,9770.718434
510.520043,-383.047749,-0.000000,10066.800811
510.520359,-612.876398,-296.082377,9992.780217
510.520674,-459.657299,-740.205942,10140.821405
510.520990,-842.705048,-518.144159,10214.842000
510.521305,-612.876398,-444.123565,9992.780217
510.521621,-459.657299,-444.123565,10214.842000
510.521936,-383.047749,-740.205942,10066.800811
510.522252,-229.828649,-0.000000,9770.718434
510.522568,-153.219100,-148.041188,9622.677246
510.522883,76.609550,-0.000000,9474.636058
510.523199,0.000000,-0.000000,9326.594869
510.523514,229.828649,-222.061783,9548.656652
510.523830,459.657299,-222.061783,9252.574275
510.524145,229.828649,-296.082377,9252.574275
510.524461,153.219100,-370.102971,9326.594869
510.524776,229.828649,-666.185348,9326.594869
510.525092,0.000000,-666.185348,9474.636058
510.525408,0.000000,-740.205942,9474.636058
510.525723,0.000000,-1036.288319,9474.636058
510.526039,0.000000,-1184.329507,9622.677246
510.526354,153.219100,-1110.308913,9548.656652
510.526670,76.609550,-888.247130,9474.636058
510.526985,0.000000,-814.226536,9474.636058
510.527301,153.219100,-518.144159,9400.615463
510.527617,459.657299,-444.123565,9252.574275
510.527932,536.266849,-592.164754,8956.491898
510.528248,919.314598,-222.061783,8882.471304
510.528563,995.924147,-222.061783,8808.450710
510.528879,1455.581446,-222.061783,8734.430116
510.529194,1302.362347,-0.000000,9104.533087
510.529510,1685.410096,-296.082377,8438.347739
510.529825,1838.629195,-0.000000,8882.471304
510.530141,1149.143247,-74.020594,8882.471304
510.530457,1225.752797,-74.020594,9326.594869
510.530772,1072.533697,-148.041188,9326.594869
510.531088,1072.533697,-296.082377,9326.594869
510.531403,919.314598,-296.082377,9400.615463
510.531719,689.485948,-296.082377,9548.656652
510.532034,995.924147,-148.041188,9474.636058
510.532350,766.095498,-0.000000,9326.594869
510.532665,995.924147,-296.082377,9400.615463
510.532981,1455.581446,-0.000000,9326.594869
510.533297,1225.752797,148.041188,9326.594869
510.533612,1225.752797,222.061783,9400.615463
510.533928,1455.581446,222.061783,9178.553681
510.534243,1455.581446,222.061783,9252.574275
510.534559,1225.752797,296.082377,9252.574275
510.534874,1149.143247,222.061783,9400.615463
510.535190,1072.533697,592.164754,9548.656652
510.535505,1302.362347,444.123565,9548.656652
510.535821,612.876398,-0.000000,9474.636058
510.536137,383.047749,296.082377,9696.697840
510.536452,459.657299,518.144159,9770.718434
510.536768,76.609550,666.185348,9918.759623
510.537083,153.219100,-0.000000,9918.759623
510.537399,0.000000,222.061783,9918.759623
510.537714,-229.828649,-74.020594,9992.780217
510.538030,-536.266849,-74.020594,10066.800811
510.538345,-229.828649,-148.041188,10140.821405
510.538661,-689.485948,-370.102971,10288.862594
510.538977,-689.485948,-296.082377,10214.842000
510.539292,-459.657299,-444.123565,10140.821405
510.539608,-459.657299,-0.000000,9918.759623
510.539923,-383.047749,148.041188,9696.697840
510.540239,-383.047749,148.041188,9844.739029
510.540554,-153.219100,148.041188,9474.636058
510.540870,306.438199,-0.000000,9474.636058
510.541185,0.000000,-0.000000,9326.594869
510.541501,76.609550,-0.000000,9178.553681
510.541817,536.266849,-370.102971,9326.594869
510.542132,76.609550,-222.061783,9548.656652
510.542448,-229.828649,-370.102971,9696.697840
510.542763,-153.219100,-518.144159,9474.636058
510.543079,-383.047749,-592.164754,9770.718434
510.543394,-459.657299,-1258.350101,9844.739029
510.543710,-536.266849,-740.205942,9622.677246
510.544026,-459.657299,-814.226536,9770.718434
510.544341,-306.438199,-962.267725,9696.697840
510.544657,-229.828649,-888.247130,9622.677246
510.544972,306.438199,-814.226536,9400.615463
510.545288,459.657299,-518.144159,9030.512492
510.545603,766.095498,-222.061783,9030.512492
510.545919,919.314598,-370.102971,8882.471304
510.546234,1149.143247,-148.041188,8586.388927
510.546550,1532.190996,-740.205942,8734.430116
510.546866,1532.190996,-148.041188,8734.430116
510.547181,1455.581446,-74.020594,8882.471304
510.547497,1532.190996,-222.061783,8808.450710
510.547812,1608.800546,-148.041188,8956.491898
510.548128,1302.362347,-666.185348,9104.533087
510.548443,842.705048,-740.205942,9104.533087
510.548759,842.705048,-592.164754,9326.594869
510.549074,842.705048,-444.123565,9548.656652
510.549390,919.314598,-444.123565,9474.636058
510.549706,459.657299,-592.164754,9548.656652
510.550021,612.876398,-370.102971,9400.615463
510.550337,612.876398,-370.102971,9326.594869
510.550652,766.095498,-296.082377,9474.636058
510.550968,842.705048,-148.041188,9474.636058
510.551283,919.314598,-370.102971,9178.553681
510.551599,1225.752797,-0.000000,9400.615463
510.551914,1378.971896,148.041188,9326.594869
510.552230,1149.143247,-0.000000,9400.615463
510.552546,1302.362347,74.020594,9400.615463
510.552861,1072.533697,148.041188,9474.636058
510.553177,842.705048,222.061783,9474.636058
510.553492,689.485948,148.041188,9622.677246
510.553808,536.266849,-0.000000,9770.718434
510.554123,153.219100,-0.000000,9696.697840
510.554439,-229.828649,-148.041188,9844.739029
510.554754,0.000000,-0.000000,10066.800811
510.555070,-383.047749,-370.102971,9844.739029
510.555386,-536.266849,-370.102971,9844.739029
510.555701,-306.438199,-0.000000,10066.800811
510.556017,-536.266849,-444.123565,9992.780217
510.556332,-536.266849,-666.185348,9992.780217
510.556648,-536.266849,-518.144159,10066.800811
510.556963,-459.657299,-296.082377,10066.800811
510.557279,-153.219100,-370.102971,10214.842000
510.557594,0.000000,-0.000000,9918.759623
510.557910,-153.219100,-148.041188,9770.718434
510.558226,0.000000,-0.000000,9474.636058
510.558541,76.609550,-0.000000,9326.594869
510.558857,766.095498,-222.061783,9252.574275
510.559172,153.219100,-74.020594,9104.533087
510.559488,383.047749,-148.041188,9400.615463
510.559803,0.000000,-444.123565,9474.636058
510.560119,612.876398,-518.144159,9474.636058
510.560435,-153.219100,-592.164754,9474.636058
510.560750,0.000000,-740.205942,9548.656652
510.561066,0.000000,-666.185348,9844.739029
510.561381,0.000000,-740.205942,9770.718434
510.561697,-306.438199,-888.247130,9844.739029
510.562012,0.000000,-666.185348,9474.636058
510.562328,0.000000,-740.205942,9474.636058
510.562643,76.609550,-518.144159,9326.594869
510.562959,229.828649,-222.061783,9252.574275
510.563275,689.485948,-148.041188,8956.491898
510.563590,1149.143247,-74.020594,8808.450710
510.563906,1532.190996,-0.000000,8438.347739
510.564221,1762.019645,-0.000000,8808.450710
510.564537,1685.410096,-0.000000,8660.409521
510.564852,1532.190996,-222.061783,8956.491898
510.565168,1455.581446,-0.000000,9104.533087
510.565483,1302.362347,148.041188,9104.533087
510.565799,995.924147,-74.020594,9326.594869
510.566115,919.314598,-370.102971,9474.636058
510.566430,1072.533697,-0.000000,9400.615463
510.566746,842.705048,-370.102971,9548.656652
510.567061,689.485948,-148.041188,9622.677246
510.567377,689.485948,-74.020594,9548.656652
510.567692,459.657299,370.102971,9622.677246
510.568008,1072.533697,-0.000000,9474.636058
510.568323,1072.533697,222.061783,9548.656652
510.568639,1072.533697,296.082377,9400.615463
510.568955,1455.581446,148.041188,9252.574275
510.569270,1302.362347,296.082377,9400.615463
510.569586,1149.143247,296.082377,9400.615463
510.569901,1608.800546,518.144159,9252.574275
510.570217,1302.362347,592.164754,9548.656652
510.570532,1149.143247,444.123565,9326.594869
510.570848,1149.143247,518.144159,9622.677246
510.571163,612.876398,370.102971,9696.697840
510.571479,612.876398,370.102971,9622.677246
510.571795,76.609550,296.082377,9918.759623
510.572110,229.828649,296.082377,9918.759623
510.572426,-229.828649,-0.000000,9844.739029
510.572741,-153.219100,-0.000000,9918.759623
510.573057,-383.047749,-148.041188,10140.821405
510.573372,-459.657299,-444.123565,10066.800811
510.573688,-383.047749,-740.205942,10214.842000
510.574003,-536.266849,-444.123565,9918.759623
510.574319,-766.095498,-296.082377,9918.759623
510.574635,-536.266849,-518.144159,9992.780217
510.574950,-459.657299,-74.020594,9992.780217
510.575266,-306.438199,-74.020594,9622.677246
510.575581,-306.438199,-0.000000,9622.677246
510.575897,0.000000,-0.000000,9474.636058
510.576212,0.000000,-0.000000,9474.636058
510.576528,306.438199,-74.020594,9178.553681
510.576844,459.657299,-74.020594,8956.491898
510.577159,76.609550,-444.123565,9400.615463
510.577475,0.000000,-370.102971,9326.594869
510.577790,0.000000,-518.144159,9400.615463
510.578106,-153.219100,-814.226536,9474.636058
510.578421,-229.828649,-1036.288319,9474.636058
510.578737,-612.876398,-1184.329507,9696.697840
510.579052,-536.266849,-888.247130,9696.697840
510.579368,-383.047749,-1110.308913,9770.718434
510.579684,-612.876398,-888.247130,9622.677246
510.579999,76.609550,-1036.288319,9622.677246
510.580315,76.609550,-740.205942,9474.636058
510.580630,383.047749,-592.164754,9178.553681
510.580946,612.876398,-444.123565,8882.471304
510.581261,766.095498,-518.144159,8660.409521
510.581577,919.314598,-370.102971,8660.409521
510.581892,1455.581446,-148.041188,8808.450710
510.582208,1455.581446,-74.020594,8734.430116
510.582524,1685.410096,-148.041188,8734.430116
510.582839,1455.581446,-296.082377,8882.471304
510.583155,1225.752797,-222.061783,9548.656652
510.583470,1225.752797,-74.020594,9030.512492
510.583786,1149.143247,-296.082377,9326.594869
510.584101,842.705048,-296.082377,9252.574275
510.584417,995.924147,-370.102971,9548.656652
510.584733,612.876398,-444.123565,9474.636058
510.585048,612.876398,-296.082377,9474.636058
510.585364,612.876398,-296.082377,9474.636058
510.585680,612.876398,-0.000000,9400.615463
510.585995,1225.752797,-74.020594,9104.533087
510.586311,1072.533697,-0.000000,9400.615463
510.586627,919.314598,-0.000000,9400.615463
510.586942,1302.362347,370.102971,9326.594869
510.587258,1225.752797,296.082377,9474.636058
510.587574,1378.971896,-0.000000,9474.636058
510.587889,1149.143247,296.082377,9474.636058
510.588205,1072.533697,296.082377,9474.636058
510.588520,612.876398,444.123565,9474.636058
510.588836,536.266849,148.041188,9696.697840
510.589152,459.657299,148.041188,9622.677246
510.589467,153.219100,222.061783,9770.718434
510.589783,-306.438199,148.041188,9992.780217
510.590099,-229.828649,-0.000000,9918.759623
510.590414,-229.828649,-0.000000,9992.780217
510.590730,0.000000,-370.102971,10288.862594
510.591046,-306.438199,-296.082377,9992.780217
510.591361,-689.485948,-518.144159,9992.780217
510.591677,-689.485948,-444.123565,10140.821405
510.591993,-612.876398,-296.082377,10140.821405
510.592308,-536.266849,-444.123565,10214.842000
510.592624,-536.266849,-148.041188,9918.759623
510.592940,-229.828649,-0.000000,9770.718434
510.593255,153.219100,-0.000000,9696.697840
510.593571,0.000000,148.041188,9474.636058
510.593887,306.438199,148.041188,9326.594869
510.594202,383.047749,-0.000000,9252.574275
510.594518,536.266849,-148.041188,9178.553681
510.594834,306.438199,-444.123565,9178.553681
510.595149,1149.143247,-370.102971,9326.594869
510.595465,612.876398,-370.102971,9622.677246
510.595780,0.000000,-592.164754,9770.718434
510.596096,-229.828649,-592.164754,9696.697840
510.596412,-306.438199,-814.226536,9696.697840
510.596727,-459.657299,-740.205942,9918.759623
510.597043,0.000000,-962.267725,9770.718434
510.597359,-153.219100,-592.164754,9770.718434
510.597674,229.828649,-814.226536,9474.636058
510.597990,306.438199,-444.123565,9400.615463
510.598306,306.438199,-888.247130,9474.636058
510.598621,995.924147,-592.164754,9178.553681
510.598937,919.314598,-296.082377,9104.533087
510.599253,1378.971896,-222.061783,8882.471304
510.599568,1532.190996,-296.082377,8586.388927
510.599884,1072.533697,-370.102971,8586.388927
510.600200,1532.190996,-296.082377,8882.471304
510.600515,1608.800546,-148.041188,8956.491898
510.600831,1532.190996,-74.020594,8956.491898
510.601147,1455.581446,-222.061783,9178.553681
510.601462,1149.143247,-74.020594,9104.533087
510.601778,995.924147,-148.041188,9326.594869
510.602094,842.705048,-74.020594,9474.636058
510.602409,766.095498,-518.144159,9326.594869
510.602725,842.705048,-296.082377,9474.636058
510.603041,1302.362347,-370.102971,9474.636058
510.603356,919.314598,-0.000000,9252.574275
510.603672,1149.143247,-0.000000,9400.615463
510.603987,1225.752797,222.061783,9326.594869
510.604303,1149.143247,222.061783,9326.594869
510.604619,1915.238745,370.102971,9622.677246
510.604934,1302.362347,-0.000000,9400.615463
510.605250,1378.971896,370.102971,9400.615463
510.605566,1225.752797,518.144159,9474.636058
510.605881,1072.533697,518.144159,9548.656652
510.606197,995.924147,592.164754,9622.677246
510.606513,766.095498,444.123565,9622.677246
510.606828,459.657299,444.123565,9622.677246
510.607144,383.047749,296.082377,9696.697840
510.607460,76.609550,148.041188,9622.677246
510.607775,-229.828649,148.041188,9696.697840
510.608091,-536.266849,148.041188,10140.821405
510.608407,-536.266849,-0.000000,10066.800811
510.608722,-612.876398,-0.000000,10066.800811
510.609038,-306.438199,-444.123565,10140.821405
510.609354,-689.485948,-222.061783,10214.842000
510.609669,-842.705048,-222.061783,10140.821405
510.609985,-766.095498,-0.000000,10362.883188
510.610301,-536.266849,-0.000000,9992.780217
510.610616,0.000000,296.082377,9918.759623
510.610932,-153.219100,-0.000000,9918.759623
510.611248,0.000000,370.102971,9770.718434
510.611563,229.828649,-0.000000,9474.636058
510.611879,153.219100,148.041188,9474.636058
510.612194,536.266849,-518.144159,9104.533087
510.612510,153.219100,-0.000000,9326.594869
510.612826,153.219100,-0.000000,9400.615463
510.613141,0.000000,-222.061783,9622.677246
510.613457,153.219100,-518.144159,9696.697840
510.613773,0.000000,-592.164754,9474.636058
510.614088,-459.657299,-814.226536,9696.697840
510.614404,-536.266849,-444.123565,9770.718434
510.614720,-612.876398,-962.267725,9770.718434
510.615035,0.000000,-962.267725,9548.656652
510.615351,-229.828649,-814.226536,9548.656652
510.615667,76.609550,-592.164754,9474.636058
510.615982,459.657299,-518.144159,9178.553681
510.616298,689.485948,-444.123565,8956.491898
510.616614,919.314598,-222.061783,9030.512492
510.616929,995.924147,-296.082377,8882.471304
510.617245,1378.971896,-0.000000,8734.430116
510.617561,1455.581446,-74.020594,8586.388927
510.617876,1302.362347,-74.020594,8660.409521
510.618192,1608.800546,-0.000000,8882.471304
510.618508,1608.800546,-148.041188,9030.512492
510.618823,1225.752797,-296.082377,9030.512492
510.619139,1072.533697,-296.082377,9178.553681
510.619454,689.485948,-666.185348,9400.615463
510.619770,842.705048,-296.082377,9400.615463
510.620086,689.485948,-444.123565,9696.697840
510.620401,689.485948,-518.144159,9326.594869
510.620717,536.266849,-518.144159,9474.636058
510.621033,1072.533697,-74.020594,9548.656652
510.621348,842.705048,-148.041188,9252.574275
510.621664,995.924147,-222.061783,9326.594869
510.621980,842.705048,-74.020594,9400.615463
510.622295,842.705048,-0.000000,9252.574275
510.622611,995.924147,-74.020594,9104.533087
510.622927,995.924147,-0.000000,9252.574275
510.623242,995.924147,296.082377,9252.574275
510.623558,919.314598,-0.000000,9400.615463
510.623874,689.485948,370.102971,9326.594869
510.624189,153.219100,-148.041188,9622.677246
510.624505,306.438199,-74.020594,9548.656652
510.624821,76.609550,-0.000000,9918.759623
510.625136,0.000000,-148.041188,9770.718434
510.625452,-229.828649,-148.041188,9918.759623
510.625768,-229.828649,-148.041188,10288.862594
510.626083,-383.047749,-222.061783,9992.780217
510.626399,-459.657299,-296.082377,9918.759623
510.626715,-766.095498,-666.185348,9992.780217
510.627030,-842.705048,-888.247130,9918.759623
510.627346,-919.314598,-666.185348,10214.842000
510.627661,-536.266849,-740.205942,10140.821405
510.627977,-612.876398,-370.102971,10214.842000
510.628293,-459.657299,-296.082377,9770.718434
510.628608,0.000000,-74.020594,9696.697840
510.628924,-229.828649,-0.000000,9622.677246
510.629240,153.219100,-0.000000,9474.636058
510.629555,306.438199,-0.000000,9400.615463
510.629871,306.438199,-148.041188,9178.553681
510.630187,612.876398,-148.041188,9400.615463
510.630502,612.876398,-222.061783,9474.636058
510.630818,229.828649,-370.102971,9400.615463
510.631134,153.219100,-444.123565,9548.656652
510.631449,0.000000,-740.205942,9622.677246
510.631765,0.000000,-666.185348,9622.677246
510.632081,-153.219100,-666.185348,9918.759623
510.632396,0.000000,-666.185348,9770.718434
510.632712,-153.219100,-592.164754,9622.677246
510.633028,0.000000,-592.164754,9548.656652
510.633343,459.657299,-592.164754,9400.615463
510.633659,766.095498,-518.144159,9400.615463
510.633975,536.266849,-370.102971,9178.553681
510.634290,1149.143247,-74.020594,8882.471304
510.634606,1302.362347,-0.000000,8660.409521
510.634921,1455.581446,-222.061783,8660.409521
510.635237,1455.581446,-0.000000,8660.409521
510.635553,1685.410096,-0.000000,8956.491898
510.635868,1378.971896,-0.000000,8808.450710
510.636184,1378.971896,-74.020594,8956.491898
510.636500,1149.143247,-0.000000,9400.615463
510.636815,1455.581446,-222.061783,9252.574275
510.637131,995.924147,-0.000000,9622.677246
510.637447,689.485948,-74.020594,9548.656652
510.637762,689.485948,-222.061783,9474.636058
510.638078,919.314598,-222.061783,9252.574275
510.638394,1072.533697,-0.000000,9622.677246
510.638709,766.095498,-0.000000,9474.636058
510.639025,1072.533697,-0.000000,9400.615463
510.639341,995.924147,222.061783,9400.615463
510.639656,1072.533697,296.082377,9474.636058
510.639972,1532.190996,-0.000000,9178.553681
510.640288,1072.533697,148.041188,9252.574275
510.640603,1302.362347,370.102971,9400.615463
510.640919,1149.143247,518.144159,9474.636058
510.641235,1149.143247,444.123565,9474.636058
510.641550,995.924147,518.144159,9400.615463
510.641866,689.485948,444.123565,9696.697840
510.642182,459.657299,444.123565,9770.718434
510.642497,383.047749,444.123565,9770.718434
510.642813,0.000000,444.123565,9622.677246
510.643128,0.000000,592.164754,9918.759623
510.643444,0.000000,-74.020594,9992.780217
510.643760,-229.828649,-0.000000,10214.842000
510.644075,-766.095498,-222.061783,10066.800811
510.644391,-383.047749,-222.061783,10140.821405
510.644707,-766.095498,-296.082377,10140.821405
510.645022,-919.314598,-444.123565,10066.800811
510.645338,-842.705048,-296.082377,10066.800811
510.645654,-536.266849,-148.041188,9844.739029
510.645969,-306.438199,-148.041188,9918.759623
510.646285,-229.828649,222.061783,9770.718434
510.646601,0.000000,-74.020594,9178.553681
510.646916,76.609550,-0.000000,9178.553681
510.647232,383.047749,-0.000000,9178.553681
510.647548,-153.219100,-592.164754,9178.553681
510.647863,459.657299,-296.082377,9252.574275
510.648179,76.609550,-370.102971,9400.615463
510.648495,0.000000,-592.164754,9326.594869
510.648810,-229.828649,-740.205942,9474.636058
510.649126,-229.828649,-888.247130,9622.677246
510.649442,0.000000,-962.267725,9622.677246
510.649757,-612.876398,-1110.308913,9696.697840
510.650073,-306.438199,-888.247130,9622.677246
510.650388,-306.438199,-888.247130,9548.656652
510.650704,0.000000,-1036.288319,9178.553681
510.651020,-153.219100,-814.226536,9400.615463
510.651335,306.438199,-740.205942,9178.553681
510.651651,459.657299,-592.164754,9030.512492
510.651967,1378.971896,-444.123565,8586.388927
510.652282,1302.362347,-370.102971,8734.430116
510.652598,1532.190996,-444.123565,8660.409521
510.652914,1762.019645,-296.082377,8660.409521
510.653229,1378.971896,-296.082377,8660.409521
510.653545,1685.410096,-222.061783,8882.471304
510.653861,1149.143247,-518.144159,8882.471304
510.654176,1149.143247,-296.082377,9326.594869
510.654492,1149.143247,-148.041188,9252.574275
510.654808,995.924147,-296.082377,9400.615463
510.655123,1149.143247,-370.102971,9770.718434
510.655439,919.314598,-296.082377,9622.677246
510.655755,612.876398,-222.061783,9400.615463
510.656070,536.266849,-296.082377,9326.594869
510.656386,536.266849,-296.082377,9326.594869
510.656702,1072.533697,-0.000000,9548.656652
510.657017,1072.533697,-222.061783,9252.574275
510.657333,919.314598,-0.000000,9474.636058
510.657649,1149.143247,148.041188,9474.636058
510.657964,1072.533697,148.041188,9400.615463
510.658280,919.314598,296.082377,9474.636058
510.658595,1149.143247,296.082377,9548.656652
510.658911,1302.362347,444.123565,9474.636058
510.659227,842.705048,296.082377,9400.615463
510.659542,689.485948,370.102971,9548.656652
510.659858,612.876398,296.082377,9992.780217
510.660174,0.000000,-0.000000,9844.739029
510.660489,0.000000,222.061783,9770.718434
510.660805,-229.828649,-0.000000,9696.697840
510.661121,-153.219100,-74.020594,9696.697840
510.661436,-536.266849,-370.102971,9992.780217
510.661752,-766.095498,-74.020594,10140.821405
510.662068,-689.485948,-296.082377,10066.800811
510.662383,-689.485948,-444.123565,9992.780217
510.662699,-766.095498,-518.144159,10140.821405
510.663015,-689.485948,-518.144159,10214.842000
510.663330,-689.485948,-148.041188,10140.821405
510.663646,-383.047749,-222.061783,9844.739029
510.663962,-306.438199,-0.000000,9622.677246
510.664277,-459.657299,-74.020594,9844.739029
510.664593,229.828649,370.102971,9326.594869
510.664909,306.438199,-0.000000,9104.533087
510.665224,229.828649,-148.041188,9326.594869
510.665540,383.047749,-148.041188,9178.553681
510.665856,306.438199,-370.102971,9474.636058
510.666171,0.000000,-444.123565,9474.636058
510.666487,0.000000,-592.164754,9474.636058
510.666802,0.000000,-814.226536,9696.697840
510.667118,-229.828649,-666.185348,9770.718434
510.667434,-383.047749,-666.185348,9844.739029
510.667749,-459.657299,-740.205942,9918.759623
510.668065,-229.828649,-740.205942,9548.656652
510.668381,76.609550,-518.144159,9474.636058
510.668696,229.828649,-592.164754,9474.636058
510.669012,459.657299,-518.144159,9400.615463
510.669328,536.266849,-518.144159,9104.533087
510.669643,1149.143247,-444.123565,9030.512492
510.669959,1378.971896,-296.082377,8882.471304
510.670275,1532.190996,-370.102971,8808.450710
510.670590,1685.410096,-444.123565,8882.471304
510.670906,1762.019645,-0.000000,8808.450710
510.671222,1838.629195,-0.000000,8956.491898
510.671537,1378.971896,-222.061783,8956.491898
510.671853,1072.533697,-222.061783,9178.553681
510.672169,1302.362347,-222.061783,9252.574275
510.672484,1225.752797,-370.102971,9326.594869
510.672800,995.924147,-148.041188,9474.636058
510.673116,842.705048,-444.123565,9474.636058
510.673431,1149.143247,-370.102971,9252.574275
510.673747,842.705048,-74.020594,9622.677246
510.674062,1149.143247,-222.061783,9400.615463
510.674378,995.924147,-74.020594,9400.615463
510.674694,1302.362347,-148.041188,9474.636058
510.675009,1072.533697,-0.000000,9474.636058
510.675325,1378.971896,-0.000000,9400.615463
510.675641,1225.752797,222.061783,9326.594869
510.675956,1378.971896,148.041188,9400.615463
510.676272,1302.362347,148.041188,9400.615463
510.676588,1149.143247,296.082377,9474.636058
510.676903,842.705048,222.061783,9474.636058
510.677219,919.314598,370.102971,9548.656652
510.677535,766.095498,-0.000000,9918.759623
510.677850,536.266849,-0.000000,9622.677246
510.678166,229.828649,222.061783,9474.636058
510.678482,0.000000,-0.000000,9696.697840
510.678797,0.000000,-0.000000,9696.697840
510.679113,0.000000,-296.082377,9918.759623
510.679429,-383.047749,-74.020594,9918.759623
510.679744,-689.485948,-148.041188,10066.800811
510.680060,-689.485948,-444.123565,10140.821405
510.680376,-612.876398,-296.082377,10140.821405
510.680691,-766.095498,-148.041188,10066.800811
510.681007,-842.705048,-370.102971,9918.759623
510.681323,-306.438199,-0.000000,9622.677246
510.681638,-153.219100,-0.000000,9696.697840
510.681954,0.000000,148.041188,9474.636058
510.682269,0.000000,-0.000000,9326.594869
510.682585,153.219100,222.061783,9178.553681
510.682901,383.047749,-0.000000,9252.574275
510.683216,229.828649,-74.020594,9326.594869
510.683532,76.609550,-0.000000,9474.636058
510.683848,0.000000,-296.082377,9400.615463
510.684163,-536.266849,-444.123565,9548.656652
510.684479,-306.438199,-444.123565,9474.636058
510.684795,-306.438199,-592.164754,9696.697840
510.685110,-459.657299,-444.123565,9696.697840
510.685426,-459.657299,-592.164754,9770.718434
510.685742,-383.047749,-740.205942,9622.677246
510.686057,-229.828649,-592.164754,9622.677246
510.686373,0.000000,-592.164754,9474.636058
510.686689,0.000000,-518.144159,9252.574275
510.687004,689.485948,-0.000000,9178.553681
510.687320,766.095498,-74.020594,8956.491898
510.687636,995.924147,-222.061783,8660.409521
510.687952,1302.362347,-0.000000,8956.491898
510.688267,1455.581446,-0.000000,8734.430116
510.688583,1532.190996,-0.000000,8882.471304
510.688899,1455.581446,-0.000000,8808.450710
510.689214,1608.800546,-74.020594,8882.471304
510.689530,1378.971896,-444.123565,8882.471304
510.689846,1072.533697,-148.041188,9474.636058
510.690161,842.705048,-222.061783,9474.636058
510.690477,1302.362347,-518.144159,9400.615463
510.690793,689.485948,-592.164754,9548.656652
510.691108,995.924147,-444.123565,9548.656652
510.691424,536.266849,-296.082377,9548.656652
510.691740,689.485948,-370.102971,9252.574275
510.692056,842.705048,-74.020594,9696.697840
510.692371,842.705048,-74.020594,9474.636058
510.692687,1072.533697,-0.000000,9326.594869
510.693003,1378.971896,-0.000000,9326.594869
510.693318,689.485948,-0.000000,9252.574275
510.693634,766.095498,296.082377,9474.636058
510.693950,842.705048,148.041188,9474.636058
510.694265,842.705048,222.061783,9326.594869
510.694581,919.314598,222.061783,9400.615463
510.694897,842.705048,296.082377,9474.636058
510.695212,536.266849,-0.000000,9622.677246
510.695528,76.609550,-0.000000,9770.718434
510.695844,306.438199,-0.000000,9622.677246
510.696160,-306.438199,-0.000000,9770.718434
510.696475,-229.828649,-74.020594,9770.718434
510.696791,-306.438199,-814.226536,9622.677246
510.697107,0.000000,-296.082377,9844.739029
510.697422,-689.485948,-592.164754,10066.800811
510.697738,-612.876398,-740.205942,9992.780217
510.698054,-612.876398,-740.205942,10140.821405
510.698369,-919.314598,-518.144159,9992.780217
510.698685,-383.047749,-296.082377,9992.780217
510.699001,-459.657299,-296.082377,9696.697840
510.699316,0.000000,-222.061783,9696.697840
510.699632,-229.828649,-74.020594,9548.656652
510.699948,76.609550,-296.082377,9400.615463
510.700263,306.438199,-0.000000,9252.574275
510.700579,153.219100,-74.020594,9252.574275
510.700895,229.828649,-296.082377,9326.594869
510.701211,459.657299,-370.102971,9252.574275
510.701526,306.438199,-370.102971,9474.636058
510.701842,306.438199,-740.205942,9326.594869
510.702158,76.609550,-666.185348,9548.656652
510.702473,0.000000,-814.226536,9622.677246
510.702789,-306.438199,-888.247130,9548.656652
510.703105,-153.219100,-814.226536,9622.677246
510.703420,-383.047749,-1036.288319,9622.677246
510.703736,76.609550,-740.205942,9548.656652
510.704052,229.828649,-592.164754,9474.636058
510.704367,459.657299,-444.123565,9104.533087
510.704683,766.095498,-370.102971,9030.512492
510.704999,1072.533697,-148.041188,8882.471304
510.705315,1225.752797,-74.020594,8882.471304
510.705630,1378.971896,-0.000000,9030.512492
510.705946,1532.190996,-222.061783,8956.491898
510.706262,1915.238745,-0.000000,8586.388927
510.706577,1378.971896,-0.000000,8808.450710
510.706893,1685.410096,-0.000000,8956.491898
510.707209,1532.190996,-74.020594,9104.533087
510.707524,1685.410096,-74.020594,9326.594869
510.707840,1072.533697,-0.000000,9474.636058
510.708156,842.705048,-148.041188,9474.636058
510.708471,689.485948,-74.020594,9474.636058
510.708787,919.314598,-0.000000,9474.636058
510.709103,766.095498,-222.061783,9474.636058
510.709419,842.705048,-0.000000,9474.636058
510.709734,1072.533697,296.082377,9326.594869
510.710050,1149.143247,148.041188,9474.636058
510.710366,995.924147,148.041188,9326.594869
510.710681,1455.581446,296.082377,9548.656652
510.710997,1225.752797,370.102971,9474.636058
510.711313,1455.581446,222.061783,9474.636058
510.711628,1378.971896,666.185348,9474.636058
510.711944,689.485948,444.123565,9474.636058
510.712260,995.924147,370.102971,9474.636058
510.712575,919.314598,222.061783,9474.636058
510.712891,459.657299,296.082377,9696.697840
510.713207,459.657299,444.123565,9918.759623
510.713522,76.609550,296.082377,9696.697840
510.713838,0.000000,222.061783,9770.718434
510.714154,-153.219100,-0.000000,9770.718434
510.714470,-459.657299,-74.020594,9844.739029
510.714785,-459.657299,-222.061783,10066.800811
510.715101,-459.657299,-296.082377,10140.821405
510.715417,-995.924147,-444.123565,10140.821405
510.715732,-689.485948,-518.144159,10288.862594
510.716048,-689.485948,-222.061783,10066.800811
510.716364,-459.657299,-222.061783,9844.739029
510.716679,-459.657299,-518.144159,9770.718434
510.716995,-306.438199,-0.000000,9622.677246
510.717311,0.000000,-0.000000,9400.615463
510.717626,0.000000,148.041188,9326.594869
510.717942,153.219100,-74.020594,9178.553681
510.718258,459.657299,-0.000000,9178.553681
510.718574,153.219100,-222.061783,9104.533087
510.718889,229.828649,-592.164754,9400.615463
510.719205,0.000000,-444.123565,9474.636058
510.719521,0.000000,-666.185348,9474.636058
510.719836,-306.438199,-1036.288319,9770.718434
510.720152,-612.876398,-962.267725,9696.697840
510.720468,-536.266849,-962.267725,9770.718434
510.720783,-536.266849,-1184.329507,9770.718434
510.721099,-612.876398,-814.226536,9548.656652
510.721415,-536.266849,-666.185348,9918.759623
510.721730,-229.828649,-888.247130,9400.615463
510.722046,153.219100,-666.185348,9326.594869
510.722362,689.485948,-370.102971,9326.594869
510.722678,842.705048,-518.144159,8882.471304
510.722993,1072.533697,-296.082377,9030.512492
510.723309,1302.362347,-222.061783,8882.471304
510.723625,1608.800546,-222.061783,8734.430116
510.723940,1532.190996,-222.061783,8734.430116
510.724256,1072.533697,-370.102971,8956.491898
510.724572,1532.190996,-444.123565,8882.471304
510.724887,1225.752797,-148.041188,9178.553681
510.725203,1149.143247,-296.082377,9178.553681
510.725519,842.705048,-296.082377,9474.636058
510.725834,689.485948,-592.164754,9474.636058
510.726150,689.485948,-370.102971,9548.656652
510.726466,842.705048,-296.082377,9696.697840
510.726781,689.485948,-296.082377,9474.636058
510.727097,612.876398,-148.041188,9400.615463
510.727413,842.705048,-148.041188,9326.594869
510.727729,919.314598,-370.102971,9252.574275
510.728044,995.924147,-0.000000,9474.636058
510.728360,1072.533697,296.082377,9326.594869
510.728676,1149.143247,-0.000000,9400.615463
510.728991,1225.752797,-0.000000,9474.636058
510.729307,1072.533697,148.041188,9400.615463
510.729623,1225.752797,296.082377,9326.594869
510.729938,689.485948,296.082377,9622.677246
510.730254,153.219100,-0.000000,9474.636058
510.730570,766.095498,-0.000000,9622.677246
510.730885,306.438199,74.020594,9770.718434
510.731201,229.828649,-0.000000,9622.677246
510.731517,0.000000,-0.000000,9844.739029
510.731833,-766.095498,-0.000000,9696.697840
510.732148,-306.438199,-74.020594,9992.780217
510.732464,-536.266849,-148.041188,10140.821405
510.732780,-612.876398,-444.123565,10066.800811
510.733095,-766.095498,-444.123565,9992.780217
510.733411,-689.485948,-740.205942,10288.862594
510.733727,-459.657299,-222.061783,10066.800811
510.734042,-612.876398,-370.102971,9622.677246
510.734358,-536.266849,-74.020594,9770.718434
510.734674,-459.657299,-0.000000,9696.697840
510.734989,0.000000,-0.000000,9548.656652
510.735305,153.219100,-0.000000,9474.636058
510.735621,306.438199,148.041188,9030.512492
510.735937,536.266849,222.061783,9326.594869
510.736252,383.047749,-0.000000,9104.533087
510.736568,153.219100,-222.061783,9326.594869
510.736884,459.657299,-222.061783,9400.615463
510.737199,0.000000,-296.082377,9474.636058
510.737515,153.219100,-444.123565,9696.697840
510.737831,-229.828649,-444.123565,9844.739029
510.738146,-229.828649,-740.205942,9844.739029
510.738462,-306.438199,-444.123565,9844.739029
510.738778,-229.828649,-666.185348,9474.636058
510.739093,0.000000,-518.144159,9474.636058
510.739409,76.609550,-370.102971,9400.615463
510.739725,536.266849,-444.123565,9178.553681
510.740040,842.705048,-296.082377,9104.533087
510.740356,842.705048,-148.041188,9104.533087
510.740672,1302.362347,-0.000000,8734.430116
510.740988,1072.533697,-518.144159,8956.491898
510.741303,1378.971896,-74.020594,8956.491898
510.741619,1685.410096,-74.020594,8882.471304
510.741935,1378.971896,-0.000000,8882.471304
510.742250,1455.581446,222.061783,9400.615463
510.742566,1302.362347,-0.000000,9326.594869
510.742882,1072.533697,-222.061783,9326.594869
510.743197,842.705048,-0.000000,9474.636058
510.743513,842.705048,-222.061783,9474.636058
510.743829,995.924147,-222.061783,9770.718434
510.744144,842.705048,-296.082377,9474.636058
510.744460,1149.143247,-74.020594,9622.677246
510.744776,919.314598,-0.000000,9474.636058
510.745092,919.314598,-0.000000,9400.615463
510.745407,919.314598,-0.000000,9400.615463
510.745723,1149.143247,-0.000000,9474.636058
510.746039,1455.581446,-0.000000,9400.615463
510.746354,1378.971896,-0.000000,9326.594869
510.746670,1225.752797,444.123565,9474.636058
510.746986,1455.581446,222.061783,9696.697840
510.747301,536.266849,222.061783,9252.574275
510.747617,842.705048,592.164754,9844.739029
510.747933,1149.143247,444.123565,9844.739029
510.748248,612.876398,296.082377,9622.677246
510.748564,383.047749,370.102971,9622.677246
510.748880,383.047749,-0.000000,9622.677246
510.749196,0.000000,-0.000000,9770.718434
510.749511,-153.219100,-0.000000,9844.739029
510.749827,-229.828649,-222.061783,9844.739029
510.750143,-459.657299,-296.082377,9992.780217
510.750458,-383.047749,-814.226536,10214.842000
510.750774,-766.095498,-740.205942,10140.821405
510.751090,-459.657299,-296.082377,9992.780217
510.751405,-689.485948,-222.061783,10214.842000
510.751721,-612.876398,-74.020594,10066.800811
510.752037,-459.657299,-74.020594,9548.656652
510.752352,-383.047749,148.041188,9696.697840
510.752668,0.000000,-0.000000,9400.615463
510.752984,153.219100,-0.000000,9548.656652
510.753300,229.828649,-0.000000,9326.594869
510.753615,0.000000,-222.061783,9474.636058
510.753931,536.266849,-222.061783,9326.594869
510.754247,0.000000,-370.102971,9326.594869
510.754562,76.609550,-370.102971,9400.615463
510.754878,-459.657299,-666.185348,9548.656652
510.755194,-229.828649,-518.144159,9622.677246
510.755509,-459.657299,-592.164754,9770.718434
510.755825,-612.876398,-740.205942,9622.677246
510.756141,-612.876398,-888.247130,9622.677246
510.756456,0.000000,-1258.350101,9622.677246
510.756772,-306.438199,-592.164754,9474.636058
510.757088,229.828649,-592.164754,9252.574275
510.757403,229.828649,-592.164754,9252.574275
510.757719,612.876398,-592.164754,9178.553681
510.758035,1072.533697,-666.185348,8956.491898
510.758351,1302.362347,-222.061783,8586.388927
510.758666,1225.752797,-222.061783,8734.430116
510.758982,1455.581446,-222.061783,8586.388927
510.759298,1608.800546,-0.000000,8882.471304
510.759613,1608.800546,-0.000000,8882.471304
510.759929,1378.971896,-74.020594,8882.471304
510.760245,1378.971896,-74.020594,9104.533087
510.760560,919.314598,-74.020594,9400.615463
510.760876,995.924147,-222.061783,9252.574275
510.761192,919.314598,-370.102971,9770.718434
510.761507,689.485948,-148.041188,9474.636058
510.761823,612.876398,-296.082377,9400.615463
510.762139,612.876398,-296.082377,9474.636058
510.762455,1302.362347,-296.082377,9474.636058
510.762770,689.485948,-74.020594,9474.636058
510.763086,689.485948,-148.041188,9474.636058
510.763402,766.095498,-0.000000,9548.656652
510.763717,995.924147,-0.000000,9400.615463
510.764033,1225.752797,-0.000000,9252.574275
510.764349,1302.362347,-0.000000,9400.615463
510.764664,919.314598,296.082377,9474.636058
510.764980,995.924147,370.102971,9474.636058
510.765296,919.314598,370.102971,9400.615463
510.765611,766.095498,222.061783,9770.718434
510.765927,689.485948,-0.000000,9770.718434
510.766243,612.876398,-0.000000,9844.739029
510.766559,153.219100,-0.000000,9696.697840
510.766874,-153.219100,-74.020594,9770.718434
510.767190,-153.219100,-222.061783,9844.739029
510.767506,-383.047749,-222.061783,9770.718434
510.767821,-383.047749,-296.082377,9992.780217
510.768137,-306.438199,-592.164754,10066.800811
510.768453,-536.266849,-740.205942,9992.780217
510.768768,-459.657299,-814.226536,9992.780217
510.769084,-536.266849,-444.123565,9844.739029
510.769400,-536.266849,-444.123565,9918.759623
510.769715,-459.657299,-148.041188,9770.718434
510.770031,-383.047749,-148.041188,9770.718434
510.770347,-306.438199,-74.020594,9326.594869
510.770662,153.219100,-0.000000,9400.615463
510.770978,459.657299,-0.000000,9178.553681
510.771294,383.047749,-296.082377,9104.533087
510.771610,459.657299,-222.061783,9178.553681
510.771925,919.314598,-814.226536,9104.533087
510.772241,76.609550,-518.144159,9178.553681
510.772557,153.219100,-444.123565,9474.636058
510.772872,-229.828649,-592.164754,9622.677246
510.773188,0.000000,-740.205942,9548.656652
510.773504,0.000000,-888.247130,9770.718434
510.773819,-306.438199,-888.247130,9622.677246
510.774135,-306.438199,-814.226536,9548.656652
510.774451,0.000000,-740.205942,9474.636058
510.774766,0.000000,-740.205942,9474.636058
510.775082,689.485948,-740.205942,8956.491898
510.775398,536.266849,-222.061783,9326.594869
510.775714,1072.533697,-296.082377,8882.471304
510.776029,1225.752797,-74.020594,8882.471304
510.776345,1455.581446,-370.102971,8660.409521
510.776661,1608.800546,-222.061783,8808.450710
510.776976,1608.800546,-0.000000,8808.450710
510.777292,1685.410096,-0.000000,8808.450710
510.777608,1455.581446,-148.041188,9178.553681
510.777923,1685.410096,-222.061783,9030.512492
510.778239,612.876398,-148.041188,9400.615463
510.778555,995.924147,-74.020594,9474.636058
510.778870,1072.533697,-222.061783,9474.636058
510.779186,766.095498,-296.082377,9474.636058
510.779502,1072.533697,-222.061783,9844.739029
510.779818,766.095498,-74.020594,9474.636058
510.780133,766.095498,-0.000000,9548.656652
510.780449,842.705048,-0.000000,9474.636058
510.780765,1302.362347,148.041188,9474.636058
510.781080,1225.752797,222.061783,9326.594869
510.781396,1532.190996,222.061783,9326.594869
510.781712,1302.362347,148.041188,9326.594869
510.782027,1302.362347,148.041188,9400.615463
510.782343,1378.971896,296.082377,9474.636058
510.782659,1149.143247,296.082377,9178.553681
510.782974,1225.752797,444.123565,9474.636058
510.783290,995.924147,592.164754,9474.636058
510.783606,766.095498,444.123565,9918.759623
510.783921,536.266849,370.102971,9844.739029
510.784237,76.609550,-0.000000,9696.697840
