#time,accel_x,accel_y,accel_z
678.929983,3983.696590,1554.432478,8068.244768
678.930299,3983.696590,2220.617826,7994.224174
678.930614,4213.525239,1554.432478,7994.224174
678.930930,3753.867940,1998.556043,8660.409521
678.931246,3370.820191,1924.535449,9030.512492
678.931561,2528.115143,1850.514855,9400.615463
678.931877,1915.238745,1776.494261,9770.718434
678.932193,1225.752797,1480.411884,10584.944971
678.932508,612.876398,1184.329507,10510.924376
678.932824,229.828649,1110.308913,10732.986159
678.933140,-229.828649,962.267725,10732.986159
678.933455,0.000000,444.123565,10658.965565
678.933771,0.000000,-74.020594,10288.862594
678.934086,0.000000,-222.061783,10510.924376
678.934402,459.657299,518.144159,10362.883188
678.934718,1149.143247,962.267725,10214.842000
678.935033,1378.971896,1036.288319,9548.656652
678.935349,2221.676944,1258.350101,9474.636058
678.935665,2451.505594,1850.514855,9400.615463
678.935980,3064.381992,1850.514855,8882.471304
678.936296,3600.648841,2368.659014,8808.450710
678.936612,3830.477490,2738.761985,8660.409521
678.936927,4060.306139,2812.782580,8586.388927
678.937243,4290.134789,3256.906145,8660.409521
678.937558,3983.696590,3404.947333,8586.388927
678.937874,3983.696590,2886.803174,8438.347739
678.938190,3830.477490,2368.659014,9252.574275
678.938505,3294.210641,1924.535449,9326.594869
678.938821,3370.820191,1924.535449,9548.656652
678.939137,3140.991542,1628.453072,9770.718434
678.939452,2911.162892,1998.556043,9844.739029
678.939768,2298.286494,2368.659014,9918.759623
678.940083,2528.115143,2664.741391,9844.739029
678.940399,2451.505594,3034.844362,9400.615463
678.940715,2604.724693,3330.926739,9400.615463
678.941030,3217.601092,3404.947333,9400.615463
678.941346,3600.648841,3478.967927,9030.512492
678.941662,4060.306139,3404.947333,8882.471304
678.941977,4213.525239,3627.009116,8734.430116
678.942293,4366.744339,3627.009116,8882.471304
678.942609,4826.401637,3701.029710,8808.450710
678.942924,4290.134789,3552.988522,8660.409521
678.943240,4136.915689,3478.967927,9030.512492
678.943555,3907.087040,3552.988522,9400.615463
678.943871,3677.258390,3627.009116,9400.615463
678.944187,2681.334243,3775.050304,9548.656652
678.944502,2451.505594,3256.906145,9178.553681
678.944818,1762.019645,3552.988522,9770.718434
678.945134,919.314598,2812.782580,9770.718434
678.945449,459.657299,2368.659014,10214.842000
678.945765,0.000000,1850.514855,10732.986159
678.946080,-229.828649,1110.308913,11325.150913
678.946396,-306.438199,740.205942,11843.295072
678.946712,76.609550,444.123565,11843.295072
678.947027,459.657299,1036.288319,11843.295072
678.947343,919.314598,1110.308913,11251.130318
678.947659,2298.286494,2220.617826,11029.068536
678.947974,3600.648841,2886.803174,9918.759623
678.948290,4673.182538,3701.029710,8734.430116
678.948606,5209.449386,4145.153275,8142.265362
678.948921,6741.640382,4367.215058,7772.162391
678.949237,6052.154434,4219.173869,7328.038826
678.949552,5745.716235,3849.070898,7179.997637
678.949868,4826.401637,3923.091493,7328.038826
678.950184,3983.696590,3182.885551,7772.162391
678.950499,2528.115143,2146.597232,8734.430116
678.950815,1378.971896,962.267725,9548.656652
678.951131,0.000000,-370.102971,10658.965565
678.951446,-1455.581446,-1924.535449,11547.212695
678.951762,-2374.896044,-3034.844362,12583.501014
678.952077,-2911.162892,-3552.988522,13397.727550
678.952393,-2604.724693,-3330.926739,13767.830521
678.952709,-2221.676944,-2220.617826,12805.562797
678.953024,-689.485948,-962.267725,11769.274478
678.953340,459.657299,518.144159,10584.944971
678.953656,2604.724693,2368.659014,8660.409521
678.953971,4749.792088,3256.906145,6809.894666
678.954287,6205.373534,3997.112087,5773.606348
678.954603,6971.469032,4293.194464,4219.173869
678.954918,7584.345430,4219.173869,4071.132681
678.955234,6971.469032,3627.009116,4737.318029
678.955549,5975.544884,2294.638420,6217.729913
678.955865,4060.306139,518.144159,7772.162391
678.956181,1762.019645,-1554.432478,9474.636058
678.956496,-459.657299,-3182.885551,12139.377449
678.956812,-2221.676944,-4367.215058,13915.871710
678.957128,-3447.429741,-3997.112087,14508.036463
678.957443,-3217.601092,-3182.885551,14508.036463
678.957759,-2834.553343,-2072.576638,13693.809927
678.958075,-995.924147,-148.041188,11843.295072
678.958390,536.266849,1924.535449,9326.594869
678.958706,2451.505594,3034.844362,7624.121203
678.959022,5286.058936,2590.720797,6217.729913
678.959337,6971.469032,3034.844362,5551.544565
678.959653,8273.831378,3256.906145,4367.215058
678.959969,8733.488677,3108.864956,4959.379811
678.960284,8197.221829,3182.885551,5477.523971
678.960600,6741.640382,1924.535449,6735.874072
678.960916,5592.497135,740.205942,8882.471304
678.961231,3753.867940,-370.102971,10510.924376
678.961547,1685.410096,-962.267725,11695.253884
678.961863,306.438199,-296.082377,11473.192101
678.962178,-919.314598,740.205942,11547.212695
678.962494,-1072.533697,1628.453072,11621.233289
678.962810,-919.314598,1924.535449,11177.109724
678.963125,-766.095498,1332.370696,10955.047942
678.963441,-995.924147,370.102971,10510.924376
678.963757,-306.438199,-888.247130,10584.944971
678.964072,995.924147,-1036.288319,10214.842000
678.964388,2145.067394,444.123565,9252.574275
678.964704,2451.505594,2146.597232,8512.368333
678.965019,2451.505594,2590.720797,9178.553681
678.965335,3064.381992,2442.679609,9178.553681
678.965651,2451.505594,2146.597232,8734.430116
678.965966,2374.896044,2516.700203,8808.450710
678.966282,2298.286494,2072.576638,9548.656652
678.966598,2298.286494,2368.659014,9918.759623
678.966913,1225.752797,3108.864956,10362.883188
678.967229,842.705048,2960.823768,10510.924376
678.967545,995.924147,2516.700203,10214.842000
678.967860,383.047749,2072.576638,10066.800811
678.968176,-459.657299,1850.514855,9844.739029
678.968492,-689.485948,2072.576638,8882.471304
678.968807,-919.314598,1184.329507,8882.471304
678.969123,-766.095498,296.082377,9400.615463
678.969439,-1378.971896,-1110.308913,9844.739029
678.969754,-2221.676944,-2590.720797,11103.089130
678.970070,-2987.772442,-3256.906145,11917.315666
678.970386,-3753.867940,-2738.761985,12731.542202
678.970701,-3140.991542,-1702.473667,12879.583391
678.971017,-2374.896044,-0.000000,11399.171507
678.971333,-1072.533697,2368.659014,9844.739029
678.971648,0.000000,3627.009116,8808.450710
678.971964,1685.410096,3182.885551,7624.121203
678.972279,3370.820191,2072.576638,6809.894666
678.972595,4136.915689,1628.453072,6661.853478
678.972911,3370.820191,814.226536,6439.791695
678.973226,3753.867940,-148.041188,7328.038826
678.973542,2911.162892,-592.164754,8142.265362
678.973858,1762.019645,-444.123565,9104.533087
678.974173,76.609550,-518.144159,9918.759623
678.974489,-1608.800546,-888.247130,10066.800811
678.974805,-2298.286494,-1110.308913,9992.780217
678.975120,-2221.676944,-1406.391290,10732.986159
678.975436,-2451.505594,-1628.453072,10732.986159
678.975752,-2834.553343,-1554.432478,10807.006753
678.976067,-2681.334243,-1850.514855,10807.006753
678.976383,-2068.457845,-2442.679609,10807.006753
678.976699,-1455.581446,-2886.803174,11103.089130
678.977014,-1072.533697,-2072.576638,9992.780217
678.977330,306.438199,-888.247130,8734.430116
678.977646,2451.505594,-148.041188,7402.059420
678.977961,3907.087040,666.185348,6217.729913
678.978277,4903.011187,1036.288319,6513.812290
678.978593,4826.401637,518.144159,7105.977043
678.978908,4290.134789,-74.020594,7254.018232
678.979224,3217.601092,-444.123565,7476.080014
678.979540,2298.286494,-518.144159,8512.368333
678.979855,536.266849,-814.226536,10214.842000
678.980171,-612.876398,-592.164754,10881.027347
678.980487,-1838.629195,-666.185348,10214.842000
678.980802,-1608.800546,-1850.514855,10288.862594
678.981118,-1072.533697,-2294.638420,10955.047942
678.981434,-1302.362347,-2516.700203,10955.047942
678.981749,-612.876398,-2368.659014,10658.965565
678.982065,459.657299,-2368.659014,10066.800811
678.982381,1378.971896,-2072.576638,9548.656652
678.982696,1455.581446,-962.267725,9696.697840
678.983012,1532.190996,592.164754,9104.533087
678.983328,1991.848295,1184.329507,8142.265362
678.983643,3140.991542,666.185348,7846.182985
678.983959,3217.601092,1036.288319,7624.121203
678.984275,3140.991542,1258.350101,8216.285956
678.984590,2374.896044,1036.288319,8438.347739
678.984906,1762.019645,370.102971,8882.471304
678.985222,1302.362347,-740.205942,9918.759623
678.985537,306.438199,-222.061783,10658.965565
678.985853,-842.705048,148.041188,10658.965565
678.986169,-1455.581446,-74.020594,10510.924376
678.986484,-1455.581446,-1184.329507,10214.842000
678.986800,-995.924147,-1406.391290,10584.944971
678.987116,-1149.143247,-1480.411884,10584.944971
678.987431,-1455.581446,-1332.370696,10584.944971
678.987747,-1149.143247,-1628.453072,10732.986159
678.988063,-842.705048,-962.267725,10214.842000
678.988378,-536.266849,296.082377,10066.800811
678.988694,-229.828649,1480.411884,9770.718434
678.989010,-612.876398,1850.514855,9400.615463
678.989325,383.047749,1332.370696,8586.388927
678.989641,1302.362347,1110.308913,7994.224174
678.989957,1072.533697,1258.350101,9104.533087
678.990272,919.314598,1110.308913,8808.450710
678.990588,1149.143247,814.226536,9104.533087
678.990903,1302.362347,-74.020594,9474.636058
678.991219,536.266849,1258.350101,9474.636058
678.991535,-689.485948,1702.473667,9548.656652
678.991850,-383.047749,1184.329507,10214.842000
678.992166,-536.266849,888.247130,9548.656652
678.992482,-459.657299,-74.020594,9178.553681
678.992797,0.000000,-518.144159,10510.924376
678.993113,-766.095498,-814.226536,10436.903782
678.993429,-1302.362347,-370.102971,10436.903782
678.993744,-995.924147,-518.144159,10214.842000
678.994060,-766.095498,222.061783,9918.759623
678.994376,-766.095498,1258.350101,10510.924376
678.994691,-536.266849,1924.535449,9326.594869
678.995007,612.876398,1702.473667,8364.327145
678.995323,1838.629195,814.226536,8142.265362
678.995638,3294.210641,444.123565,8290.306550
678.995954,3294.210641,666.185348,8290.306550
678.996270,3064.381992,296.082377,8586.388927
678.996585,2911.162892,444.123565,7920.203579
678.996901,2374.896044,444.123565,8882.471304
678.997217,1302.362347,370.102971,9696.697840
678.997532,0.000000,1036.288319,9622.677246
678.997848,-689.485948,444.123565,9548.656652
678.998164,-766.095498,-1036.288319,9548.656652
678.998479,-842.705048,-1924.535449,10436.903782
678.998795,-1072.533697,-2072.576638,11177.109724
678.999111,-1225.752797,-2220.617826,11029.068536
678.999426,-995.924147,-2590.720797,11177.109724
678.999742,0.000000,-2368.659014,11029.068536
679.000058,919.314598,-740.205942,10436.903782
679.000373,459.657299,888.247130,9622.677246
679.000689,1532.190996,1258.350101,8734.430116
679.001005,2911.162892,592.164754,7402.059420
679.001320,3677.258390,444.123565,6957.935855
679.001636,3370.820191,370.102971,7920.203579
679.001952,3140.991542,-296.082377,8216.285956
679.002267,2528.115143,-814.226536,8734.430116
679.002583,1991.848295,-1036.288319,8882.471304
679.002899,766.095498,-814.226536,9918.759623
679.003214,-842.705048,-444.123565,10732.986159
679.003530,-1532.190996,-444.123565,10436.903782
679.003846,-1685.410096,-1554.432478,10362.883188
679.004161,-1072.533697,-1850.514855,10362.883188
679.004477,-1302.362347,-1924.535449,10881.027347
679.004793,-1532.190996,-2368.659014,10584.944971
679.005108,-612.876398,-2590.720797,10436.903782
679.005424,0.000000,-2294.638420,10066.800811
679.005740,536.266849,-740.205942,9474.636058
679.006055,612.876398,814.226536,9030.512492
679.006371,919.314598,1110.308913,8290.306550
679.006687,1685.410096,1258.350101,7402.059420
679.007002,2374.896044,444.123565,7105.977043
679.007318,2145.067394,-0.000000,8734.430116
679.007634,1762.019645,-444.123565,9104.533087
679.007949,1532.190996,-1332.370696,9252.574275
679.008265,689.485948,-1332.370696,9326.594869
679.008581,76.609550,-518.144159,10214.842000
679.008896,-766.095498,-0.000000,10362.883188
679.009212,-1838.629195,74.020594,9992.780217
679.009527,-2068.457845,-666.185348,9770.718434
679.009843,-1378.971896,-1406.391290,9548.656652
679.010159,-1378.971896,-1924.535449,10140.821405
679.010474,-1532.190996,-1850.514855,10140.821405
679.010790,-1608.800546,-1998.556043,9770.718434
679.011106,-459.657299,-1924.535449,9696.697840
679.011421,0.000000,-740.205942,9844.739029
679.011737,0.000000,222.061783,9770.718434
679.012053,-153.219100,1110.308913,9030.512492
679.012368,459.657299,962.267725,8068.244768
679.012684,1608.800546,814.226536,7772.162391
679.013000,1991.848295,370.102971,8660.409521
679.013315,1532.190996,814.226536,8438.347739
679.013631,1149.143247,-74.020594,9252.574275
679.013947,1455.581446,-148.041188,9474.636058
679.014262,995.924147,518.144159,9770.718434
679.014578,306.438199,1406.391290,9622.677246
679.014894,-229.828649,1776.494261,9548.656652
679.015209,-383.047749,1110.308913,9548.656652
679.015525,0.000000,-74.020594,9326.594869
679.015841,153.219100,-518.144159,10214.842000
679.016156,-536.266849,-962.267725,10584.944971
679.016472,-689.485948,-1332.370696,10881.027347
679.016788,229.828649,-1110.308913,10732.986159
679.017103,459.657299,-296.082377,10436.903782
679.017419,612.876398,1184.329507,10288.862594
679.017735,995.924147,2368.659014,9474.636058
679.018050,1608.800546,2146.597232,8660.409521
679.018366,2834.553343,1776.494261,7550.100608
679.018682,3217.601092,1480.411884,7920.203579
679.018997,3447.429741,1258.350101,8512.368333
679.019313,2834.553343,814.226536,8660.409521
679.019629,2374.896044,148.041188,9104.533087
679.019944,1532.190996,222.061783,9474.636058
679.020260,842.705048,666.185348,10288.862594
679.020576,-689.485948,1110.308913,10658.965565
679.020891,-995.924147,370.102971,10732.986159
679.021207,-842.705048,-370.102971,10288.862594
679.021523,-536.266849,-1036.288319,11103.089130
679.021838,-766.095498,-1110.308913,11325.150913
679.022154,-766.095498,-1258.350101,11029.068536
679.022470,-459.657299,-1406.391290,10510.924376
679.022785,229.828649,-592.164754,10140.821405
679.023101,383.047749,296.082377,10288.862594
679.023417,1149.143247,1332.370696,9548.656652
679.023732,1378.971896,1628.453072,8364.327145
679.024048,2221.676944,1258.350101,7476.080014
679.024364,3370.820191,666.185348,7254.018232
679.024679,2834.553343,-0.000000,7994.224174
679.024995,2221.676944,-148.041188,8512.368333
679.025311,1455.581446,-1036.288319,8808.450710
679.025626,919.314598,-1036.288319,9252.574275
679.025942,-153.219100,-1110.308913,9696.697840
679.026258,-1225.752797,-518.144159,10214.842000
679.026573,-2374.896044,-888.247130,10288.862594
679.026889,-2145.067394,-1480.411884,9844.739029
679.027205,-1532.190996,-2368.659014,9918.759623
679.027520,-1762.019645,-2886.803174,10658.965565
679.027836,-1762.019645,-2516.700203,10362.883188
679.028152,-1455.581446,-2294.638420,9770.718434
679.028467,-306.438199,-1850.514855,9474.636058
679.028783,383.047749,-962.267725,9104.533087
679.029098,229.828649,888.247130,8734.430116
679.029414,536.266849,1110.308913,8216.285956
679.029730,1532.190996,592.164754,7550.100608
679.030045,2528.115143,148.041188,7550.100608
679.030361,2145.067394,-222.061783,8216.285956
679.030677,1225.752797,-814.226536,8660.409521
679.030992,306.438199,-1258.350101,9252.574275
679.031308,689.485948,-1332.370696,9252.574275
679.031624,306.438199,-1110.308913,10066.800811
679.031939,-766.095498,-444.123565,10510.924376
679.032255,-1608.800546,-296.082377,10214.842000
679.032571,-1532.190996,-1036.288319,9696.697840
679.032886,-995.924147,-1702.473667,9178.553681
679.033202,-306.438199,-1776.494261,10288.862594
679.033518,-459.657299,-1480.411884,10288.862594
679.033833,-459.657299,-1998.556043,9918.759623
679.034149,153.219100,-1554.432478,9696.697840
679.034465,1149.143247,-740.205942,9622.677246
679.034780,1149.143247,370.102971,9400.615463
679.035096,1072.533697,1480.411884,8882.471304
679.035412,1762.019645,1184.329507,8216.285956
679.035727,2451.505594,1036.288319,7550.100608
679.036043,3217.601092,592.164754,8438.347739
679.036359,2374.896044,444.123565,8586.388927
679.036674,1378.971896,-0.000000,9326.594869
679.036990,1225.752797,-888.247130,9696.697840
679.037306,919.314598,-1110.308913,9696.697840
679.037621,0.000000,-74.020594,10955.047942
679.037937,-1225.752797,444.123565,10658.965565
679.038253,-1225.752797,-0.000000,10140.821405
679.038568,-766.095498,-296.082377,9992.780217
679.038884,-459.657299,-740.205942,10214.842000
679.039200,-689.485948,-962.267725,10510.924376
679.039515,-612.876398,-888.247130,10658.965565
679.039831,-229.828649,-1036.288319,9844.739029
679.040147,612.876398,-592.164754,9696.697840
679.040462,1072.533697,888.247130,9844.739029
679.040778,919.314598,2442.679609,9326.594869
679.041094,1378.971896,2886.803174,8512.368333
679.041409,2374.896044,2146.597232,8068.244768
679.041725,3217.601092,1110.308913,7772.162391
679.042041,2604.724693,1332.370696,8734.430116
679.042356,1685.410096,222.061783,9104.533087
679.042672,1455.581446,-592.164754,9400.615463
679.042988,1302.362347,-0.000000,9696.697840
679.043303,153.219100,370.102971,9918.759623
679.043619,-919.314598,1554.432478,10436.903782
679.043935,-1762.019645,1036.288319,9992.780217
679.044250,-1149.143247,-0.000000,9992.780217
679.044566,-689.485948,-1036.288319,10362.883188
679.044882,-919.314598,-888.247130,10732.986159
679.045197,-1149.143247,-1110.308913,10584.944971
679.045513,-919.314598,-1258.350101,10510.924376
679.045829,0.000000,-740.205942,10066.800811
679.046144,689.485948,666.185348,9548.656652
679.046460,689.485948,2442.679609,9030.512492
679.046776,842.705048,2664.741391,8290.306550
679.047091,1838.629195,1702.473667,7698.141797
679.047407,3140.991542,1258.350101,7994.224174
679.047722,2757.943793,740.205942,8512.368333
679.048038,2068.457845,-0.000000,8660.409521
679.048354,1532.190996,-222.061783,8882.471304
679.048669,995.924147,-888.247130,9622.677246
679.048985,766.095498,-74.020594,10362.883188
679.049301,-766.095498,814.226536,10658.965565
679.049616,-1608.800546,888.247130,10362.883188
679.049932,-1532.190996,-222.061783,9918.759623
679.050248,-995.924147,-1332.370696,9622.677246
679.050563,-612.876398,-1480.411884,10214.842000
679.050879,-842.705048,-1702.473667,10214.842000
679.051195,-842.705048,-2072.576638,10510.924376
679.051510,153.219100,-1628.453072,10066.800811
679.051826,842.705048,-888.247130,9696.697840
679.052142,1302.362347,814.226536,9400.615463
679.052457,1302.362347,1480.411884,9030.512492
679.052773,2298.286494,740.205942,7772.162391
679.053089,2911.162892,518.144159,7328.038826
679.053404,3370.820191,-74.020594,8586.388927
679.053720,2604.724693,-222.061783,8438.347739
679.054036,1838.629195,-592.164754,8734.430116
679.054351,1532.190996,-1036.288319,8882.471304
679.054667,1302.362347,-518.144159,9474.636058
679.054983,76.609550,-518.144159,9992.780217
679.055298,-689.485948,-74.020594,10066.800811
679.055614,-1302.362347,-1110.308913,9770.718434
679.055930,-842.705048,-1998.556043,9622.677246
679.056245,-919.314598,-2220.617826,10066.800811
679.056561,-995.924147,-2146.597232,10436.903782
679.056877,-1149.143247,-1924.535449,10362.883188
679.057193,-766.095498,-1924.535449,9992.780217
679.057508,0.000000,-1258.350101,9696.697840
679.057824,1149.143247,-444.123565,9696.697840
679.058140,76.609550,444.123565,9326.594869
679.058456,995.924147,814.226536,8734.430116
679.058771,2221.676944,222.061783,7920.203579
679.059087,2681.334243,148.041188,7550.100608
679.059403,2298.286494,-0.000000,8290.306550
679.059719,1762.019645,-296.082377,8956.491898
679.060034,1378.971896,-1332.370696,9178.553681
679.060350,689.485948,-1258.350101,9400.615463
679.060666,383.047749,-740.205942,10436.903782
679.060982,-1072.533697,-222.061783,10362.883188
679.061297,-1608.800546,-148.041188,10288.862594
679.061613,-1762.019645,-1554.432478,9918.759623
679.061929,-1455.581446,-1776.494261,10362.883188
679.062245,-1455.581446,-1850.514855,10807.006753
679.062561,-1532.190996,-2442.679609,10658.965565
679.062876,-1149.143247,-2516.700203,10658.965565
679.063192,-383.047749,-1850.514855,10140.821405
679.063508,383.047749,-222.061783,10214.842000
679.063824,153.219100,1480.411884,9252.574275
679.064139,995.924147,1924.535449,8438.347739
679.064455,2068.457845,1184.329507,7402.059420
679.064771,2528.115143,888.247130,7031.956449
679.065087,2681.334243,814.226536,8512.368333
679.065402,2145.067394,-0.000000,8882.471304
679.065718,1149.143247,-592.164754,9178.553681
679.066034,1302.362347,-666.185348,9474.636058
679.066350,612.876398,-0.000000,9770.718434
679.066665,-842.705048,740.205942,9992.780217
679.066981,-1762.019645,444.123565,10288.862594
679.067297,-1915.238745,-0.000000,9992.780217
679.067613,-1302.362347,-740.205942,10066.800811
679.067929,-1455.581446,-1110.308913,10807.006753
679.068244,-1685.410096,-1258.350101,10732.986159
679.068560,-842.705048,-1258.350101,10510.924376
679.068876,-229.828649,-888.247130,9844.739029
679.069192,459.657299,444.123565,9622.677246
679.069507,689.485948,1776.494261,9548.656652
679.069823,995.924147,2220.617826,8512.368333
679.070139,1762.019645,1702.473667,7920.203579
679.070455,2911.162892,1554.432478,7550.100608
679.070770,3217.601092,1480.411884,8290.306550
679.071086,2374.896044,962.267725,8882.471304
679.071402,2221.676944,370.102971,9178.553681
679.071718,1991.848295,666.185348,9252.574275
679.072033,1302.362347,296.082377,9770.718434
679.072349,0.000000,888.247130,10584.944971
679.072665,-1225.752797,962.267725,10288.862594
679.072981,-1072.533697,-0.000000,10066.800811
679.073297,-842.705048,-740.205942,9918.759623
679.073612,-842.705048,-1184.329507,10584.944971
679.073928,-1149.143247,-1110.308913,10881.027347
679.074244,-995.924147,-1036.288319,10584.944971
679.074560,-229.828649,-1776.494261,10214.842000
679.074875,689.485948,-1110.308913,10288.862594
679.075191,919.314598,740.205942,9622.677246
679.075507,995.924147,1776.494261,9178.553681
679.075823,2145.067394,1924.535449,7994.224174
679.076138,3217.601092,1554.432478,7624.121203
679.076454,3294.210641,1036.288319,7624.121203
679.076770,2987.772442,814.226536,8586.388927
679.077086,2068.457845,-74.020594,8660.409521
679.077401,1991.848295,-814.226536,9178.553681
679.077717,1838.629195,-444.123565,9474.636058
679.078033,536.266849,-74.020594,10140.821405
679.078349,-1302.362347,-0.000000,10732.986159
679.078665,-1532.190996,-444.123565,10140.821405
679.078980,-1378.971896,-1258.350101,9696.697840
679.079296,-1225.752797,-1776.494261,10066.800811
679.079612,-1455.581446,-1998.556043,10807.006753
679.079928,-1302.362347,-1924.535449,10658.965565
679.080243,-766.095498,-2368.659014,10140.821405
679.080559,0.000000,-1036.288319,9622.677246
679.080875,383.047749,-74.020594,9918.759623
679.081191,842.705048,1776.494261,8882.471304
679.081506,995.924147,1702.473667,7846.182985
679.081822,2298.286494,1332.370696,7254.018232
679.082138,3370.820191,1258.350101,7031.956449
679.082454,2528.115143,370.102971,8438.347739
679.082770,1762.019645,-444.123565,8660.409521
679.083085,1302.362347,-888.247130,9104.533087
679.083401,1072.533697,-1332.370696,9474.636058
679.083717,229.828649,-444.123565,10214.842000
679.084033,-1149.143247,148.041188,10584.944971
679.084348,-1532.190996,-0.000000,9918.759623
679.084664,-1455.581446,-1258.350101,9918.759623
679.084980,-1378.971896,-2220.617826,10288.862594
679.085296,-1608.800546,-2368.659014,11325.150913
679.085611,-1455.581446,-2146.597232,10584.944971
679.085927,-1072.533697,-2072.576638,10732.986159
679.086243,0.000000,-1702.473667,10066.800811
679.086559,919.314598,-740.205942,9696.697840
679.086874,459.657299,814.226536,9548.656652
679.087190,1455.581446,1258.350101,8438.347739
679.087506,2528.115143,740.205942,7920.203579
679.087822,2834.553343,148.041188,7624.121203
679.088138,3064.381992,148.041188,8586.388927
679.088453,2681.334243,-74.020594,8586.388927
679.088769,2298.286494,-592.164754,9104.533087
679.089085,1762.019645,-666.185348,8956.491898
679.089401,1302.362347,-222.061783,9844.739029
679.089716,-229.828649,148.041188,10436.903782
679.090032,-536.266849,222.061783,9992.780217
679.090348,-1302.362347,-666.185348,9474.636058
679.090664,-689.485948,-1628.453072,10066.800811
679.090979,-919.314598,-2220.617826,10881.027347
679.091295,-1455.581446,-2072.576638,11029.068536
679.091611,-1072.533697,-1924.535449,10362.883188
679.091927,-153.219100,-1258.350101,9918.759623
679.092242,612.876398,-148.041188,9696.697840
679.092558,842.705048,1110.308913,9548.656652
679.092874,919.314598,1850.514855,8734.430116
679.093190,1532.190996,2220.617826,7402.059420
679.093506,2911.162892,1258.350101,7105.977043
679.093821,2681.334243,962.267725,7846.182985
679.094137,2145.067394,592.164754,8660.409521
679.094453,1225.752797,-444.123565,9104.533087
679.094769,919.314598,-518.144159,9400.615463
679.095084,459.657299,-592.164754,9844.739029
679.095400,-153.219100,222.061783,10362.883188
679.095716,-1608.800546,444.123565,10436.903782
679.096032,-1455.581446,-0.000000,10066.800811
679.096347,-1532.190996,-666.185348,9622.677246
679.096663,-1072.533697,-888.247130,9918.759623
679.096979,-1302.362347,-1258.350101,10510.924376
679.097295,-995.924147,-1480.411884,10510.924376
679.097610,-689.485948,-1628.453072,10214.842000
679.097926,76.609550,-888.247130,9918.759623
679.098242,383.047749,370.102971,9844.739029
679.098558,229.828649,1628.453072,9178.553681
679.098874,1532.190996,1480.411884,8216.285956
679.099189,2451.505594,1036.288319,7846.182985
679.099505,2911.162892,740.205942,7920.203579
679.099821,2298.286494,222.061783,9104.533087
679.100137,1762.019645,-296.082377,9030.512492
679.100452,919.314598,-740.205942,9770.718434
679.100768,1302.362347,-592.164754,9696.697840
679.101084,306.438199,-0.000000,10214.842000
679.101400,-842.705048,962.267725,10362.883188
679.101715,-1455.581446,518.144159,9918.759623
679.102031,-1149.143247,-888.247130,9548.656652
679.102347,-842.705048,-1850.514855,9918.759623
679.102663,-1225.752797,-1628.453072,10732.986159
679.102978,-995.924147,-1554.432478,10881.027347
679.103294,-229.828649,-1998.556043,10807.006753
679.103610,383.047749,-1258.350101,9696.697840
679.103926,842.705048,222.061783,9992.780217
679.104242,536.266849,1702.473667,9252.574275
679.104557,1302.362347,1998.556043,8438.347739
679.104873,2681.334243,888.247130,7550.100608
679.105189,2987.772442,1110.308913,7550.100608
679.105505,2834.553343,962.267725,8438.347739
679.105820,2221.676944,-0.000000,8808.450710
679.106136,1838.629195,-444.123565,9030.512492
679.106452,1378.971896,-814.226536,9474.636058
679.106768,689.485948,-0.000000,10288.862594
679.107083,-306.438199,592.164754,10362.883188
679.107399,-1225.752797,296.082377,10140.821405
679.107715,-689.485948,-296.082377,9770.718434
679.108031,-842.705048,-888.247130,9844.739029
679.108346,-766.095498,-1332.370696,10584.944971
679.108662,-766.095498,-1776.494261,10658.965565
679.108978,-459.657299,-1924.535449,10140.821405
679.109294,229.828649,-1406.391290,9918.759623
679.109610,689.485948,-518.144159,9548.656652
679.109925,1225.752797,1110.308913,9104.533087
679.110241,1225.752797,1776.494261,8438.347739
679.110557,1915.238745,1480.411884,7624.121203
679.110873,3370.820191,888.247130,7328.038826
679.111188,3064.381992,296.082377,8142.265362
679.111504,1915.238745,-444.123565,8660.409521
679.111820,1378.971896,-1110.308913,9104.533087
679.112136,995.924147,-1554.432478,9252.574275
679.112451,536.266849,-814.226536,9696.697840
679.112767,-536.266849,-148.041188,10214.842000
679.113083,-1455.581446,222.061783,10584.944971
679.113399,-1685.410096,-444.123565,9622.677246
679.113714,-1225.752797,-1110.308913,9474.636058
679.114030,-1149.143247,-1258.350101,10288.862594
679.114346,-1455.581446,-1406.391290,10362.883188
679.114662,-1072.533697,-1480.411884,10288.862594
679.114978,-536.266849,-1628.453072,10066.800811
679.115293,0.000000,-814.226536,9918.759623
679.115609,153.219100,-0.000000,9474.636058
679.115925,0.000000,1406.391290,9030.512492
679.116241,842.705048,962.267725,8438.347739
679.116556,1685.410096,666.185348,7920.203579
679.116872,1991.848295,444.123565,8216.285956
679.117188,1532.190996,-0.000000,9030.512492
679.117504,1072.533697,-148.041188,9326.594869
679.117819,995.924147,-592.164754,8956.491898
679.118135,919.314598,-296.082377,9400.615463
679.118451,229.828649,-0.000000,10362.883188
679.118767,-1608.800546,296.082377,10140.821405
679.119082,-1302.362347,-74.020594,9622.677246
679.119398,-1072.533697,-1036.288319,9844.739029
679.119714,-919.314598,-1554.432478,10362.883188
679.120030,-1072.533697,-2146.597232,10584.944971
679.120346,-1455.581446,-1554.432478,10362.883188
679.120661,-766.095498,-1628.453072,10362.883188
679.120977,0.000000,-1036.288319,9918.759623
679.121293,536.266849,222.061783,9992.780217
679.121609,306.438199,1258.350101,9622.677246
679.121924,842.705048,1702.473667,8586.388927
679.122240,1991.848295,1110.308913,7476.080014
679.122556,2757.943793,1110.308913,7402.059420
679.122872,2834.553343,888.247130,8512.368333
679.123187,2145.067394,-0.000000,8586.388927
679.123503,1838.629195,-740.205942,9030.512492
679.123819,1455.581446,-888.247130,9400.615463
679.124135,689.485948,-148.041188,10140.821405
679.124451,0.000000,444.123565,10436.903782
679.124766,-689.485948,222.061783,10436.903782
679.125082,-919.314598,-222.061783,9696.697840
679.125398,-383.047749,-888.247130,9548.656652
679.125714,-536.266849,-1258.350101,10140.821405
679.126029,-1072.533697,-1554.432478,10214.842000
679.126345,-766.095498,-2072.576638,10140.821405
679.126661,612.876398,-1332.370696,10140.821405
679.126977,766.095498,-0.000000,9844.739029
679.127292,612.876398,1628.453072,9252.574275
679.127608,1378.971896,1924.535449,8364.327145
679.127924,1991.848295,962.267725,7624.121203
679.128240,2757.943793,740.205942,7476.080014
679.128555,2757.943793,296.082377,8438.347739
679.128871,1991.848295,-296.082377,9326.594869
679.129187,1149.143247,-814.226536,9770.718434
679.129503,1455.581446,-592.164754,9104.533087
679.129819,919.314598,-0.000000,9474.636058
679.130134,-459.657299,740.205942,10362.883188
679.130450,-1455.581446,814.226536,10288.862594
679.130766,-1302.362347,370.102971,9326.594869
679.131082,-1302.362347,-740.205942,9178.553681
679.131397,-842.705048,-1480.411884,10881.027347
679.131713,-1455.581446,-1702.473667,10584.944971
679.132029,-1149.143247,-1702.473667,10584.944971
679.132345,-153.219100,-1850.514855,10214.842000
679.132660,459.657299,-666.185348,9992.780217
679.132976,306.438199,1110.308913,9844.739029
679.133292,536.266849,2220.617826,9030.512492
679.133608,1762.019645,1998.556043,7772.162391
679.133923,2987.772442,1258.350101,7624.121203
679.134239,3217.601092,740.205942,8364.327145
679.134555,2298.286494,370.102971,8882.471304
679.134871,2068.457845,-370.102971,8586.388927
679.135187,1762.019645,-814.226536,8808.450710
679.135502,1225.752797,-148.041188,9844.739029
679.135818,76.609550,518.144159,10362.883188
679.136134,-536.266849,1110.308913,9918.759623
679.136450,-995.924147,-222.061783,9918.759623
679.136765,-842.705048,-740.205942,10288.862594
679.137081,-766.095498,-1258.350101,10140.821405
679.137397,-919.314598,-1554.432478,10955.047942
679.137713,-766.095498,-1406.391290,10732.986159
679.138028,-459.657299,-1628.453072,10362.883188
679.138344,459.657299,-518.144159,10288.862594
679.138660,842.705048,666.185348,9696.697840
679.138976,612.876398,2146.597232,8512.368333
679.139291,1685.410096,1850.514855,7698.141797
679.139607,2374.896044,1036.288319,7402.059420
679.139923,2757.943793,814.226536,8734.430116
679.140239,2451.505594,444.123565,8734.430116
679.140555,1455.581446,148.041188,9252.574275
679.140870,1072.533697,-444.123565,9252.574275
679.141186,1149.143247,-518.144159,9400.615463
679.141502,536.266849,222.061783,10436.903782
679.141818,-995.924147,666.185348,10436.903782
679.142133,-1608.800546,148.041188,9918.759623
679.142449,-1225.752797,-518.144159,9622.677246
679.142765,-1225.752797,-1480.411884,10288.862594
679.143081,-1072.533697,-1554.432478,10510.924376
679.143396,-1378.971896,-1702.473667,10584.944971
679.143712,-766.095498,-1924.535449,10214.842000
679.144028,-153.219100,-1258.350101,9696.697840
679.144344,919.314598,-740.205942,10140.821405
679.144659,919.314598,444.123565,9474.636058
679.144975,842.705048,1110.308913,8290.306550
679.145291,1915.238745,814.226536,8068.244768
679.145607,2604.724693,370.102971,7402.059420
679.145923,2451.505594,-0.000000,8586.388927
679.146238,1762.019645,-370.102971,9030.512492
679.146554,1685.410096,-1480.411884,9326.594869
679.146870,995.924147,-2072.576638,9400.615463
679.147186,0.000000,-1036.288319,9548.656652
679.147501,-306.438199,-370.102971,10214.842000
679.147817,-1072.533697,-0.000000,9918.759623
679.148133,-1302.362347,-740.205942,9326.594869
679.148449,-536.266849,-1702.473667,9178.553681
679.148764,-766.095498,-2368.659014,10732.986159
679.149080,-1685.410096,-2368.659014,10732.986159
679.149396,-1072.533697,-2220.617826,10288.862594
679.149712,-306.438199,-2146.597232,9992.780217
679.150027,306.438199,-888.247130,9844.739029
679.150343,229.828649,444.123565,9696.697840
679.150659,536.266849,1332.370696,8364.327145
679.150975,1608.800546,1258.350101,7624.121203
679.151291,2528.115143,592.164754,7105.977043
679.151606,3064.381992,-0.000000,7920.203579
679.151922,2451.505594,-74.020594,8660.409521
679.152238,1685.410096,-814.226536,9252.574275
679.152554,1532.190996,-1036.288319,8882.471304
679.152869,1225.752797,-296.082377,9474.636058
679.153185,383.047749,592.164754,10066.800811
679.153501,-1149.143247,888.247130,9548.656652
679.153817,-1072.533697,592.164754,9474.636058
679.154132,-612.876398,-888.247130,9474.636058
679.154448,-536.266849,-1480.411884,10658.965565
679.154764,-229.828649,-1036.288319,10584.944971
679.155080,-1225.752797,-1628.453072,10584.944971
679.155395,-766.095498,-1480.411884,10436.903782
679.155711,0.000000,-296.082377,10288.862594
679.156027,306.438199,1184.329507,9622.677246
679.156343,383.047749,2146.597232,9030.512492
679.156659,1302.362347,1628.453072,8290.306550
679.156974,2068.457845,740.205942,7476.080014
679.157290,2681.334243,370.102971,8290.306550
679.157606,2374.896044,592.164754,8956.491898
679.157922,2145.067394,-74.020594,9326.594869
679.158237,1455.581446,-222.061783,9252.574275
679.158553,1532.190996,-296.082377,9622.677246
679.158869,612.876398,370.102971,10214.842000
679.159185,-842.705048,962.267725,10807.006753
679.159501,-1149.143247,444.123565,10584.944971
679.159817,-689.485948,-296.082377,9548.656652
679.160132,-459.657299,-814.226536,10066.800811
679.160448,-919.314598,-1036.288319,10510.924376
679.160764,-1149.143247,-1258.350101,10584.944971
679.161080,-995.924147,-1332.370696,10658.965565
679.161396,0.000000,-888.247130,10510.924376
679.161711,229.828649,-0.000000,9918.759623
679.162027,459.657299,1480.411884,9474.636058
679.162343,995.924147,1850.514855,8808.450710
679.162659,1838.629195,1258.350101,8216.285956
679.162975,2987.772442,962.267725,8068.244768
679.163291,2604.724693,1110.308913,8808.450710
679.163606,1915.238745,962.267725,8586.388927
679.163922,1915.238745,-0.000000,8882.471304
679.164238,2068.457845,-962.267725,9326.594869
679.164554,919.314598,-0.000000,10140.821405
679.164870,-459.657299,740.205942,10362.883188
679.165186,-919.314598,518.144159,9918.759623
679.165501,-1072.533697,-0.000000,9696.697840
679.165817,-306.438199,-740.205942,9770.718434
679.166133,-536.266849,-888.247130,10584.944971
679.166449,-1149.143247,-444.123565,10362.883188
679.166765,-612.876398,-1184.329507,9992.780217
679.167080,229.828649,-1332.370696,9992.780217
679.167396,612.876398,-592.164754,10066.800811
679.167712,612.876398,962.267725,9474.636058
679.168028,459.657299,1480.411884,8660.409521
679.168344,1915.238745,1110.308913,7920.203579
679.168660,2604.724693,962.267725,7402.059420
679.168975,2451.505594,518.144159,8512.368333
679.169291,1838.629195,-0.000000,9030.512492
679.169607,1685.410096,-740.205942,9104.533087
679.169923,1378.971896,-888.247130,8882.471304
679.170239,766.095498,-740.205942,9622.677246
679.170554,-612.876398,-222.061783,10214.842000
679.170870,-1608.800546,222.061783,9770.718434
679.171186,-1608.800546,-222.061783,9548.656652
679.171502,-919.314598,-1332.370696,9622.677246
679.171818,-1225.752797,-2146.597232,9992.780217
679.172134,-1608.800546,-1924.535449,10807.006753
679.172449,-1302.362347,-2590.720797,10807.006753
679.172765,-536.266849,-2590.720797,10362.883188
679.173081,76.609550,-888.247130,9474.636058
679.173397,306.438199,814.226536,9548.656652
679.173713,689.485948,1628.453072,8660.409521
679.174028,1608.800546,1554.432478,7772.162391
679.174344,2604.724693,814.226536,7254.018232
679.174660,2757.943793,-0.000000,8290.306550
679.174976,2298.286494,-444.123565,9178.553681
679.175292,1455.581446,-1110.308913,9252.574275
679.175608,1072.533697,-1702.473667,9178.553681
679.175923,919.314598,-962.267725,9992.780217
679.176239,0.000000,-0.000000,10066.800811
679.176555,-1302.362347,148.041188,10140.821405
679.176871,-1302.362347,-222.061783,9992.780217
679.177187,-1225.752797,-1258.350101,9474.636058
679.177502,-1149.143247,-1628.453072,10436.903782
679.177818,-1532.190996,-2072.576638,10732.986159
679.178134,-1225.752797,-2442.679609,10658.965565
679.178450,-459.657299,-2516.700203,10288.862594
679.178766,306.438199,-1184.329507,9918.759623
679.179082,459.657299,370.102971,9696.697840
679.179397,536.266849,1554.432478,8808.450710
679.179713,1302.362347,1480.411884,7994.224174
679.180029,2374.896044,1036.288319,7402.059420
679.180345,3140.991542,444.123565,7698.141797
679.180661,2451.505594,370.102971,8660.409521
679.180976,1915.238745,-148.041188,9252.574275
679.181292,1838.629195,-518.144159,9326.594869
679.181608,1225.752797,-518.144159,9400.615463
679.181924,76.609550,74.020594,10362.883188
679.182240,-766.095498,592.164754,10658.965565
679.182556,-689.485948,-0.000000,10066.800811
679.182871,-995.924147,-518.144159,10066.800811
679.183187,-689.485948,-1258.350101,10214.842000
679.183503,-612.876398,-1184.329507,10658.965565
679.183819,-1225.752797,-888.247130,10732.986159
679.184135,-689.485948,-1110.308913,10214.842000
679.184450,229.828649,-740.205942,10140.821405
679.184766,995.924147,740.205942,9474.636058
679.185082,459.657299,962.267725,9252.574275
679.185398,995.924147,1554.432478,8586.388927
679.185714,2374.896044,888.247130,8142.265362
679.186030,2987.772442,1036.288319,7328.038826
679.186345,2604.724693,1332.370696,8290.306550
679.186661,1915.238745,592.164754,8586.388927
679.186977,1685.410096,-296.082377,9104.533087
679.187293,1685.410096,-592.164754,9474.636058
679.187609,689.485948,296.082377,9918.759623
679.187924,0.000000,518.144159,9992.780217
679.188240,-1378.971896,740.205942,9770.718434
679.188556,-1378.971896,-0.000000,9844.739029
679.188872,-919.314598,-740.205942,9548.656652
679.189188,-919.314598,-888.247130,10140.821405
679.189504,-1762.019645,-888.247130,10510.924376
679.189819,-1302.362347,-1776.494261,10732.986159
679.190135,0.000000,-1850.514855,10510.924376
679.190451,0.000000,-592.164754,9992.780217
679.190767,536.266849,1184.329507,9622.677246
679.191083,689.485948,1776.494261,8660.409521
679.191399,1455.581446,1998.556043,7920.203579
679.191714,2834.553343,1332.370696,7550.100608
679.192030,2681.334243,1184.329507,8068.244768
679.192346,2374.896044,814.226536,8734.430116
679.192662,1991.848295,-74.020594,9252.574275
679.192978,1838.629195,-518.144159,8882.471304
679.193293,1685.410096,-74.020594,9992.780217
679.193609,229.828649,666.185348,9918.759623
679.193925,-1072.533697,1110.308913,9770.718434
679.194241,-536.266849,222.061783,9622.677246
679.194557,0.000000,-370.102971,9548.656652
679.194873,-842.705048,-1184.329507,10436.903782
679.195188,-1149.143247,-1850.514855,11103.089130
679.195504,-995.924147,-2146.597232,10732.986159
679.195820,-689.485948,-2146.597232,10658.965565
679.196136,0.000000,-1036.288319,10510.924376
679.196452,459.657299,370.102971,9622.677246
679.196767,229.828649,1554.432478,9104.533087
679.197083,1149.143247,1332.370696,8512.368333
679.197399,2834.553343,666.185348,7698.141797
679.197715,3294.210641,518.144159,8216.285956
679.198031,2451.505594,-0.000000,8956.491898
679.198347,2068.457845,-296.082377,9252.574275
679.198662,1762.019645,-1036.288319,9178.553681
679.198978,1915.238745,-296.082377,9252.574275
679.199294,842.705048,-0.000000,9992.780217
679.199610,-229.828649,740.205942,9992.780217
679.199926,-1072.533697,148.041188,9548.656652
679.200241,-459.657299,-814.226536,9622.677246
679.200557,-383.047749,-1406.391290,10214.842000
679.200873,-1149.143247,-1554.432478,10584.944971
679.201189,-1532.190996,-2368.659014,10584.944971
679.201505,-919.314598,-2664.741391,10584.944971
679.201821,-229.828649,-1850.514855,10510.924376
679.202136,-306.438199,-296.082377,10214.842000
679.202452,-153.219100,888.247130,9252.574275
679.202768,536.266849,1406.391290,8438.347739
679.203084,1915.238745,1036.288319,7550.100608
679.203400,3064.381992,222.061783,7624.121203
679.203715,2451.505594,-0.000000,8512.368333
679.204031,1838.629195,-888.247130,8512.368333
679.204347,1608.800546,-1480.411884,9178.553681
679.204663,1838.629195,-1110.308913,9104.533087
679.204979,919.314598,-148.041188,9326.594869
679.205295,-306.438199,444.123565,9622.677246
679.205610,-1072.533697,222.061783,9622.677246
679.205926,-1149.143247,-1036.288319,9252.574275
679.206242,-766.095498,-1850.514855,9844.739029
679.206558,-1302.362347,-2368.659014,10436.903782
679.206874,-2068.457845,-3404.947333,10066.800811
679.207189,-1378.971896,-2590.720797,10362.883188
679.207505,-766.095498,-2294.638420,10288.862594
679.207821,-306.438199,-888.247130,10066.800811
679.208137,0.000000,666.185348,9326.594869
679.208453,153.219100,1258.350101,8512.368333
679.208769,1225.752797,740.205942,7476.080014
679.209084,2528.115143,148.041188,7550.100608
679.209400,2528.115143,222.061783,7994.224174
679.209716,1762.019645,-222.061783,8660.409521
679.210032,1532.190996,-1184.329507,9474.636058
679.210348,1455.581446,-1110.308913,9030.512492
679.210663,919.314598,-0.000000,9474.636058
679.210979,0.000000,740.205942,9992.780217
679.211295,-1302.362347,814.226536,9992.780217
679.211611,-1072.533697,-0.000000,9474.636058
679.211927,-689.485948,-666.185348,9252.574275
679.212243,-612.876398,-814.226536,10732.986159
679.212558,-1455.581446,-888.247130,10584.944971
679.212874,-1455.581446,-1036.288319,10214.842000
679.213190,-689.485948,-1036.288319,10362.883188
679.213506,0.000000,-370.102971,10732.986159
679.213822,383.047749,888.247130,10140.821405
679.214138,229.828649,1702.473667,9400.615463
679.214453,842.705048,1036.288319,8438.347739
679.214769,2451.505594,1332.370696,7772.162391
679.215085,2987.772442,1110.308913,8216.285956
679.215401,2451.505594,1480.411884,8882.471304
679.215717,1762.019645,444.123565,9178.553681
679.216032,1838.629195,-0.000000,9400.615463
679.216348,1838.629195,444.123565,9770.718434
679.216664,766.095498,888.247130,10140.821405
679.216980,-383.047749,1184.329507,10362.883188
679.217296,-612.876398,888.247130,9696.697840
679.217612,0.000000,-148.041188,9474.636058
679.217927,-153.219100,-888.247130,10288.862594
679.218243,-919.314598,-814.226536,11029.068536
679.218559,-1302.362347,-1258.350101,10881.027347
679.218875,-689.485948,-1924.535449,10881.027347
679.219191,153.219100,-962.267725,10510.924376
679.219506,383.047749,148.041188,10436.903782
679.219822,306.438199,1628.453072,9474.636058
679.220138,1149.143247,1850.514855,8068.244768
679.220454,2298.286494,1036.288319,7476.080014
679.220770,2681.334243,962.267725,7772.162391
679.221086,2528.115143,814.226536,8364.327145
679.221401,1838.629195,-0.000000,8956.491898
679.221717,1762.019645,-592.164754,9104.533087
679.222033,1532.190996,-296.082377,9474.636058
679.222349,689.485948,296.082377,10288.862594
679.222665,-536.266849,1110.308913,9696.697840
679.222980,-1149.143247,592.164754,9622.677246
679.223296,-689.485948,-370.102971,9474.636058
679.223612,0.000000,-888.247130,9696.697840
679.223928,-766.095498,-1036.288319,10214.842000
679.224244,-1225.752797,-1406.391290,10658.965565
679.224560,-1149.143247,-1850.514855,10288.862594
679.224875,-306.438199,-1628.453072,9992.780217
679.225191,459.657299,-296.082377,10214.842000
679.225507,229.828649,1258.350101,9326.594869
679.225823,766.095498,1776.494261,8438.347739
679.226139,1685.410096,1036.288319,7698.141797
679.226454,2451.505594,592.164754,7550.100608
679.226770,2451.505594,148.041188,8364.327145
679.227086,1915.238745,-444.123565,8734.430116
679.227402,1302.362347,-1184.329507,8734.430116
679.227718,1455.581446,-1184.329507,9252.574275
679.228034,689.485948,-740.205942,9696.697840
679.228349,-153.219100,-0.000000,9844.739029
679.228665,-1302.362347,296.082377,9696.697840
679.228981,-1532.190996,-888.247130,9400.615463
679.229297,-612.876398,-1776.494261,9400.615463
679.229613,-919.314598,-2072.576638,10510.924376
679.229928,-1455.581446,-2368.659014,10584.944971
679.230244,-1455.581446,-2664.741391,10732.986159
679.230560,-383.047749,-2442.679609,9992.780217
679.230876,-153.219100,-1628.453072,10140.821405
679.231192,0.000000,370.102971,9770.718434
679.231508,229.828649,1110.308913,9104.533087
679.231823,1225.752797,814.226536,8068.244768
679.232139,2604.724693,814.226536,7772.162391
679.232455,2604.724693,370.102971,8660.409521
679.232771,1991.848295,-370.102971,8512.368333
679.233087,1608.800546,-1184.329507,8808.450710
679.233402,1378.971896,-1480.411884,8956.491898
679.233718,1225.752797,-592.164754,9844.739029
679.234034,76.609550,148.041188,9992.780217
679.234350,-1302.362347,666.185348,9770.718434
679.234666,-1302.362347,-296.082377,9844.739029
679.234982,-689.485948,-1036.288319,9696.697840
679.235297,-842.705048,-1702.473667,10140.821405
679.235613,-1072.533697,-1702.473667,11103.089130
679.235929,-995.924147,-2294.638420,10732.986159
679.236245,-766.095498,-1924.535449,10436.903782
679.236561,306.438199,-814.226536,9992.780217
679.236876,153.219100,296.082377,9622.677246
679.237192,612.876398,1480.411884,9326.594869
679.237508,1302.362347,1406.391290,7994.224174
679.237824,2221.676944,1036.288319,7846.182985
679.238140,3140.991542,444.123565,8068.244768
679.238456,2451.505594,296.082377,8142.265362
679.238771,1991.848295,-0.000000,9252.574275
679.239087,1685.410096,-444.123565,9252.574275
679.239403,1608.800546,-296.082377,9474.636058
679.239719,689.485948,740.205942,9770.718434
679.240035,-229.828649,888.247130,10066.800811
679.240351,-842.705048,592.164754,9696.697840
679.240666,-689.485948,-222.061783,9326.594869
679.240982,-306.438199,-1110.308913,10066.800811
679.241298,-612.876398,-1258.350101,10732.986159
679.241614,-995.924147,-1332.370696,10658.965565
679.241930,-1072.533697,-1406.391290,10362.883188
679.242245,-306.438199,-814.226536,9992.780217
679.242561,383.047749,444.123565,10214.842000
679.242877,76.609550,1332.370696,9548.656652
679.243193,536.266849,1406.391290,9474.636058
679.243509,1762.019645,888.247130,7920.203579
679.243825,2451.505594,962.267725,7624.121203
679.244140,2298.286494,444.123565,8882.471304
679.244456,1762.019645,296.082377,9252.574275
679.244772,1532.190996,-0.000000,9326.594869
679.245088,1915.238745,296.082377,9252.574275
679.245404,1149.143247,592.164754,9622.677246
679.245719,-306.438199,1554.432478,9770.718434
679.246035,-766.095498,1184.329507,9696.697840
679.246351,-919.314598,-296.082377,8956.491898
679.246667,-612.876398,-666.185348,9622.677246
679.246983,-612.876398,-1480.411884,10584.944971
679.247299,-1532.190996,-1406.391290,10807.006753
679.247614,-1532.190996,-1924.535449,10881.027347
679.247930,-229.828649,-1628.453072,10584.944971
679.248246,-306.438199,-222.061783,10584.944971
679.248562,0.000000,1258.350101,10140.821405
679.248878,229.828649,1850.514855,9178.553681
679.249193,1225.752797,1184.329507,8660.409521
679.249509,2451.505594,518.144159,8142.265362
679.249825,2911.162892,888.247130,8586.388927
679.250141,2528.115143,814.226536,8660.409521
679.250457,2374.896044,222.061783,9178.553681
679.250773,2451.505594,-0.000000,8660.409521
679.251088,2221.676944,518.144159,9844.739029
679.251404,689.485948,1036.288319,10140.821405
679.251720,-306.438199,1036.288319,9474.636058
679.252036,76.609550,296.082377,9474.636058
679.252352,306.438199,-518.144159,9104.533087
679.252667,76.609550,-962.267725,10362.883188
679.252983,-459.657299,-1554.432478,10732.986159
679.253299,-1149.143247,-1702.473667,10510.924376
679.253615,-995.924147,-1628.453072,10214.842000
679.253931,0.000000,-1332.370696,10584.944971
679.254247,0.000000,-0.000000,10362.883188
679.254562,-383.047749,740.205942,9474.636058
679.254878,536.266849,592.164754,8438.347739
679.255194,1915.238745,148.041188,8142.265362
679.255510,2068.457845,222.061783,8364.327145
679.255826,2221.676944,444.123565,8290.306550
679.256141,1762.019645,-666.185348,9030.512492
679.256457,1838.629195,-814.226536,8734.430116
679.256773,1608.800546,-444.123565,9400.615463
679.257089,919.314598,-148.041188,9548.656652
679.257405,-306.438199,962.267725,9770.718434
679.257721,-919.314598,-0.000000,9326.594869
679.258036,0.000000,-666.185348,8882.471304
679.258352,-229.828649,-1036.288319,9696.697840
679.258668,-1072.533697,-1554.432478,10436.903782
679.258984,-1302.362347,-1850.514855,10214.842000
679.259300,-1225.752797,-2220.617826,10288.862594
679.259615,-919.314598,-2072.576638,10584.944971
679.259931,-919.314598,-370.102971,10807.006753
679.260247,-766.095498,814.226536,9770.718434
679.260563,0.000000,888.247130,8290.306550
679.260879,766.095498,-0.000000,7550.100608
679.261194,1991.848295,-222.061783,8364.327145
679.261510,1685.410096,-444.123565,8660.409521
679.261826,1149.143247,-814.226536,9104.533087
679.262142,1302.362347,-1258.350101,8882.471304
679.262458,1532.190996,-814.226536,9326.594869
679.262773,766.095498,296.082377,9326.594869
679.263089,306.438199,1036.288319,9326.594869
679.263405,-153.219100,518.144159,8882.471304
679.263721,0.000000,-814.226536,9104.533087
679.264037,76.609550,-1554.432478,9326.594869
679.264352,-383.047749,-1776.494261,9992.780217
679.264668,-1225.752797,-1998.556043,10658.965565
679.264984,-766.095498,-1998.556043,10881.027347
679.265300,-536.266849,-1406.391290,10140.821405
679.265616,-306.438199,-222.061783,10288.862594
679.265931,0.000000,666.185348,10214.842000
679.266247,0.000000,888.247130,8882.471304
679.266563,1302.362347,296.082377,8586.388927
679.266879,1991.848295,-0.000000,8142.265362
679.267195,2221.676944,-148.041188,8586.388927
679.267510,1838.629195,-222.061783,9104.533087
679.267826,1532.190996,-148.041188,9474.636058
679.268142,1532.190996,-222.061783,8882.471304
679.268458,1378.971896,518.144159,9326.594869
679.268774,383.047749,1036.288319,9474.636058
679.269089,-229.828649,740.205942,9474.636058
679.269405,-306.438199,-74.020594,9326.594869
679.269721,153.219100,-370.102971,9178.553681
679.270037,-229.828649,-1110.308913,9992.780217
679.270352,-1072.533697,-1406.391290,10584.944971
679.270668,-995.924147,-1776.494261,10584.944971
679.270984,-612.876398,-1406.391290,10510.924376
679.271300,0.000000,-444.123565,10436.903782
679.271616,-229.828649,666.185348,10288.862594
679.271931,0.000000,1480.411884,9696.697840
679.272247,766.095498,1258.350101,8586.388927
679.272563,1991.848295,1036.288319,7920.203579
679.272879,2451.505594,962.267725,8438.347739
679.273195,2145.067394,-0.000000,8882.471304
679.273510,2221.676944,-0.000000,9252.574275
679.273826,2068.457845,-222.061783,9326.594869
679.274142,1608.800546,-0.000000,9918.759623
679.274458,766.095498,1036.288319,10288.862594
679.274774,306.438199,1628.453072,9918.759623
679.275089,-229.828649,814.226536,9326.594869
679.275405,612.876398,222.061783,9030.512492
679.275721,612.876398,-0.000000,9696.697840
679.276037,0.000000,-592.164754,9548.656652
679.276353,-459.657299,-1110.308913,10288.862594
679.276668,-306.438199,-1554.432478,10362.883188
679.276984,153.219100,-814.226536,10436.903782
679.277300,0.000000,370.102971,10510.924376
679.277616,-689.485948,1036.288319,9770.718434
679.277932,536.266849,962.267725,9252.574275
679.278247,1225.752797,592.164754,7994.224174
679.278563,1762.019645,444.123565,8364.327145
679.278879,1455.581446,-0.000000,8660.409521
679.279195,1302.362347,-444.123565,9326.594869
679.279511,1608.800546,-592.164754,9400.615463
679.279826,1149.143247,-592.164754,9696.697840
679.280142,612.876398,518.144159,9844.739029
679.280458,-153.219100,1406.391290,9622.677246
679.280774,-383.047749,962.267725,8882.471304
679.281090,-153.219100,-74.020594,8882.471304
679.281405,383.047749,-740.205942,9696.697840
679.281721,-306.438199,-1036.288319,9992.780217
679.282037,-842.705048,-1480.411884,10214.842000
679.282353,-536.266849,-1998.556043,10436.903782
679.282669,0.000000,-1332.370696,10436.903782
679.282984,0.000000,296.082377,10288.862594
679.283300,-689.485948,1258.350101,9770.718434
679.283616,-153.219100,962.267725,8660.409521
679.283932,842.705048,296.082377,8068.244768
679.284248,1455.581446,-296.082377,8364.327145
679.284563,1608.800546,-222.061783,8808.450710
679.284879,1149.143247,-814.226536,9400.615463
679.285195,1302.362347,-1110.308913,9400.615463
679.285511,1225.752797,-1036.288319,9326.594869
679.285826,612.876398,-518.144159,10140.821405
679.286142,0.000000,888.247130,9400.615463
679.286458,-229.828649,370.102971,9104.533087
679.286774,0.000000,-444.123565,8956.491898
679.287090,306.438199,-1184.329507,9104.533087
679.287405,229.828649,-1776.494261,9844.739029
679.287721,-612.876398,-1850.514855,9992.780217
679.288037,-536.266849,-2146.597232,10066.800811
679.288353,306.438199,-1998.556043,10140.821405
679.288669,459.657299,-962.267725,10288.862594
679.288984,0.000000,296.082377,10066.800811
679.289300,76.609550,592.164754,8882.471304
679.289616,1072.533697,296.082377,8438.347739
679.289932,1991.848295,-148.041188,7846.182985
679.290248,2374.896044,-592.164754,8734.430116
679.290563,1532.190996,-592.164754,8808.450710
679.290879,995.924147,-1332.370696,9474.636058
679.291195,1302.362347,-1554.432478,9400.615463
679.291511,766.095498,-444.123565,9770.718434
679.291827,-153.219100,444.123565,10214.842000
679.292142,-766.095498,518.144159,9622.677246
679.292458,-536.266849,-370.102971,9104.533087
679.292774,0.000000,-888.247130,9178.553681
679.293090,0.000000,-962.267725,10066.800811
679.293406,-536.266849,-1184.329507,9918.759623
679.293721,-229.828649,-1628.453072,10288.862594
679.294037,0.000000,-1628.453072,9844.739029
679.294353,306.438199,-444.123565,9770.718434
679.294669,766.095498,1110.308913,9622.677246
679.294985,383.047749,1258.350101,9252.574275
679.295300,1149.143247,962.267725,8660.409521
679.295616,1838.629195,592.164754,7550.100608
679.295932,1915.238745,296.082377,8364.327145
679.296248,2145.067394,-74.020594,8956.491898
679.296564,1072.533697,-370.102971,9548.656652
679.296879,842.705048,-518.144159,9474.636058
679.297195,1072.533697,-0.000000,9548.656652
679.297511,0.000000,666.185348,9696.697840
679.297827,-1072.533697,814.226536,9770.718434
679.298143,-919.314598,296.082377,9548.656652
679.298458,-76.609550,-370.102971,9474.636058
679.298774,0.000000,-740.205942,9918.759623
679.299090,-536.266849,-962.267725,10066.800811
679.299406,-536.266849,-1628.453072,10436.903782
679.299722,-689.485948,-1480.411884,10362.883188
679.300037,153.219100,-592.164754,10288.862594
679.300353,153.219100,814.226536,9918.759623
679.300669,76.609550,1702.473667,9326.594869
679.300985,459.657299,1332.370696,8808.450710
679.301300,1838.629195,888.247130,7994.224174
679.301616,2068.457845,666.185348,8216.285956
679.301932,1532.190996,74.020594,9104.533087
679.302248,1072.533697,-370.102971,9548.656652
679.302564,1149.143247,-666.185348,9548.656652
679.302879,995.924147,-370.102971,9474.636058
679.303195,459.657299,814.226536,9992.780217
679.303511,-536.266849,888.247130,9770.718434
679.303827,-689.485948,222.061783,9770.718434
679.304143,-459.657299,-666.185348,9104.533087
679.304458,-229.828649,-1258.350101,9918.759623
679.304774,-459.657299,-1480.411884,10510.924376
679.305090,-689.485948,-1628.453072,10584.944971
679.305406,0.000000,-1554.432478,10288.862594
679.305722,459.657299,-1110.308913,9844.739029
679.306037,766.095498,370.102971,10066.800811
679.306353,153.219100,1702.473667,9474.636058
679.306669,842.705048,1480.411884,8586.388927
679.306985,1608.800546,1184.329507,7846.182985
679.307301,2834.553343,518.144159,7920.203579
679.307616,2757.943793,592.164754,8438.347739
679.307932,1762.019645,370.102971,8882.471304
679.308248,1915.238745,-370.102971,9474.636058
679.308564,1838.629195,-444.123565,9326.594869
679.308880,1149.143247,222.061783,9622.677246
679.309195,-153.219100,814.226536,10066.800811
679.309511,-842.705048,888.247130,9844.739029
679.309827,-306.438199,-74.020594,9622.677246
679.310143,229.828649,-148.041188,9400.615463
679.310459,0.000000,-592.164754,10066.800811
679.310774,-459.657299,-740.205942,10362.883188
679.311090,-229.828649,-962.267725,10288.862594
679.311406,0.000000,-1184.329507,9992.780217
679.311722,1072.533697,-0.000000,9844.739029
679.312038,306.438199,1258.350101,9548.656652
679.312353,459.657299,1480.411884,8882.471304
679.312669,1608.800546,740.205942,7920.203579
679.312985,2451.505594,592.164754,7846.182985
679.313301,2374.896044,370.102971,8660.409521
679.313617,1455.581446,-74.020594,9104.533087
679.313932,1378.971896,-296.082377,9030.512492
679.314248,1225.752797,-740.205942,8660.409521
679.314564,536.266849,-592.164754,9474.636058
679.314880,-536.266849,-148.041188,10658.965565
679.315196,-1455.581446,-222.061783,10436.903782
679.315511,-1685.410096,-1110.308913,9548.656652
679.315827,-995.924147,-1480.411884,9992.780217
679.316143,-766.095498,-1776.494261,10510.924376
679.316459,-1072.533697,-1406.391290,10288.862594
679.316775,-1072.533697,-1554.432478,10362.883188
679.317090,-306.438199,-1924.535449,10066.800811
679.317406,0.000000,-1036.288319,10288.862594
679.317722,0.000000,370.102971,10066.800811
679.318038,229.828649,962.267725,8882.471304
679.318353,1225.752797,518.144159,8364.327145
679.318669,2145.067394,370.102971,7920.203579
679.318985,2374.896044,296.082377,8216.285956
679.319301,1838.629195,222.061783,8660.409521
679.319617,1378.971896,-222.061783,8734.430116
679.319932,919.314598,-962.267725,9030.512492
679.320248,842.705048,-592.164754,9770.718434
679.320564,0.000000,148.041188,9992.780217
679.320880,-1302.362347,148.041188,9844.739029
679.321196,-1532.190996,-814.226536,9844.739029
679.321511,-995.924147,-1480.411884,9178.553681
679.321827,-842.705048,-1998.556043,9844.739029
679.322143,-842.705048,-2072.576638,10066.800811
679.322459,-1455.581446,-2368.659014,10288.862594
679.322775,-612.876398,-2146.597232,10362.883188
679.323090,0.000000,-1480.411884,9696.697840
679.323406,536.266849,222.061783,9696.697840
679.323722,76.609550,962.267725,9252.574275
679.324038,919.314598,1184.329507,7920.203579
679.324354,2145.067394,518.144159,7476.080014
679.324669,2681.334243,592.164754,7624.121203
679.324985,2451.505594,296.082377,8290.306550
679.325301,1915.238745,-444.123565,8660.409521
679.325617,1608.800546,-888.247130,9178.553681
679.325933,1302.362347,-666.185348,9178.553681
679.326248,766.095498,-0.000000,9918.759623
679.326564,0.000000,444.123565,10066.800811
679.326880,-995.924147,444.123565,9770.718434
679.327196,-306.438199,-74.020594,9474.636058
679.327512,0.000000,-1036.288319,9252.574275
679.327827,-306.438199,-1332.370696,10436.903782
679.328143,-459.657299,-1850.514855,11103.089130
679.328459,-766.095498,-1850.514855,10436.903782
679.328775,-306.438199,-1110.308913,10066.800811
679.329091,153.219100,-0.000000,9992.780217
679.329406,229.828649,1184.329507,9696.697840
679.329722,0.000000,1554.432478,9030.512492
679.330038,1302.362347,962.267725,8216.285956
679.330354,2757.943793,740.205942,7624.121203
679.330670,2604.724693,962.267725,8364.327145
679.330985,1838.629195,222.061783,8882.471304
679.331301,1302.362347,-666.185348,9622.677246
679.331617,1378.971896,-296.082377,9622.677246
679.331933,612.876398,518.144159,10214.842000
679.332249,-306.438199,1480.411884,10288.862594
679.332564,-919.314598,1258.350101,10510.924376
679.332880,-842.705048,518.144159,10066.800811
679.333196,-153.219100,-222.061783,9474.636058
679.333512,-459.657299,-814.226536,10288.862594
679.333827,-612.876398,-888.247130,10510.924376
679.334143,-689.485948,-1258.350101,11029.068536
679.334459,-306.438199,-1184.329507,10214.842000
679.334775,76.609550,-296.082377,10288.862594
679.335091,76.609550,888.247130,10288.862594
679.335406,153.219100,1554.432478,9400.615463
679.335722,919.314598,962.267725,8660.409521
679.336038,2451.505594,1406.391290,7920.203579
679.336354,2911.162892,1258.350101,8068.244768
679.336670,2221.676944,666.185348,8734.430116
679.336985,1532.190996,-74.020594,8956.491898
679.337301,1302.362347,-518.144159,9252.574275
679.337617,1378.971896,-370.102971,9622.677246
679.337933,153.219100,518.144159,10140.821405
679.338249,-919.314598,666.185348,10288.862594
679.338564,-919.314598,-0.000000,9696.697840
679.338880,-229.828649,-666.185348,9474.636058
679.339196,-383.047749,-1258.350101,9844.739029
679.339512,-1072.533697,-1480.411884,9992.780217
679.339828,-919.314598,-1850.514855,10436.903782
679.340143,0.000000,-1998.556043,10510.924376
679.340459,0.000000,-1184.329507,9918.759623
679.340775,153.219100,-0.000000,9770.718434
679.341091,-76.609550,1332.370696,9326.594869
679.341407,536.266849,1184.329507,8438.347739
679.341722,2068.457845,592.164754,7698.141797
679.342038,2451.505594,814.226536,7476.080014
679.342354,2221.676944,-0.000000,8438.347739
679.342670,1762.019645,-518.144159,8734.430116
679.342986,1991.848295,-888.247130,9030.512492
679.343301,1608.800546,-814.226536,8956.491898
679.343617,1072.533697,222.061783,9844.739029
679.343933,-383.047749,518.144159,9770.718434
679.344249,-689.485948,592.164754,9770.718434
679.344565,-689.485948,-0.000000,9326.594869
679.344880,-306.438199,-1258.350101,9474.636058
679.345196,-536.266849,-1554.432478,10214.842000
679.345512,-1302.362347,-2072.576638,10584.944971
679.345828,-689.485948,-2590.720797,10881.027347
679.346144,-1072.533697,-2146.597232,10436.903782
679.346459,0.000000,-518.144159,9844.739029
679.346775,-153.219100,666.185348,9326.594869
679.347091,76.609550,740.205942,8586.388927
679.347407,1378.971896,296.082377,8216.285956
679.347723,2145.067394,-0.000000,8068.244768
679.348038,2451.505594,-148.041188,8586.388927
679.348354,1685.410096,-444.123565,9030.512492
679.348670,1685.410096,-1184.329507,9622.677246
679.348986,1685.410096,-1036.288319,8956.491898
679.349302,842.705048,444.123565,9548.656652
679.349617,0.000000,1036.288319,9992.780217
679.349933,-536.266849,370.102971,9770.718434
679.350249,-229.828649,-370.102971,9252.574275
679.350565,-229.828649,-1406.391290,9844.739029
679.350880,-766.095498,-1850.514855,10955.047942
679.351196,-1149.143247,-1776.494261,10807.006753
679.351512,-919.314598,-2220.617826,11103.089130
679.351828,-536.266849,-1554.432478,10436.903782
679.352144,0.000000,-444.123565,10510.924376
679.352459,536.266849,962.267725,9548.656652
679.352775,76.609550,1702.473667,8734.430116
679.353091,1378.971896,740.205942,8586.388927
679.353407,2757.943793,444.123565,7624.121203
679.353723,2911.162892,370.102971,8142.265362
679.354038,2374.896044,-0.000000,8512.368333
679.354354,1762.019645,-148.041188,9104.533087
679.354670,1532.190996,-444.123565,9030.512492
679.354986,1072.533697,370.102971,9844.739029
679.355302,229.828649,1036.288319,9918.759623
679.355617,-689.485948,592.164754,9770.718434
679.355933,-1302.362347,-222.061783,9548.656652
679.356249,-536.266849,-888.247130,9548.656652
679.356565,-689.485948,-1258.350101,10214.842000
679.356881,-842.705048,-1480.411884,10881.027347
679.357196,-1685.410096,-1480.411884,10807.006753
679.357512,-766.095498,-1332.370696,10288.862594
679.357828,0.000000,-148.041188,9918.759623
679.358144,0.000000,740.205942,9696.697840
679.358460,0.000000,1702.473667,9178.553681
679.358775,842.705048,1110.308913,8290.306550
679.359091,2451.505594,592.164754,7920.203579
679.359407,2681.334243,740.205942,7772.162391
679.359723,2298.286494,518.144159,8364.327145
679.360043,1991.848295,-74.020594,8734.430116
679.360359,1608.800546,-518.144159,8956.491898
679.360674,1302.362347,-74.020594,9474.636058
679.360990,229.828649,518.144159,10066.800811
679.361306,-842.705048,222.061783,10214.842000
679.361622,-1838.629195,-370.102971,9918.759623
679.361938,-842.705048,-1110.308913,9918.759623
679.362253,-459.657299,-1258.350101,10140.821405
679.362569,-919.314598,-888.247130,10066.800811
679.362885,-995.924147,-1258.350101,10214.842000
679.363201,-842.705048,-1924.535449,10214.842000
679.363517,76.609550,-1184.329507,10214.842000
679.363832,153.219100,222.061783,9770.718434
679.364148,0.000000,1332.370696,9326.594869
679.364464,1302.362347,1110.308913,8734.430116
679.364780,1838.629195,740.205942,7920.203579
679.365096,2987.772442,1184.329507,7698.141797
679.365411,2834.553343,1110.308913,8586.388927
679.365727,2068.457845,518.144159,8586.388927
679.366043,1762.019645,-222.061783,8808.450710
679.366359,1455.581446,-296.082377,9474.636058
679.366675,612.876398,296.082377,10214.842000
679.366990,-459.657299,888.247130,10288.862594
679.367306,-1072.533697,666.185348,9992.780217
679.367622,-842.705048,-518.144159,9770.718434
679.367938,-153.219100,-814.226536,9548.656652
679.368254,-689.485948,-740.205942,10584.944971
679.368569,-1302.362347,-962.267725,10288.862594
679.368885,-612.876398,-1554.432478,10807.006753
679.369201,76.609550,-1628.453072,10436.903782
679.369517,459.657299,-0.000000,9918.759623
679.369833,459.657299,1258.350101,9548.656652
679.370148,842.705048,1406.391290,9030.512492
679.370464,1838.629195,888.247130,7994.224174
679.370780,3064.381992,888.247130,7476.080014
679.371096,2451.505594,740.205942,8512.368333
679.371412,1915.238745,-0.000000,8808.450710
679.371727,1532.190996,-888.247130,9030.512492
679.372043,1302.362347,-1258.350101,9474.636058
679.372359,995.924147,-444.123565,10658.965565
679.372675,-306.438199,-0.000000,9844.739029
679.372991,-1225.752797,148.041188,10214.842000
679.373306,-1302.362347,-1036.288319,9696.697840
679.373622,-1149.143247,-1406.391290,9622.677246
679.373938,-612.876398,-1258.350101,10140.821405
679.374254,-1302.362347,-1702.473667,10288.862594
679.374570,-995.924147,-2220.617826,10510.924376
679.374885,-306.438199,-1850.514855,9992.780217
679.375201,612.876398,-1110.308913,9844.739029
679.375517,383.047749,518.144159,9844.739029
679.375833,229.828649,1258.350101,8808.450710
679.376149,1608.800546,814.226536,8216.285956
679.376464,2528.115143,814.226536,7476.080014
679.376780,2834.553343,592.164754,8290.306550
679.377096,2068.457845,148.041188,8586.388927
679.377412,1915.238745,-296.082377,9104.533087
679.377728,1455.581446,-1332.370696,9104.533087
679.378043,766.095498,-740.205942,9992.780217
679.378359,0.000000,222.061783,9770.718434
679.378675,-995.924147,592.164754,9844.739029
679.378991,-1225.752797,-74.020594,9696.697840
679.379307,-766.095498,-1110.308913,9622.677246
679.379622,-306.438199,-1702.473667,10510.924376
679.379938,-842.705048,-1628.453072,9918.759623
679.380254,-1149.143247,-1702.473667,9992.780217
679.380570,-459.657299,-2072.576638,10214.842000
679.380886,229.828649,-1184.329507,10140.821405
679.381201,383.047749,592.164754,9622.677246
679.381517,76.609550,1554.432478,8956.491898
679.381833,1072.533697,1258.350101,8068.244768
679.382149,2221.676944,740.205942,7624.121203
679.382465,2528.115143,444.123565,7994.224174
679.382780,2145.067394,-0.000000,8290.306550
679.383096,1378.971896,-444.123565,9252.574275
679.383412,1302.362347,-1110.308913,9178.553681
679.383728,766.095498,-962.267725,9548.656652
679.384043,0.000000,-0.000000,10362.883188
679.384359,-919.314598,370.102971,10140.821405
679.384675,-1378.971896,370.102971,9696.697840
679.384991,-689.485948,-518.144159,9622.677246
679.385307,-459.657299,-518.144159,9474.636058
679.385622,-689.485948,-962.267725,10584.944971
679.385938,-919.314598,-1406.391290,10584.944971
679.386254,-536.266849,-2072.576638,10214.842000
679.386570,-383.047749,-1258.350101,10288.862594
679.386886,153.219100,-0.000000,10288.862594
679.387201,153.219100,962.267725,9696.697840
679.387517,689.485948,1924.535449,8586.388927
679.387833,1838.629195,1332.370696,7550.100608
679.388149,2528.115143,740.205942,7920.203579
679.388465,2604.724693,740.205942,8808.450710
679.388780,1838.629195,-0.000000,8882.471304
679.389096,1302.362347,-814.226536,9474.636058
679.389412,1225.752797,-740.205942,9696.697840
679.389728,766.095498,296.082377,10362.883188
679.390044,-306.438199,740.205942,10214.842000
679.390359,-1302.362347,888.247130,10214.842000
679.390675,-766.095498,-296.082377,9918.759623
679.390991,-306.438199,-518.144159,9474.636058
679.391307,-306.438199,-1036.288319,10214.842000
679.391623,-536.266849,-1332.370696,10288.862594
679.391938,-612.876398,-1184.329507,10066.800811
679.392254,76.609550,-1036.288319,10140.821405
679.392570,536.266849,-0.000000,10214.842000
679.392886,536.266849,1554.432478,9696.697840
679.393202,842.705048,2220.617826,8512.368333
679.393517,1991.848295,1480.411884,7846.182985
679.393833,2987.772442,740.205942,7624.121203
679.394149,3140.991542,1184.329507,8364.327145
679.394465,2145.067394,518.144159,8438.347739
679.394781,2298.286494,-222.061783,9030.512492
679.395096,1762.019645,-666.185348,9548.656652
679.395412,766.095498,-0.000000,9992.780217
679.395728,-153.219100,1184.329507,10214.842000
679.396044,-1072.533697,1184.329507,10214.842000
679.396360,-1302.362347,-0.000000,9548.656652
679.396675,-459.657299,-740.205942,9474.636058
679.396991,-76.609550,-1036.288319,10214.842000
679.397307,-766.095498,-1258.350101,10066.800811
679.397623,-536.266849,-1480.411884,10140.821405
679.397939,0.000000,-1332.370696,10288.862594
679.398254,612.876398,-666.185348,10214.842000
679.398570,689.485948,888.247130,9622.677246
679.398886,229.828649,1850.514855,8882.471304
679.399202,1072.533697,1258.350101,8216.285956
679.399518,1991.848295,370.102971,7550.100608
679.399833,2451.505594,740.205942,8438.347739
679.400149,2374.896044,222.061783,8586.388927
679.400465,1838.629195,-518.144159,9474.636058
679.400781,1225.752797,-814.226536,9252.574275
679.401097,153.219100,-296.082377,9918.759623
679.401412,153.219100,444.123565,10140.821405
679.401728,-842.705048,740.205942,9992.780217
679.402044,-1532.190996,-0.000000,9548.656652
679.402360,-919.314598,-962.267725,9770.718434
679.402676,-459.657299,-1702.473667,10140.821405
679.402991,-995.924147,-1628.453072,10584.944971
679.403307,-1149.143247,-1332.370696,10436.903782
679.403623,-612.876398,-1998.556043,10510.924376
679.403939,0.000000,-1110.308913,9992.780217
679.404255,76.609550,-0.000000,10584.944971
679.404570,0.000000,1036.288319,9622.677246
679.404886,689.485948,814.226536,8364.327145
679.405202,1685.410096,444.123565,7994.224174
679.405518,1991.848295,-296.082377,8142.265362
679.405834,2528.115143,-370.102971,8586.388927
679.406149,1532.190996,-592.164754,9326.594869
679.406465,1378.971896,-962.267725,9400.615463
679.406781,919.314598,-814.226536,9474.636058
679.407097,459.657299,-222.061783,9696.697840
679.407413,-689.485948,222.061783,9992.780217
679.407728,-1378.971896,-518.144159,9918.759623
679.408044,-919.314598,-1480.411884,9918.759623
679.408360,-229.828649,-1776.494261,9622.677246
679.408676,-842.705048,-1776.494261,10362.883188
679.408992,-842.705048,-2072.576638,9918.759623
679.409307,-536.266849,-1628.453072,9992.780217
679.409623,-383.047749,-1480.411884,10066.800811
679.409939,306.438199,-296.082377,10140.821405
679.410255,1072.533697,740.205942,9252.574275
679.410571,612.876398,1110.308913,8142.265362
679.410886,1532.190996,296.082377,7772.162391
679.411202,2451.505594,222.061783,7698.141797
679.411518,2451.505594,148.041188,8216.285956
679.411834,1762.019645,-444.123565,8586.388927
679.412150,1455.581446,-740.205942,9326.594869
679.412465,842.705048,-888.247130,9104.533087
679.412781,536.266849,-0.000000,9548.656652
679.413097,-459.657299,296.082377,10066.800811
679.413413,-1149.143247,-148.041188,10140.821405
679.413729,-1378.971896,-814.226536,9844.739029
679.414044,-536.266849,-1332.370696,9548.656652
679.414360,-689.485948,-1332.370696,10288.862594
679.414676,-459.657299,-1628.453072,9696.697840
679.414992,-536.266849,-1480.411884,10214.842000
679.415308,-306.438199,-1406.391290,9844.739029
679.415623,459.657299,-0.000000,9548.656652
679.415939,536.266849,814.226536,9400.615463
679.416255,766.095498,1258.350101,8808.450710
679.416571,1378.971896,1184.329507,7994.224174
679.416887,2911.162892,1036.288319,7698.141797
679.417202,2604.724693,740.205942,7846.182985
679.417518,2068.457845,518.144159,8586.388927
679.417834,1378.971896,-444.123565,8956.491898
679.418150,766.095498,-1110.308913,9770.718434
679.418466,766.095498,-518.144159,10362.883188
679.418781,-153.219100,296.082377,10510.924376
679.419097,-1455.581446,888.247130,10288.862594
679.419413,-995.924147,-0.000000,9844.739029
679.419729,-306.438199,-444.123565,9696.697840
679.420045,-229.828649,-444.123565,9918.759623
679.420360,-459.657299,-592.164754,9992.780217
679.420676,0.000000,-814.226536,10436.903782
679.420992,-76.609550,-1184.329507,10362.883188
679.421308,459.657299,-370.102971,9844.739029
679.421624,383.047749,1184.329507,9992.780217
679.421939,383.047749,1924.535449,8882.471304
679.422255,1302.362347,2072.576638,8586.388927
679.422571,2221.676944,1036.288319,8438.347739
679.422887,2757.943793,1332.370696,8216.285956
679.423203,2298.286494,1036.288319,8438.347739
679.423518,1378.971896,296.082377,9400.615463
679.423834,1455.581446,-740.205942,9918.759623
679.424150,995.924147,-296.082377,9918.759623
679.424466,153.219100,1036.288319,10066.800811
679.424782,-1072.533697,1480.411884,10436.903782
679.425097,-919.314598,592.164754,9696.697840
679.425413,-689.485948,-296.082377,9474.636058
679.425729,-383.047749,-962.267725,10288.862594
679.426045,-612.876398,-1110.308913,10584.944971
679.426361,-766.095498,-1480.411884,10288.862594
679.426676,-229.828649,-1554.432478,10362.883188
679.426992,229.828649,-814.226536,10066.800811
679.427308,766.095498,518.144159,10066.800811
679.427624,229.828649,1702.473667,9474.636058
679.427939,1072.533697,1702.473667,8586.388927
679.428255,2068.457845,1110.308913,7920.203579
679.428571,2911.162892,962.267725,7698.141797
679.428887,2604.724693,518.144159,8364.327145
679.429203,1838.629195,-444.123565,8734.430116
679.429518,1378.971896,-1184.329507,9252.574275
679.429834,1072.533697,-1184.329507,9844.739029
679.430150,383.047749,-222.061783,9918.759623
679.430466,-306.438199,666.185348,9844.739029
679.430782,-1378.971896,518.144159,9696.697840
679.431097,-1225.752797,-888.247130,9622.677246
679.431413,-383.047749,-1480.411884,9474.636058
679.431729,-459.657299,-1480.411884,9918.759623
679.432045,-1149.143247,-1850.514855,10214.842000
679.432361,-766.095498,-2220.617826,10066.800811
679.432676,-306.438199,-1924.535449,10436.903782
679.432992,459.657299,-370.102971,9992.780217
679.433308,0.000000,962.267725,9326.594869
679.433624,383.047749,1258.350101,8586.388927
679.433940,1378.971896,370.102971,7994.224174
679.434255,1991.848295,-74.020594,7920.203579
679.434571,2604.724693,-444.123565,8882.471304
679.434887,1455.581446,-518.144159,8660.409521
679.435203,1149.143247,-888.247130,9400.615463
679.435519,995.924147,-1184.329507,8956.491898
679.435834,536.266849,-444.123565,10214.842000
679.436150,-536.266849,-222.061783,10510.924376
679.436466,-1455.581446,-444.123565,10288.862594
679.436782,-1302.362347,-1480.411884,9622.677246
679.437098,-919.314598,-1850.514855,9696.697840
679.437413,-536.266849,-2368.659014,10362.883188
679.437729,-919.314598,-1924.535449,10288.862594
679.438045,-689.485948,-1998.556043,9918.759623
679.438361,0.000000,-1702.473667,9918.759623
679.438677,612.876398,-814.226536,9696.697840
679.438992,612.876398,444.123565,9918.759623
679.439308,689.485948,962.267725,8660.409521
679.439624,1378.971896,370.102971,8142.265362
679.439940,2604.724693,296.082377,7698.141797
679.440256,2528.115143,148.041188,8364.327145
679.440571,2145.067394,-0.000000,8364.327145
679.440887,1532.190996,-740.205942,9030.512492
679.441203,842.705048,-518.144159,8882.471304
679.441519,536.266849,-444.123565,9548.656652
679.441835,0.000000,148.041188,10510.924376
679.442150,-1378.971896,518.144159,10362.883188
679.442466,-1302.362347,-0.000000,9400.615463
679.442782,-612.876398,-666.185348,9400.615463
679.443098,-306.438199,-1036.288319,9918.759623
679.443414,-766.095498,-888.247130,10066.800811
679.443729,-459.657299,-1184.329507,9918.759623
679.444045,76.609550,-1110.308913,9844.739029
679.444361,153.219100,-296.082377,9918.759623
679.444677,689.485948,962.267725,9770.718434
679.444993,689.485948,1998.556043,9030.512492
679.445308,1225.752797,2146.597232,8290.306550
679.445624,1915.238745,1998.556043,7698.141797
679.445940,2681.334243,1776.494261,7920.203579
679.446256,1991.848295,1110.308913,8512.368333
679.446572,1378.971896,148.041188,9400.615463
679.446887,919.314598,-1184.329507,9918.759623
679.447203,689.485948,-888.247130,10436.903782
679.447519,-229.828649,518.144159,10510.924376
679.447835,-1072.533697,1332.370696,10214.842000
679.448151,-1608.800546,592.164754,9918.759623
679.448466,-689.485948,-0.000000,9548.656652
679.448782,-383.047749,-296.082377,10214.842000
679.449098,-612.876398,-740.205942,10510.924376
679.449414,-689.485948,-1110.308913,10436.903782
679.449730,-459.657299,-1406.391290,10288.862594
679.450045,76.609550,-666.185348,9992.780217
679.450361,689.485948,444.123565,9992.780217
679.450677,459.657299,1850.514855,9548.656652
679.450993,842.705048,1850.514855,8956.491898
679.451309,1838.629195,1184.329507,8068.244768
679.451624,2757.943793,1110.308913,8142.265362
679.451940,2681.334243,1036.288319,8438.347739
679.452256,2298.286494,370.102971,8882.471304
679.452572,2374.896044,-0.000000,9252.574275
679.452888,1685.410096,-518.144159,9622.677246
679.453203,995.924147,296.082377,10066.800811
679.453519,-76.609550,1036.288319,9992.780217
679.453835,-1378.971896,518.144159,9992.780217
679.454151,-1378.971896,-444.123565,10066.800811
679.454467,-612.876398,-1258.350101,10066.800811
679.454782,-612.876398,-1184.329507,10732.986159
679.455098,-1072.533697,-1184.329507,10436.903782
679.455414,-919.314598,-1480.411884,10288.862594
679.455730,-153.219100,-1480.411884,9844.739029
679.456046,306.438199,-296.082377,9918.759623
679.456361,612.876398,1184.329507,9474.636058
679.456677,459.657299,1258.350101,8734.430116
679.456993,1608.800546,962.267725,7994.224174
679.457309,2681.334243,444.123565,7328.038826
679.457625,2681.334243,-0.000000,8216.285956
679.457940,1915.238745,-296.082377,8734.430116
679.458256,2068.457845,-962.267725,8882.471304
679.458572,1532.190996,-1406.391290,8956.491898
679.458888,766.095498,-592.164754,10214.842000
679.459204,0.000000,-592.164754,10066.800811
679.459519,-842.705048,-518.144159,10140.821405
679.459835,-1455.581446,-1332.370696,10066.800811
679.460151,-536.266849,-1998.556043,9696.697840
679.460467,-766.095498,-2368.659014,10510.924376
679.460783,-1378.971896,-2146.597232,10288.862594
679.461098,-1685.410096,-2072.576638,9918.759623
679.461414,-229.828649,-2368.659014,9918.759623
679.461730,229.828649,-1554.432478,9992.780217
679.462046,306.438199,-148.041188,9326.594869
679.462361,383.047749,444.123565,9104.533087
679.462677,1225.752797,-148.041188,8068.244768
679.462993,2221.676944,-0.000000,7550.100608
679.463309,2145.067394,-148.041188,7846.182985
679.463624,2145.067394,-296.082377,8216.285956
679.463940,1302.362347,-740.205942,8660.409521
679.464256,1302.362347,-1332.370696,8734.430116
679.464572,1072.533697,-1332.370696,9992.780217
679.464888,0.000000,-740.205942,10436.903782
679.465203,-1378.971896,-444.123565,10066.800811
679.465519,-1838.629195,-444.123565,9696.697840
679.465835,-1608.800546,-1258.350101,9622.677246
679.466151,-842.705048,-1332.370696,10362.883188
679.466466,-919.314598,-740.205942,9622.677246
679.466782,-1149.143247,-1110.308913,9918.759623
679.467098,-689.485948,-1628.453072,10066.800811
679.467414,0.000000,-1184.329507,10140.821405
679.467730,153.219100,-148.041188,10140.821405
679.468045,536.266849,1628.453072,9178.553681
679.468361,842.705048,1702.473667,8364.327145
679.468677,2068.457845,1332.370696,7846.182985
679.468993,2987.772442,1258.350101,8142.265362
679.469308,2604.724693,1406.391290,8142.265362
679.469624,1762.019645,888.247130,8882.471304
679.469940,1838.629195,-296.082377,9548.656652
679.470256,1378.971896,-666.185348,9844.739029
679.470571,995.924147,592.164754,9918.759623
679.470887,-306.438199,1332.370696,10066.800811
679.471203,-1455.581446,888.247130,9844.739029
679.471519,-995.924147,-0.000000,9770.718434
679.471835,-536.266849,-370.102971,10066.800811
679.472150,-766.095498,-814.226536,10436.903782
679.472466,-1302.362347,-888.247130,10807.006753
679.472782,-1225.752797,-1628.453072,10955.047942
679.473098,-459.657299,-1480.411884,10732.986159
679.473413,153.219100,-0.000000,10436.903782
679.473729,229.828649,1628.453072,9622.677246
679.474045,0.000000,2146.597232,8808.450710
679.474361,1685.410096,1554.432478,8216.285956
679.474677,2834.553343,1480.411884,7550.100608
679.474992,2987.772442,1184.329507,8142.265362
679.475308,2528.115143,370.102971,9030.512492
679.475624,1915.238745,-0.000000,9326.594869
679.475940,1762.019645,-518.144159,9474.636058
679.476255,1149.143247,370.102971,10140.821405
679.476571,0.000000,888.247130,10140.821405
679.476887,-1149.143247,592.164754,9992.780217
679.477203,-1455.581446,74.020594,10140.821405
679.477518,-842.705048,-666.185348,9696.697840
679.477834,-536.266849,-1184.329507,10510.924376
679.478150,-1532.190996,-1554.432478,10881.027347
679.478466,-995.924147,-2146.597232,10807.006753
679.478782,-689.485948,-1776.494261,10732.986159
679.479097,229.828649,-518.144159,10214.842000
679.479413,306.438199,1110.308913,9770.718434
679.479729,306.438199,1924.535449,8956.491898
679.480045,1302.362347,1258.350101,8956.491898
679.480360,3064.381992,962.267725,7920.203579
679.480676,3217.601092,1036.288319,7698.141797
679.480992,2604.724693,962.267725,7994.224174
679.481308,2528.115143,-74.020594,8808.450710
679.481623,2451.505594,-1184.329507,9474.636058
679.481939,1915.238745,-370.102971,9474.636058
679.482255,842.705048,222.061783,9622.677246
679.482571,-459.657299,814.226536,9992.780217
679.482887,-1072.533697,-148.041188,9622.677246
679.483202,-689.485948,-962.267725,9548.656652
679.483518,-153.219100,-1480.411884,10214.842000
679.483834,-919.314598,-1480.411884,10362.883188
679.484150,-1225.752797,-1850.514855,9992.780217
679.484465,-536.266849,-2664.741391,10436.903782
679.484781,0.000000,-2220.617826,10066.800811
679.485097,0.000000,-222.061783,9992.780217
679.485413,0.000000,962.267725,9030.512492
679.485729,766.095498,740.205942,8290.306550
679.486044,2145.067394,-74.020594,7772.162391
679.486360,2834.553343,-0.000000,8068.244768
679.486676,2528.115143,296.082377,8216.285956
679.486992,1685.410096,-592.164754,8586.388927
679.487307,1455.581446,-1036.288319,8882.471304
679.487623,1378.971896,-1258.350101,9326.594869
679.487939,1149.143247,-74.020594,10214.842000
679.488255,-76.609550,296.082377,9622.677246
679.488570,-1225.752797,-0.000000,9622.677246
679.488886,-766.095498,-1036.288319,9696.697840
679.489202,-536.266849,-1110.308913,9548.656652
679.489518,-842.705048,-1406.391290,10066.800811
679.489834,-1302.362347,-1924.535449,10288.862594
679.490149,-1378.971896,-2664.741391,10732.986159
679.490465,-842.705048,-2220.617826,10881.027347
679.490781,-229.828649,-814.226536,10658.965565
679.491097,-383.047749,814.226536,9474.636058
679.491412,306.438199,1184.329507,8808.450710
679.491728,1302.362347,666.185348,7994.224174
679.492044,2451.505594,444.123565,7550.100608
679.492360,2298.286494,-0.000000,8364.327145
679.492675,1762.019645,-296.082377,8586.388927
679.492991,1608.800546,-888.247130,9178.553681
679.493307,1532.190996,-1036.288319,8956.491898
679.493623,612.876398,-370.102971,9992.780217
679.493939,-766.095498,370.102971,9992.780217
679.494254,-1072.533697,370.102971,9770.718434
679.494570,-919.314598,-296.082377,9696.697840
679.494886,-153.219100,-1332.370696,9622.677246
679.495202,-1072.533697,-1628.453072,10955.047942
679.495517,-1608.800546,-1850.514855,10436.903782
679.495833,-1302.362347,-2072.576638,10807.006753
679.496149,-766.095498,-1628.453072,10584.944971
679.496465,0.000000,-296.082377,10066.800811
679.496781,-536.266849,1332.370696,9770.718434
679.497096,-153.219100,1702.473667,8956.491898
679.497412,766.095498,814.226536,8364.327145
679.497728,2604.724693,1036.288319,7550.100608
679.498044,2834.553343,814.226536,8216.285956
679.498359,2145.067394,-0.000000,8586.388927
679.498675,1991.848295,-0.000000,8956.491898
679.498991,1915.238745,-518.144159,9104.533087
679.499307,1532.190996,444.123565,9548.656652
679.499622,153.219100,1110.308913,9770.718434
679.499938,-842.705048,1628.453072,9844.739029
679.500254,-919.314598,888.247130,9474.636058
679.500570,-766.095498,-296.082377,9400.615463
679.500886,-306.438199,-814.226536,10288.862594
679.501201,-766.095498,-1332.370696,10584.944971
679.501517,-1149.143247,-1776.494261,10732.986159
679.501833,-689.485948,-1850.514855,10436.903782
679.502149,-153.219100,-1036.288319,10362.883188
679.502464,0.000000,740.205942,10288.862594
679.502780,-153.219100,1702.473667,9104.533087
679.503096,689.485948,1776.494261,8216.285956
679.503412,2068.457845,1406.391290,7846.182985
679.503728,3140.991542,1184.329507,7624.121203
679.504043,3217.601092,1110.308913,8290.306550
679.504359,2374.896044,222.061783,8882.471304
679.504675,2145.067394,-296.082377,8956.491898
679.504991,1991.848295,-148.041188,9474.636058
679.505306,766.095498,814.226536,9770.718434
679.505622,-383.047749,1406.391290,10362.883188
679.505938,-766.095498,888.247130,9622.677246
679.506254,-459.657299,-0.000000,9326.594869
679.506569,0.000000,-222.061783,10214.842000
679.506885,-536.266849,-1036.288319,10658.965565
679.507201,-919.314598,-1110.308913,10807.006753
679.507517,-1072.533697,-1406.391290,10510.924376
679.507833,-153.219100,-1332.370696,10881.027347
679.508148,0.000000,-0.000000,10362.883188
679.508464,0.000000,1258.350101,9992.780217
679.508780,459.657299,1480.411884,8882.471304
679.509096,1915.238745,1036.288319,8068.244768
679.509411,2834.553343,814.226536,7920.203579
679.509727,2681.334243,1036.288319,8734.430116
679.510043,2451.505594,222.061783,8660.409521
679.510359,2221.676944,-814.226536,9178.553681
679.510674,1991.848295,-518.144159,9252.574275
679.510990,1378.971896,444.123565,9548.656652
679.511306,0.000000,888.247130,9918.759623
679.511622,-689.485948,296.082377,9844.739029
679.511938,-536.266849,-740.205942,9696.697840
679.512253,-459.657299,-1332.370696,9696.697840
679.512569,-919.314598,-1480.411884,10510.924376
679.512885,-1608.800546,-1850.514855,10881.027347
679.513201,-1685.410096,-2442.679609,10807.006753
679.513516,-995.924147,-2072.576638,10732.986159
679.513832,-689.485948,-814.226536,10807.006753
679.514148,-536.266849,592.164754,10140.821405
679.514464,-306.438199,962.267725,8882.471304
679.514780,995.924147,148.041188,8216.285956
679.515095,2145.067394,-148.041188,7994.224174
679.515411,2221.676944,-74.020594,8290.306550
679.515727,1838.629195,-0.000000,8438.347739
679.516043,1608.800546,-962.267725,8956.491898
679.516358,1378.971896,-962.267725,8882.471304
679.516674,1225.752797,-444.123565,9400.615463
679.516990,0.000000,296.082377,9622.677246
679.517306,-842.705048,-0.000000,9474.636058
679.517621,-842.705048,-888.247130,9326.594869
679.517937,-536.266849,-888.247130,9474.636058
679.518253,-612.876398,-1776.494261,10140.821405
679.518569,-1302.362347,-2220.617826,10362.883188
679.518885,-1608.800546,-2738.761985,10436.903782
679.519200,-1072.533697,-2886.803174,10510.924376
679.519516,0.000000,-1628.453072,10436.903782
679.519832,-919.314598,-148.041188,9622.677246
679.520148,-766.095498,222.061783,9252.574275
679.520463,229.828649,-0.000000,8290.306550
679.520779,1685.410096,-444.123565,8068.244768
679.521095,2451.505594,-0.000000,8068.244768
679.521411,2221.676944,-0.000000,8438.347739
679.521726,1915.238745,-740.205942,8586.388927
679.522042,2068.457845,-1110.308913,8734.430116
679.522358,1608.800546,-444.123565,9474.636058
679.522674,689.485948,222.061783,9548.656652
679.522990,-229.828649,592.164754,9400.615463
679.523305,-229.828649,296.082377,9474.636058
679.523621,229.828649,-370.102971,9400.615463
679.523937,0.000000,-888.247130,9400.615463
679.524253,-306.438199,-518.144159,9696.697840
679.524568,-612.876398,-1332.370696,10140.821405
679.524884,-306.438199,-2146.597232,10436.903782
679.525200,0.000000,-1480.411884,11103.089130
679.525516,76.609550,-0.000000,10658.965565
679.525832,0.000000,1184.329507,9326.594869
679.526147,612.876398,1110.308913,8660.409521
679.526463,1991.848295,814.226536,8290.306550
679.526779,2834.553343,1036.288319,8364.327145
679.527095,2374.896044,1036.288319,8882.471304
679.527410,1838.629195,-0.000000,9030.512492
679.527726,2068.457845,-962.267725,9474.636058
679.528042,2068.457845,-0.000000,9474.636058
679.528358,1378.971896,814.226536,9622.677246
679.528673,689.485948,1702.473667,9548.656652
679.528989,-306.438199,1554.432478,9474.636058
679.529305,-153.219100,666.185348,8956.491898
679.529621,995.924147,-0.000000,9696.697840
679.529937,0.000000,-148.041188,10066.800811
679.530252,-1072.533697,-518.144159,10140.821405
679.530568,-689.485948,-2146.597232,10732.986159
679.530884,-306.438199,-1702.473667,11473.192101
679.531200,-612.876398,-0.000000,10584.944971
679.531515,-842.705048,1332.370696,10436.903782
679.531831,0.000000,1406.391290,9548.656652
679.532147,612.876398,1036.288319,8956.491898
679.532463,1685.410096,592.164754,8142.265362
679.532778,2068.457845,740.205942,8586.388927
679.533094,1838.629195,296.082377,9104.533087
679.533410,1455.581446,-592.164754,9696.697840
679.533726,1685.410096,-888.247130,9178.553681
679.534042,1378.971896,444.123565,9474.636058
679.534357,536.266849,1258.350101,9696.697840
679.534673,-153.219100,1184.329507,9252.574275
679.534989,0.000000,296.082377,9252.574275
679.535305,383.047749,-666.185348,9178.553681
679.535620,0.000000,-740.205942,10066.800811
679.535936,-459.657299,-1628.453072,10066.800811
679.536252,-919.314598,-2072.576638,10214.842000
679.536568,-306.438199,-2072.576638,10658.965565
679.536884,0.000000,-740.205942,11029.068536
679.537199,-383.047749,962.267725,9770.718434
679.537515,-536.266849,888.247130,9178.553681
679.537831,766.095498,-0.000000,8808.450710
679.538147,1915.238745,-0.000000,8290.306550
679.538462,2068.457845,148.041188,8660.409521
679.538778,1991.848295,-0.000000,8660.409521
679.539094,1915.238745,-296.082377,8660.409521
679.539410,1685.410096,-666.185348,8734.430116
679.539725,1838.629195,222.061783,9030.512492
679.540041,766.095498,1332.370696,9326.594869
679.540357,153.219100,1332.370696,9252.574275
679.540673,-153.219100,222.061783,9030.512492
679.540989,612.876398,-740.205942,9326.594869
679.541304,536.266849,-1184.329507,9844.739029
679.541620,-536.266849,-1184.329507,9622.677246
679.541936,-1072.533697,-2072.576638,10214.842000
679.542252,-689.485948,-1924.535449,10584.944971
679.542567,76.609550,-814.226536,10436.903782
679.542883,-306.438199,444.123565,9844.739029
679.543199,-536.266849,1332.370696,9622.677246
679.543515,229.828649,740.205942,9474.636058
679.543831,1685.410096,370.102971,7994.224174
679.544146,2068.457845,296.082377,7846.182985
679.544462,1608.800546,-74.020594,8734.430116
679.544778,1378.971896,-962.267725,8734.430116
679.545094,1455.581446,-1480.411884,9178.553681
679.545409,766.095498,-740.205942,9770.718434
679.545725,459.657299,592.164754,9992.780217
679.546041,-229.828649,888.247130,9548.656652
679.546357,-383.047749,666.185348,9474.636058
679.546672,76.609550,-444.123565,9844.739029
679.546988,459.657299,-888.247130,9326.594869
679.547304,0.000000,-1036.288319,9844.739029
679.547620,-842.705048,-2146.597232,9918.759623
679.547936,-536.266849,-3034.844362,11029.068536
679.548251,76.609550,-2368.659014,10807.006753
679.548567,-383.047749,-370.102971,10362.883188
679.548883,-995.924147,666.185348,9918.759623
679.549199,-536.266849,740.205942,9400.615463
679.549514,919.314598,-0.000000,8364.327145
679.549830,1838.629195,-222.061783,8290.306550
679.550146,1685.410096,-148.041188,9178.553681
679.550462,842.705048,-1036.288319,9178.553681
679.550777,1149.143247,-1258.350101,9400.615463
679.551093,1225.752797,-962.267725,9548.656652
679.551409,689.485948,-0.000000,9918.759623
679.551725,0.000000,1554.432478,9696.697840
679.552041,-459.657299,962.267725,8882.471304
679.552356,-459.657299,-74.020594,9178.553681
679.552672,612.876398,-740.205942,9474.636058
679.552988,306.438199,-444.123565,9770.718434
679.553304,-153.219100,-666.185348,9696.697840
679.553619,-229.828649,-1332.370696,9992.780217
679.553935,153.219100,-888.247130,10214.842000
679.554251,229.828649,444.123565,9918.759623
679.554567,-383.047749,1554.432478,9770.718434
679.554883,0.000000,1924.535449,9326.594869
679.555198,842.705048,1258.350101,8734.430116
679.555514,1838.629195,1110.308913,8290.306550
679.555830,1838.629195,666.185348,8808.450710
679.556146,1532.190996,296.082377,8734.430116
679.556461,1378.971896,-296.082377,9030.512492
679.556777,1532.190996,-666.185348,9326.594869
679.557093,1455.581446,370.102971,9622.677246
679.557409,306.438199,1554.432478,9918.759623
679.557724,-612.876398,962.267725,9326.594869
679.558040,-229.828649,-0.000000,9622.677246
679.558356,612.876398,-740.205942,9400.615463
679.558672,383.047749,-740.205942,9548.656652
679.558988,-919.314598,-1332.370696,10066.800811
679.559303,-536.266849,-1702.473667,10140.821405
679.559619,-306.438199,-1924.535449,9992.780217
679.559935,0.000000,-1110.308913,10288.862594
679.560251,-383.047749,296.082377,9696.697840
679.560566,-459.657299,1258.350101,9400.615463
679.560882,842.705048,592.164754,8660.409521
679.561198,1685.410096,370.102971,8216.285956
679.561514,1991.848295,296.082377,8290.306550
679.561829,1302.362347,-0.000000,8586.388927
679.562145,1072.533697,-814.226536,8956.491898
679.562461,1225.752797,-1258.350101,9400.615463
679.562777,1149.143247,-222.061783,9770.718434
679.563092,0.000000,518.144159,10288.862594
679.563408,-612.876398,740.205942,10288.862594
679.563724,-995.924147,-0.000000,9474.636058
679.564040,0.000000,-740.205942,9622.677246
679.564355,0.000000,-518.144159,9918.759623
679.564671,0.000000,-0.000000,9844.739029
679.564987,-995.924147,-962.267725,10362.883188
679.565303,0.000000,-1554.432478,10288.862594
679.565618,383.047749,-962.267725,10436.903782
679.565934,153.219100,592.164754,10140.821405
679.566250,-229.828649,1924.535449,9474.636058
679.566566,842.705048,1110.308913,8808.450710
679.566881,1838.629195,666.185348,8142.265362
679.567197,2221.676944,962.267725,7994.224174
679.567513,2068.457845,296.082377,8882.471304
679.567829,1225.752797,-370.102971,9474.636058
679.568145,1532.190996,-1184.329507,9844.739029
679.568460,995.924147,-666.185348,9918.759623
679.568776,536.266849,592.164754,10214.842000
679.569092,-536.266849,1480.411884,9548.656652
679.569408,-689.485948,592.164754,9252.574275
679.569723,0.000000,-592.164754,9696.697840
679.570039,76.609550,-1110.308913,9696.697840
679.570355,-306.438199,-666.185348,10140.821405
679.570671,-459.657299,-1628.453072,10140.821405
679.570986,-459.657299,-2220.617826,10436.903782
679.571302,0.000000,-1332.370696,10214.842000
679.571618,76.609550,296.082377,9844.739029
679.571934,0.000000,1110.308913,9474.636058
679.572249,153.219100,888.247130,9030.512492
679.572565,1762.019645,518.144159,8438.347739
679.572881,2298.286494,-370.102971,8290.306550
679.573197,2221.676944,-222.061783,8808.450710
679.573512,1072.533697,-888.247130,9252.574275
679.573828,995.924147,-1332.370696,9252.574275
679.574144,1072.533697,-1406.391290,9400.615463
679.574460,689.485948,-148.041188,9918.759623
679.574775,-536.266849,592.164754,9696.697840
679.575091,-919.314598,222.061783,9474.636058
679.575407,-536.266849,-814.226536,9326.594869
679.575723,76.609550,-1554.432478,9252.574275
679.576038,0.000000,-1628.453072,9696.697840
679.576354,-536.266849,-1850.514855,9326.594869
679.576670,-153.219100,-1776.494261,9770.718434
679.576986,153.219100,-1776.494261,10140.821405
679.577301,766.095498,-814.226536,9770.718434
679.577617,383.047749,666.185348,9326.594869
679.577933,306.438199,1110.308913,9178.553681
679.578249,1225.752797,296.082377,7920.203579
679.578564,2068.457845,222.061783,7846.182985
679.578880,1991.848295,-0.000000,8956.491898
679.579196,1302.362347,-0.000000,8586.388927
679.579512,1072.533697,-518.144159,9030.512492
679.579827,1072.533697,-1184.329507,9696.697840
679.580143,1149.143247,-296.082377,10214.842000
679.580459,-153.219100,814.226536,9696.697840
679.580775,-919.314598,1184.329507,9696.697840
679.581090,-689.485948,-0.000000,9844.739029
679.581406,0.000000,-888.247130,9474.636058
679.581722,0.000000,-740.205942,10288.862594
679.582038,-612.876398,-888.247130,9844.739029
679.582353,-689.485948,-1480.411884,9992.780217
679.582669,-153.219100,-2146.597232,10436.903782
679.582985,536.266849,-740.205942,10288.862594
679.583301,229.828649,888.247130,10066.800811
679.583616,0.000000,1702.473667,9030.512492
679.583932,536.266849,962.267725,8660.409521
679.584248,2145.067394,1036.288319,8216.285956
679.584564,2681.334243,814.226536,8142.265362
679.584879,1762.019645,518.144159,8216.285956
679.585195,919.314598,-740.205942,9400.615463
679.585511,842.705048,-1776.494261,9992.780217
679.585827,766.095498,-1406.391290,10436.903782
679.586142,-383.047749,-0.000000,10732.986159
679.586458,-1072.533697,740.205942,9918.759623
679.586774,-1302.362347,518.144159,9622.677246
679.587090,-612.876398,-370.102971,9474.636058
679.587405,76.609550,-518.144159,10066.800811
679.587721,-459.657299,-814.226536,9992.780217
679.588037,-995.924147,-1480.411884,9770.718434
679.588353,-766.095498,-2072.576638,10584.944971
679.588668,229.828649,-1406.391290,10510.924376
679.588984,459.657299,296.082377,9770.718434
679.589300,-306.438199,1554.432478,9252.574275
679.589616,306.438199,1406.391290,9252.574275
679.589931,1685.410096,666.185348,8290.306550
679.590247,2298.286494,666.185348,8068.244768
679.590563,2068.457845,592.164754,8512.368333
679.590879,1455.581446,74.020594,8956.491898
679.591194,1225.752797,-370.102971,9104.533087
679.591510,1302.362347,-518.144159,9474.636058
679.591826,842.705048,444.123565,9548.656652
679.592142,-153.219100,1184.329507,9474.636058
679.592457,-842.705048,444.123565,9400.615463
679.592773,-612.876398,-666.185348,9992.780217
679.593089,306.438199,-1110.308913,9770.718434
679.593405,-153.219100,-740.205942,9844.739029
679.593720,-842.705048,-1258.350101,10288.862594
679.594036,-689.485948,-1776.494261,10436.903782
679.594352,153.219100,-1332.370696,10584.944971
679.594668,383.047749,148.041188,9844.739029
679.594983,0.000000,1702.473667,9252.574275
679.595299,689.485948,1924.535449,8956.491898
679.595615,1608.800546,592.164754,8586.388927
679.595931,2681.334243,370.102971,8290.306550
679.596246,2604.724693,296.082377,8290.306550
679.596562,1762.019645,-74.020594,8364.327145
679.596878,2298.286494,-444.123565,9548.656652
679.597194,1762.019645,-444.123565,9400.615463
679.597509,1149.143247,444.123565,9696.697840
679.597825,0.000000,1184.329507,9992.780217
679.598141,-919.314598,666.185348,9770.718434
679.598457,-153.219100,-592.164754,9400.615463
679.598772,0.000000,-888.247130,9622.677246
679.599088,0.000000,-1258.350101,10510.924376
679.599404,-995.924147,-1258.350101,9992.780217
679.599720,-842.705048,-1850.514855,9992.780217
679.600035,0.000000,-1924.535449,10362.883188
679.600351,0.000000,-518.144159,10362.883188
679.600667,-76.609550,814.226536,9844.739029
679.600983,-383.047749,1110.308913,9030.512492
679.601298,536.266849,444.123565,9178.553681
679.601614,1915.238745,370.102971,8512.368333
679.601930,2374.896044,740.205942,7920.203579
679.602246,1608.800546,-0.000000,8660.409521
679.602561,1149.143247,-814.226536,8882.471304
679.602877,1608.800546,-1036.288319,9252.574275
679.603193,995.924147,-666.185348,9770.718434
679.603509,0.000000,296.082377,10140.821405
679.603824,-689.485948,1110.308913,9844.739029
679.604140,-612.876398,518.144159,9474.636058
679.604456,306.438199,-740.205942,9474.636058
679.604772,306.438199,-518.144159,9696.697840
679.605087,-383.047749,-1110.308913,9622.677246
679.605403,-1072.533697,-1776.494261,9992.780217
679.605719,-612.876398,-2664.741391,10732.986159
679.606035,0.000000,-1480.411884,10732.986159
679.606350,-459.657299,-74.020594,10584.944971
679.606666,-842.705048,962.267725,9474.636058
679.606982,76.609550,592.164754,9030.512492
679.607298,1302.362347,-148.041188,8364.327145
679.607613,1991.848295,-0.000000,8660.409521
679.607929,1915.238745,-370.102971,8586.388927
679.608245,919.314598,-888.247130,8882.471304
679.608561,1072.533697,-1776.494261,9696.697840
679.608876,1302.362347,-1776.494261,9992.780217
679.609192,459.657299,-0.000000,9696.697840
679.609508,-766.095498,666.185348,9622.677246
679.609824,-689.485948,-0.000000,9622.677246
679.610139,0.000000,-1110.308913,9400.615463
679.610455,0.000000,-1110.308913,9252.574275
679.610771,-229.828649,-740.205942,9622.677246
679.611087,-459.657299,-1480.411884,9844.739029
679.611402,-612.876398,-2294.638420,10288.862594
679.611718,76.609550,-1480.411884,10214.842000
679.612034,76.609550,-370.102971,10214.842000
679.612350,-153.219100,1554.432478,9474.636058
679.612665,229.828649,1702.473667,8438.347739
679.612981,1532.190996,888.247130,7994.224174
679.613297,2528.115143,666.185348,7994.224174
679.613613,2681.334243,518.144159,8438.347739
679.613928,1608.800546,-148.041188,8882.471304
679.614244,1225.752797,-1184.329507,9400.615463
679.614560,1302.362347,-444.123565,9326.594869
679.614876,919.314598,740.205942,9992.780217
679.615191,0.000000,1480.411884,9918.759623
679.615507,-689.485948,1332.370696,9400.615463
679.615823,-383.047749,148.041188,9326.594869
679.616139,689.485948,-444.123565,9104.533087
679.616454,-76.609550,-148.041188,9770.718434
679.616770,-229.828649,-666.185348,9844.739029
679.617086,-383.047749,-1184.329507,10214.842000
679.617402,153.219100,-1184.329507,10214.842000
679.617717,153.219100,-148.041188,10584.944971
679.618033,229.828649,962.267725,9474.636058
679.618349,306.438199,1776.494261,8808.450710
679.618665,1378.971896,1332.370696,8216.285956
679.618980,2145.067394,814.226536,8216.285956
679.619296,2528.115143,592.164754,8586.388927
679.619612,1532.190996,-0.000000,8660.409521
679.619928,1225.752797,-222.061783,9104.533087
679.620243,842.705048,-962.267725,9918.759623
679.620559,766.095498,-222.061783,10214.842000
679.620875,-229.828649,666.185348,10362.883188
679.621191,-919.314598,888.247130,10214.842000
679.621506,-766.095498,148.041188,9770.718434
679.621822,0.000000,-296.082377,9548.656652
679.622138,0.000000,-444.123565,9844.739029
679.622454,-612.876398,-518.144159,10066.800811
679.622769,-995.924147,-740.205942,10140.821405
679.623085,-76.609550,-1776.494261,10658.965565
679.623401,76.609550,-592.164754,10584.944971
679.623717,-459.657299,1110.308913,10436.903782
679.624032,-612.876398,1036.288319,9770.718434
679.624348,153.219100,518.144159,9178.553681
679.624664,1608.800546,518.144159,8290.306550
679.624980,1915.238745,814.226536,8512.368333
679.625295,1685.410096,740.205942,8882.471304
679.625611,1302.362347,-0.000000,9178.553681
679.625927,1302.362347,-444.123565,9474.636058
679.626243,995.924147,-0.000000,9770.718434
679.626558,153.219100,888.247130,9992.780217
679.626874,-536.266849,1258.350101,9696.697840
679.627190,-766.095498,-0.000000,9474.636058
679.627506,0.000000,-666.185348,9474.636058
679.627821,459.657299,-740.205942,9400.615463
679.628137,0.000000,-888.247130,9622.677246
679.628453,229.828649,-1776.494261,10140.821405
679.628769,0.000000,-2072.576638,10288.862594
679.629084,229.828649,-962.267725,9992.780217
679.629400,306.438199,74.020594,9770.718434
679.629716,0.000000,888.247130,9474.636058
679.630032,995.924147,592.164754,8956.491898
679.630347,1532.190996,148.041188,7994.224174
679.630663,2681.334243,-74.020594,7994.224174
679.630979,2604.724693,-444.123565,8660.409521
679.631295,1915.238745,-888.247130,8808.450710
679.631610,1762.019645,-1850.514855,9030.512492
679.631926,1455.581446,-1554.432478,9104.533087
679.632242,1072.533697,-666.185348,9622.677246
679.632558,0.000000,296.082377,9474.636058
679.632873,-766.095498,222.061783,9474.636058
679.633189,0.000000,-1036.288319,9326.594869
679.633505,153.219100,-1776.494261,9326.594869
679.633821,-612.876398,-2146.597232,9992.780217
679.634136,-1072.533697,-2368.659014,10066.800811
679.634452,-1225.752797,-2590.720797,10510.924376
679.634768,0.000000,-2516.700203,10436.903782
679.635084,0.000000,-1036.288319,10140.821405
679.635399,-612.876398,888.247130,9622.677246
679.635715,-383.047749,592.164754,8808.450710
679.636031,689.485948,-74.020594,8364.327145
679.636347,2298.286494,-0.000000,7994.224174
679.636662,2145.067394,-0.000000,8290.306550
679.636978,1608.800546,-74.020594,8882.471304
679.637294,1149.143247,-814.226536,9178.553681
679.637610,1608.800546,-740.205942,9104.533087
679.637925,842.705048,222.061783,9844.739029
679.638241,229.828649,1036.288319,9474.636058
679.638557,-842.705048,1258.350101,9548.656652
679.638873,-689.485948,-0.000000,9474.636058
679.639188,-306.438199,-1406.391290,9622.677246
679.639504,-536.266849,-1184.329507,10436.903782
679.639820,-766.095498,-1184.329507,10436.903782
679.640136,-995.924147,-1850.514855,10436.903782
679.640451,-766.095498,-1776.494261,10881.027347
679.640767,0.000000,-666.185348,10881.027347
679.641083,-153.219100,1332.370696,10140.821405
679.641399,0.000000,2072.576638,9178.553681
679.641714,919.314598,1184.329507,8438.347739
679.642030,2374.896044,888.247130,8142.265362
679.642346,2451.505594,1110.308913,8290.306550
679.642662,1762.019645,296.082377,8512.368333
679.642977,1685.410096,-222.061783,9326.594869
679.643293,1608.800546,-740.205942,9326.594869
679.643609,1149.143247,-0.000000,9622.677246
679.643925,229.828649,444.123565,10214.842000
679.644240,-766.095498,1036.288319,10066.800811
679.644556,-842.705048,-148.041188,9918.759623
679.644872,-153.219100,-740.205942,9696.697840
679.645188,-383.047749,-962.267725,9696.697840
679.645503,-919.314598,-1036.288319,9696.697840
679.645819,-1225.752797,-1184.329507,10362.883188
679.646135,-842.705048,-1702.473667,10362.883188
679.646451,-383.047749,-1184.329507,10732.986159
679.646766,-536.266849,444.123565,10288.862594
679.647082,-766.095498,1332.370696,9252.574275
679.647398,153.219100,814.226536,8660.409521
679.647714,1378.971896,370.102971,8734.430116
679.648029,2221.676944,444.123565,8142.265362
679.648345,2145.067394,888.247130,8586.388927
679.648661,1302.362347,370.102971,8956.491898
679.648977,1532.190996,-444.123565,9400.615463
679.649292,1608.800546,-0.000000,9400.615463
679.649608,612.876398,1036.288319,9400.615463
679.649924,-306.438199,1332.370696,9474.636058
679.650240,-536.266849,740.205942,9622.677246
679.650555,0.000000,-222.061783,9400.615463
679.650871,612.876398,-444.123565,9548.656652
679.651187,0.000000,-740.205942,9918.759623
679.651503,-689.485948,-1406.391290,10140.821405
679.651818,-919.314598,-1702.473667,10584.944971
679.652134,0.000000,-1184.329507,11029.068536
679.652450,0.000000,444.123565,10510.924376
679.652766,0.000000,1702.473667,9326.594869
679.653081,459.657299,1702.473667,8734.430116
679.653397,1991.848295,962.267725,8438.347739
679.653713,2834.553343,666.185348,7920.203579
679.654029,2604.724693,740.205942,8142.265362
679.654344,2145.067394,-222.061783,9400.615463
679.654660,1991.848295,-1110.308913,9326.594869
679.654976,2221.676944,-814.226536,9474.636058
679.655292,1532.190996,-74.020594,9770.718434
679.655607,919.314598,814.226536,9770.718434
679.655923,-459.657299,666.185348,9474.636058
679.656239,-153.219100,-370.102971,9400.615463
679.656555,536.266849,-1036.288319,9696.697840
679.656870,0.000000,-1110.308913,9992.780217
679.657186,-689.485948,-1850.514855,10066.800811
679.657502,-919.314598,-2664.741391,10362.883188
679.657818,-689.485948,-2590.720797,11029.068536
679.658133,0.000000,-1110.308913,10066.800811
679.658449,-612.876398,1110.308913,9548.656652
679.658765,-612.876398,1332.370696,9030.512492
679.659081,229.828649,222.061783,8216.285956
679.659396,2374.896044,-0.000000,8290.306550
679.659712,2068.457845,-0.000000,8660.409521
679.660028,1225.752797,-222.061783,8660.409521
679.660344,1149.143247,-814.226536,9548.656652
679.660659,1302.362347,-1036.288319,9474.636058
679.660975,842.705048,-74.020594,9992.780217
679.661291,-459.657299,814.226536,10140.821405
679.661607,-1685.410096,962.267725,10066.800811
679.661922,-1149.143247,-1184.329507,9918.759623
679.662238,-306.438199,-1036.288319,9770.718434
679.662554,-306.438199,-1036.288319,10066.800811
679.662870,-995.924147,-1332.370696,9918.759623
679.663185,-842.705048,-1628.453072,10362.883188
679.663501,0.000000,-1850.514855,10362.883188
679.663817,229.828649,-666.185348,10214.842000
679.664133,0.000000,962.267725,9474.636058
679.664448,0.000000,1184.329507,8882.471304
679.664764,1072.533697,370.102971,8660.409521
679.665080,1915.238745,-74.020594,8586.388927
679.665396,2451.505594,-148.041188,8734.430116
679.665711,2145.067394,-148.041188,8586.388927
679.666027,1532.190996,-1036.288319,8882.471304
679.666343,1378.971896,-1036.288319,9252.574275
679.666659,1532.190996,-592.164754,9400.615463
679.666974,536.266849,370.102971,9770.718434
679.667290,-612.876398,814.226536,9992.780217
679.667606,-383.047749,296.082377,9400.615463
679.667922,229.828649,-962.267725,9326.594869
679.668237,153.219100,-1406.391290,9992.780217
679.668553,76.609550,-1184.329507,9622.677246
679.668869,-306.438199,-1110.308913,9622.677246
679.669185,-153.219100,-1480.411884,10436.903782
679.669501,612.876398,-888.247130,10510.924376
679.669816,766.095498,814.226536,9622.677246
679.670132,383.047749,1628.453072,9252.574275
679.670448,459.657299,1258.350101,8808.450710
679.670764,1991.848295,370.102971,8438.347739
679.671079,2834.553343,1184.329507,7772.162391
679.671395,2528.115143,518.144159,8660.409521
679.671711,1838.629195,444.123565,8660.409521
679.672027,1532.190996,-666.185348,8956.491898
679.672342,1225.752797,-666.185348,9770.718434
679.672658,459.657299,222.061783,10362.883188
679.672974,-229.828649,740.205942,9770.718434
679.673290,-1072.533697,888.247130,9844.739029
679.673605,-459.657299,-518.144159,9696.697840
679.673921,0.000000,-740.205942,9622.677246
679.674237,-306.438199,-740.205942,9548.656652
679.674553,-1225.752797,-740.205942,10066.800811
679.674868,-612.876398,-1628.453072,9992.780217
679.675184,-153.219100,-1554.432478,10584.944971
679.675500,0.000000,-0.000000,10140.821405
679.675816,-229.828649,1258.350101,9844.739029
679.676131,0.000000,1184.329507,9030.512492
679.676447,842.705048,666.185348,8512.368333
679.676763,1915.238745,444.123565,8216.285956
679.677079,2145.067394,740.205942,8512.368333
679.677394,1302.362347,666.185348,9474.636058
679.677710,1225.752797,-370.102971,9400.615463
679.678026,1302.362347,-592.164754,9030.512492
679.678342,919.314598,-0.000000,9770.718434
679.678657,-459.657299,814.226536,10362.883188
679.678973,-1072.533697,740.205942,10140.821405
679.679289,-919.314598,-518.144159,9474.636058
679.679605,-306.438199,-666.185348,9844.739029
679.679921,-306.438199,-740.205942,10140.821405
679.680236,-919.314598,-888.247130,10214.842000
679.680552,-919.314598,-1332.370696,10584.944971
679.680868,-689.485948,-1998.556043,11177.109724
679.681184,0.000000,-814.226536,10658.965565
679.681499,-306.438199,1110.308913,9474.636058
679.681815,0.000000,1554.432478,9178.553681
679.682131,1072.533697,518.144159,8882.471304
679.682447,2145.067394,-0.000000,8290.306550
679.682762,2221.676944,814.226536,8364.327145
679.683078,1762.019645,370.102971,8586.388927
679.683394,1762.019645,-592.164754,9030.512492
679.683710,1608.800546,-666.185348,9030.512492
679.684025,1378.971896,-296.082377,9696.697840
679.684341,229.828649,592.164754,10066.800811
679.684657,-536.266849,1258.350101,9474.636058
679.684973,-536.266849,222.061783,9474.636058
679.685288,0.000000,-888.247130,9696.697840
679.685604,229.828649,-1258.350101,9992.780217
679.685920,-229.828649,-1110.308913,9696.697840
679.686236,-536.266849,-1850.514855,10140.821405
679.686551,-153.219100,-2294.638420,10658.965565
679.686867,229.828649,-1036.288319,9696.697840
679.687183,383.047749,1036.288319,9474.636058
679.687499,306.438199,1554.432478,9104.533087
679.687814,1072.533697,1258.350101,8438.347739
679.688130,2068.457845,222.061783,7920.203579
679.688446,2528.115143,-0.000000,8586.388927
679.688762,2068.457845,-0.000000,8586.388927
679.689078,1762.019645,-740.205942,8734.430116
679.689393,1378.971896,-1110.308913,9326.594869
679.689709,1225.752797,-1184.329507,9622.677246
679.690025,1302.362347,148.041188,9548.656652
679.690341,-76.609550,1332.370696,9252.574275
679.690656,-383.047749,-0.000000,9474.636058
679.690972,536.266849,-592.164754,9400.615463
679.691288,306.438199,-888.247130,9252.574275
679.691604,-153.219100,-1036.288319,9770.718434
679.691919,-612.876398,-1850.514855,10066.800811
679.692235,-536.266849,-2590.720797,10436.903782
679.692551,-153.219100,-2072.576638,10362.883188
679.692867,-536.266849,-74.020594,10955.047942
679.693182,0.000000,666.185348,10066.800811
679.693498,0.000000,1036.288319,9400.615463
679.693814,995.924147,296.082377,8512.368333
679.694130,1762.019645,518.144159,8438.347739
679.694445,2298.286494,666.185348,8882.471304
679.694761,1149.143247,-296.082377,8660.409521
679.695077,1149.143247,-814.226536,9474.636058
679.695393,995.924147,-666.185348,9474.636058
679.695708,459.657299,-0.000000,9770.718434
679.696024,-689.485948,888.247130,9992.780217
679.696340,-1378.971896,592.164754,10066.800811
679.696656,-919.314598,-518.144159,9622.677246
679.696971,-229.828649,-888.247130,10140.821405
679.697287,-689.485948,-296.082377,10214.842000
679.697603,-1455.581446,-888.247130,10362.883188
679.697919,-1072.533697,-1332.370696,10510.924376
679.698234,-459.657299,-1110.308913,10510.924376
679.698550,-153.219100,-0.000000,10214.842000
679.698866,-459.657299,1110.308913,9844.739029
679.699182,-383.047749,1110.308913,9326.594869
679.699498,536.266849,962.267725,8660.409521
679.699813,1991.848295,518.144159,7772.162391
679.700129,1838.629195,444.123565,8586.388927
679.700445,1608.800546,-148.041188,9104.533087
679.700761,1608.800546,-592.164754,9252.574275
679.701076,1225.752797,-814.226536,9474.636058
679.701392,995.924147,-296.082377,9844.739029
679.701708,229.828649,888.247130,9770.718434
679.702024,0.000000,814.226536,9400.615463
679.702339,-612.876398,-74.020594,9474.636058
679.702655,536.266849,-666.185348,9178.553681
679.702971,229.828649,-962.267725,9548.656652
679.703287,-306.438199,-1332.370696,9918.759623
679.703602,-842.705048,-2368.659014,9992.780217
679.703918,0.000000,-2072.576638,10584.944971
679.704234,612.876398,-1036.288319,10288.862594
679.704550,306.438199,740.205942,9770.718434
679.704865,153.219100,1776.494261,8660.409521
679.705181,1149.143247,740.205942,8438.347739
679.705497,2221.676944,148.041188,8142.265362
679.705813,2451.505594,148.041188,8808.450710
679.706128,1838.629195,-0.000000,8364.327145
679.706444,1225.752797,-740.205942,9030.512492
679.706760,1149.143247,-1776.494261,9474.636058
679.707076,919.314598,-592.164754,9918.759623
679.707391,229.828649,296.082377,9696.697840
679.707707,-842.705048,740.205942,9696.697840
679.708023,-919.314598,-74.020594,9696.697840
679.708339,-153.219100,-1110.308913,9696.697840
679.708654,383.047749,-740.205942,9844.739029
679.708970,-383.047749,-666.185348,9992.780217
679.709286,-536.266849,-1184.329507,9918.759623
679.709602,153.219100,-1480.411884,10510.924376
679.709918,536.266849,-666.185348,9992.780217
679.710233,612.876398,1110.308913,9548.656652
679.710549,229.828649,1850.514855,8956.491898
679.710865,919.314598,1258.350101,8882.471304
679.711181,1838.629195,444.123565,8512.368333
679.711496,2604.724693,222.061783,8438.347739
679.711812,2221.676944,148.041188,8808.450710
679.712128,1455.581446,-74.020594,9104.533087
679.712444,1378.971896,-1036.288319,9918.759623
679.712759,1455.581446,-592.164754,9992.780217
679.713075,536.266849,592.164754,10288.862594
679.713391,-612.876398,1110.308913,9696.697840
679.713707,-842.705048,740.205942,9400.615463
679.714022,-383.047749,-666.185348,9844.739029
679.714338,0.000000,-444.123565,9548.656652
679.714654,0.000000,-444.123565,9844.739029
679.714970,-919.314598,-1258.350101,10066.800811
679.715285,-536.266849,-1924.535449,10214.842000
679.715601,0.000000,-1406.391290,10881.027347
679.715917,153.219100,-0.000000,9770.718434
679.716233,-306.438199,1406.391290,9844.739029
679.716548,0.000000,1258.350101,9178.553681
679.716864,919.314598,592.164754,8734.430116
679.717180,2068.457845,444.123565,8364.327145
679.717496,1838.629195,444.123565,8808.450710
679.717811,919.314598,-148.041188,9252.574275
679.718127,919.314598,-1184.329507,9474.636058
679.718443,1072.533697,-1406.391290,9992.780217
679.718759,842.705048,74.020594,10510.924376
679.719074,0.000000,962.267725,9770.718434
679.719390,-919.314598,962.267725,9548.656652
679.719706,-689.485948,-0.000000,9474.636058
679.720022,0.000000,-444.123565,9474.636058
679.720338,0.000000,-518.144159,9770.718434
679.720653,-995.924147,-814.226536,9696.697840
679.720969,-689.485948,-1406.391290,10140.821405
679.721285,-306.438199,-1924.535449,10807.006753
679.721601,0.000000,-888.247130,10510.924376
679.721916,0.000000,962.267725,10066.800811
679.722232,0.000000,1258.350101,9104.533087
679.722548,919.314598,444.123565,8364.327145
679.722864,1915.238745,370.102971,8216.285956
679.723179,2374.896044,-0.000000,8512.368333
679.723495,2298.286494,-518.144159,8438.347739
679.723811,1455.581446,-1036.288319,8808.450710
679.724127,1378.971896,-1332.370696,9252.574275
679.724442,1225.752797,-962.267725,9548.656652
679.724758,383.047749,370.102971,9622.677246
679.725074,-766.095498,444.123565,9178.553681
679.725390,-612.876398,-222.061783,9104.533087
679.725705,153.219100,-1702.473667,9400.615463
679.726021,-153.219100,-1702.473667,9770.718434
679.726337,-383.047749,-1850.514855,9992.780217
679.726653,-612.876398,-2072.576638,9992.780217
679.726968,0.000000,-2072.576638,10510.924376
679.727284,536.266849,-1184.329507,10214.842000
679.727600,612.876398,888.247130,9622.677246
679.727916,536.266849,1628.453072,8364.327145
679.728231,1608.800546,1332.370696,8068.244768
679.728547,2604.724693,592.164754,7624.121203
679.728863,2604.724693,222.061783,8216.285956
679.729179,1762.019645,-0.000000,8142.265362
679.729495,1072.533697,-814.226536,9252.574275
679.729810,1225.752797,-1628.453072,9918.759623
679.730126,842.705048,-666.185348,9918.759623
679.730442,0.000000,888.247130,9770.718434
679.730758,-995.924147,1332.370696,9844.739029
679.731073,-1455.581446,148.041188,10066.800811
679.731389,-842.705048,-666.185348,9548.656652
679.731705,0.000000,-740.205942,10140.821405
679.732021,-919.314598,-1332.370696,9696.697840
679.732336,-995.924147,-1850.514855,10066.800811
679.732652,-383.047749,-2368.659014,10362.883188
679.732968,153.219100,-1258.350101,10436.903782
679.733284,0.000000,592.164754,10140.821405
679.733599,0.000000,2146.597232,9104.533087
679.733915,459.657299,1480.411884,8734.430116
679.734231,1455.581446,814.226536,8734.430116
679.734547,2145.067394,444.123565,8438.347739
679.734862,2068.457845,296.082377,8882.471304
679.735178,1378.971896,-222.061783,9030.512492
679.735494,919.314598,-740.205942,9548.656652
679.735810,689.485948,-592.164754,10510.924376
679.736125,306.438199,518.144159,10140.821405
679.736441,-919.314598,1480.411884,9770.718434
679.736757,-1532.190996,962.267725,9992.780217
679.737073,-1072.533697,-444.123565,9992.780217
679.737388,-459.657299,-518.144159,10362.883188
679.737704,-153.219100,-962.267725,10140.821405
679.738020,-1149.143247,-1480.411884,10658.965565
679.738336,-536.266849,-1702.473667,10658.965565
