#time,accel_x,accel_y,accel_z
613.123728,3217.601092,962.267725,9104.533087
613.124044,3140.991542,1036.288319,9326.594869
613.124360,2757.943793,962.267725,9326.594869
613.124676,2451.505594,1036.288319,9400.615463
613.124992,2298.286494,1110.308913,9622.677246
613.125308,2221.676944,1406.391290,9548.656652
613.125624,1455.581446,1184.329507,9548.656652
613.125940,1378.971896,1258.350101,9474.636058
613.126256,995.924147,962.267725,9326.594869
613.126572,842.705048,666.185348,9474.636058
613.126888,689.485948,222.061783,9696.697840
613.127204,306.438199,-74.020594,9918.759623
613.127520,383.047749,-148.041188,10140.821405
613.127836,919.314598,-296.082377,10584.944971
613.128152,612.876398,-74.020594,10807.006753
613.128468,919.314598,148.041188,10288.862594
613.128784,1608.800546,888.247130,10584.944971
613.129100,2221.676944,1406.391290,9992.780217
613.129416,3140.991542,1998.556043,9474.636058
613.129732,3447.429741,2368.659014,8660.409521
613.130049,4060.306139,2516.700203,8956.491898
613.130365,4213.525239,2516.700203,8660.409521
613.130681,4136.915689,2442.679609,8660.409521
613.130997,4443.353888,2368.659014,8660.409521
613.131313,4136.915689,2368.659014,8808.450710
613.131629,3753.867940,2664.741391,9326.594869
613.131945,3753.867940,2442.679609,9178.553681
613.132261,2911.162892,2146.597232,9400.615463
613.132577,2681.334243,2664.741391,9622.677246
613.132893,2221.676944,2368.659014,9622.677246
613.133209,2221.676944,2294.638420,9992.780217
613.133525,1838.629195,2146.597232,9992.780217
613.133841,1762.019645,2368.659014,10140.821405
613.134157,1685.410096,2368.659014,9918.759623
613.134473,1991.848295,2516.700203,9548.656652
613.134789,1991.848295,2516.700203,9474.636058
613.135105,2374.896044,2738.761985,9104.533087
613.135421,2604.724693,2590.720797,9326.594869
613.135737,2374.896044,2664.741391,9252.574275
613.136053,2987.772442,2590.720797,9178.553681
613.136369,2757.943793,2442.679609,9178.553681
613.136685,2451.505594,2516.700203,9622.677246
613.137001,2681.334243,2368.659014,9844.739029
613.137317,2528.115143,2442.679609,9992.780217
613.137633,3064.381992,2738.761985,10584.944971
613.137949,3294.210641,2738.761985,10066.800811
613.138265,3983.696590,3034.844362,10066.800811
613.138581,3370.820191,3478.967927,9548.656652
613.138897,3907.087040,3627.009116,9622.677246
613.139213,4596.572988,4293.194464,9104.533087
613.139529,4826.401637,4515.256246,8734.430116
613.139845,5056.230287,4293.194464,8586.388927
613.140161,4826.401637,3701.029710,8956.491898
613.140477,4596.572988,2960.823768,8956.491898
613.140793,3907.087040,2442.679609,9400.615463
613.141109,3064.381992,1628.453072,9992.780217
613.141425,2987.772442,1184.329507,10436.903782
613.141741,1685.410096,1036.288319,10658.965565
613.142057,1378.971896,814.226536,10807.006753
613.142373,459.657299,1184.329507,10584.944971
613.142689,306.438199,1184.329507,10288.862594
613.143005,153.219100,814.226536,10436.903782
613.143321,-306.438199,814.226536,9844.739029
613.143637,-306.438199,222.061783,9770.718434
613.143954,0.000000,-370.102971,9474.636058
613.144270,-153.219100,-1036.288319,9696.697840
613.144586,766.095498,-1480.411884,10362.883188
613.144902,306.438199,-1776.494261,10140.821405
613.145218,306.438199,-1258.350101,10436.903782
613.145534,689.485948,-888.247130,10066.800811
613.145850,919.314598,-444.123565,9622.677246
613.146166,1685.410096,-0.000000,9326.594869
613.146482,1532.190996,370.102971,8882.471304
613.146798,1455.581446,370.102971,8660.409521
613.147114,1838.629195,148.041188,8512.368333
613.147430,1532.190996,-74.020594,8438.347739
613.147746,1302.362347,-370.102971,8142.265362
613.148062,612.876398,-592.164754,8290.306550
613.148378,-229.828649,-1406.391290,8808.450710
613.148694,-919.314598,-1998.556043,9252.574275
613.149010,-1762.019645,-2664.741391,9622.677246
613.149326,-2145.067394,-3182.885551,10066.800811
613.149642,-2681.334243,-3552.988522,10362.883188
613.149958,-2681.334243,-4441.235652,11103.089130
613.150274,-2528.115143,-4441.235652,11621.233289
613.150590,-2451.505594,-4071.132681,11473.192101
613.150906,-1302.362347,-2960.823768,10955.047942
613.151222,-536.266849,-1924.535449,9696.697840
613.151538,995.924147,-370.102971,8660.409521
613.151854,2374.896044,1036.288319,7254.018232
613.152170,3753.867940,1850.514855,6217.729913
613.152486,4673.182538,1776.494261,5255.462188
613.152802,4979.620737,1776.494261,4959.379811
613.153117,4443.353888,1258.350101,5255.462188
613.153433,3217.601092,814.226536,6291.750507
613.153749,1915.238745,-518.144159,7328.038826
613.154065,383.047749,-1554.432478,9104.533087
613.154381,-1302.362347,-2368.659014,10510.924376
613.154696,-2987.772442,-3330.926739,11695.253884
613.155012,-4443.353888,-3923.091493,12583.501014
613.155328,-4903.011187,-3849.070898,13175.665768
613.155644,-4673.182538,-3330.926739,13175.665768
613.155960,-4290.134789,-2146.597232,13027.624579
613.156275,-2834.553343,-962.267725,11695.253884
613.156591,-1302.362347,370.102971,10436.903782
613.156907,1378.971896,1332.370696,9178.553681
613.157223,3064.381992,2590.720797,7476.080014
613.157539,4979.620737,3552.988522,5773.606348
613.157854,6665.030833,4367.215058,5255.462188
613.158170,7201.297681,4441.235652,5033.400406
613.158486,7354.516781,4515.256246,4663.297435
613.158802,6358.592633,3923.091493,5847.626942
613.159118,4903.011187,2664.741391,7402.059420
613.159433,2298.286494,1850.514855,8882.471304
613.159749,76.609550,222.061783,10881.027347
613.160065,-2451.505594,-1110.308913,13101.645173
613.160381,-4366.744339,-2294.638420,14582.057057
613.160697,-5132.839837,-2368.659014,14804.118840
613.161012,-5898.935335,-2738.761985,15470.304188
613.161328,-5822.325785,-1776.494261,14804.118840
613.161644,-4366.744339,-518.144159,13545.768739
613.161960,-2298.286494,814.226536,11695.253884
613.162276,0.000000,2368.659014,9992.780217
613.162591,2451.505594,3701.029710,7920.203579
613.162907,4136.915689,4737.318029,6365.771101
613.163223,5898.935335,5329.482782,5033.400406
613.163539,6818.249932,5477.523971,5329.482782
613.163855,7048.078582,4885.359217,5847.626942
613.164170,5592.497135,3701.029710,6513.812290
613.164486,3907.087040,2368.659014,7846.182985
613.164802,1915.238745,1406.391290,9326.594869
613.165118,-306.438199,296.082377,10955.047942
613.165434,-2604.724693,-1036.288319,12879.583391
613.165749,-4136.915689,-1850.514855,14211.954086
613.166065,-5056.230287,-2738.761985,14582.057057
613.166381,-5362.668486,-2590.720797,14730.098246
613.166697,-5132.839837,-2590.720797,13471.748144
613.167013,-4136.915689,-1554.432478,12435.459826
613.167328,-2221.676944,-222.061783,10584.944971
613.167644,0.000000,666.185348,8660.409521
613.167960,1991.848295,1776.494261,6883.915261
613.168276,3677.258390,2516.700203,5403.503377
613.168592,4519.963438,2590.720797,4737.318029
613.168907,4903.011187,2368.659014,4959.379811
613.169223,4596.572988,1406.391290,5477.523971
613.169539,3677.258390,592.164754,6587.832884
613.169855,2145.067394,-296.082377,8142.265362
613.170171,306.438199,-1702.473667,9548.656652
613.170486,-1302.362347,-3034.844362,11473.192101
613.170802,-2911.162892,-4367.215058,12509.480420
613.171118,-3830.477490,-4441.235652,13027.624579
613.171434,-4060.306139,-4367.215058,13101.645173
613.171750,-4060.306139,-3775.050304,12583.501014
613.172065,-3217.601092,-2590.720797,11325.150913
613.172381,-1225.752797,-1850.514855,9918.759623
613.172697,153.219100,-740.205942,8142.265362
613.173013,1455.581446,-0.000000,6291.750507
613.173329,3064.381992,370.102971,5255.462188
613.173644,3830.477490,740.205942,5255.462188
613.173960,4136.915689,962.267725,5107.421000
613.174276,3677.258390,444.123565,6069.688724
613.174592,2911.162892,-1258.350101,6957.935855
613.174908,1685.410096,-1628.453072,8364.327145
613.175223,0.000000,-2368.659014,9622.677246
613.175539,-995.924147,-3404.947333,11621.233289
613.175855,-2068.457845,-4145.153275,12583.501014
613.176171,-2604.724693,-4663.297435,13397.727550
613.176487,-2451.505594,-3923.091493,12953.603985
613.176802,-2221.676944,-3182.885551,12213.398043
613.177118,-612.876398,-1998.556043,11325.150913
613.177434,536.266849,-962.267725,9400.615463
613.177750,1991.848295,666.185348,7994.224174
613.178066,3140.991542,1776.494261,6439.791695
613.178381,4290.134789,1998.556043,5477.523971
613.178697,4519.963438,2294.638420,4885.359217
613.179013,4443.353888,1998.556043,5995.668130
613.179329,4443.353888,592.164754,6883.915261
613.179645,2451.505594,-0.000000,7994.224174
613.179960,536.266849,-1110.308913,9696.697840
613.180276,-995.924147,-1924.535449,11325.150913
613.180592,-2221.676944,-2886.803174,12805.562797
613.180908,-3064.381992,-3256.906145,13767.830521
613.181224,-3217.601092,-3256.906145,14211.954086
613.181539,-3217.601092,-2220.617826,13619.789333
613.181855,-2374.896044,-1258.350101,12435.459826
613.182171,-1302.362347,-222.061783,11399.171507
613.182487,766.095498,888.247130,9474.636058
613.182803,1915.238745,2220.617826,8142.265362
613.183118,3140.991542,3108.864956,5921.647536
613.183434,3907.087040,3849.070898,5403.503377
613.183750,4749.792088,3330.926739,5477.523971
613.184066,3753.867940,2664.741391,6217.729913
613.184382,2834.553343,1998.556043,7254.018232
613.184697,1072.533697,1036.288319,8660.409521
613.185013,-612.876398,-0.000000,10288.862594
613.185329,-2298.286494,-888.247130,11843.295072
613.185645,-3140.991542,-1480.411884,13323.706956
613.185961,-3907.087040,-2368.659014,14137.933492
613.186276,-3907.087040,-1998.556043,14137.933492
613.186592,-3370.820191,-1332.370696,13249.686362
613.186908,-1685.410096,-888.247130,12657.521608
613.187224,-612.876398,222.061783,11399.171507
613.187540,1149.143247,1850.514855,9326.594869
613.187855,2681.334243,2812.782580,7328.038826
613.188171,4290.134789,3775.050304,5995.668130
613.188487,5362.668486,4367.215058,5107.421000
613.188803,5592.497135,4145.153275,4811.338623
613.189119,5286.058936,3627.009116,5921.647536
613.189434,4213.525239,2516.700203,6587.832884
613.189750,2451.505594,1776.494261,7550.100608
613.190066,536.266849,370.102971,9178.553681
613.190382,-1149.143247,-518.144159,10955.047942
613.190698,-2604.724693,-1850.514855,12879.583391
613.191013,-3294.210641,-2590.720797,13545.768739
613.191329,-3753.867940,-3034.844362,13693.809927
613.191645,-3830.477490,-2738.761985,13989.892304
613.191961,-3140.991542,-2294.638420,12879.583391
613.192277,-1608.800546,-1480.411884,11473.192101
613.192592,306.438199,296.082377,9622.677246
613.192908,2068.457845,1628.453072,7402.059420
613.193224,3983.696590,2442.679609,5921.647536
613.193540,4826.401637,3108.864956,4737.318029
613.193856,5209.449386,3404.947333,4737.318029
613.194171,4903.011187,2590.720797,5255.462188
613.194487,4290.134789,1628.453072,6143.709319
613.194803,2451.505594,666.185348,7550.100608
613.195119,842.705048,-592.164754,9252.574275
613.195435,-919.314598,-1776.494261,10807.006753
613.195750,-2451.505594,-3034.844362,12361.439231
613.196066,-3524.039291,-3923.091493,13915.871710
613.196382,-3983.696590,-4293.194464,14063.912898
613.196698,-3753.867940,-3849.070898,13545.768739
613.197014,-3140.991542,-3108.864956,12879.583391
613.197329,-2374.896044,-2738.761985,11695.253884
613.197645,76.609550,-888.247130,9770.718434
613.197961,2145.067394,518.144159,7772.162391
613.198277,3370.820191,814.226536,6069.688724
613.198593,4443.353888,2072.576638,5181.441594
613.198908,4979.620737,2220.617826,4515.256246
613.199224,5286.058936,1554.432478,5551.544565
613.199540,4366.744339,888.247130,6291.750507
613.199856,2911.162892,-0.000000,7402.059420
613.200172,1225.752797,-1036.288319,8882.471304
613.200487,-536.266849,-2738.761985,10510.924376
613.200803,-2221.676944,-3552.988522,12287.418637
613.201119,-2987.772442,-4441.235652,13249.686362
613.201435,-3983.696590,-4589.276840,13767.830521
613.201751,-4213.525239,-4145.153275,13693.809927
613.202066,-3524.039291,-3108.864956,12953.603985
613.202382,-2298.286494,-2294.638420,11399.171507
613.202698,-536.266849,-666.185348,10066.800811
613.203014,1149.143247,148.041188,7994.224174
613.203330,2528.115143,1110.308913,6143.709319
613.203645,3370.820191,1776.494261,5329.482782
613.203961,4060.306139,1850.514855,5255.462188
613.204277,3907.087040,1480.411884,6069.688724
613.204593,3524.039291,962.267725,6587.832884
613.204909,2068.457845,-148.041188,7698.141797
613.205224,612.876398,-814.226536,9178.553681
613.205540,-995.924147,-1776.494261,10881.027347
613.205856,-2451.505594,-2812.782580,12213.398043
613.206172,-3524.039291,-3182.885551,13323.706956
613.206488,-3524.039291,-3330.926739,13249.686362
613.206803,-3600.648841,-2368.659014,12805.562797
613.207119,-2604.724693,-1850.514855,12435.459826
613.207435,-1455.581446,-888.247130,11177.109724
613.207751,459.657299,962.267725,9548.656652
613.208067,1608.800546,1554.432478,7698.141797
613.208382,2987.772442,2442.679609,6365.771101
613.208698,4060.306139,3330.926739,5255.462188
613.209014,4519.963438,3330.926739,4959.379811
613.209330,4596.572988,3034.844362,5921.647536
613.209646,3677.258390,2368.659014,6439.791695
613.209961,2451.505594,1554.432478,7624.121203
613.210277,766.095498,518.144159,9252.574275
613.210593,-766.095498,-814.226536,11103.089130
613.210909,-2681.334243,-2072.576638,12509.480420
613.211225,-2911.162892,-2368.659014,12953.603985
613.211540,-3294.210641,-2368.659014,13471.748144
613.211856,-3140.991542,-1406.391290,13175.665768
613.212172,-2604.724693,-592.164754,12731.542202
613.212488,-1532.190996,814.226536,11547.212695
613.212804,76.609550,1776.494261,9474.636058
613.213119,1762.019645,2516.700203,7846.182985
613.213435,2834.553343,3478.967927,6587.832884
613.213751,4290.134789,3182.885551,5847.626942
613.214067,4366.744339,4071.132681,6069.688724
613.214383,4060.306139,3330.926739,6513.812290
613.214698,3600.648841,2368.659014,7254.018232
613.215014,2221.676944,1258.350101,8290.306550
613.215330,689.485948,518.144159,9696.697840
613.215646,-842.705048,-592.164754,11251.130318
613.215962,-1915.238745,-1554.432478,12435.459826
613.216277,-2681.334243,-2072.576638,13545.768739
613.216593,-2911.162892,-2442.679609,13841.851115
613.216909,-2987.772442,-2220.617826,13175.665768
613.217225,-2604.724693,-1628.453072,12953.603985
613.217541,-1149.143247,-888.247130,11769.274478
613.217856,383.047749,518.144159,9844.739029
613.218172,1762.019645,1480.411884,8364.327145
613.218488,3370.820191,2072.576638,6883.915261
613.218804,4213.525239,2886.803174,5773.606348
613.219120,4596.572988,3034.844362,5625.565159
613.219435,4290.134789,2664.741391,5995.668130
613.219751,3753.867940,1480.411884,6661.853478
613.220067,2451.505594,740.205942,7994.224174
613.220383,459.657299,-74.020594,9104.533087
613.220699,-1149.143247,-1776.494261,10732.986159
613.221014,-2145.067394,-2960.823768,12657.521608
613.221330,-3217.601092,-3775.050304,13545.768739
613.221646,-3677.258390,-4145.153275,13693.809927
613.221962,-3753.867940,-3330.926739,13323.706956
613.222278,-3294.210641,-2516.700203,12805.562797
613.222593,-2145.067394,-1776.494261,11547.212695
613.222909,-306.438199,-740.205942,9474.636058
613.223225,766.095498,444.123565,7698.141797
613.223541,2681.334243,1332.370696,6365.771101
613.223857,3524.039291,1776.494261,5403.503377
613.224172,3983.696590,1702.473667,4959.379811
613.224488,3677.258390,888.247130,5625.565159
613.224804,2987.772442,-0.000000,6661.853478
613.225120,1915.238745,-592.164754,7402.059420
613.225436,306.438199,-1554.432478,9104.533087
613.225751,-1225.752797,-2590.720797,10510.924376
613.226067,-2451.505594,-3552.988522,11843.295072
613.226383,-2987.772442,-4219.173869,13249.686362
613.226699,-3447.429741,-4441.235652,13249.686362
613.227015,-3600.648841,-4293.194464,12879.583391
613.227330,-2757.943793,-3552.988522,12213.398043
613.227646,-1762.019645,-2738.761985,11177.109724
613.227962,0.000000,-1036.288319,9696.697840
613.228278,2068.457845,222.061783,7698.141797
613.228594,3294.210641,1184.329507,5551.544565
613.228909,4213.525239,2220.617826,5033.400406
613.229225,5209.449386,1850.514855,4441.235652
613.229541,4826.401637,1554.432478,5107.421000
613.229857,3830.477490,740.205942,5773.606348
613.230173,2528.115143,-444.123565,7105.977043
613.230488,1608.800546,-1184.329507,8882.471304
613.230804,-919.314598,-2368.659014,10362.883188
613.231120,-2298.286494,-2886.803174,12139.377449
613.231436,-3217.601092,-3478.967927,13397.727550
613.231752,-3830.477490,-3330.926739,13471.748144
613.232067,-3907.087040,-2368.659014,13175.665768
613.232383,-2911.162892,-1628.453072,12509.480420
613.232699,-1838.629195,-740.205942,11769.274478
613.233015,229.828649,444.123565,9844.739029
613.233331,1762.019645,1480.411884,7846.182985
613.233646,2987.772442,2738.761985,6661.853478
613.233962,3907.087040,3478.967927,5551.544565
613.234278,4673.182538,3478.967927,5181.441594
613.234594,4366.744339,3108.864956,5995.668130
613.234910,3677.258390,2738.761985,6661.853478
613.235225,2681.334243,1628.453072,7994.224174
613.235541,995.924147,888.247130,9474.636058
613.235857,-536.266849,-74.020594,10955.047942
613.236173,-1608.800546,-1036.288319,12509.480420
613.236489,-2221.676944,-1998.556043,13767.830521
613.236804,-2911.162892,-1776.494261,14211.954086
613.237120,-3294.210641,-1702.473667,13915.871710
613.237436,-2298.286494,-1036.288319,13397.727550
613.237752,-1149.143247,-74.020594,12435.459826
613.238068,536.266849,962.267725,10288.862594
613.238383,2298.286494,2146.597232,8512.368333
613.238699,3447.429741,3330.926739,7105.977043
613.239015,4596.572988,4219.173869,5773.606348
613.239331,5132.839837,3923.091493,5329.482782
613.239647,4979.620737,3627.009116,5847.626942
613.239962,3983.696590,2664.741391,6809.894666
613.240278,3064.381992,1184.329507,7624.121203
613.240594,1455.581446,370.102971,9474.636058
613.240910,-766.095498,-740.205942,10955.047942
613.241226,-1915.238745,-1776.494261,13027.624579
613.241541,-2604.724693,-2664.741391,13397.727550
613.241857,-3370.820191,-2516.700203,13841.851115
613.242173,-3447.429741,-2294.638420,13619.789333
613.242489,-2911.162892,-1702.473667,13027.624579
613.242805,-1915.238745,-814.226536,12213.398043
613.243120,-536.266849,444.123565,9918.759623
613.243436,1149.143247,1480.411884,8068.244768
613.243752,2451.505594,2072.576638,6365.771101
613.244068,3677.258390,2294.638420,5403.503377
613.244384,3907.087040,2738.761985,5033.400406
613.244699,3753.867940,2220.617826,5403.503377
613.245015,3447.429741,1628.453072,6661.853478
613.245331,1762.019645,296.082377,7402.059420
613.245647,689.485948,-518.144159,9104.533087
613.245963,-689.485948,-2072.576638,10436.903782
613.246278,-1838.629195,-2664.741391,12065.356855
613.246594,-2757.943793,-3330.926739,13249.686362
613.246910,-3447.429741,-3404.947333,13397.727550
613.247226,-3524.039291,-3182.885551,12805.562797
613.247542,-2757.943793,-2738.761985,12287.418637
613.247857,-1685.410096,-1998.556043,11177.109724
613.248173,0.000000,-666.185348,9696.697840
613.248489,1302.362347,444.123565,7698.141797
613.248805,2451.505594,1332.370696,6143.709319
613.249121,3677.258390,1702.473667,5403.503377
613.249436,4290.134789,2072.576638,4737.318029
613.249752,4213.525239,1406.391290,5551.544565
613.250068,2987.772442,518.144159,6365.771101
613.250380,2451.505594,-370.102971,7105.977043
613.250696,689.485948,-1480.411884,8808.450710
613.251011,-919.314598,-2664.741391,10288.862594
613.251327,-2145.067394,-3627.009116,12213.398043
613.251642,-2528.115143,-4367.215058,13027.624579
613.251958,-3524.039291,-4219.173869,13101.645173
613.252274,-3600.648841,-3330.926739,13027.624579
613.252589,-3064.381992,-2664.741391,12139.377449
613.252905,-1685.410096,-1850.514855,11251.130318
613.253221,-229.828649,-888.247130,9548.656652
613.253536,1225.752797,370.102971,7772.162391
613.253852,2298.286494,888.247130,6217.729913
613.254168,3677.258390,1480.411884,5329.482782
613.254483,3983.696590,1850.514855,4959.379811
613.254799,3524.039291,1406.391290,6513.812290
613.255115,2834.553343,740.205942,6957.935855
613.255430,1685.410096,-148.041188,7698.141797
613.255746,153.219100,-1036.288319,9326.594869
613.256062,-995.924147,-1998.556043,11103.089130
613.256377,-2298.286494,-2590.720797,12435.459826
613.256693,-2911.162892,-2812.782580,13545.768739
613.257009,-3140.991542,-3034.844362,13619.789333
613.257324,-3064.381992,-2368.659014,13397.727550
613.257640,-2298.286494,-1480.411884,13027.624579
613.257956,-995.924147,-814.226536,11769.274478
613.258271,383.047749,962.267725,9770.718434
613.258587,1915.238745,1850.514855,7920.203579
613.258903,3294.210641,2960.823768,6587.832884
613.259218,4290.134789,3849.070898,5329.482782
613.259534,4903.011187,3627.009116,5033.400406
613.259850,4826.401637,3256.906145,5847.626942
613.260165,3907.087040,2294.638420,6735.874072
613.260481,2528.115143,1110.308913,7846.182985
613.260797,612.876398,592.164754,9696.697840
613.261112,-995.924147,-962.267725,11399.171507
613.261428,-2298.286494,-1924.535449,12879.583391
613.261743,-3294.210641,-2146.597232,13693.809927
613.262059,-3294.210641,-2516.700203,14063.912898
613.262375,-3447.429741,-1628.453072,13323.706956
613.262690,-2528.115143,-962.267725,12731.542202
613.263006,-1455.581446,-296.082377,11621.233289
613.263322,-153.219100,666.185348,9918.759623
613.263637,1532.190996,1850.514855,8142.265362
613.263953,2757.943793,2738.761985,6217.729913
613.264269,3983.696590,3182.885551,5625.565159
613.264584,4213.525239,3330.926739,5181.441594
613.264900,4136.915689,2886.803174,5699.585753
613.265216,3677.258390,2294.638420,6809.894666
613.265531,2145.067394,1406.391290,7402.059420
613.265847,689.485948,-0.000000,8956.491898
613.266163,-536.266849,-962.267725,10732.986159
613.266478,-1991.848295,-1702.473667,12583.501014
613.266794,-2911.162892,-2146.597232,13249.686362
613.267110,-3524.039291,-2590.720797,13693.809927
613.267425,-3524.039291,-2146.597232,13323.706956
613.267741,-2604.724693,-1554.432478,12953.603985
613.268057,-1838.629195,-814.226536,11843.295072
613.268372,-306.438199,296.082377,9992.780217
613.268688,1225.752797,1036.288319,7920.203579
613.269004,2757.943793,2294.638420,7031.956449
613.269319,3830.477490,3034.844362,5773.606348
613.269635,4443.353888,3182.885551,4959.379811
613.269951,4290.134789,2812.782580,5255.462188
613.270266,3753.867940,1924.535449,6291.750507
613.270582,2374.896044,666.185348,7402.059420
613.270898,1149.143247,-444.123565,9104.533087
613.271213,-383.047749,-1850.514855,10807.006753
613.271529,-1378.971896,-3034.844362,11917.315666
613.271844,-2298.286494,-3034.844362,13323.706956
613.272160,-3140.991542,-3108.864956,13471.748144
613.272476,-2911.162892,-2738.761985,13101.645173
613.272791,-2757.943793,-2220.617826,12435.459826
613.273107,-1608.800546,-1332.370696,11399.171507
613.273423,-383.047749,-518.144159,9696.697840
613.273738,842.705048,370.102971,8216.285956
613.274054,2145.067394,518.144159,6809.894666
613.274370,2757.943793,962.267725,5773.606348
613.274685,3524.039291,1480.411884,5847.626942
613.275001,3524.039291,1036.288319,5847.626942
613.275317,2911.162892,518.144159,6661.853478
613.275632,1991.848295,-296.082377,7772.162391
613.275948,306.438199,-1184.329507,9104.533087
613.276264,-612.876398,-2294.638420,10510.924376
613.276579,-1762.019645,-3256.906145,12139.377449
613.276895,-2374.896044,-3923.091493,13027.624579
613.277211,-2834.553343,-4071.132681,13027.624579
613.277526,-3217.601092,-3552.988522,12879.583391
613.277842,-2451.505594,-2738.761985,12139.377449
613.278158,-1072.533697,-1554.432478,11103.089130
613.278473,459.657299,-296.082377,9548.656652
613.278789,1838.629195,814.226536,8142.265362
613.279105,2911.162892,1554.432478,6513.812290
613.279420,4136.915689,1924.535449,5329.482782
613.279736,4136.915689,2072.576638,4959.379811
613.280052,4366.744339,1554.432478,5625.565159
613.280367,3370.820191,888.247130,6291.750507
613.280683,2298.286494,-0.000000,7254.018232
613.280998,612.876398,-1332.370696,9178.553681
613.281314,-995.924147,-2072.576638,11029.068536
613.281630,-1991.848295,-3034.844362,12509.480420
613.281945,-2528.115143,-3478.967927,13471.748144
613.282261,-3140.991542,-3034.844362,13767.830521
613.282577,-3294.210641,-2368.659014,13027.624579
613.282892,-2374.896044,-1258.350101,12361.439231
613.283208,-919.314598,-370.102971,11177.109724
613.283524,536.266849,1110.308913,9252.574275
613.283839,1915.238745,1702.473667,7550.100608
613.284155,3064.381992,2368.659014,6291.750507
613.284471,4213.525239,2368.659014,5403.503377
613.284786,4903.011187,2516.700203,5329.482782
613.285102,4290.134789,2664.741391,5995.668130
613.285418,3294.210641,1850.514855,6735.874072
613.285733,1915.238745,1258.350101,7772.162391
613.286049,306.438199,-74.020594,9474.636058
613.286365,-1225.752797,-1480.411884,11177.109724
613.286680,-2068.457845,-2146.597232,12805.562797
613.286996,-2911.162892,-2590.720797,13767.830521
613.287312,-3447.429741,-2960.823768,13989.892304
613.287627,-3370.820191,-2368.659014,13619.789333
613.287943,-2604.724693,-1184.329507,12361.439231
613.288259,-1149.143247,-0.000000,11547.212695
613.288574,383.047749,1110.308913,9474.636058
613.288890,2221.676944,2294.638420,7994.224174
613.289206,4060.306139,2812.782580,6439.791695
613.289521,4290.134789,3330.926739,5181.441594
613.289837,4826.401637,3775.050304,4737.318029
613.290153,5132.839837,3256.906145,5477.523971
613.290468,3907.087040,2516.700203,6291.750507
613.290784,3217.601092,1332.370696,7402.059420
613.291099,842.705048,-0.000000,9326.594869
613.291415,-612.876398,-962.267725,11251.130318
613.291731,-2068.457845,-2368.659014,12879.583391
613.292046,-3140.991542,-2960.823768,13545.768739
613.292362,-3600.648841,-2886.803174,14211.954086
613.292678,-3677.258390,-2368.659014,13841.851115
613.292993,-3370.820191,-1258.350101,13175.665768
613.293309,-1685.410096,-592.164754,11621.233289
613.293625,-229.828649,592.164754,9770.718434
613.293940,1685.410096,1776.494261,7846.182985
613.294256,2834.553343,2220.617826,6365.771101
613.294572,3983.696590,2590.720797,5625.565159
613.294887,4213.525239,2738.761985,5625.565159
613.295203,4290.134789,2442.679609,5847.626942
613.295519,3907.087040,1702.473667,6143.709319
613.295834,2221.676944,740.205942,7328.038826
613.296150,689.485948,-518.144159,9252.574275
613.296466,-689.485948,-1628.453072,10732.986159
613.296781,-2221.676944,-2368.659014,12731.542202
613.297097,-2604.724693,-3256.906145,13545.768739
613.297413,-3294.210641,-3552.988522,13619.789333
613.297728,-3217.601092,-2738.761985,13249.686362
613.298044,-2528.115143,-2220.617826,12583.501014
613.298360,-1455.581446,-1628.453072,11769.274478
613.298675,229.828649,-74.020594,9622.677246
613.298991,1762.019645,888.247130,8142.265362
613.299307,3217.601092,1776.494261,6365.771101
613.299622,3830.477490,1998.556043,5329.482782
613.299938,4749.792088,1850.514855,5033.400406
613.300254,4596.572988,1554.432478,5477.523971
613.300569,3677.258390,962.267725,5995.668130
613.300885,2451.505594,-0.000000,7179.997637
613.301200,842.705048,-1036.288319,9252.574275
613.301516,-842.705048,-2294.638420,10807.006753
613.301832,-2068.457845,-3108.864956,12139.377449
613.302147,-3217.601092,-4367.215058,13397.727550
613.302463,-3524.039291,-4811.338623,13841.851115
613.302779,-3677.258390,-3404.947333,13175.665768
613.303094,-2911.162892,-2886.803174,12509.480420
613.303410,-1915.238745,-1406.391290,11177.109724
613.303726,-153.219100,-0.000000,9474.636058
613.304041,1762.019645,814.226536,7550.100608
613.304357,2604.724693,1850.514855,6439.791695
613.304673,3370.820191,1850.514855,5181.441594
613.304988,4213.525239,1776.494261,5403.503377
613.305304,3907.087040,1702.473667,5773.606348
613.305620,3064.381992,814.226536,6365.771101
613.305935,1838.629195,148.041188,7254.018232
613.306251,306.438199,-518.144159,8882.471304
613.306567,-1225.752797,-2220.617826,11177.109724
613.306882,-2451.505594,-2590.720797,12361.439231
613.307198,-3447.429741,-3552.988522,13397.727550
613.307514,-3447.429741,-3404.947333,13989.892304
613.307829,-3370.820191,-2738.761985,13397.727550
613.308145,-2528.115143,-1924.535449,12139.377449
613.308461,-1149.143247,-518.144159,11325.150913
613.308776,229.828649,666.185348,9400.615463
613.309092,2221.676944,2072.576638,7476.080014
613.309408,3447.429741,2738.761985,5847.626942
613.309723,4366.744339,2960.823768,5329.482782
613.310039,4673.182538,3034.844362,5329.482782
613.310355,4903.011187,2442.679609,5847.626942
613.310670,3830.477490,1924.535449,6069.688724
613.310986,2451.505594,1110.308913,7550.100608
613.311301,766.095498,-0.000000,8956.491898
613.311617,-995.924147,-962.267725,10955.047942
613.311933,-2911.162892,-2294.638420,12805.562797
613.312248,-3217.601092,-3256.906145,13693.809927
613.312564,-3753.867940,-2960.823768,14211.954086
613.312880,-3524.039291,-1850.514855,13619.789333
613.313195,-2528.115143,-1406.391290,12879.583391
613.313511,-1838.629195,-74.020594,11547.212695
613.313827,153.219100,1480.411884,9622.677246
613.314142,1762.019645,2146.597232,8068.244768
613.314458,2757.943793,3256.906145,6365.771101
613.314774,3447.429741,3256.906145,5773.606348
613.315089,4596.572988,3182.885551,5847.626942
613.315405,4290.134789,2812.782580,6291.750507
613.315721,3140.991542,2368.659014,6735.874072
613.316036,2221.676944,1332.370696,7846.182985
613.316352,229.828649,-74.020594,9400.615463
613.316668,-1302.362347,-814.226536,11177.109724
613.316983,-2451.505594,-1702.473667,12953.603985
613.317299,-3217.601092,-2664.741391,13693.809927
613.317615,-3600.648841,-2886.803174,14211.954086
613.317930,-3600.648841,-2590.720797,13545.768739
613.318246,-2451.505594,-1628.453072,12731.542202
613.318562,-1225.752797,-592.164754,11547.212695
613.318877,383.047749,1036.288319,9770.718434
613.319193,1991.848295,1924.535449,7772.162391
613.319509,3677.258390,3108.864956,6439.791695
613.319824,4366.744339,3404.947333,5329.482782
613.320140,4903.011187,3108.864956,5033.400406
613.320456,5209.449386,2664.741391,5625.565159
613.320771,4060.306139,2146.597232,5921.647536
613.321087,2604.724693,888.247130,7105.977043
613.321402,995.924147,-222.061783,9030.512492
613.321718,-995.924147,-1702.473667,10510.924376
613.322034,-2298.286494,-2886.803174,12805.562797
613.322349,-2987.772442,-3404.947333,13767.830521
613.322665,-3983.696590,-3775.050304,13915.871710
613.322981,-3907.087040,-2886.803174,13471.748144
613.323296,-3217.601092,-2146.597232,12657.521608
613.323612,-1915.238745,-1332.370696,11399.171507
613.323928,-383.047749,-0.000000,9770.718434
613.324243,1149.143247,666.185348,7846.182985
613.324559,2681.334243,1480.411884,6365.771101
613.324875,3983.696590,2072.576638,5181.441594
613.325190,4443.353888,1998.556043,5033.400406
613.325506,3907.087040,1036.288319,5921.647536
613.325822,3677.258390,1184.329507,6217.729913
613.326137,2374.896044,296.082377,7031.956449
613.326453,536.266849,-814.226536,8734.430116
613.326769,-1302.362347,-2146.597232,10510.924376
613.327084,-2451.505594,-2960.823768,12139.377449
613.327400,-3064.381992,-3627.009116,13175.665768
613.327716,-3294.210641,-4219.173869,13619.789333
613.328031,-3753.867940,-3923.091493,13027.624579
613.328347,-2604.724693,-3182.885551,12657.521608
613.328663,-2068.457845,-2072.576638,11621.233289
613.328978,-153.219100,-518.144159,9844.739029
613.329294,1532.190996,740.205942,7920.203579
613.329610,2681.334243,2072.576638,6291.750507
613.329925,3830.477490,2220.617826,5551.544565
613.330241,4519.963438,1776.494261,5255.462188
613.330556,4290.134789,1776.494261,5847.626942
613.330872,3677.258390,1184.329507,6217.729913
613.331188,2451.505594,296.082377,7254.018232
613.331503,842.705048,-888.247130,8882.471304
613.331819,-612.876398,-2442.679609,10807.006753
613.332135,-2221.676944,-3330.926739,12509.480420
613.332450,-2911.162892,-3997.112087,13471.748144
613.332766,-3294.210641,-4219.173869,13619.789333
613.333082,-2911.162892,-2886.803174,13249.686362
613.333397,-2528.115143,-1850.514855,12435.459826
613.333713,-1225.752797,-518.144159,11177.109724
613.334029,0.000000,814.226536,9326.594869
613.334344,1915.238745,1554.432478,7550.100608
613.334660,3524.039291,2072.576638,6365.771101
613.334976,3677.258390,2886.803174,5403.503377
613.335291,4366.744339,2368.659014,5329.482782
613.335607,4366.744339,2072.576638,6291.750507
613.335923,2911.162892,1776.494261,6735.874072
613.336238,1991.848295,1184.329507,7772.162391
613.336554,766.095498,296.082377,9252.574275
613.336870,-1072.533697,-1036.288319,10732.986159
613.337185,-2145.067394,-1998.556043,12879.583391
613.337501,-2451.505594,-2442.679609,13693.809927
613.337817,-3370.820191,-2886.803174,13619.789333
613.338132,-2911.162892,-1998.556043,13323.706956
613.338448,-2528.115143,-1258.350101,12583.501014
613.338764,-995.924147,-370.102971,11769.274478
613.339079,306.438199,1628.453072,9770.718434
613.339395,1991.848295,2368.659014,7846.182985
613.339711,3524.039291,2886.803174,6513.812290
613.340026,4213.525239,3775.050304,5477.523971
613.340342,4443.353888,3404.947333,5477.523971
613.340657,4826.401637,2664.741391,6439.791695
613.340973,3907.087040,2220.617826,6069.688724
613.341289,2145.067394,1406.391290,7402.059420
613.341604,689.485948,296.082377,9326.594869
613.341920,-842.705048,-1332.370696,10881.027347
613.342236,-2298.286494,-2146.597232,12879.583391
613.342551,-3140.991542,-3108.864956,13619.789333
613.342867,-3677.258390,-3182.885551,13915.871710
613.343183,-3753.867940,-2368.659014,13915.871710
613.343498,-2911.162892,-1702.473667,12879.583391
613.343814,-1532.190996,-666.185348,11547.212695
613.344130,153.219100,814.226536,9992.780217
613.344445,1455.581446,2146.597232,7920.203579
613.344761,2987.772442,2516.700203,6587.832884
613.345077,3524.039291,2442.679609,5995.668130
613.345392,4290.134789,2738.761985,5477.523971
613.345708,4366.744339,2442.679609,5773.606348
613.346024,3600.648841,1924.535449,6735.874072
613.346339,2528.115143,1036.288319,7254.018232
613.346655,1149.143247,-296.082377,9178.553681
613.346971,-383.047749,-1184.329507,10658.965565
613.347286,-2145.067394,-2368.659014,12805.562797
613.347602,-2911.162892,-3108.864956,13471.748144
613.347918,-3140.991542,-3701.029710,13693.809927
613.348233,-3217.601092,-3404.947333,13175.665768
613.348549,-2757.943793,-2220.617826,12879.583391
613.348865,-1991.848295,-1406.391290,11177.109724
613.349180,0.000000,-296.082377,9918.759623
613.349496,1302.362347,740.205942,8290.306550
613.349812,2757.943793,1258.350101,6291.750507
613.350127,3677.258390,1924.535449,5403.503377
613.350443,4213.525239,2220.617826,5181.441594
613.350758,4596.572988,1480.411884,5625.565159
613.351074,3907.087040,1110.308913,6439.791695
613.351390,2757.943793,370.102971,6809.894666
613.351706,1072.533697,-740.205942,8364.327145
613.352021,-229.828649,-1924.535449,10658.965565
613.352337,-2145.067394,-3330.926739,11917.315666
613.352653,-2528.115143,-3849.070898,13249.686362
613.352969,-3140.991542,-4145.153275,13915.871710
613.353285,-3447.429741,-3256.906145,13323.706956
613.353600,-3140.991542,-2368.659014,12583.501014
613.353916,-1532.190996,-1480.411884,11621.233289
613.354232,0.000000,-222.061783,9918.759623
613.354548,1072.533697,518.144159,7772.162391
613.354864,2221.676944,1554.432478,6291.750507
613.355179,3370.820191,1850.514855,5551.544565
613.355495,3983.696590,1776.494261,5181.441594
613.355811,4290.134789,1702.473667,5921.647536
613.356127,3294.210641,1184.329507,6143.709319
613.356442,2145.067394,370.102971,7105.977043
613.356758,919.314598,-740.205942,8734.430116
613.357074,-459.657299,-1480.411884,10584.944971
613.357390,-1685.410096,-2590.720797,11917.315666
613.357706,-2681.334243,-2960.823768,12953.603985
613.358021,-2987.772442,-3330.926739,13545.768739
613.358337,-3140.991542,-2664.741391,13175.665768
613.358653,-2528.115143,-1628.453072,12731.542202
613.358969,-1608.800546,-1036.288319,11621.233289
613.359285,0.000000,296.082377,9770.718434
613.359600,995.924147,1332.370696,8290.306550
613.359916,2374.896044,2146.597232,6365.771101
613.360232,4213.525239,2664.741391,5699.585753
613.360548,4060.306139,2664.741391,5403.503377
613.360863,4213.525239,2442.679609,5847.626942
613.361179,3830.477490,2072.576638,6143.709319
613.361495,2451.505594,1184.329507,7254.018232
613.361811,1302.362347,-0.000000,8808.450710
613.362127,-383.047749,-814.226536,10658.965565
613.362442,-1532.190996,-1702.473667,12065.356855
613.362758,-2221.676944,-2368.659014,13323.706956
613.363074,-2145.067394,-2516.700203,13767.830521
613.363390,-2987.772442,-1850.514855,13619.789333
613.363706,-2451.505594,-962.267725,13175.665768
613.364021,-1608.800546,-222.061783,11547.212695
613.364337,-153.219100,962.267725,10140.821405
613.364653,842.705048,2146.597232,8512.368333
613.364969,2374.896044,2886.803174,6883.915261
613.365284,3370.820191,2886.803174,6069.688724
613.365600,3524.039291,2960.823768,5847.626942
613.365916,3600.648841,2664.741391,6365.771101
613.366232,3140.991542,1628.453072,6957.935855
613.366548,2298.286494,1184.329507,7772.162391
613.366863,766.095498,370.102971,9178.553681
613.367179,-306.438199,-740.205942,10732.986159
613.367495,-1302.362347,-1776.494261,12583.501014
613.367811,-2451.505594,-2294.638420,13175.665768
613.368127,-2604.724693,-2664.741391,13693.809927
613.368442,-2757.943793,-2220.617826,13397.727550
613.368758,-2068.457845,-1332.370696,12657.521608
613.369074,-919.314598,-296.082377,11843.295072
613.369390,76.609550,888.247130,9918.759623
613.369705,1915.238745,1998.556043,8364.327145
613.370021,2604.724693,2368.659014,6587.832884
613.370337,3753.867940,2886.803174,5773.606348
613.370653,4136.915689,2738.761985,5551.544565
613.370969,4213.525239,2442.679609,5847.626942
613.371284,3677.258390,1332.370696,6513.812290
613.371600,2451.505594,370.102971,7328.038826
613.371916,612.876398,-814.226536,9104.533087
613.372232,-153.219100,-1850.514855,10807.006753
613.372548,-1685.410096,-2664.741391,12361.439231
613.372863,-2834.553343,-3330.926739,13471.748144
613.373179,-3294.210641,-3701.029710,13693.809927
613.373495,-3217.601092,-3034.844362,13101.645173
613.373811,-2681.334243,-2220.617826,12361.439231
613.374126,-1378.971896,-1184.329507,11399.171507
613.374442,0.000000,-0.000000,9474.636058
613.374758,1762.019645,1036.288319,7550.100608
613.375074,2681.334243,1776.494261,6217.729913
613.375390,3677.258390,1702.473667,5477.523971
613.375705,3983.696590,1332.370696,5477.523971
613.376021,3830.477490,814.226536,6143.709319
613.376337,3140.991542,666.185348,6587.832884
613.376653,1991.848295,-148.041188,7920.203579
613.376969,459.657299,-962.267725,8808.450710
613.377284,-1072.533697,-2072.576638,10584.944971
613.377600,-2221.676944,-2812.782580,11917.315666
613.377916,-2681.334243,-3775.050304,13027.624579
613.378232,-3294.210641,-4219.173869,13693.809927
613.378547,-2987.772442,-3478.967927,12879.583391
613.378863,-2757.943793,-2960.823768,12509.480420
613.379179,-1532.190996,-1850.514855,11399.171507
613.379495,229.828649,-518.144159,9918.759623
613.379811,1378.971896,-0.000000,7846.182985
613.380126,2604.724693,1702.473667,6217.729913
613.380442,3907.087040,2146.597232,5403.503377
613.380758,4366.744339,1998.556043,5107.421000
613.381074,4213.525239,1998.556043,5625.565159
613.381390,3677.258390,814.226536,6365.771101
613.381705,2221.676944,296.082377,7550.100608
613.382021,766.095498,-592.164754,8734.430116
613.382337,-842.705048,-1924.535449,10732.986159
613.382653,-1991.848295,-2812.782580,12361.439231
613.382968,-3064.381992,-3478.967927,13249.686362
613.383284,-3524.039291,-3478.967927,14063.912898
613.383600,-3370.820191,-2960.823768,13767.830521
613.383916,-2681.334243,-1998.556043,12657.521608
613.384232,-842.705048,-1110.308913,11547.212695
613.384547,0.000000,370.102971,9770.718434
613.384863,1608.800546,1628.453072,7994.224174
613.385179,2757.943793,2442.679609,6365.771101
613.385495,3753.867940,2812.782580,5477.523971
613.385811,4826.401637,2738.761985,5477.523971
613.386126,4366.744339,2442.679609,6069.688724
613.386442,3600.648841,1850.514855,6513.812290
613.386758,2451.505594,888.247130,7846.182985
613.387074,995.924147,-148.041188,9030.512492
613.387389,-612.876398,-814.226536,10881.027347
613.387705,-1378.971896,-1628.453072,12583.501014
613.388021,-2604.724693,-2738.761985,13323.706956
613.388337,-3064.381992,-2886.803174,14137.933492
613.388653,-3064.381992,-2368.659014,13397.727550
613.388968,-2681.334243,-1702.473667,12583.501014
613.389284,-1455.581446,-518.144159,11621.233289
613.389600,229.828649,814.226536,10140.821405
613.389916,1455.581446,2146.597232,7920.203579
613.390231,2911.162892,3034.844362,6513.812290
613.390547,4136.915689,3108.864956,5551.544565
613.390863,4519.963438,3478.967927,5329.482782
613.391179,4673.182538,3034.844362,5921.647536
613.391495,3830.477490,2146.597232,6587.832884
613.391810,2451.505594,1110.308913,7550.100608
613.392126,842.705048,-0.000000,9030.512492
613.392442,-306.438199,-888.247130,10881.027347
613.392758,-1838.629195,-1850.514855,12361.439231
613.393074,-2834.553343,-2590.720797,13545.768739
613.393389,-3370.820191,-3404.947333,13989.892304
613.393705,-3524.039291,-2368.659014,13323.706956
613.394021,-2987.772442,-1480.411884,12805.562797
613.394337,-1455.581446,-740.205942,11621.233289
613.394652,0.000000,296.082377,10066.800811
613.394968,1378.971896,1480.411884,7920.203579
613.395284,2451.505594,2368.659014,6513.812290
613.395600,3217.601092,2368.659014,5551.544565
613.395916,3983.696590,2516.700203,5551.544565
613.396231,3677.258390,2220.617826,6069.688724
613.396547,3677.258390,1184.329507,6661.853478
613.396863,1915.238745,222.061783,7698.141797
613.397179,612.876398,-592.164754,9104.533087
613.397495,-459.657299,-1480.411884,10732.986159
613.397810,-1608.800546,-2516.700203,12213.398043
613.398126,-2451.505594,-3034.844362,13101.645173
613.398442,-3064.381992,-3404.947333,13323.706956
613.398758,-3064.381992,-3108.864956,13175.665768
613.399073,-2528.115143,-2146.597232,12435.459826
613.399389,-1378.971896,-1776.494261,11621.233289
613.399705,0.000000,-0.000000,9844.739029
613.400021,1225.752797,1184.329507,7846.182985
613.400337,2604.724693,2072.576638,6365.771101
613.400652,3830.477490,2368.659014,5403.503377
613.400968,3830.477490,2590.720797,5181.441594
613.401284,4060.306139,1776.494261,5625.565159
613.401600,3140.991542,814.226536,6883.915261
613.401916,2068.457845,-0.000000,7476.080014
613.402231,766.095498,-962.267725,9030.512492
613.402547,-919.314598,-1998.556043,10732.986159
613.402863,-2145.067394,-2738.761985,12065.356855
613.403179,-3140.991542,-3627.009116,13323.706956
613.403494,-3524.039291,-4145.153275,13693.809927
613.403810,-3753.867940,-3775.050304,13101.645173
613.404126,-2528.115143,-2368.659014,12287.418637
613.404442,-1378.971896,-1332.370696,11325.150913
613.404758,0.000000,-148.041188,9622.677246
613.405073,1455.581446,1184.329507,7846.182985
613.405389,2298.286494,1998.556043,5921.647536
613.405705,3677.258390,2368.659014,5403.503377
613.406021,4136.915689,2368.659014,5107.421000
613.406337,3524.039291,1998.556043,5625.565159
613.406652,3064.381992,962.267725,6513.812290
613.406968,1991.848295,-0.000000,7846.182985
613.407284,76.609550,-1184.329507,9252.574275
613.407600,-842.705048,-1998.556043,11029.068536
613.407915,-2221.676944,-3034.844362,12435.459826
613.408231,-3064.381992,-3627.009116,13619.789333
613.408547,-3140.991542,-3701.029710,13915.871710
613.408863,-3294.210641,-2886.803174,13397.727550
613.409179,-2451.505594,-1924.535449,12731.542202
613.409494,-1149.143247,-888.247130,11399.171507
613.409810,766.095498,222.061783,9844.739029
613.410126,1762.019645,2072.576638,7920.203579
613.410442,2911.162892,2368.659014,6291.750507
613.410758,4366.744339,2960.823768,5255.462188
613.411073,4979.620737,3182.885551,4959.379811
613.411389,4979.620737,2886.803174,5551.544565
613.411705,3907.087040,1998.556043,6291.750507
613.412021,2757.943793,888.247130,7550.100608
613.412336,919.314598,-148.041188,9252.574275
613.412652,-612.876398,-1110.308913,10881.027347
613.412968,-2068.457845,-2220.617826,12435.459826
613.413284,-3217.601092,-2812.782580,13767.830521
613.413600,-3830.477490,-2812.782580,14137.933492
613.413915,-3524.039291,-2368.659014,13545.768739
613.414231,-2757.943793,-1406.391290,13027.624579
613.414547,-2221.676944,-518.144159,11547.212695
613.414863,-153.219100,888.247130,9770.718434
613.415179,1149.143247,2072.576638,7920.203579
613.415494,2451.505594,2886.803174,6291.750507
613.415810,3753.867940,3256.906145,5477.523971
613.416126,3983.696590,3256.906145,5181.441594
613.416442,3600.648841,2812.782580,5921.647536
613.416757,3140.991542,1924.535449,6809.894666
613.417073,2145.067394,592.164754,8068.244768
613.417389,612.876398,-0.000000,9030.512492
613.417705,-383.047749,-888.247130,11029.068536
613.418021,-1608.800546,-2146.597232,12361.439231
613.418336,-2528.115143,-2442.679609,13249.686362
613.418652,-3217.601092,-2812.782580,13619.789333
613.418968,-3753.867940,-2146.597232,13101.645173
613.419284,-2528.115143,-1998.556043,13249.686362
613.419600,-1991.848295,-962.267725,11843.295072
613.419915,0.000000,-0.000000,10066.800811
613.420231,1685.410096,1480.411884,8290.306550
613.420547,2834.553343,2368.659014,6439.791695
613.420863,3600.648841,2886.803174,5477.523971
613.421178,4443.353888,2812.782580,5403.503377
613.421494,4290.134789,2294.638420,5921.647536
613.421810,3677.258390,1406.391290,6661.853478
613.422126,2681.334243,666.185348,7402.059420
613.422442,1149.143247,-666.185348,8808.450710
613.422757,-153.219100,-1480.411884,10510.924376
613.423073,-1532.190996,-2220.617826,12287.418637
613.423389,-2451.505594,-2812.782580,13249.686362
613.423705,-2451.505594,-3182.885551,13619.789333
613.424021,-3217.601092,-2442.679609,13027.624579
613.424336,-2451.505594,-2368.659014,12657.521608
613.424652,-1378.971896,-1554.432478,11769.274478
613.424968,0.000000,-222.061783,9844.739029
613.425284,1378.971896,518.144159,8142.265362
613.425599,2451.505594,1702.473667,6587.832884
613.425915,3064.381992,1924.535449,5773.606348
613.426231,3524.039291,2442.679609,5255.462188
613.426547,3907.087040,1628.453072,6069.688724
613.426863,2681.334243,814.226536,6957.935855
613.427178,2145.067394,-74.020594,7846.182985
613.427494,459.657299,-1184.329507,8882.471304
613.427810,-995.924147,-2368.659014,10807.006753
613.428126,-1991.848295,-3404.947333,12139.377449
613.428441,-2681.334243,-3627.009116,13323.706956
613.428757,-3294.210641,-3997.112087,13767.830521
613.429073,-3370.820191,-3034.844362,12953.603985
613.429389,-2221.676944,-2146.597232,12583.501014
613.429705,-842.705048,-1110.308913,11399.171507
613.430020,842.705048,-0.000000,9178.553681
613.430336,2221.676944,888.247130,7698.141797
613.430652,3064.381992,2146.597232,6143.709319
613.430968,4136.915689,2590.720797,4959.379811
613.431284,4596.572988,2368.659014,4959.379811
613.431599,4596.572988,1998.556043,6069.688724
613.431915,3294.210641,1036.288319,6439.791695
613.432231,2068.457845,296.082377,7846.182985
613.432547,459.657299,-1332.370696,9474.636058
613.432862,-1225.752797,-2590.720797,10881.027347
613.433178,-1991.848295,-3256.906145,12509.480420
613.433494,-2911.162892,-3552.988522,13619.789333
613.433810,-3370.820191,-3478.967927,13767.830521
613.434126,-3140.991542,-2590.720797,13027.624579
613.434441,-2451.505594,-1924.535449,12805.562797
613.434757,-995.924147,-962.267725,11769.274478
613.435073,995.924147,592.164754,9326.594869
613.435389,1915.238745,1998.556043,7476.080014
613.435705,3294.210641,2664.741391,5847.626942
613.436020,4213.525239,3182.885551,5329.482782
613.436336,4749.792088,3108.864956,4885.359217
613.436652,4213.525239,2516.700203,5847.626942
613.436968,3140.991542,1184.329507,6735.874072
613.437283,1838.629195,-0.000000,8364.327145
613.437599,383.047749,-666.185348,9622.677246
613.437915,-1762.019645,-2220.617826,11547.212695
613.438231,-3217.601092,-2516.700203,13175.665768
613.438547,-3370.820191,-2886.803174,13989.892304
613.438862,-3830.477490,-3256.906145,14285.974681
613.439178,-3447.429741,-2072.576638,13249.686362
613.439494,-2911.162892,-1184.329507,12805.562797
613.439810,-919.314598,-666.185348,11251.130318
613.440126,1149.143247,888.247130,9622.677246
613.440441,2451.505594,2368.659014,7254.018232
613.440757,3983.696590,2886.803174,5995.668130
613.441073,4673.182538,3404.947333,5329.482782
613.441389,5209.449386,3775.050304,5033.400406
613.441704,4749.792088,3034.844362,5699.585753
613.442020,4213.525239,1998.556043,6365.771101
613.442336,2374.896044,1110.308913,7772.162391
613.442652,229.828649,-148.041188,9326.594869
613.442968,-995.924147,-1406.391290,11103.089130
613.443283,-2451.505594,-2442.679609,12583.501014
613.443599,-3600.648841,-2960.823768,13767.830521
613.443915,-3907.087040,-3256.906145,14063.912898
613.444231,-3830.477490,-3034.844362,13767.830521
613.444547,-3370.820191,-1776.494261,13101.645173
613.444862,-1608.800546,-1110.308913,12065.356855
613.445178,153.219100,518.144159,10066.800811
613.445494,1608.800546,1850.514855,7402.059420
613.445810,3064.381992,2664.741391,5847.626942
613.446125,4290.134789,3330.926739,5033.400406
613.446441,4749.792088,3034.844362,4811.338623
613.446757,4443.353888,2664.741391,5551.544565
613.447073,3907.087040,1702.473667,6513.812290
613.447389,2374.896044,222.061783,7624.121203
613.447704,612.876398,-814.226536,9400.615463
613.448020,-1149.143247,-1924.535449,11325.150913
613.448336,-2068.457845,-2886.803174,12657.521608
613.448652,-3600.648841,-3182.885551,13841.851115
613.448968,-3983.696590,-3330.926739,13915.871710
613.449283,-3064.381992,-3108.864956,13397.727550
613.449599,-2987.772442,-2368.659014,12879.583391
613.449915,-1685.410096,-1406.391290,11473.192101
613.450231,0.000000,-296.082377,9918.759623
613.450546,2068.457845,740.205942,7624.121203
613.450862,3294.210641,2368.659014,6439.791695
613.451178,4749.792088,2442.679609,5033.400406
613.451494,4903.011187,2442.679609,4811.338623
613.451810,4366.744339,2442.679609,5477.523971
613.452125,3753.867940,1184.329507,6291.750507
613.452441,2757.943793,148.041188,8068.244768
613.452757,612.876398,-962.267725,8956.491898
613.453073,-995.924147,-2220.617826,10807.006753
613.453388,-1991.848295,-3256.906145,12509.480420
613.453704,-2911.162892,-3997.112087,13545.768739
613.454020,-3370.820191,-4219.173869,13471.748144
613.454335,-3600.648841,-2812.782580,13175.665768
613.454651,-2911.162892,-2590.720797,13027.624579
613.454967,-1762.019645,-1702.473667,11695.253884
613.455283,0.000000,-148.041188,9622.677246
613.455598,1378.971896,1184.329507,7920.203579
613.455914,2834.553343,2220.617826,6291.750507
613.456230,3600.648841,2442.679609,5107.421000
613.456545,4519.963438,2664.741391,5033.400406
613.456861,4213.525239,1850.514855,5625.565159
613.457177,3217.601092,814.226536,6587.832884
613.457493,2145.067394,666.185348,7624.121203
613.457808,459.657299,-962.267725,9030.512492
613.458124,-1149.143247,-1850.514855,11103.089130
613.458440,-2451.505594,-2442.679609,12583.501014
613.458756,-3447.429741,-3108.864956,13545.768739
613.459071,-3677.258390,-3256.906145,13915.871710
613.459387,-3677.258390,-2442.679609,13101.645173
613.459703,-2451.505594,-1924.535449,12657.521608
613.460018,-1608.800546,-1702.473667,11621.233289
613.460334,153.219100,592.164754,9918.759623
613.460650,2145.067394,1554.432478,7846.182985
613.460966,3294.210641,2738.761985,5995.668130
613.461281,4213.525239,3404.947333,5181.441594
613.461597,4443.353888,3108.864956,4589.276840
613.461913,4826.401637,2886.803174,5551.544565
613.462228,4060.306139,2072.576638,6365.771101
613.462544,2451.505594,888.247130,7550.100608
613.462860,842.705048,-666.185348,9400.615463
613.463176,-842.705048,-1554.432478,11251.130318
613.463491,-2068.457845,-2442.679609,12657.521608
613.463807,-2911.162892,-3108.864956,13767.830521
613.464123,-3447.429741,-2664.741391,13841.851115
613.464438,-3830.477490,-2146.597232,13693.809927
613.464754,-2987.772442,-1776.494261,12731.542202
613.465070,-1455.581446,-518.144159,11695.253884
613.465386,0.000000,666.185348,9696.697840
613.465701,1685.410096,1702.473667,8142.265362
613.466017,2834.553343,2664.741391,6513.812290
613.466333,4290.134789,2664.741391,5551.544565
613.466649,4443.353888,3404.947333,5625.565159
613.466964,4443.353888,2812.782580,6069.688724
613.467280,3677.258390,1998.556043,6217.729913
613.467596,2298.286494,1110.308913,7698.141797
613.467911,766.095498,-0.000000,9474.636058
613.468227,-842.705048,-1332.370696,11103.089130
613.468543,-1915.238745,-2072.576638,12287.418637
613.468859,-2987.772442,-2664.741391,13323.706956
613.469174,-3294.210641,-3182.885551,13915.871710
613.469490,-3294.210641,-2368.659014,13175.665768
613.469806,-3140.991542,-1850.514855,13175.665768
613.470121,-1685.410096,-1184.329507,11843.295072
613.470437,0.000000,-0.000000,9992.780217
613.470753,1455.581446,1850.514855,8660.409521
613.471069,2757.943793,2442.679609,6365.771101
613.471384,4290.134789,2886.803174,5477.523971
613.471700,4519.963438,3182.885551,5033.400406
613.472016,4596.572988,2664.741391,5551.544565
613.472331,3907.087040,1702.473667,6661.853478
613.472647,2374.896044,814.226536,7402.059420
613.472963,919.314598,-814.226536,8956.491898
613.473279,-536.266849,-2220.617826,11177.109724
613.473594,-1838.629195,-3108.864956,12361.439231
613.473910,-2681.334243,-3330.926739,13397.727550
613.474226,-3677.258390,-3404.947333,13545.768739
613.474542,-3677.258390,-2738.761985,13545.768739
613.474857,-3217.601092,-1924.535449,12583.501014
613.475173,-1762.019645,-1628.453072,10955.047942
613.475489,-536.266849,-0.000000,9696.697840
613.475804,1149.143247,592.164754,8068.244768
613.476120,2451.505594,1110.308913,6587.832884
613.476436,3524.039291,1554.432478,5551.544565
613.476752,3524.039291,2072.576638,5329.482782
613.477067,4060.306139,1480.411884,5995.668130
613.477383,3217.601092,962.267725,6217.729913
613.477699,1991.848295,740.205942,7550.100608
613.478014,1149.143247,-666.185348,8734.430116
613.478330,-612.876398,-1850.514855,10510.924376
613.478646,-1762.019645,-2516.700203,11843.295072
613.478962,-2681.334243,-3256.906145,12879.583391
613.479277,-2834.553343,-3701.029710,13249.686362
613.479593,-2987.772442,-3108.864956,13027.624579
613.479909,-2374.896044,-2516.700203,12731.542202
613.480225,-1302.362347,-1628.453072,11621.233289
613.480540,0.000000,-0.000000,9918.759623
613.480856,1608.800546,962.267725,7846.182985
613.481172,2757.943793,1776.494261,6439.791695
613.481487,3753.867940,2442.679609,5329.482782
613.481803,4366.744339,2590.720797,5255.462188
613.482119,4213.525239,2146.597232,5403.503377
613.482435,3830.477490,1036.288319,6217.729913
613.482750,2757.943793,222.061783,7550.100608
613.483066,995.924147,-666.185348,9030.512492
613.483382,-383.047749,-2368.659014,10807.006753
613.483697,-1838.629195,-2960.823768,12583.501014
613.484013,-2681.334243,-3330.926739,13545.768739
613.484329,-3140.991542,-3330.926739,13693.809927
613.484645,-3217.601092,-2516.700203,12805.562797
613.484960,-2757.943793,-1480.411884,12657.521608
613.485276,-1302.362347,-666.185348,11473.192101
613.485592,153.219100,370.102971,9696.697840
613.485907,1455.581446,1776.494261,8438.347739
613.486223,2911.162892,2368.659014,6513.812290
613.486539,3907.087040,2294.638420,5625.565159
613.486855,3983.696590,2590.720797,5477.523971
613.487170,3370.820191,2368.659014,6069.688724
613.487486,3064.381992,1406.391290,6661.853478
613.487802,2221.676944,296.082377,7698.141797
613.488118,536.266849,-370.102971,9400.615463
613.488433,-842.705048,-1554.432478,11251.130318
613.488749,-1991.848295,-2368.659014,12509.480420
613.489065,-2604.724693,-2960.823768,13693.809927
613.489380,-2834.553343,-2812.782580,13619.789333
613.489696,-2834.553343,-2442.679609,13027.624579
613.490012,-2374.896044,-1332.370696,12731.542202
613.490328,-689.485948,-592.164754,10881.027347
613.490643,459.657299,740.205942,9770.718434
613.490959,1915.238745,1998.556043,7698.141797
613.491275,3447.429741,2960.823768,6143.709319
613.491590,4519.963438,3404.947333,4959.379811
613.491906,4903.011187,3552.988522,4811.338623
613.492222,4826.401637,2738.761985,5551.544565
613.492538,3753.867940,2072.576638,6365.771101
613.492853,2374.896044,814.226536,7846.182985
613.493169,383.047749,-518.144159,9400.615463
613.493485,-919.314598,-1924.535449,11473.192101
613.493800,-2374.896044,-2590.720797,12731.542202
613.494116,-3447.429741,-2886.803174,13841.851115
613.494432,-3830.477490,-2812.782580,13915.871710
613.494748,-3600.648841,-2220.617826,13471.748144
613.495063,-2757.943793,-1554.432478,12583.501014
613.495379,-1915.238745,-444.123565,11473.192101
613.495695,229.828649,370.102971,9696.697840
613.496011,1685.410096,1776.494261,8068.244768
613.496326,2757.943793,2516.700203,5995.668130
613.496642,3907.087040,2664.741391,5699.585753
613.496958,4290.134789,2738.761985,5255.462188
613.497273,4136.915689,2368.659014,5699.585753
613.497589,3600.648841,1702.473667,6291.750507
613.497905,2068.457845,444.123565,7550.100608
613.498221,612.876398,-222.061783,9326.594869
613.498536,-612.876398,-1628.453072,10807.006753
613.498852,-2221.676944,-2812.782580,12361.439231
613.499168,-3294.210641,-3256.906145,13619.789333
613.499483,-3753.867940,-3627.009116,14211.954086
613.499799,-3600.648841,-3034.844362,13323.706956
613.500115,-2987.772442,-2368.659014,12953.603985
613.500431,-1762.019645,-1406.391290,11621.233289
613.500746,229.828649,-0.000000,9770.718434
613.501062,1685.410096,962.267725,7994.224174
613.501378,3140.991542,1850.514855,6217.729913
613.501693,4136.915689,2664.741391,5255.462188
613.502009,4903.011187,2590.720797,4885.359217
613.502325,4749.792088,1850.514855,5255.462188
613.502641,3447.429741,1406.391290,6143.709319
613.502956,2757.943793,-0.000000,7179.997637
613.503272,842.705048,-888.247130,8956.491898
613.503588,-766.095498,-1702.473667,10510.924376
613.503904,-1838.629195,-2664.741391,12583.501014
613.504219,-2681.334243,-3627.009116,13323.706956
613.504535,-3830.477490,-3775.050304,13841.851115
613.504851,-3907.087040,-3330.926739,13471.748144
613.505166,-3140.991542,-2368.659014,12879.583391
613.505482,-2145.067394,-1110.308913,11621.233289
613.505798,-153.219100,-0.000000,9770.718434
613.506114,1762.019645,1036.288319,7994.224174
613.506429,2451.505594,1850.514855,6143.709319
613.506745,3677.258390,2220.617826,5625.565159
613.507061,4366.744339,2220.617826,4885.359217
613.507376,4136.915689,2146.597232,5847.626942
613.507692,3140.991542,1480.411884,6661.853478
613.508008,2374.896044,296.082377,7476.080014
613.508324,689.485948,-814.226536,8882.471304
613.508639,-766.095498,-1776.494261,10881.027347
613.508955,-1762.019645,-2590.720797,12213.398043
613.509271,-2834.553343,-3108.864956,13471.748144
613.509587,-3217.601092,-3182.885551,13619.789333
613.509902,-2681.334243,-2294.638420,13397.727550
613.510218,-2451.505594,-1776.494261,12953.603985
613.510534,-995.924147,-592.164754,11399.171507
613.510849,383.047749,444.123565,9696.697840
613.511165,2068.457845,1554.432478,7994.224174
613.511481,3140.991542,2368.659014,6069.688724
613.511797,4060.306139,2960.823768,5329.482782
613.512112,4673.182538,2960.823768,5033.400406
613.512428,4673.182538,2590.720797,5551.544565
613.512744,3600.648841,1776.494261,6069.688724
613.513059,2681.334243,888.247130,7550.100608
613.513375,689.485948,-222.061783,9252.574275
613.513691,-1149.143247,-1554.432478,10732.986159
613.514007,-2145.067394,-2220.617826,12731.542202
613.514322,-2528.115143,-2812.782580,13471.748144
613.514638,-3447.429741,-2886.803174,13841.851115
613.514954,-3600.648841,-2294.638420,13323.706956
613.515269,-2681.334243,-1332.370696,12879.583391
613.515585,-1532.190996,-518.144159,11473.192101
613.515901,229.828649,1036.288319,9104.533087
613.516217,1838.629195,2368.659014,7624.121203
613.516532,2987.772442,2664.741391,6143.709319
613.516848,3753.867940,3108.864956,5847.626942
613.517164,4213.525239,3108.864956,5625.565159
613.517480,3907.087040,2294.638420,5625.565159
613.517795,3064.381992,1776.494261,6883.915261
613.518111,1991.848295,666.185348,7920.203579
613.518427,459.657299,-296.082377,9400.615463
613.518742,-1072.533697,-1258.350101,11325.150913
613.519058,-2298.286494,-2368.659014,12731.542202
613.519374,-2834.553343,-2886.803174,13619.789333
613.519690,-3447.429741,-3034.844362,13915.871710
613.520005,-3524.039291,-2294.638420,13545.768739
613.520321,-2604.724693,-1776.494261,12879.583391
613.520637,-1302.362347,-962.267725,11177.109724
613.520952,383.047749,666.185348,9548.656652
613.521268,2221.676944,1776.494261,7846.182985
613.521584,3447.429741,2442.679609,6143.709319
613.521900,4673.182538,3182.885551,5329.482782
613.522215,4596.572988,2516.700203,5033.400406
613.522531,4903.011187,2516.700203,5773.606348
613.522847,3677.258390,1480.411884,6439.791695
613.523162,2374.896044,370.102971,7772.162391
613.523478,536.266849,-1036.288319,9400.615463
613.523794,-995.924147,-2072.576638,10955.047942
613.524110,-1838.629195,-2960.823768,12435.459826
613.524425,-2834.553343,-3404.947333,13545.768739
613.524741,-3447.429741,-3478.967927,13841.851115
613.525057,-3370.820191,-2738.761985,13693.809927
613.525373,-2604.724693,-2146.597232,12805.562797
613.525688,-1302.362347,-1184.329507,11177.109724
613.526004,153.219100,222.061783,9474.636058
613.526320,1838.629195,1036.288319,7105.977043
613.526635,3294.210641,1776.494261,6291.750507
613.526951,4136.915689,2220.617826,4885.359217
613.527267,4213.525239,2072.576638,4959.379811
613.527583,4060.306139,1554.432478,5847.626942
613.527898,3294.210641,518.144159,6513.812290
613.528214,1838.629195,-0.000000,7846.182985
613.528530,306.438199,-1036.288319,9178.553681
613.528845,-1072.533697,-1850.514855,10881.027347
613.529161,-2451.505594,-2886.803174,12213.398043
613.529477,-2528.115143,-3701.029710,13397.727550
613.529793,-3370.820191,-3923.091493,13027.624579
613.530108,-3600.648841,-3256.906145,13619.789333
613.530424,-2451.505594,-2368.659014,13027.624579
613.530740,-1149.143247,-1628.453072,11325.150913
613.531055,612.876398,-148.041188,9622.677246
613.531371,1685.410096,1258.350101,7994.224174
613.531687,3217.601092,2368.659014,6069.688724
613.532003,4213.525239,2812.782580,5181.441594
613.532318,4673.182538,2664.741391,4663.297435
613.532634,4366.744339,1702.473667,5551.544565
613.532950,3830.477490,888.247130,6661.853478
613.533266,2374.896044,-0.000000,7550.100608
613.533581,383.047749,-1110.308913,9400.615463
613.533897,-1149.143247,-1924.535449,11251.130318
613.534213,-2374.896044,-3256.906145,12509.480420
613.534528,-3140.991542,-3478.967927,13693.809927
613.534844,-3600.648841,-3330.926739,14137.933492
613.535160,-3524.039291,-2886.803174,13471.748144
613.535476,-2374.896044,-2220.617826,13101.645173
613.535791,-1455.581446,-1036.288319,10955.047942
613.536107,306.438199,444.123565,9474.636058
613.536423,1915.238745,2146.597232,7105.977043
613.536738,2681.334243,2590.720797,5995.668130
613.537054,3830.477490,2960.823768,5329.482782
613.537370,3907.087040,2664.741391,5255.462188
613.537686,3907.087040,2146.597232,5995.668130
613.538001,3140.991542,1480.411884,6883.915261
613.538317,1608.800546,444.123565,7772.162391
613.538633,76.609550,-444.123565,9474.636058
613.538949,-1302.362347,-1554.432478,11029.068536
613.539264,-2145.067394,-2516.700203,12361.439231
613.539580,-2987.772442,-2960.823768,13693.809927
613.539896,-3447.429741,-2886.803174,13915.871710
613.540211,-3600.648841,-2294.638420,13397.727550
613.540527,-2374.896044,-1184.329507,12657.521608
613.540843,-919.314598,-0.000000,11029.068536
613.541159,842.705048,1480.411884,9548.656652
613.541474,2451.505594,2442.679609,7402.059420
613.541790,3524.039291,3256.906145,5847.626942
613.542106,4443.353888,3997.112087,5033.400406
613.542421,5056.230287,3552.988522,4885.359217
613.542737,4596.572988,2886.803174,6143.709319
613.543053,3753.867940,2072.576638,6587.832884
613.543369,2451.505594,1110.308913,7994.224174
613.543684,842.705048,222.061783,9548.656652
613.544000,-995.924147,-814.226536,11251.130318
613.544316,-2145.067394,-1998.556043,12731.542202
613.544631,-2987.772442,-2442.679609,13767.830521
613.544947,-3600.648841,-2812.782580,13767.830521
613.545263,-3677.258390,-2442.679609,13767.830521
613.545579,-2911.162892,-1628.453072,13545.768739
613.545894,-1762.019645,-814.226536,11621.233289
613.546210,76.609550,370.102971,9844.739029
613.546526,1762.019645,1702.473667,7772.162391
613.546842,2681.334243,2368.659014,6513.812290
613.547157,3983.696590,2516.700203,5403.503377
613.547473,4136.915689,2664.741391,5403.503377
613.547789,4060.306139,1924.535449,5773.606348
613.548104,3294.210641,888.247130,6513.812290
613.548420,1915.238745,-74.020594,7698.141797
613.548736,383.047749,-1184.329507,9326.594869
613.549052,-766.095498,-2664.741391,11325.150913
613.549367,-2451.505594,-3552.988522,12361.439231
613.549683,-3140.991542,-4145.153275,13915.871710
613.549999,-3753.867940,-4071.132681,13915.871710
613.550314,-3524.039291,-3478.967927,13693.809927
613.550630,-2757.943793,-2886.803174,12657.521608
613.550946,-1378.971896,-1628.453072,11325.150913
613.551262,536.266849,-296.082377,9622.677246
613.551577,1838.629195,1258.350101,7550.100608
613.551893,3524.039291,2072.576638,5773.606348
613.552209,4366.744339,2590.720797,5255.462188
613.552524,4903.011187,2664.741391,4885.359217
613.552840,4366.744339,1850.514855,5625.565159
613.553156,3830.477490,1036.288319,6217.729913
613.553472,2451.505594,-74.020594,7179.997637
613.553787,459.657299,-1184.329507,8882.471304
613.554103,-1225.752797,-2368.659014,11177.109724
613.554418,-2374.896044,-3478.967927,12361.439231
613.554734,-3217.601092,-4145.153275,13397.727550
613.555050,-4136.915689,-3923.091493,13989.892304
613.555365,-3524.039291,-3404.947333,13841.851115
613.555681,-3217.601092,-2294.638420,12583.501014
613.555996,-2068.457845,-1036.288319,11029.068536
613.556312,0.000000,370.102971,9400.615463
613.556628,1685.410096,1554.432478,7550.100608
613.556943,2604.724693,2220.617826,5699.585753
613.557259,3830.477490,2442.679609,4737.318029
613.557575,4443.353888,2368.659014,4737.318029
613.557890,4213.525239,1998.556043,5477.523971
613.558206,3447.429741,1554.432478,6587.832884
613.558521,2068.457845,370.102971,7550.100608
613.558837,306.438199,-444.123565,8956.491898
613.559153,-1455.581446,-1702.473667,11325.150913
613.559468,-2528.115143,-2516.700203,12583.501014
613.559784,-3064.381992,-3404.947333,13989.892304
613.560099,-3600.648841,-3256.906145,13915.871710
613.560415,-3447.429741,-2590.720797,13767.830521
613.560731,-2528.115143,-1406.391290,13027.624579
613.561046,-1072.533697,-148.041188,11473.192101
613.561362,995.924147,888.247130,9548.656652
613.561678,2221.676944,2442.679609,7994.224174
613.561993,3447.429741,3552.988522,6069.688724
613.562309,4749.792088,3478.967927,5181.441594
613.562624,5439.278036,3923.091493,4811.338623
613.562940,4979.620737,2886.803174,5773.606348
613.563256,4136.915689,1998.556043,6513.812290
613.563571,2604.724693,1110.308913,7772.162391
613.563887,689.485948,-74.020594,9326.594869
613.564202,-1072.533697,-1184.329507,11843.295072
613.564518,-2451.505594,-2220.617826,13323.706956
613.564834,-3217.601092,-2738.761985,14063.912898
613.565149,-3830.477490,-2664.741391,14656.077652
613.565465,-3600.648841,-2368.659014,13841.851115
613.565780,-2757.943793,-1258.350101,13471.748144
613.566096,-1762.019645,222.061783,11473.192101
613.566412,383.047749,1406.391290,9844.739029
613.566727,1991.848295,2442.679609,7698.141797
613.567043,3370.820191,3256.906145,6069.688724
613.567359,4673.182538,3478.967927,5403.503377
613.567674,5056.230287,3330.926739,5625.565159
613.567990,4290.134789,2812.782580,5699.585753
613.568305,3677.258390,1554.432478,6957.935855
613.568621,2451.505594,740.205942,8142.265362
613.568937,0.000000,-222.061783,9474.636058
613.569252,-1149.143247,-1036.288319,11029.068536
613.569568,-2298.286494,-2220.617826,12805.562797
613.569883,-3217.601092,-2886.803174,13545.768739
613.570199,-3600.648841,-2960.823768,13915.871710
613.570515,-3294.210641,-2664.741391,13249.686362
613.570830,-2911.162892,-2294.638420,13101.645173
613.571146,-1685.410096,-1332.370696,11621.233289
613.571462,306.438199,222.061783,9548.656652
613.571777,2068.457845,1924.535449,7698.141797
613.572093,3677.258390,2516.700203,5995.668130
613.572408,4826.401637,2960.823768,4885.359217
613.572724,4979.620737,3478.967927,4663.297435
613.573040,4903.011187,2368.659014,5107.421000
613.573355,4366.744339,1110.308913,6439.791695
613.573671,2145.067394,-0.000000,7550.100608
613.573986,536.266849,-1406.391290,9326.594869
613.574302,-1455.581446,-2516.700203,10881.027347
613.574618,-2528.115143,-3552.988522,12583.501014
613.574933,-3524.039291,-3997.112087,13841.851115
613.575249,-4290.134789,-3923.091493,14063.912898
613.575565,-3830.477490,-3182.885551,13397.727550
613.575880,-3140.991542,-2368.659014,12805.562797
613.576196,-1685.410096,-1480.411884,11473.192101
613.576511,0.000000,-814.226536,9548.656652
613.576827,1378.971896,814.226536,7328.038826
613.577143,2987.772442,1998.556043,5995.668130
613.577458,3983.696590,2220.617826,5181.441594
613.577774,4519.963438,1924.535449,5181.441594
613.578089,4596.572988,1554.432478,6217.729913
613.578405,3524.039291,666.185348,6587.832884
613.578721,2145.067394,-444.123565,7772.162391
613.579036,612.876398,-1480.411884,9474.636058
613.579352,-995.924147,-2590.720797,10955.047942
613.579667,-2451.505594,-3108.864956,12435.459826
613.579983,-3217.601092,-3923.091493,13323.706956
613.580299,-3907.087040,-4071.132681,13841.851115
613.580614,-3294.210641,-3330.926739,13175.665768
613.580930,-2604.724693,-2886.803174,12657.521608
613.581246,-1302.362347,-1628.453072,11621.233289
613.581561,459.657299,-444.123565,9400.615463
613.581877,1915.238745,1110.308913,7179.997637
613.582192,3677.258390,1924.535449,5773.606348
613.582508,4673.182538,2368.659014,5477.523971
613.582824,4673.182538,2960.823768,4589.276840
613.583139,4673.182538,1850.514855,5255.462188
613.583455,3830.477490,1628.453072,6217.729913
613.583770,2221.676944,-148.041188,7624.121203
613.584086,153.219100,-1332.370696,9474.636058
613.584402,-1455.581446,-2146.597232,11473.192101
613.584717,-2451.505594,-3404.947333,12435.459826
613.585033,-3524.039291,-3552.988522,13841.851115
613.585349,-4213.525239,-3256.906145,13989.892304
613.585664,-3753.867940,-2368.659014,13693.809927
613.585980,-2987.772442,-1480.411884,12657.521608
613.586295,-1455.581446,-296.082377,11029.068536
613.586611,1149.143247,814.226536,9400.615463
613.586927,2528.115143,2442.679609,7550.100608
613.587242,3140.991542,3478.967927,5995.668130
613.587558,4213.525239,3256.906145,5033.400406
613.587873,4596.572988,3478.967927,5403.503377
613.588189,4366.744339,2886.803174,5995.668130
613.588505,3447.429741,1702.473667,6661.853478
613.588820,1838.629195,888.247130,8290.306550
613.589136,383.047749,-370.102971,9696.697840
613.589452,-919.314598,-888.247130,11177.109724
613.589767,-1991.848295,-1924.535449,12509.480420
613.590083,-3524.039291,-2368.659014,13767.830521
613.590398,-2987.772442,-2146.597232,13767.830521
613.590714,-2911.162892,-1924.535449,13175.665768
613.591030,-2451.505594,-1480.411884,13101.645173
613.591345,-1378.971896,-444.123565,11547.212695
613.591661,383.047749,888.247130,9622.677246
613.591976,2145.067394,2146.597232,7846.182985
613.592292,3140.991542,2812.782580,6513.812290
613.592608,4290.134789,3404.947333,5477.523971
613.592923,4673.182538,3330.926739,4959.379811
613.593239,4979.620737,2516.700203,5699.585753
613.593554,3753.867940,1850.514855,6365.771101
613.593870,2374.896044,814.226536,7920.203579
613.594186,766.095498,-148.041188,9178.553681
613.594501,-919.314598,-1036.288319,11325.150913
613.594817,-2145.067394,-2368.659014,12435.459826
613.595133,-2834.553343,-3034.844362,13471.748144
613.595448,-3370.820191,-2886.803174,13915.871710
613.595764,-3370.820191,-2294.638420,13397.727550
613.596079,-2681.334243,-1406.391290,12953.603985
613.596395,-1838.629195,-1110.308913,11103.089130
613.596711,0.000000,296.082377,10066.800811
613.597026,1532.190996,1554.432478,7920.203579
613.597342,2604.724693,2294.638420,6143.709319
613.597657,3447.429741,2664.741391,5699.585753
613.597973,4136.915689,2368.659014,5181.441594
613.598289,3907.087040,2146.597232,5773.606348
613.598604,3140.991542,888.247130,6661.853478
613.598920,2145.067394,-74.020594,7698.141797
613.599236,0.000000,-814.226536,9474.636058
613.599551,-919.314598,-2072.576638,10881.027347
613.599867,-2145.067394,-2886.803174,12361.439231
613.600182,-2757.943793,-3404.947333,13323.706956
613.600498,-3217.601092,-3478.967927,13471.748144
613.600814,-3140.991542,-3108.864956,13101.645173
613.601129,-2681.334243,-2516.700203,12731.542202
613.601445,-1225.752797,-1628.453072,11251.130318
613.601760,153.219100,-592.164754,9474.636058
613.602076,1455.581446,888.247130,7846.182985
613.602392,3064.381992,1850.514855,6439.791695
613.602707,3830.477490,2072.576638,5255.462188
613.603023,4136.915689,2664.741391,4959.379811
613.603339,4136.915689,1628.453072,5625.565159
613.603654,3753.867940,888.247130,6365.771101
613.603970,2451.505594,-0.000000,7254.018232
613.604285,1072.533697,-1110.308913,8956.491898
613.604601,-459.657299,-2294.638420,10658.965565
613.604917,-1915.238745,-3330.926739,12213.398043
613.605232,-2528.115143,-3849.070898,13175.665768
613.605548,-3140.991542,-3701.029710,13619.789333
613.605863,-3294.210641,-3034.844362,13027.624579
613.606179,-2604.724693,-2368.659014,12731.542202
613.606495,-1532.190996,-1184.329507,11177.109724
613.606810,0.000000,296.082377,9548.656652
613.607126,1302.362347,1406.391290,7846.182985
613.607441,2757.943793,1850.514855,6069.688724
613.607757,3677.258390,2442.679609,4885.359217
613.608073,3677.258390,2738.761985,5107.421000
613.608388,3753.867940,1554.432478,5699.585753
613.608704,3064.381992,888.247130,6661.853478
613.609020,1532.190996,-222.061783,8142.265362
613.609335,153.219100,-1332.370696,9696.697840
613.609651,-919.314598,-1998.556043,11103.089130
613.609966,-2451.505594,-2664.741391,12509.480420
613.610282,-2757.943793,-2812.782580,13471.748144
613.610598,-2834.553343,-2590.720797,13841.851115
613.610913,-2987.772442,-1924.535449,12953.603985
613.611229,-2374.896044,-1036.288319,12805.562797
613.611544,-1532.190996,-370.102971,10955.047942
613.611860,612.876398,1036.288319,9548.656652
613.612176,2068.457845,2368.659014,7772.162391
613.612491,3447.429741,2738.761985,6291.750507
613.612807,4136.915689,3108.864956,5551.544565
613.613123,4596.572988,3182.885551,5477.523971
613.613438,4519.963438,2886.803174,6069.688724
613.613754,3600.648841,2294.638420,6291.750507
613.614069,2374.896044,1110.308913,7994.224174
613.614385,612.876398,-74.020594,9548.656652
613.614701,-995.924147,-1184.329507,11251.130318
613.615016,-2145.067394,-2294.638420,12805.562797
613.615332,-2757.943793,-2960.823768,14211.954086
613.615647,-3524.039291,-2738.761985,14137.933492
613.615963,-3447.429741,-2220.617826,13619.789333
613.616279,-2528.115143,-1110.308913,12879.583391
613.616594,-1455.581446,-222.061783,11251.130318
613.616910,536.266849,1332.370696,9844.739029
613.617226,1762.019645,1924.535449,7624.121203
613.617541,3447.429741,2886.803174,6069.688724
613.617857,4136.915689,3256.906145,4959.379811
613.618172,4903.011187,3034.844362,4737.318029
613.618488,4596.572988,2368.659014,5995.668130
613.618804,3370.820191,1110.308913,6735.874072
613.619119,1991.848295,-0.000000,7920.203579
613.619435,229.828649,-888.247130,9770.718434
613.619750,-1302.362347,-1702.473667,11399.171507
613.620066,-2528.115143,-2590.720797,12509.480420
613.620382,-3294.210641,-3034.844362,13915.871710
613.620697,-3830.477490,-2886.803174,13693.809927
613.621013,-3677.258390,-2368.659014,13545.768739
613.621328,-2451.505594,-1850.514855,12953.603985
613.621644,-1072.533697,-1332.370696,11325.150913
613.621960,459.657299,-0.000000,9844.739029
613.622275,1991.848295,1258.350101,7402.059420
613.622591,3294.210641,2294.638420,5995.668130
613.622907,4519.963438,2738.761985,5255.462188
613.623222,4903.011187,2812.782580,4959.379811
613.623538,4519.963438,2146.597232,5329.482782
613.623853,3907.087040,1332.370696,6291.750507
613.624169,2221.676944,-296.082377,7624.121203
613.624485,766.095498,-1406.391290,9400.615463
613.624800,-842.705048,-2516.700203,11177.109724
613.625116,-2374.896044,-3552.988522,12657.521608
613.625431,-3140.991542,-3923.091493,13841.851115
613.625747,-3907.087040,-3849.070898,13767.830521
613.626063,-4136.915689,-3256.906145,13619.789333
613.626378,-3064.381992,-2516.700203,12805.562797
613.626694,-1838.629195,-1702.473667,11325.150913
613.627010,306.438199,-370.102971,9918.759623
613.627325,1608.800546,814.226536,7550.100608
613.627641,2834.553343,1776.494261,5921.647536
613.627956,4060.306139,1850.514855,5329.482782
613.628272,4443.353888,1702.473667,5033.400406
613.628588,3983.696590,1406.391290,5699.585753
613.628903,3064.381992,518.144159,6217.729913
613.629219,2298.286494,-518.144159,7772.162391
613.629534,306.438199,-1406.391290,9326.594869
613.629850,-1072.533697,-2294.638420,10881.027347
613.630166,-2451.505594,-2960.823768,12287.418637
613.630481,-3294.210641,-3775.050304,13323.706956
613.630797,-3677.258390,-4145.153275,13915.871710
613.631113,-3217.601092,-3108.864956,13249.686362
613.631428,-2604.724693,-2516.700203,12805.562797
613.631744,-1302.362347,-1924.535449,11473.192101
613.632059,383.047749,-222.061783,9474.636058
613.632375,2451.505594,592.164754,7772.162391
613.632691,3140.991542,2146.597232,5847.626942
613.633006,4443.353888,2590.720797,4959.379811
613.633322,4596.572988,2886.803174,4737.318029
613.633637,4519.963438,2294.638420,5403.503377
613.633953,3753.867940,888.247130,6291.750507
613.634269,2451.505594,-0.000000,7698.141797
613.634584,612.876398,-1036.288319,9474.636058
613.634900,-1302.362347,-2220.617826,11325.150913
613.635215,-2298.286494,-3108.864956,12879.583391
613.635531,-3217.601092,-3552.988522,13693.809927
613.635847,-3370.820191,-3404.947333,13767.830521
613.636162,-3524.039291,-2590.720797,13175.665768
613.636478,-2298.286494,-1480.411884,12805.562797
613.636794,-842.705048,-740.205942,11251.130318
613.637109,766.095498,592.164754,9622.677246
613.637425,2068.457845,1850.514855,7698.141797
613.637740,3294.210641,2664.741391,6217.729913
613.638056,4366.744339,2960.823768,5033.400406
613.638372,4749.792088,3108.864956,4959.379811
613.638687,4136.915689,2516.700203,6069.688724
613.639003,3524.039291,1628.453072,6587.832884
613.639318,1915.238745,444.123565,7920.203579
613.639634,229.828649,-518.144159,9622.677246
613.639950,-1532.190996,-1776.494261,11325.150913
613.640265,-2451.505594,-2368.659014,12583.501014
613.640581,-3370.820191,-2664.741391,13693.809927
613.640897,-3677.258390,-2516.700203,14063.912898
613.641212,-3140.991542,-1776.494261,13471.748144
613.641528,-2298.286494,-1036.288319,12805.562797
613.641843,-919.314598,-148.041188,11029.068536
613.642159,689.485948,1628.453072,9178.553681
613.642475,2374.896044,2960.823768,7328.038826
613.642790,3294.210641,3849.070898,5847.626942
613.643106,4596.572988,4145.153275,4885.359217
613.643421,4673.182538,3849.070898,4811.338623
613.643737,4290.134789,3256.906145,5403.503377
613.644053,3524.039291,2664.741391,6217.729913
613.644368,2528.115143,1554.432478,7846.182985
613.644684,383.047749,444.123565,9326.594869
613.645000,-1225.752797,-518.144159,11103.089130
613.645315,-2604.724693,-1628.453072,12361.439231
613.645631,-3370.820191,-2294.638420,13915.871710
613.645946,-3983.696590,-2368.659014,14211.954086
613.646262,-3830.477490,-1480.411884,13841.851115
613.646578,-3294.210641,-1184.329507,13397.727550
613.646893,-2145.067394,-148.041188,11917.315666
613.647209,-383.047749,1258.350101,10140.821405
613.647524,1838.629195,2368.659014,8142.265362
613.647840,2911.162892,3182.885551,6661.853478
613.648156,3907.087040,3627.009116,5477.523971
613.648471,4749.792088,3701.029710,5107.421000
613.648787,4673.182538,3108.864956,5773.606348
613.649102,3983.696590,2516.700203,6735.874072
613.649418,2451.505594,814.226536,7402.059420
613.649734,689.485948,-592.164754,9326.594869
613.650049,-766.095498,-1850.514855,11177.109724
613.650365,-2068.457845,-3256.906145,13101.645173
613.650681,-2757.943793,-3775.050304,13989.892304
613.650996,-3600.648841,-3923.091493,14582.057057
613.651312,-3600.648841,-3182.885551,13989.892304
613.651627,-2987.772442,-2368.659014,13175.665768
613.651943,-1838.629195,-1628.453072,11621.233289
613.652259,0.000000,-0.000000,10288.862594
613.652574,1378.971896,740.205942,8142.265362
613.652890,2681.334243,1480.411884,6217.729913
613.653205,4136.915689,1776.494261,5403.503377
613.653521,4596.572988,1702.473667,4737.318029
613.653837,4826.401637,1406.391290,5033.400406
613.654152,4060.306139,592.164754,5699.585753
613.654468,2681.334243,-518.144159,7105.977043
613.654784,1072.533697,-1702.473667,8512.368333
613.655099,-842.705048,-2738.761985,10584.944971
613.655415,-2068.457845,-4071.132681,12287.418637
613.655731,-2987.772442,-4737.318029,13397.727550
613.656046,-3524.039291,-4589.276840,13693.809927
613.656362,-3907.087040,-3701.029710,12879.583391
613.656678,-3217.601092,-2960.823768,12731.542202
613.656993,-1838.629195,-1554.432478,11473.192101
613.657309,-306.438199,-148.041188,9474.636058
613.657625,1378.971896,1036.288319,7624.121203
613.657940,2374.896044,1554.432478,6217.729913
613.658256,3753.867940,2368.659014,4885.359217
613.658572,4290.134789,2516.700203,4737.318029
613.658887,4443.353888,2220.617826,5551.544565
613.659203,3677.258390,1258.350101,6365.771101
613.659518,2451.505594,-0.000000,7254.018232
613.659834,536.266849,-962.267725,9104.533087
613.660150,-1072.533697,-1702.473667,10732.986159
613.660465,-2221.676944,-2812.782580,12213.398043
613.660781,-2681.334243,-3256.906145,13545.768739
613.661097,-3217.601092,-3108.864956,13619.789333
613.661412,-3217.601092,-2368.659014,13101.645173
613.661728,-2604.724693,-1628.453072,12435.459826
613.662044,-1149.143247,-296.082377,11399.171507
613.662359,612.876398,666.185348,9400.615463
613.662675,2451.505594,1850.514855,7328.038826
613.662991,3677.258390,2516.700203,5847.626942
613.663306,4596.572988,2738.761985,5033.400406
613.663622,4903.011187,2960.823768,4737.318029
613.663938,4903.011187,2664.741391,5033.400406
613.664253,3983.696590,1776.494261,5995.668130
613.664569,2681.334243,814.226536,7698.141797
613.664885,766.095498,-592.164754,9252.574275
613.665200,-536.266849,-1480.411884,11029.068536
613.665516,-2068.457845,-2368.659014,13175.665768
613.665832,-3447.429741,-2886.803174,13841.851115
613.666147,-3830.477490,-2516.700203,14434.015869
613.666463,-3830.477490,-1924.535449,13841.851115
613.666779,-3294.210641,-962.267725,13249.686362
613.667094,-2068.457845,-0.000000,12139.377449
613.667410,-306.438199,1776.494261,10140.821405
613.667726,1685.410096,2738.761985,8438.347739
613.668041,2987.772442,3330.926739,6439.791695
613.668357,3983.696590,3775.050304,5625.565159
613.668673,4519.963438,3849.070898,5033.400406
613.668988,4749.792088,3034.844362,6143.709319
613.669304,3600.648841,2516.700203,6883.915261
613.669620,2298.286494,1184.329507,7994.224174
613.669935,766.095498,-0.000000,9844.739029
613.670251,-842.705048,-666.185348,11103.089130
613.670567,-2221.676944,-1628.453072,12731.542202
613.670882,-3217.601092,-2072.576638,13915.871710
613.671198,-3524.039291,-2368.659014,14137.933492
613.671513,-3677.258390,-1850.514855,13915.871710
613.671829,-2834.553343,-1554.432478,13397.727550
613.672145,-1455.581446,-962.267725,11917.315666
613.672460,0.000000,444.123565,10140.821405
613.672776,1685.410096,1998.556043,7846.182985
613.673092,3140.991542,2664.741391,6809.894666
613.673407,4596.572988,3552.988522,5107.421000
613.673723,4673.182538,3404.947333,4515.256246
613.674039,4903.011187,2738.761985,5033.400406
613.674354,4060.306139,1702.473667,5921.647536
613.674670,3447.429741,296.082377,7179.997637
613.674986,1072.533697,-814.226536,9030.512492
613.675301,-612.876398,-2072.576638,10881.027347
613.675617,-2068.457845,-3034.844362,12361.439231
613.675933,-2987.772442,-3627.009116,13545.768739
613.676248,-3600.648841,-3701.029710,13767.830521
613.676564,-3524.039291,-2812.782580,13101.645173
613.676880,-2987.772442,-2220.617826,12657.521608
613.677195,-1378.971896,-1406.391290,11177.109724
613.677511,306.438199,-0.000000,9178.553681
613.677827,1915.238745,1036.288319,7624.121203
613.678142,2834.553343,1628.453072,6143.709319
613.678458,4213.525239,2072.576638,5107.421000
613.678774,4060.306139,1776.494261,4737.318029
613.679089,4213.525239,666.185348,5921.647536
613.679405,3064.381992,-0.000000,6809.894666
613.679721,1991.848295,-888.247130,7920.203579
613.680036,153.219100,-1850.514855,9548.656652
613.680352,-1302.362347,-2738.761985,11029.068536
613.680668,-2604.724693,-3627.009116,12139.377449
613.680983,-2911.162892,-3849.070898,13323.706956
613.681299,-3677.258390,-4071.132681,13693.809927
613.681615,-3217.601092,-3552.988522,12805.562797
613.681930,-2528.115143,-2590.720797,12435.459826
613.682246,-1378.971896,-1776.494261,10807.006753
613.682561,459.657299,-518.144159,9326.594869
613.682877,2298.286494,370.102971,7772.162391
613.683193,3294.210641,1776.494261,5625.565159
613.683508,4366.744339,1998.556043,4737.318029
613.683824,4596.572988,1702.473667,4737.318029
613.684140,4290.134789,962.267725,6143.709319
613.684455,3217.601092,-0.000000,6513.812290
613.684771,1915.238745,-962.267725,7920.203579
613.685087,0.000000,-1998.556043,9770.718434
613.685402,-1455.581446,-2960.823768,11325.150913
613.685718,-2757.943793,-3849.070898,12731.542202
613.686034,-3600.648841,-4071.132681,13767.830521
613.686349,-3600.648841,-3775.050304,14508.036463
613.686665,-3370.820191,-2812.782580,13175.665768
613.686981,-2451.505594,-1924.535449,12361.439231
613.687296,-689.485948,-814.226536,10584.944971
613.687612,1149.143247,444.123565,9178.553681
613.687928,2604.724693,1480.411884,7105.977043
613.688243,3524.039291,2664.741391,5699.585753
613.688559,4519.963438,2886.803174,4811.338623
613.688875,4673.182538,2590.720797,4959.379811
613.689190,4136.915689,2146.597232,6143.709319
613.689506,2757.943793,1258.350101,6735.874072
613.689822,1455.581446,-0.000000,8438.347739
613.690137,-459.657299,-666.185348,9918.759623
613.690453,-1991.848295,-1554.432478,11843.295072
613.690769,-3140.991542,-2368.659014,13101.645173
613.691084,-3294.210641,-2368.659014,14285.974681
613.691400,-3753.867940,-2442.679609,13915.871710
613.691716,-3370.820191,-1776.494261,13323.706956
613.692031,-2451.505594,-888.247130,12657.521608
613.692347,-612.876398,222.061783,11029.068536
613.692663,1149.143247,1924.535449,9178.553681
613.692978,2987.772442,3182.885551,7179.997637
613.693294,4290.134789,4145.153275,5403.503377
613.693610,5056.230287,4293.194464,4885.359217
613.693925,5362.668486,4367.215058,5329.482782
613.694241,4596.572988,2886.803174,5773.606348
613.694556,3524.039291,2442.679609,6661.853478
613.694872,1685.410096,962.267725,8512.368333
613.695188,0.000000,-0.000000,9992.780217
613.695503,-1532.190996,-888.247130,11621.233289
613.695819,-3064.381992,-2146.597232,13101.645173
613.696135,-3677.258390,-2664.741391,14211.954086
613.696450,-3907.087040,-2442.679609,14285.974681
613.696766,-3753.867940,-1924.535449,13545.768739
613.697082,-2681.334243,-1184.329507,12953.603985
613.697397,-1455.581446,518.144159,11177.109724
613.697713,689.485948,1406.391290,9548.656652
613.698029,2451.505594,2812.782580,7698.141797
613.698344,3907.087040,3034.844362,5995.668130
613.698660,4979.620737,3330.926739,5477.523971
613.698976,4826.401637,3701.029710,4959.379811
613.699291,4519.963438,2516.700203,5699.585753
613.699607,3753.867940,2072.576638,6883.915261
613.699923,1915.238745,962.267725,8068.244768
613.700238,459.657299,-518.144159,9474.636058
613.700554,-842.705048,-1406.391290,11473.192101
613.700870,-2298.286494,-2516.700203,12583.501014
613.701185,-3294.210641,-3256.906145,13693.809927
613.701501,-3447.429741,-3330.926739,13989.892304
613.701817,-3217.601092,-3182.885551,13175.665768
613.702132,-2528.115143,-2220.617826,13323.706956
613.702448,-1149.143247,-1332.370696,11473.192101
613.702764,229.828649,-0.000000,9474.636058
613.703079,2068.457845,1332.370696,7846.182985
613.703395,3524.039291,2442.679609,5995.668130
613.703711,4749.792088,2516.700203,4885.359217
613.704026,4826.401637,2146.597232,4737.318029
613.704342,4213.525239,1924.535449,5477.523971
613.704658,3447.429741,740.205942,6365.771101
613.704973,2145.067394,-444.123565,7624.121203
613.705289,306.438199,-1332.370696,9252.574275
613.705604,-1378.971896,-2516.700203,10807.006753
613.705920,-2451.505594,-3775.050304,12657.521608
613.706236,-3140.991542,-4441.235652,13545.768739
613.706551,-3907.087040,-4441.235652,13915.871710
613.706867,-3830.477490,-3627.009116,13027.624579
613.707183,-3447.429741,-2812.782580,12879.583391
613.707498,-1608.800546,-1702.473667,10955.047942
613.707814,0.000000,-814.226536,9178.553681
613.708130,1532.190996,518.144159,7328.038826
613.708445,2604.724693,1184.329507,5847.626942
613.708761,3600.648841,1332.370696,5181.441594
613.709077,3907.087040,1480.411884,4959.379811
613.709392,3677.258390,814.226536,5551.544565
613.709708,2834.553343,518.144159,6661.853478
613.710024,1608.800546,-444.123565,7772.162391
613.710339,76.609550,-1406.391290,9326.594869
613.710655,-1072.533697,-2368.659014,11103.089130
613.710971,-2068.457845,-3182.885551,12213.398043
613.711286,-2681.334243,-3701.029710,13101.645173
613.711602,-3140.991542,-3775.050304,13397.727550
613.711918,-2757.943793,-2960.823768,13027.624579
613.712233,-2374.896044,-2072.576638,12287.418637
613.712549,-1302.362347,-1036.288319,10955.047942
613.712865,612.876398,222.061783,9400.615463
613.713180,1915.238745,1332.370696,7550.100608
613.713496,3524.039291,2442.679609,5847.626942
613.713812,4519.963438,2960.823768,5329.482782
613.714127,4519.963438,2960.823768,5107.421000
613.714443,4519.963438,2368.659014,5699.585753
613.714759,3830.477490,1554.432478,6217.729913
613.715074,2451.505594,518.144159,7994.224174
613.715390,1072.533697,-518.144159,9474.636058
613.715706,-842.705048,-1332.370696,11325.150913
613.716021,-2145.067394,-2072.576638,12657.521608
613.716337,-2834.553343,-2812.782580,13545.768739
613.716653,-3217.601092,-2368.659014,13989.892304
613.716968,-2757.943793,-1628.453072,13397.727550
613.717284,-2528.115143,-888.247130,12953.603985
613.717599,-1225.752797,222.061783,11251.130318
613.717915,536.266849,1332.370696,9474.636058
613.718231,1915.238745,2442.679609,7920.203579
613.718546,2374.896044,3034.844362,6365.771101
613.718862,3983.696590,3182.885551,5699.585753
613.719178,4290.134789,3552.988522,5699.585753
613.719493,3677.258390,2886.803174,6365.771101
613.719809,3140.991542,1776.494261,7105.977043
613.720125,2221.676944,1184.329507,8660.409521
613.720440,306.438199,-0.000000,9844.739029
613.720756,-919.314598,-888.247130,11325.150913
613.721072,-2068.457845,-1480.411884,12583.501014
613.721387,-2987.772442,-2146.597232,13619.789333
613.721703,-3064.381992,-2664.741391,13693.809927
613.722019,-2911.162892,-1480.411884,13101.645173
613.722334,-2221.676944,-1110.308913,13101.645173
613.722650,-766.095498,-222.061783,11547.212695
613.722966,842.705048,1258.350101,9548.656652
613.723281,1991.848295,1998.556043,7772.162391
613.723597,3217.601092,2664.741391,6365.771101
613.723913,4290.134789,3404.947333,5329.482782
613.724228,4519.963438,3256.906145,5255.462188
613.724544,4443.353888,2442.679609,5625.565159
613.724860,3600.648841,1776.494261,6587.832884
613.725175,2451.505594,592.164754,7698.141797
613.725491,689.485948,-296.082377,9178.553681
613.725807,-766.095498,-1554.432478,10881.027347
613.726122,-1915.238745,-2368.659014,12509.480420
613.726438,-2757.943793,-3182.885551,13471.748144
613.726754,-3600.648841,-3478.967927,13619.789333
613.727069,-3830.477490,-2516.700203,13027.624579
613.727385,-3217.601092,-2294.638420,12805.562797
613.727701,-1608.800546,-1406.391290,11103.089130
613.728016,0.000000,-0.000000,9992.780217
613.728332,1225.752797,814.226536,7846.182985
613.728647,2604.724693,1702.473667,6217.729913
613.728963,3140.991542,1628.453072,5625.565159
613.729279,3524.039291,1480.411884,5255.462188
613.729594,3907.087040,1110.308913,6291.750507
613.729910,2987.772442,444.123565,6513.812290
613.730226,2068.457845,-222.061783,7624.121203
613.730541,536.266849,-1406.391290,8882.471304
613.730857,-689.485948,-2220.617826,10362.883188
613.731173,-1685.410096,-2812.782580,11991.336260
613.731488,-2451.505594,-3923.091493,13027.624579
613.731804,-2834.553343,-4071.132681,13619.789333
613.732120,-3217.601092,-3997.112087,13027.624579
613.732435,-2451.505594,-3034.844362,12731.542202
613.732751,-1378.971896,-2220.617826,11399.171507
613.733067,0.000000,-444.123565,9548.656652
613.733382,1532.190996,814.226536,8068.244768
613.733698,2834.553343,1554.432478,6587.832884
613.734014,3907.087040,1850.514855,5329.482782
613.734329,4213.525239,1702.473667,4885.359217
613.734645,4366.744339,1258.350101,5699.585753
613.734961,3907.087040,444.123565,6513.812290
613.735276,2528.115143,-592.164754,7550.100608
613.735592,919.314598,-1628.453072,9104.533087
613.735908,-536.266849,-2886.803174,10584.944971
613.736223,-1991.848295,-3701.029710,12435.459826
613.736539,-2911.162892,-4441.235652,13323.706956
613.736855,-3447.429741,-4367.215058,13915.871710
613.737170,-3370.820191,-3627.009116,13397.727550
613.737486,-2451.505594,-2442.679609,12435.459826
613.737802,-1455.581446,-1258.350101,10881.027347
613.738117,229.828649,296.082377,9474.636058
613.738433,1302.362347,1184.329507,7476.080014
613.738749,2451.505594,1776.494261,5921.647536
613.739064,3447.429741,1924.535449,5181.441594
613.739380,3600.648841,1776.494261,5181.441594
613.739696,3753.867940,1554.432478,6069.688724
613.740011,2834.553343,666.185348,6661.853478
613.740327,1608.800546,-296.082377,7846.182985
613.740642,76.609550,-740.205942,9326.594869
613.740958,-995.924147,-1628.453072,10881.027347
613.741274,-2374.896044,-2368.659014,12509.480420
613.741589,-2757.943793,-2442.679609,13471.748144
613.741905,-3370.820191,-2590.720797,13471.748144
613.742221,-3217.601092,-1776.494261,13101.645173
613.742536,-2451.505594,-740.205942,12583.501014
613.742852,-995.924147,-0.000000,11251.130318
613.743168,689.485948,1702.473667,9252.574275
613.743483,1838.629195,3034.844362,7402.059420
613.743799,3294.210641,3923.091493,5995.668130
613.744115,4213.525239,3923.091493,5255.462188
613.744430,4979.620737,3997.112087,4885.359217
613.744746,4749.792088,3552.988522,5551.544565
613.745062,3677.258390,3034.844362,6365.771101
613.745377,2451.505594,1702.473667,7624.121203
613.745693,536.266849,740.205942,9252.574275
613.746009,-919.314598,-222.061783,11029.068536
613.746324,-2298.286494,-1036.288319,12805.562797
613.746640,-3064.381992,-1628.453072,13841.851115
613.746956,-3600.648841,-1628.453072,14211.954086
613.747271,-3600.648841,-1554.432478,13619.789333
613.747587,-2834.553343,-370.102971,13397.727550
613.747903,-1762.019645,666.185348,11843.295072
613.748218,-153.219100,1628.453072,9992.780217
613.748534,1608.800546,2886.803174,7920.203579
613.748850,2911.162892,3627.009116,6365.771101
613.749165,3830.477490,3997.112087,5773.606348
613.749481,4443.353888,3923.091493,5551.544565
613.749797,4366.744339,3478.967927,6143.709319
613.750112,3600.648841,2442.679609,6735.874072
613.750428,2604.724693,1406.391290,7920.203579
613.750744,919.314598,-0.000000,9474.636058
613.751059,-459.657299,-1184.329507,11547.212695
613.751375,-1915.238745,-2220.617826,12805.562797
613.751690,-2834.553343,-2664.741391,13989.892304
613.752006,-3294.210641,-2886.803174,14359.995275
613.752322,-3294.210641,-2590.720797,13915.871710
613.752637,-2681.334243,-1850.514855,13545.768739
613.752953,-1608.800546,-1036.288319,12139.377449
613.753269,0.000000,-0.000000,10140.821405
613.753584,1685.410096,1184.329507,8438.347739
613.753900,2681.334243,1850.514855,6513.812290
613.754216,3983.696590,2368.659014,5107.421000
613.754531,4749.792088,2072.576638,4737.318029
613.754847,4903.011187,1702.473667,5551.544565
613.755163,3830.477490,888.247130,6143.709319
613.755478,2528.115143,-444.123565,6957.935855
613.755794,1149.143247,-1628.453072,8364.327145
613.756110,-689.485948,-2664.741391,10288.862594
613.756426,-2145.067394,-3997.112087,11991.336260
613.756741,-3140.991542,-4737.318029,13249.686362
613.757057,-4213.525239,-4811.338623,13545.768739
613.757373,-4213.525239,-4589.276840,13175.665768
613.757688,-3524.039291,-3552.988522,12731.542202
613.758004,-2374.896044,-2442.679609,11621.233289
613.758320,-612.876398,-740.205942,9474.636058
613.758636,919.314598,518.144159,7550.100608
613.758951,2298.286494,1480.411884,5625.565159
613.759267,3447.429741,2146.597232,4737.318029
613.759583,4060.306139,1776.494261,4589.276840
613.759898,4060.306139,1554.432478,5033.400406
613.760214,3064.381992,666.185348,5699.585753
613.760530,2145.067394,-296.082377,7031.956449
613.760846,842.705048,-1702.473667,9326.594869
613.761161,-1302.362347,-2738.761985,10807.006753
613.761477,-2604.724693,-3552.988522,12139.377449
613.761793,-3447.429741,-3923.091493,13397.727550
613.762108,-3447.429741,-3775.050304,13767.830521
613.762424,-3677.258390,-2812.782580,13323.706956
613.762740,-2604.724693,-1924.535449,12213.398043
613.763056,-1149.143247,-962.267725,10955.047942
613.763371,459.657299,444.123565,9326.594869
613.763687,2374.896044,1776.494261,7476.080014
613.764003,3753.867940,2516.700203,5847.626942
613.764318,4673.182538,3034.844362,4737.318029
613.764634,5056.230287,3034.844362,4293.194464
613.764950,5132.839837,2442.679609,5551.544565
613.765266,4060.306139,1110.308913,6069.688724
613.765581,2298.286494,296.082377,7624.121203
613.765897,536.266849,-444.123565,9622.677246
613.766213,-1149.143247,-1480.411884,11251.130318
613.766528,-2298.286494,-2368.659014,13101.645173
613.766844,-2604.724693,-2886.803174,13989.892304
613.767160,-3524.039291,-2516.700203,14285.974681
613.767476,-3447.429741,-1924.535449,14211.954086
613.767791,-3064.381992,-1184.329507,13619.789333
613.768107,-1302.362347,-74.020594,11917.315666
613.768423,459.657299,1406.391290,9918.759623
613.768738,1838.629195,2442.679609,8068.244768
613.769054,3294.210641,3404.947333,6735.874072
613.769370,4673.182538,3552.988522,5625.565159
613.769686,5132.839837,3849.070898,5107.421000
613.770001,4826.401637,3404.947333,5847.626942
613.770317,3830.477490,2368.659014,6587.832884
613.770633,2451.505594,1036.288319,7920.203579
613.770949,459.657299,-0.000000,9770.718434
613.771264,-536.266849,-740.205942,11325.150913
613.771580,-2145.067394,-1628.453072,12805.562797
613.771896,-3140.991542,-2220.617826,14063.912898
613.772211,-3524.039291,-2294.638420,14137.933492
613.772527,-3370.820191,-1924.535449,13619.789333
613.772843,-2528.115143,-1480.411884,13323.706956
613.773159,-1532.190996,-296.082377,11917.315666
613.773474,229.828649,962.267725,10288.862594
613.773790,1762.019645,2220.617826,8142.265362
613.774106,3217.601092,3182.885551,6291.750507
613.774421,4673.182538,3701.029710,5033.400406
613.774737,4749.792088,4071.132681,4737.318029
613.775053,4903.011187,3034.844362,4959.379811
613.775369,4213.525239,2368.659014,6143.709319
613.775684,2681.334243,1110.308913,7476.080014
613.776000,1072.533697,-370.102971,9400.615463
613.776316,-459.657299,-1406.391290,10881.027347
613.776631,-2145.067394,-2442.679609,12509.480420
613.776947,-2911.162892,-2812.782580,13619.789333
613.777263,-3524.039291,-3034.844362,13989.892304
613.777579,-3524.039291,-2516.700203,13249.686362
613.777894,-2757.943793,-1998.556043,12805.562797
613.778210,-1915.238745,-1036.288319,11325.150913
613.778526,0.000000,-0.000000,9474.636058
613.778841,2068.457845,740.205942,8142.265362
613.779157,2834.553343,1480.411884,5699.585753
613.779473,3447.429741,1776.494261,5107.421000
613.779789,3907.087040,2072.576638,4737.318029
613.780104,3753.867940,962.267725,5625.565159
613.780420,3370.820191,-0.000000,6513.812290
613.780736,1608.800546,-962.267725,7624.121203
613.781051,536.266849,-1998.556043,9400.615463
613.781367,-1072.533697,-2664.741391,10807.006753
613.781683,-2145.067394,-3627.009116,11991.336260
613.781999,-2834.553343,-4071.132681,12953.603985
613.782314,-2987.772442,-4441.235652,13249.686362
613.782630,-3064.381992,-3627.009116,12657.521608
613.782946,-2681.334243,-3108.864956,12361.439231
613.783261,-1149.143247,-2294.638420,10955.047942
613.783577,306.438199,-814.226536,9918.759623
613.783893,1762.019645,-0.000000,7624.121203
613.784209,2987.772442,1258.350101,5995.668130
613.784524,4060.306139,1628.453072,4811.338623
613.784840,4213.525239,1702.473667,4737.318029
613.785156,4290.134789,592.164754,5551.544565
613.785471,2911.162892,-296.082377,6587.832884
613.785787,1915.238745,-1258.350101,7476.080014
613.786103,153.219100,-2220.617826,9548.656652
613.786419,-995.924147,-3034.844362,11251.130318
613.786734,-2451.505594,-3923.091493,12657.521608
613.787050,-3064.381992,-3849.070898,13619.789333
613.787366,-3524.039291,-3552.988522,13545.768739
613.787681,-3370.820191,-2960.823768,12805.562797
613.787997,-1685.410096,-1924.535449,12509.480420
613.788313,-919.314598,-962.267725,11029.068536
613.788629,689.485948,-0.000000,9474.636058
613.788944,2374.896044,1406.391290,7402.059420
613.789260,3370.820191,2220.617826,5921.647536
613.789576,4673.182538,2664.741391,5107.421000
613.789891,4519.963438,2368.659014,4811.338623
613.790207,3830.477490,1776.494261,5625.565159
613.790523,2757.943793,1110.308913,6735.874072
613.790839,1455.581446,-0.000000,8512.368333
613.791154,0.000000,-1258.350101,9992.780217
613.791470,-2068.457845,-1850.514855,11769.274478
613.791786,-2681.334243,-2368.659014,13027.624579
613.792101,-3370.820191,-2812.782580,13841.851115
613.792417,-3830.477490,-2590.720797,13767.830521
613.792733,-3447.429741,-1850.514855,13323.706956
613.793049,-2681.334243,-1332.370696,12583.501014
613.793364,-919.314598,-0.000000,10881.027347
613.793680,612.876398,1480.411884,9252.574275
613.793996,2681.334243,2664.741391,7254.018232
613.794311,3907.087040,3552.988522,5847.626942
613.794627,4903.011187,4219.173869,4515.256246
613.794943,4749.792088,4515.256246,4811.338623
613.795259,4519.963438,3256.906145,5773.606348
613.795574,4213.525239,2294.638420,6513.812290
613.795890,2374.896044,1406.391290,8142.265362
613.796206,383.047749,-0.000000,9474.636058
613.796521,-1072.533697,-962.267725,11843.295072
613.796837,-2604.724693,-1776.494261,13027.624579
613.797153,-3217.601092,-2368.659014,14359.995275
613.797469,-3830.477490,-2294.638420,14434.015869
613.797784,-3907.087040,-1258.350101,13693.809927
613.798100,-3064.381992,-666.185348,13101.645173
613.798416,-1608.800546,148.041188,11769.274478
613.798731,76.609550,1702.473667,9696.697840
613.799047,1915.238745,2590.720797,7698.141797
613.799363,2987.772442,3034.844362,6217.729913
613.799679,4213.525239,3923.091493,5551.544565
613.799994,4290.134789,3404.947333,5329.482782
613.800310,4366.744339,2590.720797,5847.626942
613.800626,3677.258390,2072.576638,6735.874072
613.800941,2374.896044,592.164754,8290.306550
613.801257,689.485948,-148.041188,9622.677246
613.801573,-689.485948,-1702.473667,10732.986159
613.801889,-1838.629195,-1998.556043,12657.521608
613.802204,-2451.505594,-2590.720797,13471.748144
613.802520,-3064.381992,-2960.823768,13693.809927
613.802836,-3064.381992,-2442.679609,13175.665768
613.803151,-2221.676944,-2220.617826,12879.583391
613.803467,-1072.533697,-1480.411884,11547.212695
613.803783,153.219100,-296.082377,9770.718434
613.804099,1915.238745,1036.288319,7772.162391
613.804414,2987.772442,1776.494261,6291.750507
613.804730,3830.477490,2294.638420,5181.441594
613.805046,4443.353888,2442.679609,4811.338623
613.805362,4443.353888,2072.576638,5403.503377
613.805677,3370.820191,962.267725,6587.832884
613.805993,2374.896044,-0.000000,7994.224174
613.806309,919.314598,-1332.370696,8882.471304
613.806624,-689.485948,-2368.659014,10584.944971
613.806940,-1991.848295,-3404.947333,12435.459826
613.807256,-2757.943793,-3997.112087,13175.665768
613.807572,-3907.087040,-3997.112087,13545.768739
613.807887,-3600.648841,-3108.864956,13249.686362
613.808203,-2987.772442,-2294.638420,12287.418637
613.808519,-1608.800546,-1998.556043,10955.047942
613.808834,-306.438199,-222.061783,9252.574275
613.809150,1532.190996,592.164754,8142.265362
613.809466,2451.505594,1184.329507,5551.544565
613.809782,3370.820191,1332.370696,5255.462188
613.810097,3447.429741,1554.432478,5329.482782
613.810413,3677.258390,888.247130,6217.729913
613.810729,2834.553343,-0.000000,6291.750507
613.811044,1225.752797,-740.205942,7920.203579
613.811360,76.609550,-1554.432478,9548.656652
613.811676,-1302.362347,-2442.679609,11103.089130
613.811992,-2221.676944,-3108.864956,12287.418637
613.812307,-2528.115143,-3478.967927,13249.686362
613.812623,-3064.381992,-3627.009116,13175.665768
613.812939,-2834.553343,-2812.782580,12953.603985
613.813254,-2145.067394,-1998.556043,12509.480420
613.813570,-612.876398,-1036.288319,10807.006753
613.813886,383.047749,-148.041188,9178.553681
613.814202,1991.848295,1184.329507,7846.182985
613.814517,3217.601092,2294.638420,5921.647536
613.814833,4213.525239,2664.741391,5107.421000
613.815149,4749.792088,2664.741391,5033.400406
613.815464,4366.744339,2368.659014,5625.565159
613.815780,3447.429741,1258.350101,6735.874072
613.816096,2068.457845,-0.000000,7698.141797
613.816412,536.266849,-888.247130,9474.636058
613.816727,-919.314598,-1480.411884,11621.233289
613.817043,-2221.676944,-2368.659014,12583.501014
613.817359,-2987.772442,-3034.844362,13841.851115
613.817674,-3217.601092,-2590.720797,13915.871710
613.817990,-3064.381992,-1702.473667,13101.645173
613.818306,-2451.505594,-666.185348,12213.398043
613.818622,-766.095498,444.123565,10807.006753
613.818937,842.705048,1702.473667,9474.636058
613.819253,1991.848295,2812.782580,7328.038826
613.819569,3140.991542,3330.926739,5921.647536
613.819884,4060.306139,3627.009116,5847.626942
613.820200,4366.744339,3404.947333,5477.523971
613.820516,3983.696590,2738.761985,6143.709319
613.820832,3217.601092,1998.556043,6883.915261
613.821147,1762.019645,740.205942,8586.388927
613.821463,153.219100,-296.082377,9844.739029
613.821779,-1072.533697,-962.267725,11325.150913
613.822094,-2221.676944,-1554.432478,12805.562797
613.822410,-2834.553343,-2072.576638,13841.851115
613.822726,-3447.429741,-2368.659014,13693.809927
613.823042,-3294.210641,-1776.494261,13101.645173
613.823357,-2528.115143,-1258.350101,13027.624579
613.823673,-1225.752797,-222.061783,11251.130318
613.823989,459.657299,1036.288319,9770.718434
613.824304,2451.505594,2146.597232,7846.182985
613.824620,3217.601092,2664.741391,6513.812290
613.824936,4519.963438,3404.947333,5255.462188
613.825252,4673.182538,2960.823768,5181.441594
613.825567,4366.744339,2442.679609,6069.688724
613.825883,4136.915689,1332.370696,6513.812290
613.826199,2681.334243,444.123565,7846.182985
613.826514,1149.143247,-370.102971,9474.636058
613.826830,-153.219100,-1702.473667,11029.068536
613.827146,-1608.800546,-2590.720797,11917.315666
613.827462,-2451.505594,-3108.864956,13397.727550
613.827777,-3294.210641,-3404.947333,13989.892304
613.828093,-3217.601092,-2886.803174,13323.706956
613.828409,-2987.772442,-2516.700203,12731.542202
613.828724,-2145.067394,-1480.411884,11251.130318
613.829040,-536.266849,-592.164754,9844.739029
613.829356,842.705048,666.185348,8438.347739
613.829672,2068.457845,1332.370696,6439.791695
613.829987,2911.162892,1850.514855,5551.544565
613.830303,3217.601092,1258.350101,5773.606348
613.830619,3677.258390,1036.288319,6143.709319
613.830934,2834.553343,444.123565,6439.791695
613.831250,1915.238745,-592.164754,7624.121203
613.831566,766.095498,-1628.453072,9178.553681
613.831882,-383.047749,-2294.638420,10658.965565
613.832197,-1685.410096,-2960.823768,11917.315666
613.832513,-2068.457845,-3256.906145,12805.562797
613.832829,-2757.943793,-3627.009116,13027.624579
613.833144,-2451.505594,-2886.803174,12731.542202
613.833460,-2451.505594,-2368.659014,12361.439231
613.833776,-1608.800546,-1924.535449,10881.027347
613.834092,0.000000,-666.185348,9474.636058
613.834407,1072.533697,518.144159,7698.141797
613.834723,2374.896044,814.226536,6513.812290
613.835039,3217.601092,1332.370696,5625.565159
613.835354,3370.820191,1480.411884,5477.523971
613.835670,3524.039291,888.247130,5995.668130
613.835986,3217.601092,370.102971,6365.771101
613.836302,1838.629195,-296.082377,7550.100608
613.836617,689.485948,-1184.329507,9252.574275
613.836933,-229.828649,-2294.638420,10510.924376
613.837249,-1455.581446,-3182.885551,11695.253884
613.837564,-2298.286494,-3478.967927,12879.583391
613.837880,-2528.115143,-3478.967927,13249.686362
613.838196,-2604.724693,-2886.803174,13027.624579
613.838512,-2221.676944,-2072.576638,12139.377449
613.838827,-1225.752797,-962.267725,11103.089130
613.839143,153.219100,-74.020594,9400.615463
613.839459,995.924147,1036.288319,7698.141797
613.839775,2145.067394,1480.411884,6587.832884
613.840090,3140.991542,2220.617826,5551.544565
613.840406,3370.820191,2368.659014,5699.585753
613.840722,3294.210641,1628.453072,6439.791695
613.841037,2528.115143,1110.308913,6883.915261
613.841353,1455.581446,-0.000000,8142.265362
613.841669,536.266849,-1036.288319,9474.636058
613.841985,-842.705048,-1924.535449,11251.130318
613.842300,-1608.800546,-2516.700203,12065.356855
613.842616,-2298.286494,-2664.741391,13175.665768
613.842932,-2604.724693,-2516.700203,13397.727550
613.843247,-2451.505594,-1332.370696,13027.624579
613.843563,-1838.629195,-814.226536,12361.439231
613.843879,-689.485948,-0.000000,11103.089130
613.844195,766.095498,1702.473667,9326.594869
613.844510,1762.019645,2886.803174,7772.162391
613.844826,2987.772442,3775.050304,6513.812290
613.845142,3600.648841,3849.070898,5625.565159
613.845457,4136.915689,4145.153275,5477.523971
613.845773,4136.915689,3552.988522,5995.668130
613.846089,3447.429741,2664.741391,7031.956449
613.846405,2451.505594,1628.453072,8068.244768
613.846720,1378.971896,888.247130,9474.636058
613.847036,-383.047749,-222.061783,11251.130318
613.847352,-1302.362347,-962.267725,12287.418637
613.847667,-2221.676944,-962.267725,13619.789333
613.847983,-2604.724693,-1110.308913,13323.706956
613.848299,-2834.553343,-740.205942,13175.665768
613.848615,-2374.896044,-74.020594,12879.583391
613.848930,-1608.800546,370.102971,11621.233289
613.849246,0.000000,1480.411884,10214.842000
613.849562,1072.533697,2516.700203,8512.368333
613.849877,1685.410096,3256.906145,7328.038826
613.850193,3447.429741,3478.967927,6365.771101
613.850509,3677.258390,3701.029710,5921.647536
613.850825,3600.648841,3182.885551,5921.647536
613.851140,3217.601092,2368.659014,6735.874072
613.851456,2298.286494,814.226536,7920.203579
613.851772,1302.362347,296.082377,9252.574275
613.852087,-229.828649,-962.267725,10658.965565
613.852403,-1149.143247,-2220.617826,11843.295072
613.852719,-2451.505594,-2886.803174,13323.706956
613.853035,-2834.553343,-3330.926739,14063.912898
613.853350,-3140.991542,-2738.761985,13693.809927
613.853666,-2834.553343,-1702.473667,12953.603985
613.853982,-1608.800546,-1036.288319,11621.233289
613.854297,-689.485948,-0.000000,10436.903782
613.854613,612.876398,1628.453072,8216.285956
613.854929,1991.848295,1628.453072,6513.812290
613.855245,3294.210641,1850.514855,6069.688724
613.855560,3524.039291,1998.556043,5403.503377
613.855876,3447.429741,666.185348,6217.729913
613.856192,3370.820191,222.061783,6735.874072
613.856507,2221.676944,-814.226536,7402.059420
613.856823,1225.752797,-1628.453072,9104.533087
613.857139,76.609550,-2442.679609,10214.842000
613.857454,-1532.190996,-3478.967927,11621.233289
613.857770,-2145.067394,-3923.091493,13027.624579
613.858086,-2451.505594,-4145.153275,13175.665768
613.858401,-3370.820191,-4071.132681,12805.562797
613.858717,-2604.724693,-3034.844362,12435.459826
613.859033,-1838.629195,-2294.638420,10658.965565
613.859349,-229.828649,-1036.288319,9696.697840
613.859664,766.095498,-148.041188,7698.141797
613.859980,1838.629195,666.185348,6365.771101
613.860296,2834.553343,962.267725,5847.626942
613.860611,3600.648841,962.267725,5255.462188
613.860927,3064.381992,962.267725,5551.544565
613.861243,2911.162892,-74.020594,6143.709319
613.861558,2145.067394,-814.226536,7254.018232
613.861874,383.047749,-1702.473667,8512.368333
613.862190,-459.657299,-2664.741391,10362.883188
613.862505,-1532.190996,-3552.988522,11843.295072
613.862821,-2528.115143,-3997.112087,12657.521608
613.863137,-2834.553343,-3627.009116,13101.645173
613.863452,-2451.505594,-2812.782580,12287.418637
613.863768,-1915.238745,-1702.473667,12435.459826
613.864084,-766.095498,-740.205942,11029.068536
613.864399,306.438199,444.123565,9252.574275
613.864715,2374.896044,1406.391290,7846.182985
613.865031,3064.381992,2368.659014,6143.709319
613.865347,4060.306139,2886.803174,4811.338623
613.865662,4519.963438,3182.885551,4959.379811
613.865978,4443.353888,2368.659014,5699.585753
613.866294,3447.429741,1406.391290,6365.771101
613.866609,2374.896044,370.102971,7772.162391
613.866925,842.705048,-370.102971,9252.574275
613.867241,-383.047749,-1332.370696,11103.089130
613.867556,-1685.410096,-2072.576638,12879.583391
613.867872,-2834.553343,-2590.720797,13619.789333
613.868188,-3217.601092,-2146.597232,14137.933492
613.868503,-2911.162892,-1332.370696,13545.768739
613.868819,-2451.505594,-444.123565,12435.459826
613.869135,-1378.971896,370.102971,11621.233289
613.869450,229.828649,1924.535449,9622.677246
613.869766,1838.629195,2886.803174,8142.265362
613.870082,2681.334243,3552.988522,6883.915261
613.870397,3830.477490,3849.070898,5699.585753
613.870713,4060.306139,3627.009116,5551.544565
613.871029,3677.258390,3478.967927,6587.832884
613.871344,3064.381992,2368.659014,7105.977043
613.871660,2145.067394,1110.308913,8734.430116
613.871976,383.047749,518.144159,10140.821405
613.872292,-612.876398,-370.102971,11325.150913
613.872607,-1685.410096,-1184.329507,12953.603985
613.872923,-2681.334243,-1554.432478,13767.830521
613.873239,-2911.162892,-1332.370696,13915.871710
613.873554,-2911.162892,-666.185348,13545.768739
613.873870,-2298.286494,-888.247130,12731.542202
613.874186,-1608.800546,222.061783,11843.295072
613.874501,0.000000,1184.329507,10066.800811
613.874817,1685.410096,1776.494261,8438.347739
613.875133,2911.162892,2812.782580,7105.977043
613.875448,3753.867940,3034.844362,5847.626942
613.875764,4136.915689,3330.926739,5551.544565
613.876080,3983.696590,2886.803174,5847.626942
613.876395,3370.820191,2072.576638,6809.894666
613.876711,2298.286494,814.226536,7698.141797
613.877027,612.876398,-296.082377,9104.533087
613.877342,-842.705048,-1776.494261,10881.027347
613.877658,-1608.800546,-2516.700203,12509.480420
613.877974,-2451.505594,-3256.906145,13101.645173
613.878289,-3140.991542,-3256.906145,13471.748144
613.878605,-2834.553343,-2590.720797,12731.542202
613.878921,-2451.505594,-2072.576638,12287.418637
613.879237,-1762.019645,-1480.411884,11029.068536
613.879552,-153.219100,-0.000000,9474.636058
613.879868,1455.581446,222.061783,7772.162391
613.880184,2451.505594,1554.432478,6883.915261
613.880499,2911.162892,1406.391290,5551.544565
613.880815,3217.601092,1480.411884,5181.441594
613.881131,3447.429741,814.226536,5847.626942
613.881446,2757.943793,-222.061783,6661.853478
613.881762,1762.019645,-740.205942,7994.224174
613.882078,536.266849,-1850.514855,9030.512492
613.882393,-536.266849,-2738.761985,10510.924376
613.882709,-1455.581446,-3552.988522,11843.295072
613.883025,-2068.457845,-4219.173869,12731.542202
613.883340,-2681.334243,-4071.132681,12879.583391
613.883656,-2681.334243,-3330.926739,12435.459826
613.883972,-2374.896044,-2812.782580,11843.295072
613.884287,-995.924147,-2220.617826,10732.986159
613.884603,383.047749,-1332.370696,9548.656652
613.884919,1762.019645,-74.020594,7624.121203
613.885234,2604.724693,962.267725,6069.688724
613.885550,3447.429741,1110.308913,5477.523971
613.885866,4060.306139,1258.350101,5255.462188
613.886182,3524.039291,814.226536,6143.709319
613.886497,2834.553343,-148.041188,6735.874072
613.886813,1608.800546,-1110.308913,7846.182985
613.887129,229.828649,-2220.617826,9400.615463
613.887444,-612.876398,-3182.885551,11103.089130
613.887760,-1991.848295,-4367.215058,12213.398043
613.888076,-2834.553343,-4367.215058,13397.727550
613.888391,-3217.601092,-3923.091493,13471.748144
613.888707,-2834.553343,-3034.844362,12509.480420
613.889023,-2298.286494,-2146.597232,12065.356855
613.889338,-1072.533697,-592.164754,11103.089130
613.889654,689.485948,222.061783,9104.533087
613.889970,1532.190996,1480.411884,7476.080014
613.890285,2451.505594,1998.556043,6069.688724
613.890601,3447.429741,2664.741391,5625.565159
613.890917,3830.477490,2146.597232,5403.503377
613.891232,3370.820191,1776.494261,6513.812290
613.891548,2528.115143,962.267725,7031.956449
613.891864,1455.581446,-0.000000,8512.368333
613.892180,0.000000,-740.205942,10066.800811
613.892495,-1302.362347,-1258.350101,11251.130318
613.892811,-2145.067394,-1850.514855,12435.459826
613.893127,-2681.334243,-2220.617826,13545.768739
613.893442,-3140.991542,-2220.617826,13767.830521
613.893758,-2681.334243,-1036.288319,13323.706956
613.894074,-1991.848295,-518.144159,12361.439231
613.894389,-842.705048,444.123565,11251.130318
613.894705,689.485948,1924.535449,9622.677246
613.895021,2374.896044,2516.700203,7846.182985
613.895336,3294.210641,3552.988522,6217.729913
613.895652,4213.525239,4219.173869,5329.482782
613.895968,4519.963438,3775.050304,5033.400406
613.896283,3907.087040,3330.926739,6217.729913
613.896599,3064.381992,2442.679609,6735.874072
613.896915,2068.457845,1332.370696,8290.306550
613.897230,612.876398,-0.000000,9696.697840
613.897546,-919.314598,-962.267725,11325.150913
613.897862,-1685.410096,-2220.617826,13175.665768
613.898177,-2604.724693,-2368.659014,13841.851115
613.898493,-3140.991542,-1998.556043,14137.933492
613.898809,-3217.601092,-1480.411884,13323.706956
613.899125,-2068.457845,-962.267725,12509.480420
613.899440,-1302.362347,-0.000000,11399.171507
613.899756,-306.438199,1184.329507,9696.697840
613.900072,1608.800546,2220.617826,7846.182985
613.900387,2757.943793,2886.803174,6661.853478
613.900703,3524.039291,3404.947333,5773.606348
613.901019,3524.039291,2960.823768,5773.606348
613.901334,3983.696590,2442.679609,6291.750507
613.901650,3294.210641,1702.473667,6957.935855
613.901966,2068.457845,592.164754,8142.265362
613.902281,689.485948,-148.041188,9474.636058
613.902597,76.609550,-814.226536,10955.047942
613.902913,-1455.581446,-1554.432478,12065.356855
613.903228,-2068.457845,-2220.617826,13027.624579
613.903544,-2451.505594,-2368.659014,13249.686362
613.903860,-2604.724693,-2220.617826,13027.624579
613.904175,-2068.457845,-1702.473667,12657.521608
613.904491,-1302.362347,-1332.370696,11251.130318
613.904807,-229.828649,-148.041188,9918.759623
613.905122,1455.581446,814.226536,8216.285956
613.905438,2681.334243,1554.432478,6735.874072
613.905754,3370.820191,2516.700203,5477.523971
613.906070,3753.867940,2368.659014,5255.462188
613.906385,3983.696590,1554.432478,5551.544565
613.906701,2987.772442,666.185348,6439.791695
613.907017,2451.505594,-296.082377,7624.121203
613.907332,536.266849,-1702.473667,8882.471304
613.907648,-842.705048,-2664.741391,10732.986159
613.907964,-1838.629195,-3478.967927,12213.398043
613.908279,-2681.334243,-4071.132681,13323.706956
613.908595,-3064.381992,-3997.112087,13397.727550
613.908911,-3217.601092,-3182.885551,12731.542202
613.909226,-2681.334243,-2516.700203,12139.377449
613.909542,-1378.971896,-1332.370696,10584.944971
613.909858,0.000000,-0.000000,9252.574275
613.910173,1225.752797,296.082377,7179.997637
613.910489,2451.505594,1480.411884,5847.626942
613.910805,3217.601092,1554.432478,5181.441594
613.911120,3447.429741,1332.370696,5107.421000
613.911436,3447.429741,518.144159,5921.647536
613.911752,2681.334243,-740.205942,6661.853478
613.912067,1302.362347,-888.247130,7994.224174
613.912383,76.609550,-1776.494261,9548.656652
613.912699,-1455.581446,-2590.720797,11473.192101
613.913015,-2451.505594,-3034.844362,12435.459826
613.913330,-2757.943793,-3627.009116,13323.706956
613.913646,-2911.162892,-3404.947333,13397.727550
613.913962,-2451.505594,-2516.700203,12879.583391
613.914277,-1838.629195,-1850.514855,12287.418637
