#time,accel_x,accel_y,accel_z
1185.764489,306.438199,-222.061783,9400.615463
1185.764805,306.438199,-222.061783,9474.636058
1185.765121,306.438199,-222.061783,9400.615463
1185.765437,612.876398,-518.144159,9326.594869
1185.765753,459.657299,-444.123565,9474.636058
1185.766069,612.876398,-222.061783,9326.594869
1185.766385,229.828649,-444.123565,9252.574275
1185.766701,459.657299,-148.041188,9400.615463
1185.767017,459.657299,-0.000000,9548.656652
1185.767333,536.266849,-518.144159,9326.594869
1185.767649,306.438199,-222.061783,9474.636058
1185.767965,383.047749,-148.041188,9548.656652
1185.768281,383.047749,-74.020594,9548.656652
1185.768597,536.266849,-0.000000,9474.636058
1185.768913,459.657299,-296.082377,9622.677246
1185.769229,689.485948,-74.020594,9252.574275
1185.769545,229.828649,-74.020594,9474.636058
1185.769861,383.047749,-518.144159,9252.574275
1185.770176,459.657299,-148.041188,9252.574275
1185.770492,306.438199,-74.020594,9474.636058
1185.770808,459.657299,-296.082377,9474.636058
1185.771124,229.828649,-148.041188,9474.636058
1185.771440,229.828649,-74.020594,9696.697840
1185.771756,229.828649,-296.082377,9622.677246
1185.772072,459.657299,-370.102971,9548.656652
1185.772388,459.657299,-370.102971,9548.656652
1185.772704,76.609550,-222.061783,9474.636058
1185.773020,612.876398,-444.123565,9474.636058
1185.773336,459.657299,-148.041188,9400.615463
1185.773652,306.438199,-74.020594,9474.636058
1185.773968,383.047749,-370.102971,9474.636058
1185.774284,612.876398,-148.041188,9474.636058
1185.774600,229.828649,-0.000000,9326.594869
1185.774916,229.828649,-0.000000,9400.615463
1185.775232,383.047749,296.082377,9474.636058
1185.775548,459.657299,296.082377,9400.615463
1185.775863,995.924147,370.102971,9474.636058
1185.776179,612.876398,370.102971,9030.512492
1185.776495,459.657299,296.082377,9104.533087
1185.776811,766.095498,370.102971,9326.594869
1185.777127,766.095498,-0.000000,9474.636058
1185.777443,689.485948,444.123565,9400.615463
1185.777759,689.485948,740.205942,9474.636058
1185.778075,383.047749,518.144159,9326.594869
1185.778391,383.047749,444.123565,9622.677246
1185.778707,306.438199,666.185348,9474.636058
1185.779023,0.000000,814.226536,9326.594869
1185.779339,306.438199,888.247130,9474.636058
1185.779655,76.609550,592.164754,9400.615463
1185.779971,229.828649,814.226536,9252.574275
1185.780287,0.000000,740.205942,9326.594869
1185.780603,0.000000,888.247130,9252.574275
1185.780919,-306.438199,962.267725,9326.594869
1185.781235,-153.219100,1110.308913,9252.574275
1185.781550,-459.657299,1258.350101,9326.594869
1185.781866,-842.705048,1406.391290,9178.553681
1185.782182,-459.657299,1110.308913,9252.574275
1185.782498,-1302.362347,1258.350101,9104.533087
1185.782814,-842.705048,1406.391290,9400.615463
1185.783130,-1532.190996,1258.350101,9548.656652
1185.783446,-1762.019645,1258.350101,9622.677246
1185.783762,-1991.848295,1554.432478,9622.677246
1185.784078,-2221.676944,1184.329507,9992.780217
1185.784394,-2298.286494,1332.370696,9622.677246
1185.784710,-2068.457845,1628.453072,9918.759623
1185.785026,-1915.238745,1554.432478,9548.656652
1185.785342,-2145.067394,1628.453072,9474.636058
1185.785658,-1225.752797,1628.453072,9178.553681
1185.785974,-1455.581446,1850.514855,9326.594869
1185.786290,-1225.752797,1554.432478,9400.615463
1185.786606,-1608.800546,1702.473667,9474.636058
1185.786922,-1225.752797,1554.432478,9622.677246
1185.787238,-1378.971896,1480.411884,9696.697840
1185.787553,-1225.752797,1850.514855,9548.656652
1185.787869,-1378.971896,2072.576638,9548.656652
1185.788185,-1149.143247,2072.576638,9400.615463
1185.788501,-842.705048,2294.638420,9548.656652
1185.788817,-1685.410096,1924.535449,9326.594869
1185.789133,-1302.362347,2368.659014,9400.615463
1185.789449,-1532.190996,2072.576638,9252.574275
1185.789765,-1608.800546,1702.473667,9548.656652
1185.790081,-1608.800546,1258.350101,9770.718434
1185.790397,-1991.848295,1036.288319,9770.718434
1185.790713,-2374.896044,1406.391290,9992.780217
1185.791029,-2145.067394,1258.350101,9696.697840
1185.791345,-2221.676944,1110.308913,9844.739029
1185.791661,-1915.238745,1554.432478,9696.697840
1185.791977,-2221.676944,1480.411884,9696.697840
1185.792293,-1838.629195,1480.411884,9696.697840
1185.792609,-2068.457845,1258.350101,9622.677246
1185.792925,-1915.238745,1628.453072,9548.656652
1185.793240,-1762.019645,1184.329507,9548.656652
1185.793556,-1685.410096,1554.432478,9252.574275
1185.793872,-1991.848295,1924.535449,9326.594869
1185.794188,-2068.457845,2146.597232,8956.491898
1185.794504,-2374.896044,2442.679609,8882.471304
1185.794820,-2451.505594,2072.576638,9178.553681
1185.795136,-2528.115143,2072.576638,9030.512492
1185.795452,-2604.724693,1850.514855,9400.615463
1185.795768,-2911.162892,1184.329507,9622.677246
1185.796084,-2911.162892,666.185348,9696.697840
1185.796400,-2604.724693,592.164754,10140.821405
1185.796716,-2374.896044,-0.000000,10436.903782
1185.797032,-2068.457845,666.185348,10066.800811
1185.797348,-1608.800546,962.267725,9992.780217
1185.797664,-766.095498,1184.329507,9548.656652
1185.797980,-229.828649,2146.597232,9252.574275
1185.798296,0.000000,2516.700203,8808.450710
1185.798612,229.828649,3256.906145,8142.265362
1185.798927,306.438199,2664.741391,7772.162391
1185.799243,536.266849,3182.885551,7994.224174
1185.799559,306.438199,3034.844362,8068.244768
1185.799875,-459.657299,2812.782580,7994.224174
1185.800191,-1302.362347,2664.741391,8586.388927
1185.800507,-1991.848295,2146.597232,9030.512492
1185.800823,-2528.115143,1628.453072,9770.718434
1185.801139,-3217.601092,1332.370696,10140.821405
1185.801455,-3907.087040,666.185348,10510.924376
1185.801771,-4213.525239,592.164754,11325.150913
1185.802087,-3447.429741,-74.020594,11251.130318
1185.802403,-2911.162892,-0.000000,10807.006753
1185.802719,-2298.286494,222.061783,10288.862594
1185.803035,-1378.971896,740.205942,9770.718434
1185.803351,-383.047749,1406.391290,9400.615463
1185.803667,612.876398,2072.576638,8660.409521
1185.803983,919.314598,2960.823768,8068.244768
1185.804299,995.924147,3701.029710,7994.224174
1185.804615,1072.533697,4367.215058,7846.182985
1185.804930,612.876398,4737.318029,7624.121203
1185.805246,-383.047749,4737.318029,7328.038826
1185.805562,-1302.362347,3849.070898,8068.244768
1185.805878,-2298.286494,2960.823768,9178.553681
1185.806194,-3447.429741,1776.494261,10140.821405
1185.806510,-4673.182538,148.041188,11177.109724
1185.806826,-4979.620737,-888.247130,12361.439231
1185.807142,-5132.839837,-1406.391290,12805.562797
1185.807458,-5056.230287,-1554.432478,12583.501014
1185.807774,-4366.744339,-962.267725,12435.459826
1185.808090,-3370.820191,-222.061783,11621.233289
1185.808406,-1608.800546,1332.370696,10510.924376
1185.808722,-612.876398,2664.741391,8882.471304
1185.809038,1149.143247,4071.132681,7550.100608
1185.809354,1762.019645,5255.462188,6661.853478
1185.809670,1532.190996,5995.668130,5921.647536
1185.809986,1149.143247,5699.585753,6217.729913
1185.810302,612.876398,5329.482782,7105.977043
1185.810617,-459.657299,3701.029710,8216.285956
1185.810933,-2221.676944,1924.535449,9178.553681
1185.811249,-3524.039291,148.041188,10807.006753
1185.811565,-4596.572988,-1258.350101,11917.315666
1185.811881,-4673.182538,-1702.473667,12805.562797
1185.812197,-4673.182538,-888.247130,12435.459826
1185.812513,-4673.182538,-296.082377,11695.253884
1185.812829,-3370.820191,444.123565,10807.006753
1185.813145,-2757.943793,1702.473667,10288.862594
1185.813461,-1762.019645,2886.803174,8808.450710
1185.813777,-689.485948,3923.091493,7698.141797
1185.814093,153.219100,4219.173869,7328.038826
1185.814409,229.828649,3849.070898,7476.080014
1185.814725,766.095498,3108.864956,7698.141797
1185.815041,766.095498,2368.659014,8290.306550
1185.815357,306.438199,1776.494261,8512.368333
1185.815673,-612.876398,1628.453072,8882.471304
1185.815989,-1302.362347,1554.432478,9326.594869
1185.816304,-1991.848295,1406.391290,9770.718434
1185.816620,-2374.896044,1258.350101,10362.883188
1185.816936,-3140.991542,1702.473667,10288.862594
1185.817252,-3370.820191,1332.370696,10362.883188
1185.817568,-3830.477490,518.144159,9844.739029
1185.817884,-3217.601092,-222.061783,10362.883188
1185.818200,-2987.772442,296.082377,9992.780217
1185.818516,-2604.724693,1036.288319,9252.574275
1185.818832,-2068.457845,1258.350101,9252.574275
1185.819148,-1838.629195,1628.453072,8808.450710
1185.819464,-1072.533697,2220.617826,8956.491898
1185.819780,-1149.143247,2664.741391,9104.533087
1185.820096,-1149.143247,2590.720797,9474.636058
1185.820412,-536.266849,2294.638420,9548.656652
1185.820728,-536.266849,1850.514855,8882.471304
1185.821044,-536.266849,1628.453072,8882.471304
1185.821360,-536.266849,1184.329507,9326.594869
1185.821676,-536.266849,888.247130,9474.636058
1185.821992,-919.314598,1406.391290,9178.553681
1185.822307,-1378.971896,1924.535449,9104.533087
1185.822623,-1532.190996,2146.597232,9992.780217
1185.822939,-1302.362347,2590.720797,9696.697840
1185.823255,-1378.971896,3034.844362,9622.677246
1185.823571,-1838.629195,3552.988522,8808.450710
1185.823887,-1302.362347,2886.803174,8808.450710
1185.824203,-1302.362347,2590.720797,8586.388927
1185.824519,-1838.629195,2072.576638,9252.574275
1185.824835,-2451.505594,1036.288319,10066.800811
1185.825151,-2451.505594,444.123565,10732.986159
1185.825467,-2681.334243,1110.308913,10881.027347
1185.825782,-2451.505594,888.247130,10584.944971
1185.826098,-2068.457845,888.247130,10362.883188
1185.826414,-1302.362347,962.267725,9844.739029
1185.826730,-919.314598,1998.556043,9252.574275
1185.827046,0.000000,2294.638420,9326.594869
1185.827362,383.047749,2442.679609,8734.430116
1185.827677,612.876398,3552.988522,7846.182985
1185.827993,229.828649,3627.009116,7698.141797
1185.828309,383.047749,3256.906145,7550.100608
1185.828625,-536.266849,3330.926739,8512.368333
1185.828941,-1991.848295,3034.844362,8956.491898
1185.829256,-2145.067394,2368.659014,9326.594869
1185.829572,-3294.210641,1924.535449,10140.821405
1185.829888,-3830.477490,1554.432478,10732.986159
1185.830204,-4136.915689,666.185348,10362.883188
1185.830520,-4673.182538,296.082377,10584.944971
1185.830836,-5209.449386,148.041188,11547.212695
1185.831151,-4213.525239,-222.061783,11251.130318
1185.831467,-3370.820191,-74.020594,11029.068536
1185.831783,-3294.210641,592.164754,11325.150913
1185.832099,-1991.848295,740.205942,9770.718434
1185.832415,-1149.143247,666.185348,8660.409521
1185.832731,-306.438199,1850.514855,9178.553681
1185.833046,689.485948,3330.926739,7994.224174
1185.833362,1608.800546,3923.091493,7254.018232
1185.833678,1378.971896,4293.194464,7402.059420
1185.833994,536.266849,4219.173869,7328.038826
1185.834310,383.047749,3404.947333,7624.121203
1185.834625,-766.095498,2294.638420,8512.368333
1185.834941,-1608.800546,1554.432478,10288.862594
1185.835257,-1685.410096,370.102971,10881.027347
1185.835573,-2374.896044,148.041188,10955.047942
1185.835889,-3370.820191,-0.000000,10881.027347
1185.836205,-3830.477490,-370.102971,10436.903782
1185.836520,-3753.867940,-0.000000,11251.130318
1185.836836,-3140.991542,518.144159,10732.986159
1185.837152,-2145.067394,1036.288319,10288.862594
1185.837468,-1302.362347,1702.473667,9400.615463
1185.837784,-1302.362347,1554.432478,8956.491898
1185.838100,-536.266849,1776.494261,8438.347739
1185.838415,0.000000,1628.453072,7846.182985
1185.838731,153.219100,2294.638420,8438.347739
1185.839047,153.219100,2220.617826,9104.533087
1185.839363,0.000000,1702.473667,8586.388927
1185.839679,-766.095498,1554.432478,9326.594869
1185.839995,-1072.533697,888.247130,9178.553681
1185.840310,-919.314598,-0.000000,9548.656652
1185.840626,-1225.752797,1184.329507,9696.697840
1185.840942,-995.924147,1036.288319,9474.636058
1185.841258,-1455.581446,518.144159,9400.615463
1185.841574,-1915.238745,666.185348,9696.697840
1185.841889,-2451.505594,222.061783,10140.821405
1185.842205,-2068.457845,592.164754,9400.615463
1185.842521,-2374.896044,148.041188,9844.739029
1185.842837,-2298.286494,-444.123565,10214.842000
1185.843153,-2298.286494,222.061783,10510.924376
1185.843469,-2145.067394,-148.041188,10510.924376
1185.843784,-459.657299,962.267725,9252.574275
1185.844100,0.000000,1332.370696,8882.471304
1185.844416,229.828649,148.041188,9400.615463
1185.844732,766.095498,814.226536,9030.512492
1185.845048,1072.533697,296.082377,9252.574275
1185.845364,1838.629195,444.123565,9326.594869
1185.845679,2068.457845,1036.288319,8512.368333
1185.845995,1608.800546,1110.308913,8142.265362
1185.846311,1225.752797,1110.308913,8512.368333
1185.846627,229.828649,1628.453072,8808.450710
1185.846943,536.266849,1184.329507,9474.636058
1185.847259,766.095498,2146.597232,8956.491898
1185.847574,-459.657299,1776.494261,8956.491898
1185.847890,-1838.629195,1628.453072,9252.574275
1185.848206,-1915.238745,222.061783,10510.924376
1185.848522,-2298.286494,-1184.329507,11399.171507
1185.848838,-2221.676944,-148.041188,11917.315666
1185.849153,-2374.896044,-296.082377,9770.718434
1185.849469,-2834.553343,-370.102971,10288.862594
1185.849785,-2068.457845,-1110.308913,11029.068536
1185.850101,-459.657299,-1184.329507,10955.047942
1185.850417,612.876398,592.164754,10140.821405
1185.850733,919.314598,962.267725,8438.347739
1185.851048,1608.800546,814.226536,8586.388927
1185.851364,2374.896044,444.123565,8956.491898
1185.851680,3294.210641,592.164754,8808.450710
1185.851996,3217.601092,1776.494261,8734.430116
1185.852312,2221.676944,2442.679609,7920.203579
1185.852628,1072.533697,1998.556043,8142.265362
1185.852943,919.314598,1110.308913,8364.327145
1185.853259,689.485948,444.123565,9844.739029
1185.853575,0.000000,370.102971,10214.842000
1185.853891,-1532.190996,-444.123565,9622.677246
1185.854207,-2374.896044,-1702.473667,10658.965565
1185.854523,-2145.067394,-3034.844362,11843.295072
1185.854838,-1455.581446,-3108.864956,12287.418637
1185.855154,-842.705048,-2664.741391,11029.068536
1185.855470,-842.705048,-2220.617826,10510.924376
1185.855786,76.609550,-1702.473667,10288.862594
1185.856102,1302.362347,-814.226536,9178.553681
1185.856417,2757.943793,296.082377,8808.450710
1185.856733,3370.820191,1628.453072,8068.244768
1185.857049,3524.039291,2220.617826,6809.894666
1185.857365,3753.867940,2294.638420,6735.874072
1185.857681,3447.429741,962.267725,7550.100608
1185.857997,3524.039291,296.082377,8586.388927
1185.858312,2451.505594,-370.102971,9104.533087
1185.858628,1225.752797,-222.061783,8882.471304
1185.858944,76.609550,-1258.350101,9992.780217
1185.859260,-229.828649,-1628.453072,10881.027347
1185.859576,306.438199,-1110.308913,10584.944971
1185.859892,-536.266849,-444.123565,10214.842000
1185.860207,-1532.190996,-740.205942,10066.800811
1185.860523,-1378.971896,-666.185348,9474.636058
1185.860839,0.000000,-1036.288319,10362.883188
1185.861155,536.266849,1036.288319,9474.636058
1185.861471,306.438199,666.185348,8068.244768
1185.861787,0.000000,814.226536,7846.182985
1185.862102,153.219100,-518.144159,8734.430116
1185.862418,766.095498,-740.205942,9918.759623
1185.862734,1072.533697,-0.000000,9400.615463
1185.863050,229.828649,592.164754,8438.347739
1185.863366,76.609550,296.082377,9474.636058
1185.863681,306.438199,-592.164754,9548.656652
1185.863997,842.705048,-592.164754,9770.718434
1185.864313,306.438199,-444.123565,10140.821405
1185.864629,76.609550,740.205942,9104.533087
1185.864945,-229.828649,-1258.350101,9696.697840
1185.865261,459.657299,-1702.473667,10288.862594
1185.865576,76.609550,-814.226536,9326.594869
1185.865892,612.876398,-592.164754,9030.512492
1185.866208,0.000000,-222.061783,9622.677246
1185.866524,-766.095498,-370.102971,8956.491898
1185.866840,0.000000,-814.226536,10510.924376
1185.867156,306.438199,-370.102971,10140.821405
1185.867471,-229.828649,148.041188,9400.615463
1185.867787,-153.219100,-296.082377,9400.615463
1185.868103,-689.485948,-1628.453072,9770.718434
1185.868419,153.219100,-1702.473667,10436.903782
1185.868735,766.095498,-1110.308913,9474.636058
1185.869051,153.219100,-814.226536,9474.636058
1185.869366,-76.609550,-814.226536,9622.677246
1185.869682,536.266849,-666.185348,9474.636058
1185.869998,536.266849,-370.102971,9622.677246
1185.870314,919.314598,-0.000000,9622.677246
1185.870630,612.876398,592.164754,9030.512492
1185.870945,306.438199,296.082377,8808.450710
1185.871261,842.705048,518.144159,8956.491898
1185.871577,842.705048,-74.020594,9696.697840
1185.871893,612.876398,666.185348,9918.759623
1185.872209,306.438199,666.185348,8290.306550
1185.872525,-459.657299,518.144159,9622.677246
1185.872840,0.000000,-370.102971,10732.986159
1185.873156,1072.533697,-0.000000,10436.903782
1185.873472,536.266849,222.061783,8956.491898
1185.873788,306.438199,-0.000000,9474.636058
1185.874104,842.705048,-888.247130,10140.821405
1185.874420,1149.143247,-1406.391290,10214.842000
1185.874735,1762.019645,-0.000000,9696.697840
1185.875051,1608.800546,592.164754,8734.430116
1185.875367,1532.190996,592.164754,8512.368333
1185.875683,1072.533697,592.164754,9252.574275
1185.875999,1225.752797,148.041188,9770.718434
1185.876315,1378.971896,1110.308913,9252.574275
1185.876630,1149.143247,1184.329507,8438.347739
1185.876946,0.000000,1184.329507,8142.265362
1185.877262,153.219100,-592.164754,9992.780217
1185.877578,689.485948,-74.020594,9770.718434
1185.877894,383.047749,666.185348,9548.656652
1185.878209,0.000000,-370.102971,9770.718434
1185.878525,-1072.533697,-592.164754,9770.718434
1185.878841,-612.876398,-1110.308913,10362.883188
1185.879157,306.438199,-74.020594,10140.821405
1185.879473,612.876398,-0.000000,9622.677246
1185.879789,-153.219100,-0.000000,9474.636058
1185.880104,-306.438199,222.061783,9030.512492
1185.880420,229.828649,-0.000000,9474.636058
1185.880736,1072.533697,-0.000000,9400.615463
1185.881052,612.876398,1110.308913,8438.347739
1185.881368,0.000000,592.164754,8882.471304
1185.881684,-383.047749,148.041188,8956.491898
1185.881999,153.219100,-740.205942,9696.697840
1185.882315,76.609550,-814.226536,10362.883188
1185.882631,0.000000,-0.000000,10584.944971
1185.882947,-459.657299,-370.102971,9326.594869
1185.883263,0.000000,-444.123565,9770.718434
1185.883579,0.000000,-1110.308913,9696.697840
1185.883894,153.219100,-962.267725,9992.780217
1185.884210,383.047749,-370.102971,10362.883188
1185.884526,-153.219100,-518.144159,9252.574275
1185.884842,229.828649,-296.082377,9622.677246
1185.885158,1072.533697,-592.164754,9622.677246
1185.885473,842.705048,370.102971,8882.471304
1185.885789,689.485948,444.123565,8660.409521
1185.886105,229.828649,-0.000000,9252.574275
1185.886421,76.609550,-444.123565,9252.574275
1185.886737,76.609550,-592.164754,9474.636058
1185.887053,536.266849,296.082377,9844.739029
1185.887368,0.000000,-0.000000,9474.636058
1185.887684,-229.828649,-296.082377,9178.553681
1185.888000,0.000000,-1554.432478,9326.594869
1185.888316,0.000000,-1628.453072,10510.924376
1185.888632,766.095498,-592.164754,9992.780217
1185.888948,0.000000,-1110.308913,9844.739029
1185.889263,0.000000,-370.102971,9104.533087
1185.889579,612.876398,-740.205942,9104.533087
1185.889895,1225.752797,-0.000000,9326.594869
1185.890211,1915.238745,518.144159,9252.574275
1185.890527,689.485948,814.226536,8438.347739
1185.890843,766.095498,740.205942,8956.491898
1185.891158,842.705048,-74.020594,8660.409521
1185.891474,1608.800546,222.061783,9474.636058
1185.891790,842.705048,444.123565,9474.636058
1185.892106,-459.657299,148.041188,8660.409521
1185.892422,-153.219100,-296.082377,9030.512492
1185.892737,153.219100,-1184.329507,9918.759623
1185.893053,383.047749,-222.061783,10288.862594
1185.893369,0.000000,296.082377,9770.718434
1185.893685,-383.047749,-0.000000,9252.574275
1185.894001,-383.047749,-74.020594,9622.677246
1185.894317,153.219100,-592.164754,10288.862594
1185.894632,919.314598,-0.000000,9030.512492
1185.894948,153.219100,592.164754,8734.430116
1185.895264,-306.438199,-444.123565,9548.656652
1185.895580,306.438199,-740.205942,9474.636058
1185.895896,919.314598,-592.164754,9770.718434
1185.896212,995.924147,518.144159,9474.636058
1185.896527,383.047749,-0.000000,8660.409521
1185.896843,0.000000,-148.041188,9548.656652
1185.897159,689.485948,-1036.288319,10510.924376
1185.897475,995.924147,-592.164754,9622.677246
1185.897791,1532.190996,-0.000000,8956.491898
1185.898107,842.705048,-0.000000,8512.368333
1185.898422,383.047749,-444.123565,9178.553681
1185.898738,1302.362347,-1628.453072,9992.780217
1185.899054,842.705048,-666.185348,9918.759623
1185.899370,689.485948,-0.000000,9326.594869
1185.899686,0.000000,-592.164754,9770.718434
1185.900001,0.000000,-148.041188,9326.594869
1185.900317,153.219100,-814.226536,9918.759623
1185.900633,536.266849,-0.000000,9992.780217
1185.900949,229.828649,-0.000000,9696.697840
1185.901265,-612.876398,-0.000000,9770.718434
1185.901581,-229.828649,-666.185348,9548.656652
1185.901896,0.000000,-1554.432478,9992.780217
1185.902212,153.219100,-740.205942,10510.924376
1185.902528,459.657299,-296.082377,10362.883188
1185.902844,153.219100,-370.102971,9252.574275
1185.903160,153.219100,-148.041188,9400.615463
1185.903476,1302.362347,-518.144159,10214.842000
1185.903791,1378.971896,1110.308913,8956.491898
1185.904107,1225.752797,1036.288319,9474.636058
1185.904423,689.485948,296.082377,8586.388927
1185.904739,1225.752797,-0.000000,8734.430116
1185.905055,1762.019645,-0.000000,9992.780217
1185.905371,1072.533697,666.185348,9474.636058
1185.905686,459.657299,296.082377,9474.636058
1185.906002,-306.438199,444.123565,9992.780217
1185.906318,383.047749,-0.000000,9844.739029
1185.906634,612.876398,-444.123565,9992.780217
1185.906950,612.876398,592.164754,9622.677246
1185.907265,153.219100,-0.000000,8956.491898
1185.907581,-229.828649,-222.061783,8808.450710
1185.907897,76.609550,-962.267725,10288.862594
1185.908213,612.876398,-370.102971,10214.842000
1185.908529,919.314598,814.226536,8882.471304
1185.908845,76.609550,148.041188,8882.471304
1185.909160,-306.438199,-296.082377,9474.636058
1185.909476,1072.533697,-740.205942,9326.594869
1185.909792,689.485948,-0.000000,9696.697840
1185.910108,306.438199,370.102971,9326.594869
1185.910424,536.266849,-592.164754,8734.430116
1185.910740,-383.047749,-740.205942,8364.327145
1185.911055,0.000000,-1480.411884,10732.986159
1185.911371,383.047749,-1406.391290,10584.944971
1185.911687,459.657299,-444.123565,9474.636058
1185.912003,-383.047749,-666.185348,8956.491898
1185.912319,0.000000,-1554.432478,9548.656652
1185.912635,919.314598,-1184.329507,9548.656652
1185.912950,995.924147,148.041188,9030.512492
1185.913266,995.924147,-74.020594,9252.574275
1185.913582,689.485948,-444.123565,9474.636058
1185.913898,842.705048,-222.061783,8512.368333
1185.914214,1149.143247,-666.185348,8586.388927
1185.914529,995.924147,-370.102971,9400.615463
1185.914845,229.828649,-296.082377,8808.450710
1185.915161,383.047749,-296.082377,8956.491898
1185.915477,153.219100,-740.205942,9770.718434
1185.915793,0.000000,-740.205942,9918.759623
1185.916109,-153.219100,-444.123565,9548.656652
1185.916424,-536.266849,-444.123565,9104.533087
1185.916740,-842.705048,-444.123565,9326.594869
1185.917056,306.438199,-1110.308913,10807.006753
1185.917372,612.876398,-296.082377,10066.800811
1185.917688,612.876398,370.102971,9178.553681
1185.918004,-383.047749,-74.020594,8734.430116
1185.918319,153.219100,-74.020594,9622.677246
1185.918635,1149.143247,-0.000000,9030.512492
1185.918951,1685.410096,740.205942,9326.594869
1185.919267,995.924147,1036.288319,9326.594869
1185.919583,1072.533697,444.123565,8734.430116
1185.919898,612.876398,-0.000000,8882.471304
1185.920214,612.876398,-0.000000,10807.006753
1185.920530,1378.971896,814.226536,9622.677246
1185.920846,1072.533697,1332.370696,9030.512492
1185.921162,76.609550,666.185348,9252.574275
1185.921478,612.876398,-666.185348,10362.883188
1185.921793,1149.143247,-296.082377,9918.759623
1185.922109,383.047749,666.185348,9474.636058
1185.922425,-229.828649,-222.061783,9844.739029
1185.922741,0.000000,-962.267725,10214.842000
1185.923057,306.438199,-814.226536,10510.924376
1185.923373,766.095498,-0.000000,10584.944971
1185.923688,689.485948,-0.000000,9400.615463
1185.924004,153.219100,-74.020594,8882.471304
1185.924320,-306.438199,-148.041188,9474.636058
1185.924636,612.876398,-740.205942,10066.800811
1185.924952,766.095498,-74.020594,9622.677246
1185.925268,229.828649,666.185348,8512.368333
1185.925583,0.000000,-222.061783,9474.636058
1185.925899,76.609550,-814.226536,9696.697840
1185.926215,153.219100,-962.267725,9252.574275
1185.926531,536.266849,222.061783,9400.615463
1185.926847,383.047749,-0.000000,9622.677246
1185.927163,76.609550,-518.144159,9474.636058
1185.927479,-76.609550,-518.144159,8882.471304
1185.927795,383.047749,-740.205942,9548.656652
1185.928110,919.314598,-0.000000,9326.594869
1185.928426,229.828649,148.041188,9178.553681
1185.928742,0.000000,-0.000000,9696.697840
1185.929058,153.219100,-888.247130,9474.636058
1185.929374,995.924147,-444.123565,9696.697840
1185.929690,383.047749,814.226536,9104.533087
1185.930006,153.219100,740.205942,8882.471304
1185.930322,306.438199,-0.000000,9030.512492
1185.930638,536.266849,-518.144159,9844.739029
1185.930953,612.876398,-518.144159,9992.780217
1185.931269,766.095498,-0.000000,9548.656652
1185.931585,459.657299,-444.123565,8586.388927
1185.931901,842.705048,-296.082377,9400.615463
1185.932217,1072.533697,-1184.329507,10288.862594
1185.932533,919.314598,-370.102971,9844.739029
1185.932849,995.924147,592.164754,9474.636058
1185.933165,612.876398,-0.000000,8142.265362
1185.933481,383.047749,-296.082377,9474.636058
1185.933796,612.876398,-962.267725,9474.636058
1185.934112,995.924147,-518.144159,9548.656652
1185.934428,919.314598,-222.061783,9622.677246
1185.934744,0.000000,-962.267725,9770.718434
1185.935060,689.485948,-1110.308913,9622.677246
1185.935376,919.314598,-1258.350101,10066.800811
1185.935692,842.705048,296.082377,9696.697840
1185.936008,995.924147,444.123565,8882.471304
1185.936324,536.266849,-148.041188,9696.697840
1185.936639,76.609550,-666.185348,9474.636058
1185.936955,1149.143247,-222.061783,10362.883188
1185.937271,1072.533697,814.226536,8438.347739
1185.937587,153.219100,296.082377,8438.347739
1185.937903,76.609550,-370.102971,8956.491898
1185.938219,612.876398,-814.226536,9918.759623
1185.938535,383.047749,-222.061783,9844.739029
1185.938851,229.828649,666.185348,9474.636058
1185.939167,-153.219100,-0.000000,9178.553681
1185.939482,-383.047749,-74.020594,9252.574275
1185.939798,-459.657299,-666.185348,9918.759623
1185.940114,0.000000,74.020594,9622.677246
1185.940430,-306.438199,222.061783,9770.718434
1185.940746,-766.095498,-148.041188,9474.636058
1185.941062,-842.705048,-592.164754,9844.739029
1185.941378,76.609550,-444.123565,9844.739029
1185.941694,459.657299,-0.000000,9104.533087
1185.942010,229.828649,-0.000000,9548.656652
1185.942325,0.000000,-814.226536,9622.677246
1185.942641,0.000000,-740.205942,10288.862594
1185.942957,766.095498,-1184.329507,10436.903782
1185.943273,1532.190996,-0.000000,8956.491898
1185.943589,1072.533697,814.226536,8142.265362
1185.943905,842.705048,-222.061783,9400.615463
1185.944221,995.924147,-592.164754,9622.677246
1185.944537,1608.800546,-222.061783,8882.471304
1185.944853,1225.752797,444.123565,8882.471304
1185.945168,766.095498,518.144159,8734.430116
1185.945484,0.000000,-296.082377,8734.430116
1185.945800,0.000000,-1332.370696,9918.759623
1185.946116,459.657299,-1184.329507,10955.047942
1185.946432,153.219100,-296.082377,9770.718434
1185.946748,-612.876398,-0.000000,8808.450710
1185.947064,-612.876398,-814.226536,9474.636058
1185.947380,229.828649,-2368.659014,10510.924376
1185.947696,766.095498,-888.247130,10510.924376
1185.948011,766.095498,814.226536,8438.347739
1185.948327,0.000000,962.267725,8882.471304
1185.948643,306.438199,-74.020594,9030.512492
1185.948959,1072.533697,-370.102971,9400.615463
1185.949275,2068.457845,666.185348,8734.430116
1185.949591,1685.410096,1110.308913,8216.285956
1185.949907,766.095498,222.061783,9178.553681
1185.950223,995.924147,-518.144159,9030.512492
1185.950539,1302.362347,-518.144159,9400.615463
1185.950854,1225.752797,740.205942,9104.533087
1185.951170,766.095498,592.164754,9104.533087
1185.951486,-689.485948,-296.082377,9474.636058
1185.951802,-459.657299,-74.020594,9548.656652
1185.952118,153.219100,-592.164754,10584.944971
1185.952434,229.828649,-0.000000,9622.677246
1185.952750,-459.657299,592.164754,9474.636058
1185.953066,-229.828649,592.164754,9770.718434
1185.953382,-536.266849,-370.102971,9400.615463
1185.953697,153.219100,-148.041188,10436.903782
1185.954013,536.266849,148.041188,9770.718434
1185.954329,229.828649,1036.288319,9252.574275
1185.954645,0.000000,962.267725,9252.574275
1185.954961,536.266849,-370.102971,9400.615463
1185.955277,842.705048,-222.061783,10288.862594
1185.955593,459.657299,1406.391290,9030.512492
1185.955909,76.609550,-0.000000,9030.512492
1185.956225,0.000000,-1406.391290,9474.636058
1185.956540,76.609550,-1332.370696,10066.800811
1185.956856,459.657299,-148.041188,9918.759623
1185.957172,76.609550,-0.000000,9844.739029
1185.957488,153.219100,-592.164754,8956.491898
1185.957804,-459.657299,-1850.514855,9844.739029
1185.958120,0.000000,-1110.308913,10436.903782
1185.958436,766.095498,-1480.411884,9696.697840
1185.958752,919.314598,-148.041188,9178.553681
1185.959068,-306.438199,-222.061783,8364.327145
1185.959383,0.000000,-1702.473667,9622.677246
1185.959699,766.095498,-1480.411884,10807.006753
1185.960015,1225.752797,-0.000000,9326.594869
1185.960331,689.485948,1110.308913,8734.430116
1185.960647,229.828649,-0.000000,8438.347739
1185.960963,-153.219100,-814.226536,9104.533087
1185.961279,919.314598,-1480.411884,10214.842000
1185.961595,689.485948,-0.000000,9770.718434
1185.961911,-229.828649,370.102971,8956.491898
1185.962226,-229.828649,-444.123565,8734.430116
1185.962542,536.266849,-1258.350101,9844.739029
1185.962858,612.876398,-592.164754,10288.862594
1185.963174,306.438199,444.123565,9474.636058
1185.963490,0.000000,296.082377,9252.574275
1185.963806,-459.657299,296.082377,9252.574275
1185.964122,306.438199,-296.082377,9992.780217
1185.964438,1072.533697,296.082377,9548.656652
1185.964754,842.705048,666.185348,9178.553681
1185.965069,383.047749,-296.082377,9696.697840
1185.965385,0.000000,-518.144159,9030.512492
1185.965701,919.314598,-888.247130,9992.780217
1185.966017,1685.410096,-444.123565,9696.697840
1185.966333,1455.581446,592.164754,9178.553681
1185.966649,1378.971896,592.164754,8734.430116
1185.966965,689.485948,-74.020594,8438.347739
1185.967281,1762.019645,-740.205942,10510.924376
1185.967597,1915.238745,370.102971,9400.615463
1185.967912,1455.581446,1554.432478,7624.121203
1185.968228,536.266849,814.226536,7846.182985
1185.968544,689.485948,-1554.432478,10288.862594
1185.968860,612.876398,-1702.473667,10288.862594
1185.969176,0.000000,-666.185348,9696.697840
1185.969492,-383.047749,-148.041188,9548.656652
1185.969808,-842.705048,-518.144159,9696.697840
1185.970124,-766.095498,-1036.288319,10510.924376
1185.970440,-306.438199,-740.205942,10510.924376
1185.970755,536.266849,592.164754,9104.533087
1185.971071,-153.219100,-0.000000,9104.533087
1185.971387,-766.095498,-444.123565,9474.636058
1185.971703,1072.533697,-1554.432478,10066.800811
1185.972019,1302.362347,-444.123565,9178.553681
1185.972335,766.095498,1554.432478,7772.162391
1185.972651,766.095498,-0.000000,9696.697840
1185.972967,995.924147,-74.020594,8586.388927
1185.973283,842.705048,-888.247130,9992.780217
1185.973598,995.924147,-370.102971,10436.903782
1185.973914,1225.752797,-148.041188,9400.615463
1185.974230,306.438199,-0.000000,8882.471304
1185.974546,-306.438199,-148.041188,9844.739029
1185.974862,842.705048,-1406.391290,10658.965565
1185.975178,689.485948,-444.123565,9844.739029
1185.975494,-229.828649,1184.329507,8882.471304
1185.975810,-919.314598,-222.061783,9474.636058
1185.976126,0.000000,-1258.350101,9770.718434
1185.976441,0.000000,-1554.432478,10066.800811
1185.976757,0.000000,-74.020594,10362.883188
1185.977073,153.219100,-148.041188,10066.800811
1185.977389,0.000000,-444.123565,8956.491898
1185.977705,0.000000,-740.205942,9474.636058
1185.978021,459.657299,-1258.350101,10658.965565
1185.978337,1072.533697,592.164754,9474.636058
1185.978653,1072.533697,814.226536,8142.265362
1185.978969,306.438199,-0.000000,8734.430116
1185.979284,612.876398,-1036.288319,10140.821405
1185.979600,1378.971896,-592.164754,9400.615463
1185.979916,1685.410096,740.205942,8068.244768
1185.980232,383.047749,222.061783,9178.553681
1185.980548,76.609550,-1110.308913,9326.594869
1185.980864,919.314598,-1480.411884,9252.574275
1185.981180,689.485948,-518.144159,9918.759623
1185.981496,689.485948,-148.041188,9918.759623
1185.981812,76.609550,-370.102971,9252.574275
1185.982127,-153.219100,296.082377,8660.409521
1185.982443,229.828649,-296.082377,10436.903782
1185.982759,1072.533697,-0.000000,9696.697840
1185.983075,459.657299,1480.411884,8734.430116
1185.983391,0.000000,814.226536,8364.327145
1185.983707,76.609550,-0.000000,9326.594869
1185.984023,689.485948,-740.205942,9696.697840
1185.984339,459.657299,-0.000000,9252.574275
1185.984655,-153.219100,296.082377,9474.636058
1185.984970,-536.266849,592.164754,9030.512492
1185.985286,-612.876398,-74.020594,9178.553681
1185.985602,0.000000,-370.102971,9696.697840
1185.985918,0.000000,370.102971,9622.677246
1185.986234,0.000000,296.082377,9178.553681
1185.986550,-306.438199,-0.000000,8882.471304
1185.986866,-459.657299,-962.267725,10140.821405
1185.987182,76.609550,-1258.350101,10584.944971
1185.987498,995.924147,370.102971,9252.574275
1185.987813,-306.438199,740.205942,8882.471304
1185.988129,-306.438199,444.123565,9548.656652
1185.988445,842.705048,-740.205942,10436.903782
1185.988761,1149.143247,-0.000000,9770.718434
1185.989077,1378.971896,814.226536,9474.636058
1185.989393,689.485948,370.102971,9474.636058
1185.989709,842.705048,-296.082377,9548.656652
1185.990025,1225.752797,-1480.411884,9696.697840
1185.990341,1532.190996,296.082377,10066.800811
1185.990656,1685.410096,740.205942,9622.677246
1185.990972,459.657299,-0.000000,9400.615463
1185.991288,536.266849,-296.082377,9548.656652
1185.991604,459.657299,-1110.308913,10658.965565
1185.991920,1072.533697,-222.061783,9844.739029
1185.992236,536.266849,-0.000000,8808.450710
1185.992552,0.000000,-962.267725,9548.656652
1185.992868,76.609550,-1998.556043,10510.924376
1185.993184,536.266849,-1924.535449,10214.842000
1185.993499,1302.362347,-0.000000,9400.615463
1185.993815,459.657299,296.082377,8364.327145
1185.994131,-766.095498,-740.205942,9030.512492
1185.994447,842.705048,-1258.350101,10807.006753
1185.994763,919.314598,-518.144159,8956.491898
1185.995079,995.924147,296.082377,8586.388927
1185.995395,1072.533697,148.041188,8956.491898
1185.995711,383.047749,-740.205942,8438.347739
1185.996027,153.219100,-518.144159,9696.697840
1185.996342,995.924147,-962.267725,9918.759623
1185.996658,995.924147,370.102971,8660.409521
1185.996974,229.828649,1036.288319,9326.594869
1185.997290,-153.219100,-370.102971,8734.430116
1185.997606,995.924147,-444.123565,9474.636058
1185.997922,536.266849,-0.000000,9474.636058
1185.998238,76.609550,888.247130,8216.285956
1185.998554,76.609550,296.082377,9696.697840
1185.998870,-383.047749,-592.164754,8290.306550
1185.999185,-459.657299,-740.205942,9474.636058
1185.999501,0.000000,-444.123565,9918.759623
1185.999817,-306.438199,-74.020594,9104.533087
1186.000133,-919.314598,74.020594,8882.471304
1186.000449,-536.266849,-296.082377,9696.697840
1186.000765,-229.828649,-1554.432478,9474.636058
1186.001081,0.000000,-370.102971,9178.553681
1186.001397,383.047749,222.061783,9104.533087
1186.001713,-306.438199,-666.185348,8882.471304
1186.002028,-306.438199,-444.123565,9030.512492
1186.002344,995.924147,-1036.288319,10066.800811
1186.002660,995.924147,444.123565,8956.491898
1186.002976,612.876398,444.123565,9030.512492
1186.003292,612.876398,-0.000000,9104.533087
1186.003608,1225.752797,-740.205942,8882.471304
1186.003924,1225.752797,-740.205942,9622.677246
1186.004240,919.314598,296.082377,9770.718434
1186.004556,995.924147,296.082377,9252.574275
1186.004871,153.219100,-370.102971,9474.636058
1186.005187,0.000000,-962.267725,10140.821405
1186.005503,689.485948,-888.247130,10584.944971
1186.005819,612.876398,592.164754,9474.636058
1186.006135,0.000000,518.144159,9178.553681
1186.006451,306.438199,-592.164754,9992.780217
1186.006767,1532.190996,-888.247130,10510.924376
1186.007083,459.657299,-148.041188,9992.780217
1186.007399,919.314598,444.123565,9326.594869
1186.007714,306.438199,-222.061783,9696.697840
1186.008030,306.438199,-444.123565,9992.780217
1186.008346,919.314598,-444.123565,9918.759623
1186.008662,1532.190996,296.082377,9770.718434
1186.008978,995.924147,1184.329507,9400.615463
1186.009294,383.047749,518.144159,9178.553681
1186.009610,536.266849,-296.082377,9696.697840
1186.009926,1302.362347,-666.185348,10288.862594
1186.010242,1378.971896,-74.020594,9918.759623
1186.010557,612.876398,148.041188,9178.553681
1186.010873,0.000000,-962.267725,9474.636058
1186.011189,919.314598,-1258.350101,10436.903782
1186.011505,1532.190996,-222.061783,9326.594869
1186.011821,1225.752797,666.185348,8808.450710
1186.012137,689.485948,370.102971,9104.533087
1186.012453,76.609550,-0.000000,8956.491898
1186.012769,919.314598,-666.185348,9474.636058
1186.013085,1072.533697,-296.082377,10214.842000
1186.013400,842.705048,962.267725,8956.491898
1186.013716,842.705048,222.061783,8586.388927
1186.014032,76.609550,-444.123565,9030.512492
1186.014348,459.657299,-740.205942,9104.533087
1186.014664,766.095498,-592.164754,9770.718434
1186.014980,153.219100,-0.000000,8512.368333
1186.015296,-766.095498,-444.123565,9474.636058
1186.015612,-383.047749,-962.267725,9400.615463
1186.015928,153.219100,-814.226536,9400.615463
1186.016243,0.000000,-222.061783,9178.553681
1186.016559,-766.095498,74.020594,9030.512492
1186.016875,-383.047749,296.082377,9326.594869
1186.017191,-459.657299,-592.164754,8290.306550
1186.017507,-153.219100,-1332.370696,9178.553681
1186.017823,76.609550,-1184.329507,10214.842000
1186.018139,153.219100,-592.164754,9696.697840
1186.018455,-612.876398,-370.102971,8882.471304
1186.018771,-612.876398,-666.185348,9252.574275
1186.019086,459.657299,-888.247130,9918.759623
1186.019402,689.485948,74.020594,9548.656652
1186.019718,536.266849,1110.308913,8512.368333
1186.020034,153.219100,-74.020594,9326.594869
1186.020350,536.266849,-1702.473667,9696.697840
1186.020666,1455.581446,-962.267725,9400.615463
1186.020982,842.705048,148.041188,9030.512492
1186.021298,689.485948,-222.061783,9992.780217
1186.021614,306.438199,-592.164754,9622.677246
1186.021929,383.047749,-296.082377,8956.491898
1186.022245,536.266849,-0.000000,10288.862594
1186.022561,229.828649,444.123565,9770.718434
1186.022877,229.828649,-74.020594,9178.553681
1186.023193,306.438199,-962.267725,10066.800811
1186.023509,-229.828649,-1184.329507,10881.027347
1186.023825,459.657299,-296.082377,10362.883188
1186.024141,383.047749,-0.000000,9474.636058
1186.024456,0.000000,222.061783,9918.759623
1186.024772,0.000000,-0.000000,10362.883188
1186.025088,842.705048,518.144159,9696.697840
1186.025404,1685.410096,740.205942,9992.780217
1186.025720,1225.752797,-0.000000,9696.697840
1186.026036,1762.019645,222.061783,9252.574275
1186.026352,1302.362347,-0.000000,9030.512492
1186.026668,1915.238745,-444.123565,10362.883188
1186.026983,2528.115143,666.185348,9178.553681
1186.027299,1378.971896,1184.329507,8216.285956
1186.027615,919.314598,592.164754,9474.636058
1186.027931,1225.752797,-444.123565,9844.739029
1186.028247,1608.800546,148.041188,9104.533087
1186.028562,842.705048,740.205942,9548.656652
1186.028878,229.828649,296.082377,9104.533087
1186.029194,153.219100,-148.041188,9844.739029
1186.029510,0.000000,-888.247130,9400.615463
1186.029825,-383.047749,-592.164754,9474.636058
1186.030141,383.047749,-814.226536,10362.883188
1186.030457,-153.219100,-1184.329507,9326.594869
1186.030773,-995.924147,-888.247130,9770.718434
1186.031089,-306.438199,-1110.308913,10510.924376
1186.031404,536.266849,-148.041188,9696.697840
1186.031720,306.438199,1110.308913,8142.265362
1186.032036,-76.609550,962.267725,8142.265362
1186.032352,306.438199,-370.102971,9252.574275
1186.032667,1225.752797,-740.205942,9326.594869
1186.032983,1149.143247,-148.041188,8956.491898
1186.033299,842.705048,-666.185348,9548.656652
1186.033615,306.438199,-370.102971,8956.491898
1186.033930,612.876398,-814.226536,9326.594869
1186.034246,612.876398,-666.185348,9844.739029
1186.034562,766.095498,444.123565,9696.697840
1186.034878,76.609550,-0.000000,9030.512492
1186.035194,-229.828649,-0.000000,9548.656652
1186.035509,-76.609550,-1110.308913,9992.780217
1186.035825,76.609550,-666.185348,9696.697840
1186.036141,306.438199,444.123565,9770.718434
1186.036457,-306.438199,-0.000000,8660.409521
1186.036772,-766.095498,-296.082377,10066.800811
1186.037088,-459.657299,-814.226536,9252.574275
1186.037404,0.000000,-148.041188,9918.759623
1186.037720,0.000000,148.041188,10288.862594
1186.038035,-689.485948,-222.061783,9104.533087
1186.038351,-612.876398,-0.000000,9400.615463
1186.038667,229.828649,-740.205942,9918.759623
1186.038983,689.485948,-370.102971,10584.944971
1186.039299,1302.362347,1480.411884,8512.368333
1186.039614,153.219100,888.247130,7994.224174
1186.039930,-229.828649,74.020594,9252.574275
1186.040246,459.657299,-888.247130,9992.780217
1186.040562,1532.190996,-148.041188,10362.883188
1186.040877,306.438199,592.164754,9474.636058
1186.041193,0.000000,-518.144159,9178.553681
1186.041509,153.219100,-888.247130,9252.574275
1186.041825,536.266849,-592.164754,10362.883188
1186.042140,306.438199,666.185348,10066.800811
1186.042456,995.924147,740.205942,8512.368333
1186.042772,229.828649,296.082377,8290.306550
1186.043088,459.657299,-222.061783,9622.677246
1186.043404,1302.362347,-592.164754,10436.903782
1186.043719,1532.190996,-0.000000,9104.533087
1186.044035,689.485948,666.185348,8586.388927
1186.044351,306.438199,296.082377,8808.450710
1186.044667,306.438199,-444.123565,9474.636058
1186.044982,1072.533697,-74.020594,10066.800811
1186.045298,995.924147,740.205942,9474.636058
1186.045614,0.000000,444.123565,8882.471304
1186.045930,0.000000,-518.144159,9548.656652
1186.046246,76.609550,-1036.288319,9918.759623
1186.046561,842.705048,-1110.308913,10658.965565
1186.046877,536.266849,-0.000000,9622.677246
1186.047193,-383.047749,444.123565,9326.594869
1186.047509,-383.047749,518.144159,9326.594869
1186.047824,459.657299,-370.102971,9696.697840
1186.048140,766.095498,-370.102971,9918.759623
1186.048456,459.657299,370.102971,9252.574275
1186.048772,536.266849,-0.000000,8882.471304
1186.049087,229.828649,-962.267725,9474.636058
1186.049403,1072.533697,-1850.514855,11029.068536
1186.049719,1608.800546,-148.041188,9696.697840
1186.050035,1455.581446,814.226536,8438.347739
1186.050351,536.266849,370.102971,8364.327145
1186.050666,76.609550,-740.205942,9770.718434
1186.050982,1302.362347,-1554.432478,11103.089130
1186.051298,1455.581446,370.102971,9622.677246
1186.051614,919.314598,518.144159,8216.285956
1186.051929,0.000000,-518.144159,9252.574275
1186.052245,383.047749,-814.226536,9696.697840
1186.052561,919.314598,-962.267725,10140.821405
1186.052877,919.314598,-666.185348,9844.739029
1186.053192,-229.828649,-740.205942,9844.739029
1186.053508,-306.438199,-814.226536,9770.718434
1186.053824,153.219100,-1258.350101,10214.842000
1186.054140,383.047749,-888.247130,10658.965565
1186.054456,766.095498,-0.000000,9252.574275
1186.054771,383.047749,444.123565,8364.327145
1186.055087,76.609550,148.041188,8956.491898
1186.055403,842.705048,-1258.350101,10436.903782
1186.055719,1225.752797,-888.247130,9622.677246
1186.056034,1225.752797,814.226536,8438.347739
1186.056350,842.705048,-222.061783,8290.306550
1186.056666,766.095498,-888.247130,8882.471304
1186.056982,1302.362347,-1480.411884,10362.883188
1186.057297,995.924147,-370.102971,9992.780217
1186.057613,536.266849,518.144159,8808.450710
1186.057929,0.000000,-0.000000,8882.471304
1186.058245,0.000000,-222.061783,9400.615463
1186.058561,306.438199,-888.247130,10288.862594
1186.058876,766.095498,-222.061783,9844.739029
1186.059192,306.438199,444.123565,8364.327145
1186.059508,-612.876398,-370.102971,9104.533087
1186.059824,-153.219100,-1036.288319,9696.697840
1186.060139,153.219100,-1184.329507,9918.759623
1186.060455,689.485948,-0.000000,9474.636058
1186.060771,0.000000,740.205942,9252.574275
1186.061087,-459.657299,-74.020594,9548.656652
1186.061403,229.828649,-74.020594,9844.739029
1186.061718,383.047749,-370.102971,9622.677246
1186.062034,689.485948,740.205942,8882.471304
1186.062350,842.705048,1036.288319,8438.347739
1186.062666,229.828649,-0.000000,8808.450710
1186.062981,153.219100,-740.205942,9844.739029
1186.063297,995.924147,-666.185348,9844.739029
1186.063613,612.876398,370.102971,9400.615463
1186.063929,0.000000,370.102971,8808.450710
1186.064244,-459.657299,-148.041188,9844.739029
1186.064560,306.438199,-1184.329507,9696.697840
1186.064876,0.000000,-666.185348,9474.636058
1186.065192,612.876398,-296.082377,9696.697840
1186.065508,0.000000,-148.041188,9252.574275
1186.065823,-153.219100,-814.226536,9474.636058
1186.066139,536.266849,-1554.432478,10362.883188
1186.066455,919.314598,-0.000000,9622.677246
1186.066771,766.095498,666.185348,9030.512492
1186.067086,0.000000,592.164754,9030.512492
1186.067402,0.000000,148.041188,9252.574275
1186.067718,306.438199,-1036.288319,10658.965565
1186.068034,383.047749,-0.000000,9622.677246
1186.068349,536.266849,-0.000000,9622.677246
1186.068665,-153.219100,148.041188,9030.512492
1186.068981,153.219100,-740.205942,10362.883188
1186.069297,612.876398,-740.205942,10732.986159
1186.069613,842.705048,1406.391290,9252.574275
1186.069928,0.000000,1332.370696,8734.430116
1186.070244,153.219100,592.164754,9326.594869
1186.070560,612.876398,-444.123565,9844.739029
1186.070876,536.266849,-444.123565,9992.780217
1186.071191,842.705048,518.144159,9844.739029
1186.071507,1225.752797,-0.000000,9474.636058
1186.071823,612.876398,-592.164754,9178.553681
1186.072139,1225.752797,-592.164754,10436.903782
1186.072454,1455.581446,-148.041188,9622.677246
1186.072770,1378.971896,1702.473667,8512.368333
1186.073086,1225.752797,666.185348,9178.553681
1186.073402,842.705048,222.061783,9548.656652
1186.073718,1608.800546,296.082377,8734.430116
1186.074033,919.314598,1332.370696,8586.388927
1186.074349,689.485948,814.226536,8956.491898
1186.074665,536.266849,-74.020594,9030.512492
1186.074981,536.266849,-148.041188,8660.409521
1186.075296,0.000000,-592.164754,9992.780217
1186.075612,229.828649,-1184.329507,10881.027347
1186.075928,-306.438199,-518.144159,9474.636058
1186.076244,-995.924147,-0.000000,8882.471304
1186.076559,-459.657299,-740.205942,10140.821405
1186.076875,229.828649,-1110.308913,10288.862594
1186.077191,153.219100,222.061783,9918.759623
1186.077507,-153.219100,592.164754,8734.430116
1186.077823,-306.438199,-0.000000,8956.491898
1186.078138,612.876398,-740.205942,9326.594869
1186.078454,919.314598,-962.267725,10066.800811
1186.078770,842.705048,296.082377,9548.656652
1186.079086,612.876398,222.061783,7994.224174
1186.079401,153.219100,-666.185348,9178.553681
1186.079717,766.095498,-1258.350101,10214.842000
1186.080033,842.705048,-444.123565,10436.903782
1186.080349,766.095498,370.102971,8512.368333
1186.080665,306.438199,-0.000000,8660.409521
1186.080980,306.438199,-1110.308913,10881.027347
1186.081296,919.314598,-2072.576638,10436.903782
1186.081612,766.095498,-444.123565,8956.491898
1186.081928,536.266849,296.082377,8956.491898
1186.082243,76.609550,-1332.370696,9622.677246
1186.082559,153.219100,-1184.329507,10214.842000
1186.082875,153.219100,-296.082377,9992.780217
1186.083191,842.705048,-740.205942,9770.718434
1186.083506,919.314598,-370.102971,8216.285956
1186.083822,-536.266849,-0.000000,9252.574275
1186.084138,0.000000,-1332.370696,10510.924376
1186.084454,459.657299,-1258.350101,9696.697840
1186.084770,689.485948,-74.020594,9918.759623
1186.085085,0.000000,296.082377,8808.450710
1186.085401,0.000000,-0.000000,8586.388927
1186.085717,612.876398,-666.185348,10362.883188
1186.086033,612.876398,-814.226536,10732.986159
1186.086348,612.876398,444.123565,8512.368333
1186.086664,76.609550,296.082377,8956.491898
1186.086980,0.000000,-444.123565,9474.636058
1186.087296,536.266849,-666.185348,9474.636058
1186.087611,1072.533697,-222.061783,10214.842000
1186.087927,612.876398,962.267725,9252.574275
1186.088243,153.219100,148.041188,9030.512492
1186.088559,383.047749,-444.123565,9178.553681
1186.088875,229.828649,-222.061783,9400.615463
1186.089190,766.095498,-0.000000,9622.677246
1186.089506,612.876398,814.226536,8586.388927
1186.089822,-306.438199,296.082377,8808.450710
1186.090138,-536.266849,-444.123565,9918.759623
1186.090453,76.609550,-1480.411884,10510.924376
1186.090769,-153.219100,-222.061783,9992.780217
1186.091085,0.000000,148.041188,9400.615463
1186.091401,0.000000,-370.102971,9252.574275
1186.091716,-229.828649,-518.144159,9474.636058
1186.092032,229.828649,-814.226536,10140.821405
1186.092348,1378.971896,1110.308913,9104.533087
1186.092664,842.705048,1554.432478,8142.265362
1186.092980,-229.828649,518.144159,9104.533087
1186.093295,689.485948,-0.000000,9696.697840
1186.093611,1302.362347,-296.082377,10066.800811
1186.093927,842.705048,370.102971,9030.512492
1186.094243,306.438199,-0.000000,9326.594869
1186.094558,689.485948,-518.144159,9844.739029
1186.094874,153.219100,-740.205942,10140.821405
1186.095190,612.876398,-666.185348,10362.883188
1186.095506,1455.581446,222.061783,9844.739029
1186.095822,612.876398,222.061783,9474.636058
1186.096137,-229.828649,-0.000000,9474.636058
1186.096453,766.095498,-962.267725,10807.006753
1186.096769,1685.410096,-666.185348,9770.718434
1186.097085,1072.533697,814.226536,9474.636058
1186.097400,536.266849,592.164754,8734.430116
1186.097716,459.657299,-444.123565,9178.553681
1186.098032,229.828649,-1628.453072,10288.862594
1186.098348,842.705048,-296.082377,10288.862594
1186.098663,842.705048,148.041188,9030.512492
1186.098979,76.609550,-0.000000,8882.471304
1186.099295,153.219100,-1332.370696,10436.903782
1186.099611,536.266849,-1850.514855,10584.944971
1186.099927,612.876398,-0.000000,9918.759623
1186.100242,383.047749,296.082377,8734.430116
1186.100558,-153.219100,-518.144159,9178.553681
1186.100874,0.000000,-592.164754,9992.780217
1186.101190,612.876398,-1258.350101,10658.965565
1186.101505,1302.362347,-370.102971,8956.491898
1186.101821,919.314598,148.041188,9104.533087
1186.102137,0.000000,-444.123565,8660.409521
1186.102453,766.095498,-1036.288319,9770.718434
1186.102768,1378.971896,-518.144159,9844.739029
1186.103084,842.705048,1332.370696,8660.409521
1186.103400,306.438199,888.247130,8216.285956
1186.103716,-153.219100,-0.000000,8956.491898
1186.104032,536.266849,-1184.329507,10214.842000
1186.104347,919.314598,-888.247130,9548.656652
1186.104663,459.657299,444.123565,8216.285956
1186.104979,-689.485948,-0.000000,9030.512492
1186.105295,-229.828649,-740.205942,9696.697840
1186.105610,306.438199,-1110.308913,9474.636058
1186.105926,306.438199,-370.102971,9770.718434
1186.106242,-383.047749,222.061783,9030.512492
1186.106558,-536.266849,-444.123565,8734.430116
1186.106873,-536.266849,-666.185348,10140.821405
1186.107189,76.609550,-1628.453072,10881.027347
1186.107505,612.876398,-370.102971,9548.656652
1186.107821,459.657299,666.185348,8512.368333
1186.108137,-536.266849,370.102971,8142.265362
1186.108452,-383.047749,-592.164754,9104.533087
1186.108768,842.705048,-592.164754,9474.636058
1186.109084,383.047749,370.102971,9252.574275
1186.109400,229.828649,222.061783,8956.491898
1186.109715,153.219100,-1110.308913,9252.574275
1186.110031,76.609550,-1406.391290,10140.821405
1186.110347,1072.533697,-1776.494261,10881.027347
1186.110663,1838.629195,-74.020594,9474.636058
1186.110979,1378.971896,222.061783,8216.285956
1186.111294,306.438199,-148.041188,9178.553681
1186.111610,842.705048,-1332.370696,10881.027347
1186.111926,1991.848295,-592.164754,9696.697840
1186.112242,1532.190996,1184.329507,8216.285956
1186.112557,229.828649,1184.329507,8512.368333
1186.112873,0.000000,-222.061783,9104.533087
1186.113189,306.438199,-592.164754,9844.739029
1186.113505,689.485948,-814.226536,10510.924376
1186.113820,306.438199,-0.000000,10288.862594
1186.114136,-153.219100,-0.000000,8364.327145
1186.114452,-1149.143247,-1406.391290,9474.636058
1186.114768,229.828649,-2220.617826,11695.253884
1186.115084,1225.752797,-666.185348,10658.965565
1186.115399,536.266849,1110.308913,8586.388927
1186.115715,-153.219100,740.205942,8808.450710
1186.116031,0.000000,-666.185348,10066.800811
1186.116347,1762.019645,-444.123565,9992.780217
1186.116662,1532.190996,1480.411884,8586.388927
1186.116978,1302.362347,1258.350101,8808.450710
1186.117294,1302.362347,296.082377,8734.430116
1186.117610,995.924147,-296.082377,9474.636058
1186.117925,1302.362347,-518.144159,10584.944971
1186.118241,1378.971896,592.164754,9474.636058
1186.118557,612.876398,814.226536,8882.471304
1186.118873,229.828649,222.061783,9770.718434
1186.119189,383.047749,-888.247130,10807.006753
1186.119504,612.876398,-518.144159,9992.780217
1186.119820,306.438199,666.185348,9178.553681
1186.120136,-306.438199,296.082377,9178.553681
1186.120452,-153.219100,-148.041188,9030.512492
1186.120767,76.609550,-370.102971,9548.656652
1186.121083,459.657299,-222.061783,10510.924376
1186.121399,383.047749,592.164754,9104.533087
1186.121715,0.000000,370.102971,9030.512492
1186.122030,-459.657299,222.061783,9178.553681
1186.122346,-306.438199,-1184.329507,10140.821405
1186.122662,153.219100,-296.082377,9918.759623
1186.122978,0.000000,740.205942,8586.388927
1186.123294,-689.485948,-0.000000,9104.533087
1186.123609,-536.266849,-1332.370696,9326.594869
1186.123925,-459.657299,-1924.535449,9992.780217
1186.124241,153.219100,-518.144159,9696.697840
1186.124557,-229.828649,222.061783,8586.388927
1186.124872,-459.657299,-666.185348,9252.574275
1186.125188,-383.047749,-1406.391290,9992.780217
1186.125504,76.609550,-1258.350101,10436.903782
1186.125820,766.095498,-222.061783,9400.615463
1186.126136,229.828649,814.226536,8512.368333
1186.126451,229.828649,-222.061783,9474.636058
1186.126767,1225.752797,-518.144159,9326.594869
1186.127083,1302.362347,-148.041188,9548.656652
1186.127399,1225.752797,296.082377,9104.533087
1186.127714,459.657299,-0.000000,8882.471304
1186.128030,0.000000,-370.102971,9548.656652
1186.128346,229.828649,-1258.350101,10362.883188
1186.128662,689.485948,-666.185348,10140.821405
1186.128978,842.705048,-0.000000,9770.718434
1186.129293,0.000000,-222.061783,9400.615463
1186.129609,459.657299,-1332.370696,9474.636058
1186.129925,1072.533697,-1702.473667,10140.821405
1186.130241,1685.410096,222.061783,9474.636058
1186.130557,1072.533697,370.102971,9474.636058
1186.130872,1378.971896,592.164754,8512.368333
1186.131188,1149.143247,444.123565,8660.409521
1186.131504,1072.533697,-814.226536,10288.862594
1186.131820,1532.190996,-296.082377,10066.800811
1186.132136,1378.971896,148.041188,8882.471304
1186.132451,612.876398,-74.020594,9622.677246
1186.132767,842.705048,-814.226536,9696.697840
1186.133083,1378.971896,-1554.432478,10436.903782
1186.133399,1838.629195,370.102971,10436.903782
1186.133715,919.314598,666.185348,8734.430116
1186.134030,689.485948,-0.000000,9104.533087
1186.134346,1072.533697,-370.102971,10214.842000
1186.134662,995.924147,-740.205942,10362.883188
1186.134978,1455.581446,962.267725,8808.450710
1186.135294,306.438199,444.123565,8142.265362
1186.135609,-612.876398,-592.164754,9030.512492
1186.135925,306.438199,-1628.453072,9918.759623
1186.136241,0.000000,-1184.329507,10881.027347
1186.136557,0.000000,518.144159,9474.636058
1186.136873,-1225.752797,1036.288319,8142.265362
1186.137188,-919.314598,370.102971,8956.491898
1186.137504,-995.924147,-444.123565,9622.677246
1186.137820,0.000000,-962.267725,9696.697840
1186.138136,-612.876398,-0.000000,9696.697840
1186.138451,-1762.019645,-222.061783,9252.574275
1186.138767,-842.705048,-1184.329507,9252.574275
1186.139083,0.000000,-1036.288319,9844.739029
1186.139399,383.047749,-148.041188,9696.697840
1186.139715,0.000000,222.061783,8956.491898
1186.140030,-229.828649,148.041188,8734.430116
1186.140346,0.000000,-518.144159,8734.430116
1186.140662,536.266849,-518.144159,10362.883188
1186.140978,1302.362347,518.144159,9548.656652
1186.141294,1225.752797,814.226536,7920.203579
1186.141609,76.609550,518.144159,9474.636058
1186.141925,0.000000,-740.205942,9696.697840
1186.142241,1225.752797,-740.205942,9326.594869
1186.142557,995.924147,-0.000000,9252.574275
1186.142873,383.047749,-0.000000,8364.327145
1186.143188,-229.828649,-296.082377,10140.821405
1186.143504,153.219100,-888.247130,9992.780217
1186.143820,612.876398,-888.247130,10510.924376
1186.144136,383.047749,222.061783,9622.677246
1186.144452,0.000000,-148.041188,9326.594869
1186.144767,0.000000,-740.205942,9474.636058
1186.145083,153.219100,-1776.494261,10436.903782
1186.145399,1149.143247,-592.164754,10362.883188
1186.145715,1378.971896,962.267725,9030.512492
1186.146031,459.657299,962.267725,8512.368333
1186.146346,612.876398,666.185348,8956.491898
1186.146662,1149.143247,-666.185348,10140.821405
1186.146978,1532.190996,-148.041188,9992.780217
1186.147294,995.924147,740.205942,9696.697840
1186.147610,612.876398,222.061783,9030.512492
1186.147925,612.876398,-1184.329507,9474.636058
1186.148241,1455.581446,-1628.453072,10288.862594
1186.148557,1685.410096,-0.000000,10214.842000
1186.148873,1532.190996,962.267725,8734.430116
1186.149189,459.657299,740.205942,8808.450710
1186.149504,383.047749,-0.000000,9992.780217
1186.149820,1991.848295,-666.185348,9844.739029
1186.150136,2068.457845,1184.329507,8438.347739
1186.150452,229.828649,1184.329507,8808.450710
1186.150768,612.876398,-518.144159,9992.780217
1186.151083,1455.581446,-444.123565,9326.594869
1186.151399,995.924147,-296.082377,9622.677246
1186.151715,919.314598,444.123565,9548.656652
1186.152031,0.000000,-0.000000,9104.533087
1186.152347,-536.266849,-518.144159,9474.636058
1186.152662,0.000000,-1332.370696,11325.150913
1186.152978,306.438199,-666.185348,10584.944971
1186.153294,612.876398,1036.288319,8808.450710
1186.153610,-229.828649,444.123565,8512.368333
1186.153926,-383.047749,-592.164754,9474.636058
1186.154241,306.438199,-1554.432478,9844.739029
1186.154557,842.705048,-370.102971,9474.636058
1186.154873,766.095498,444.123565,9104.533087
1186.155189,0.000000,-74.020594,8290.306550
1186.155505,-153.219100,-1036.288319,9400.615463
1186.155820,153.219100,-1924.535449,10436.903782
1186.156136,612.876398,-222.061783,9992.780217
1186.156452,229.828649,518.144159,8216.285956
1186.156768,-306.438199,-296.082377,9252.574275
1186.157084,-229.828649,-1184.329507,10288.862594
1186.157399,919.314598,-1554.432478,10584.944971
1186.157715,459.657299,-0.000000,8882.471304
1186.158031,-229.828649,592.164754,8364.327145
1186.158347,-383.047749,-1036.288319,8808.450710
1186.158663,0.000000,-1184.329507,9918.759623
1186.158978,0.000000,-1480.411884,11029.068536
1186.159294,0.000000,-148.041188,9178.553681
1186.159610,-612.876398,518.144159,9030.512492
1186.159926,-459.657299,-444.123565,9252.574275
1186.160242,76.609550,-1036.288319,9474.636058
1186.160557,459.657299,-962.267725,10732.986159
1186.160873,229.828649,-0.000000,9548.656652
1186.161189,0.000000,222.061783,8882.471304
1186.161505,-612.876398,-0.000000,9104.533087
1186.161821,0.000000,-0.000000,9474.636058
1186.162136,536.266849,-444.123565,9844.739029
1186.162452,919.314598,962.267725,9104.533087
1186.162768,0.000000,444.123565,8882.471304
1186.163084,76.609550,-518.144159,9548.656652
1186.163400,766.095498,-814.226536,9548.656652
1186.163715,1149.143247,148.041188,10066.800811
1186.164031,1149.143247,1036.288319,8734.430116
1186.164347,1149.143247,1036.288319,8364.327145
1186.164663,383.047749,-0.000000,9548.656652
1186.164979,536.266849,-370.102971,10214.842000
1186.165294,1685.410096,370.102971,10066.800811
1186.165610,612.876398,1702.473667,8364.327145
1186.165926,-229.828649,1554.432478,8512.368333
1186.166242,229.828649,-666.185348,9178.553681
1186.166558,612.876398,-962.267725,10140.821405
1186.166873,689.485948,-0.000000,10288.862594
1186.167189,536.266849,444.123565,9696.697840
1186.167505,-229.828649,-370.102971,9474.636058
1186.167821,-1149.143247,-666.185348,9548.656652
1186.168137,919.314598,-74.020594,10807.006753
1186.168452,1378.971896,1258.350101,9252.574275
1186.168768,612.876398,1184.329507,9104.533087
1186.169084,306.438199,-148.041188,9548.656652
1186.169400,536.266849,-666.185348,9326.594869
1186.169716,1455.581446,-222.061783,9770.718434
1186.170031,1378.971896,592.164754,9474.636058
1186.170347,842.705048,222.061783,9104.533087
1186.170663,0.000000,-74.020594,9474.636058
1186.170979,1149.143247,-370.102971,10732.986159
1186.171295,1302.362347,-666.185348,9844.739029
1186.171610,536.266849,888.247130,8882.471304
1186.171926,153.219100,-148.041188,9844.739029
1186.172242,459.657299,-962.267725,10066.800811
1186.172558,1149.143247,-740.205942,9844.739029
1186.172873,995.924147,-222.061783,10066.800811
1186.173189,612.876398,296.082377,9326.594869
1186.173505,459.657299,-0.000000,9252.574275
1186.173821,459.657299,-0.000000,8882.471304
1186.174137,1072.533697,-1036.288319,9252.574275
1186.174452,76.609550,-222.061783,10510.924376
1186.174768,229.828649,-0.000000,9770.718434
1186.175084,-689.485948,-444.123565,9178.553681
1186.175400,-536.266849,-1036.288319,9474.636058
1186.175716,0.000000,-518.144159,10436.903782
1186.176031,153.219100,222.061783,9104.533087
1186.176347,-842.705048,296.082377,9252.574275
1186.176663,-766.095498,-814.226536,10584.944971
1186.176979,-383.047749,-1628.453072,9844.739029
1186.177295,766.095498,-814.226536,9548.656652
1186.177610,919.314598,-0.000000,8956.491898
1186.177926,536.266849,-0.000000,9252.574275
1186.178242,306.438199,-592.164754,9474.636058
1186.178558,766.095498,-1258.350101,9474.636058
1186.178874,1302.362347,-0.000000,9178.553681
1186.179189,1225.752797,518.144159,8660.409521
1186.179505,766.095498,-0.000000,7772.162391
1186.179821,383.047749,-222.061783,9696.697840
1186.180137,919.314598,-1628.453072,9770.718434
1186.180453,1455.581446,-1036.288319,9474.636058
1186.180768,842.705048,592.164754,8290.306550
1186.181084,0.000000,-0.000000,7254.018232
1186.181400,0.000000,-1036.288319,8808.450710
1186.181716,153.219100,-1554.432478,9844.739029
1186.182032,383.047749,-666.185348,9622.677246
1186.182347,0.000000,-0.000000,8808.450710
1186.182663,-1302.362347,-814.226536,8734.430116
1186.182979,-919.314598,-1702.473667,9548.656652
1186.183295,-229.828649,-1406.391290,9474.636058
1186.183611,76.609550,-74.020594,8808.450710
1186.183926,-919.314598,-0.000000,9770.718434
1186.184242,-459.657299,-0.000000,9030.512492
1186.184558,0.000000,-296.082377,9474.636058
1186.184874,0.000000,-296.082377,10140.821405
1186.185190,459.657299,444.123565,8882.471304
1186.185505,153.219100,-0.000000,9104.533087
1186.185821,383.047749,-518.144159,9400.615463
1186.186137,229.828649,-740.205942,10066.800811
1186.186453,1455.581446,-0.000000,10362.883188
1186.186769,1455.581446,1036.288319,9326.594869
1186.187084,995.924147,1110.308913,8956.491898
1186.187400,1149.143247,444.123565,9326.594869
1186.187716,1455.581446,-0.000000,9474.636058
1186.188032,1149.143247,-222.061783,10214.842000
1186.188348,1149.143247,296.082377,9696.697840
1186.188663,689.485948,-0.000000,9474.636058
1186.188979,229.828649,-148.041188,9844.739029
1186.189295,689.485948,-740.205942,10732.986159
1186.189611,995.924147,-0.000000,9918.759623
1186.189927,536.266849,222.061783,9104.533087
1186.190242,153.219100,-518.144159,10436.903782
1186.190558,153.219100,-1776.494261,10732.986159
1186.190874,689.485948,-962.267725,10584.944971
1186.191190,1302.362347,740.205942,10066.800811
1186.191506,766.095498,666.185348,9178.553681
1186.191821,1072.533697,-0.000000,9696.697840
1186.192137,842.705048,-0.000000,9030.512492
1186.192453,1838.629195,-518.144159,10436.903782
1186.192769,1455.581446,444.123565,8882.471304
1186.193085,919.314598,-222.061783,9104.533087
1186.193400,612.876398,-148.041188,9844.739029
1186.193716,995.924147,-518.144159,10436.903782
1186.194032,1302.362347,222.061783,9548.656652
1186.194348,1149.143247,1184.329507,9252.574275
1186.194664,383.047749,518.144159,9400.615463
1186.194979,0.000000,370.102971,9178.553681
1186.195295,383.047749,-74.020594,9326.594869
1186.195611,383.047749,-222.061783,10140.821405
1186.195927,459.657299,148.041188,9474.636058
1186.196243,-383.047749,-148.041188,9104.533087
1186.196558,-612.876398,-666.185348,8586.388927
1186.196874,-536.266849,-666.185348,9474.636058
1186.197190,153.219100,-962.267725,9178.553681
1186.197506,-306.438199,-148.041188,9400.615463
1186.197822,-995.924147,-222.061783,9030.512492
1186.198137,-766.095498,-296.082377,8734.430116
1186.198453,153.219100,-444.123565,9104.533087
1186.198769,153.219100,-0.000000,8438.347739
1186.199085,-383.047749,-296.082377,9104.533087
1186.199401,-919.314598,-962.267725,9178.553681
1186.199716,-766.095498,-1258.350101,9326.594869
1186.200032,153.219100,-888.247130,9918.759623
1186.200348,612.876398,-518.144159,9400.615463
1186.200664,0.000000,296.082377,8364.327145
1186.200980,76.609550,-222.061783,8882.471304
1186.201295,0.000000,-1480.411884,9474.636058
1186.201611,612.876398,-1258.350101,10288.862594
1186.201927,689.485948,-0.000000,9474.636058
1186.202243,383.047749,-0.000000,9030.512492
1186.202559,153.219100,-0.000000,9104.533087
1186.202874,536.266849,-740.205942,9696.697840
1186.203190,1225.752797,-148.041188,9400.615463
1186.203506,1149.143247,296.082377,8882.471304
1186.203822,459.657299,-518.144159,9474.636058
1186.204138,0.000000,-518.144159,9770.718434
1186.204453,536.266849,-1036.288319,9622.677246
1186.204769,1762.019645,-444.123565,10362.883188
1186.205085,842.705048,814.226536,9992.780217
1186.205401,153.219100,666.185348,8438.347739
1186.205717,383.047749,-592.164754,9622.677246
1186.206032,995.924147,-1406.391290,11103.089130
1186.206348,689.485948,-74.020594,10362.883188
1186.206664,766.095498,666.185348,9844.739029
1186.206980,306.438199,-0.000000,8956.491898
1186.207295,689.485948,-0.000000,10066.800811
1186.207611,1455.581446,-814.226536,10658.965565
1186.207927,1225.752797,814.226536,9252.574275
1186.208243,689.485948,1258.350101,9326.594869
1186.208559,612.876398,-148.041188,9548.656652
1186.208874,1302.362347,-0.000000,10140.821405
1186.209190,1608.800546,-518.144159,10288.862594
1186.209506,1608.800546,962.267725,9326.594869
1186.209822,689.485948,518.144159,9474.636058
1186.210138,306.438199,-1258.350101,9622.677246
1186.210453,995.924147,-666.185348,10732.986159
1186.210769,1302.362347,-592.164754,10584.944971
1186.211085,995.924147,1480.411884,8956.491898
1186.211401,612.876398,814.226536,8734.430116
1186.211717,306.438199,-296.082377,9622.677246
1186.212032,919.314598,-370.102971,10140.821405
1186.212348,919.314598,888.247130,9252.574275
1186.212664,689.485948,888.247130,8734.430116
1186.212980,-153.219100,-296.082377,9548.656652
1186.213296,-689.485948,-592.164754,8882.471304
1186.213611,536.266849,-962.267725,10436.903782
1186.213927,689.485948,-0.000000,10066.800811
1186.214243,76.609550,222.061783,8290.306550
1186.214559,-766.095498,-74.020594,9474.636058
1186.214875,-766.095498,-814.226536,9400.615463
1186.215190,229.828649,-1184.329507,9474.636058
1186.215506,689.485948,222.061783,8734.430116
1186.215822,229.828649,-0.000000,8142.265362
1186.216138,-229.828649,-518.144159,8808.450710
1186.216454,229.828649,-1332.370696,9178.553681
1186.216769,689.485948,-1332.370696,9474.636058
1186.217085,766.095498,-0.000000,9104.533087
1186.217401,383.047749,370.102971,8142.265362
1186.217717,0.000000,-0.000000,7920.203579
1186.218033,-153.219100,-444.123565,9474.636058
1186.218348,1225.752797,-1036.288319,10066.800811
1186.218664,995.924147,518.144159,8660.409521
1186.218980,0.000000,-0.000000,8364.327145
1186.219296,-612.876398,-740.205942,8882.471304
1186.219612,0.000000,-1480.411884,9622.677246
1186.219927,306.438199,-1628.453072,10510.924376
1186.220243,-229.828649,-444.123565,9326.594869
1186.220559,-842.705048,-370.102971,9252.574275
1186.220875,-766.095498,-444.123565,9474.636058
1186.221191,-153.219100,-518.144159,9696.697840
1186.221506,459.657299,-0.000000,9696.697840
1186.221822,536.266849,888.247130,8734.430116
1186.222138,0.000000,222.061783,9104.533087
1186.222454,383.047749,-518.144159,9696.697840
1186.222770,1378.971896,-888.247130,9548.656652
1186.223085,919.314598,222.061783,9918.759623
1186.223401,1072.533697,370.102971,9030.512492
1186.223717,536.266849,-444.123565,9770.718434
1186.224033,995.924147,-740.205942,10436.903782
1186.224349,1378.971896,-222.061783,10362.883188
1186.224664,1378.971896,1702.473667,9548.656652
1186.224980,1149.143247,1702.473667,8364.327145
1186.225296,766.095498,740.205942,9474.636058
1186.225612,612.876398,444.123565,9474.636058
1186.225928,842.705048,444.123565,9770.718434
1186.226243,1149.143247,444.123565,9622.677246
1186.226559,229.828649,-296.082377,9844.739029
1186.226875,-383.047749,-666.185348,9992.780217
1186.227191,-229.828649,-888.247130,10584.944971
1186.227506,0.000000,-148.041188,10214.842000
1186.227822,229.828649,-0.000000,9992.780217
1186.228138,-153.219100,518.144159,9548.656652
1186.228454,-459.657299,-74.020594,10140.821405
1186.228769,153.219100,-592.164754,9474.636058
1186.229085,1072.533697,-0.000000,9770.718434
1186.229401,842.705048,1110.308913,8734.430116
1186.229717,612.876398,370.102971,9104.533087
1186.230032,306.438199,-296.082377,9178.553681
1186.230348,919.314598,-962.267725,9844.739029
1186.230664,995.924147,-740.205942,9548.656652
1186.230980,689.485948,222.061783,9622.677246
1186.231295,-153.219100,-0.000000,9326.594869
1186.231611,76.609550,-888.247130,9622.677246
1186.231927,153.219100,-592.164754,9918.759623
1186.232243,1149.143247,-0.000000,10214.842000
1186.232559,76.609550,444.123565,8882.471304
1186.232874,0.000000,-962.267725,9474.636058
1186.233190,0.000000,-1036.288319,9770.718434
1186.233506,383.047749,-1036.288319,9844.739029
1186.233822,766.095498,-0.000000,8956.491898
1186.234137,153.219100,-0.000000,9178.553681
1186.234453,-612.876398,-296.082377,9474.636058
1186.234769,229.828649,-592.164754,9252.574275
1186.235085,536.266849,-518.144159,9326.594869
1186.235400,459.657299,296.082377,9326.594869
1186.235716,536.266849,-74.020594,8808.450710
1186.236032,229.828649,-888.247130,8956.491898
1186.236348,459.657299,-1110.308913,9770.718434
1186.236663,1608.800546,-666.185348,9030.512492
1186.236979,919.314598,-0.000000,8142.265362
1186.237295,-842.705048,-0.000000,8808.450710
1186.237611,-153.219100,-740.205942,9918.759623
1186.237926,612.876398,-592.164754,9104.533087
1186.238242,536.266849,-0.000000,9030.512492
1186.238558,-229.828649,-0.000000,9844.739029
1186.238874,536.266849,-518.144159,9252.574275
1186.239189,306.438199,-1036.288319,8956.491898
1186.239505,766.095498,-888.247130,10658.965565
1186.239821,1302.362347,-444.123565,9918.759623
1186.240137,919.314598,444.123565,8660.409521
1186.240453,383.047749,296.082377,8734.430116
1186.240768,612.876398,-222.061783,10288.862594
1186.241084,1378.971896,148.041188,10140.821405
1186.241400,995.924147,1110.308913,8438.347739
1186.241716,612.876398,814.226536,8808.450710
1186.242031,919.314598,370.102971,8882.471304
1186.242347,995.924147,-296.082377,9252.574275
1186.242663,1072.533697,-222.061783,10140.821405
1186.242979,919.314598,296.082377,9918.759623
1186.243294,536.266849,444.123565,8364.327145
1186.243610,0.000000,-370.102971,9400.615463
1186.243926,-76.609550,-1110.308913,10807.006753
1186.244242,459.657299,-518.144159,11399.171507
1186.244557,76.609550,888.247130,8882.471304
1186.244873,-383.047749,370.102971,9474.636058
1186.245189,-229.828649,-518.144159,10288.862594
1186.245505,383.047749,-888.247130,10288.862594
1186.245820,536.266849,296.082377,9326.594869
1186.246136,1072.533697,-0.000000,9326.594869
1186.246452,306.438199,-666.185348,10140.821405
1186.246768,0.000000,-666.185348,9696.697840
1186.247084,459.657299,-1258.350101,10510.924376
1186.247399,1455.581446,-222.061783,10362.883188
1186.247715,766.095498,1110.308913,8660.409521
1186.248031,766.095498,370.102971,8660.409521
1186.248347,919.314598,-814.226536,9622.677246
1186.248662,1532.190996,-1332.370696,10732.986159
1186.248978,1685.410096,296.082377,9104.533087
1186.249294,612.876398,1258.350101,8142.265362
1186.249610,76.609550,-740.205942,9178.553681
1186.249925,536.266849,-962.267725,10362.883188
1186.250241,383.047749,-1036.288319,9844.739029
1186.250557,0.000000,-0.000000,9030.512492
1186.250873,-689.485948,-148.041188,9326.594869
1186.251188,-842.705048,-1258.350101,9548.656652
1186.251504,-689.485948,-1480.411884,10436.903782
1186.251820,76.609550,-1406.391290,10288.862594
1186.252136,-153.219100,-0.000000,9474.636058
1186.252451,153.219100,-0.000000,8142.265362
1186.252767,229.828649,-0.000000,8512.368333
1186.253083,842.705048,-296.082377,9548.656652
1186.253399,1072.533697,-74.020594,9326.594869
1186.253714,919.314598,370.102971,8438.347739
1186.254030,842.705048,-74.020594,9030.512492
1186.254346,766.095498,-370.102971,8290.306550
1186.254662,842.705048,-814.226536,9104.533087
1186.254978,1532.190996,-740.205942,9326.594869
1186.255293,1072.533697,222.061783,9326.594869
1186.255609,0.000000,148.041188,8882.471304
1186.255925,766.095498,-0.000000,9326.594869
1186.256241,842.705048,-962.267725,9104.533087
1186.256556,766.095498,148.041188,9252.574275
1186.256872,459.657299,-0.000000,9326.594869
1186.257188,0.000000,-1036.288319,9252.574275
1186.257504,-153.219100,-1110.308913,10066.800811
1186.257819,919.314598,-962.267725,9770.718434
1186.258135,459.657299,148.041188,9622.677246
1186.258451,0.000000,148.041188,9030.512492
1186.258767,229.828649,-296.082377,9178.553681
1186.259082,842.705048,-518.144159,9992.780217
1186.259398,1225.752797,-0.000000,10066.800811
1186.259714,919.314598,666.185348,8808.450710
1186.260030,229.828649,370.102971,8438.347739
1186.260345,229.828649,-370.102971,9844.739029
1186.260661,995.924147,-666.185348,9696.697840
1186.260977,1302.362347,370.102971,10066.800811
1186.261293,689.485948,666.185348,9252.574275
1186.261608,76.609550,-74.020594,9252.574275
1186.261924,306.438199,-1332.370696,11029.068536
1186.262240,536.266849,-1332.370696,10362.883188
1186.262556,1072.533697,666.185348,9770.718434
1186.262872,1225.752797,592.164754,9474.636058
1186.263187,0.000000,-74.020594,9474.636058
1186.263503,306.438199,-592.164754,9844.739029
1186.263819,919.314598,-740.205942,10362.883188
1186.264135,1072.533697,296.082377,9770.718434
1186.264450,536.266849,-0.000000,9400.615463
1186.264766,0.000000,148.041188,9474.636058
1186.265082,0.000000,-518.144159,9474.636058
1186.265398,306.438199,-888.247130,11325.150913
1186.265713,689.485948,-0.000000,9622.677246
1186.266029,153.219100,444.123565,8956.491898
1186.266345,0.000000,-518.144159,9844.739029
1186.266661,-153.219100,-1184.329507,10732.986159
1186.266976,1072.533697,-740.205942,10584.944971
1186.267292,1149.143247,444.123565,9252.574275
1186.267608,0.000000,148.041188,9474.636058
1186.267924,0.000000,-74.020594,10066.800811
1186.268239,766.095498,222.061783,9252.574275
1186.268555,1149.143247,518.144159,9178.553681
1186.268871,689.485948,1406.391290,8734.430116
1186.269187,306.438199,-0.000000,9178.553681
1186.269503,153.219100,-1036.288319,9548.656652
1186.269818,153.219100,-1480.411884,10140.821405
1186.270134,995.924147,-296.082377,10066.800811
1186.270450,1149.143247,-0.000000,8882.471304
1186.270766,-383.047749,-74.020594,8586.388927
1186.271081,0.000000,-296.082377,9622.677246
1186.271397,459.657299,-1036.288319,10362.883188
1186.271713,1149.143247,592.164754,8882.471304
1186.272029,689.485948,1036.288319,7624.121203
1186.272344,306.438199,-0.000000,9252.574275
1186.272660,459.657299,-222.061783,8808.450710
1186.272976,689.485948,-444.123565,8808.450710
1186.273292,612.876398,-0.000000,9400.615463
1186.273607,0.000000,-0.000000,8956.491898
1186.273923,-612.876398,-0.000000,8586.388927
1186.274239,-153.219100,-592.164754,9326.594869
1186.274555,0.000000,-1184.329507,10436.903782
1186.274870,536.266849,518.144159,9770.718434
1186.275186,-612.876398,740.205942,6735.874072
1186.275502,-766.095498,-222.061783,9474.636058
1186.275818,76.609550,-1554.432478,10436.903782
1186.276133,383.047749,-0.000000,8882.471304
1186.276449,306.438199,666.185348,8734.430116
1186.276765,76.609550,-740.205942,9474.636058
1186.277081,0.000000,-962.267725,9844.739029
1186.277397,153.219100,-1110.308913,10436.903782
1186.277712,842.705048,-518.144159,10066.800811
1186.278028,1149.143247,888.247130,9548.656652
1186.278344,842.705048,370.102971,7994.224174
1186.278660,919.314598,-0.000000,8586.388927
1186.278975,1762.019645,-1184.329507,10288.862594
1186.279291,2068.457845,-222.061783,9696.697840
1186.279607,1149.143247,962.267725,8734.430116
1186.279923,383.047749,-0.000000,8660.409521
1186.280238,76.609550,-1554.432478,10288.862594
1186.280554,689.485948,-740.205942,10881.027347
1186.280870,842.705048,-148.041188,9844.739029
1186.281186,-229.828649,-666.185348,9400.615463
1186.281501,-919.314598,-1480.411884,10881.027347
1186.281817,0.000000,-1702.473667,10584.944971
1186.282133,842.705048,-1554.432478,10881.027347
1186.282449,766.095498,740.205942,9474.636058
1186.282764,229.828649,962.267725,8586.388927
1186.283080,842.705048,148.041188,9474.636058
1186.283396,689.485948,-0.000000,9104.533087
1186.283712,995.924147,-444.123565,10066.800811
1186.284027,1455.581446,148.041188,9696.697840
1186.284343,536.266849,296.082377,9400.615463
1186.284659,612.876398,-148.041188,9326.594869
1186.284975,1378.971896,-148.041188,9252.574275
1186.285291,1685.410096,-444.123565,9992.780217
1186.285606,1225.752797,444.123565,9030.512492
1186.285922,459.657299,518.144159,9326.594869
1186.286238,153.219100,-444.123565,9992.780217
1186.286554,306.438199,-814.226536,10214.842000
1186.286869,1149.143247,-74.020594,9696.697840
1186.287185,229.828649,1480.411884,8364.327145
1186.287501,-153.219100,148.041188,8364.327145
1186.287817,153.219100,-814.226536,9918.759623
1186.288132,0.000000,-1924.535449,10140.821405
1186.288448,229.828649,-740.205942,9918.759623
1186.288764,-306.438199,518.144159,8142.265362
1186.289080,-1149.143247,-222.061783,8956.491898
1186.289395,-766.095498,-888.247130,10140.821405
1186.289711,76.609550,-666.185348,9918.759623
1186.290027,153.219100,740.205942,8290.306550
1186.290343,-306.438199,-0.000000,8660.409521
1186.290658,-919.314598,-1702.473667,9400.615463
1186.290974,0.000000,-1406.391290,10066.800811
1186.291290,459.657299,-592.164754,10584.944971
1186.291606,995.924147,-0.000000,9104.533087
1186.291921,459.657299,296.082377,8142.265362
1186.292237,383.047749,-0.000000,8808.450710
1186.292553,459.657299,-1184.329507,9548.656652
1186.292869,1149.143247,-666.185348,9992.780217
1186.293185,842.705048,1332.370696,9252.574275
1186.293500,229.828649,740.205942,8068.244768
1186.293816,612.876398,-518.144159,9104.533087
1186.294132,766.095498,-1258.350101,10732.986159
1186.294448,919.314598,-888.247130,9474.636058
1186.294763,0.000000,296.082377,8660.409521
1186.295079,-536.266849,-74.020594,9104.533087
1186.295395,153.219100,-666.185348,9844.739029
1186.295711,536.266849,-1110.308913,10584.944971
1186.296026,306.438199,-0.000000,9326.594869
1186.296342,0.000000,222.061783,8882.471304
1186.296658,-76.609550,-814.226536,9548.656652
1186.296974,229.828649,-1406.391290,9474.636058
1186.297289,766.095498,-370.102971,10214.842000
1186.297605,1302.362347,370.102971,9326.594869
1186.297921,689.485948,1258.350101,8882.471304
1186.298237,383.047749,1184.329507,8808.450710
1186.298552,995.924147,-74.020594,8956.491898
1186.298868,1149.143247,-74.020594,10140.821405
1186.299184,995.924147,-0.000000,10584.944971
1186.299500,536.266849,148.041188,9474.636058
1186.299816,0.000000,-592.164754,9030.512492
1186.300131,842.705048,-888.247130,10214.842000
1186.300447,1149.143247,-296.082377,10732.986159
1186.300763,1378.971896,740.205942,9104.533087
1186.301079,306.438199,592.164754,9400.615463
1186.301394,229.828649,-74.020594,9474.636058
1186.301710,842.705048,-592.164754,9770.718434
1186.302026,1225.752797,-0.000000,10288.862594
1186.302342,766.095498,1110.308913,9252.574275
1186.302657,612.876398,888.247130,8734.430116
1186.302973,306.438199,444.123565,8586.388927
1186.303289,229.828649,-814.226536,10214.842000
1186.303605,612.876398,-296.082377,10288.862594
1186.303920,153.219100,518.144159,8882.471304
1186.304236,-536.266849,-740.205942,9400.615463
1186.304552,-153.219100,-962.267725,10732.986159
1186.304868,153.219100,-1258.350101,10362.883188
1186.305183,766.095498,222.061783,9844.739029
1186.305499,0.000000,592.164754,9400.615463
1186.305815,-383.047749,-296.082377,8956.491898
1186.306131,459.657299,-1036.288319,9770.718434
1186.306446,1072.533697,-1258.350101,10510.924376
1186.306762,1608.800546,-148.041188,10362.883188
1186.307078,536.266849,444.123565,7476.080014
1186.307394,76.609550,222.061783,8808.450710
1186.307710,459.657299,-1480.411884,10362.883188
1186.308025,919.314598,-962.267725,9918.759623
1186.308341,1149.143247,444.123565,9178.553681
1186.308657,689.485948,-666.185348,8956.491898
1186.308973,76.609550,-1184.329507,9400.615463
1186.309288,536.266849,-2146.597232,10732.986159
1186.309604,1608.800546,-1406.391290,9992.780217
1186.309920,1532.190996,-296.082377,8808.450710
1186.310236,766.095498,-0.000000,8364.327145
1186.310551,842.705048,-518.144159,9178.553681
1186.310867,1149.143247,-1036.288319,9400.615463
1186.311183,1225.752797,-0.000000,9622.677246
1186.311499,842.705048,148.041188,8512.368333
1186.311814,0.000000,-148.041188,8956.491898
1186.312130,536.266849,-444.123565,9178.553681
1186.312446,459.657299,-1554.432478,9400.615463
1186.312762,459.657299,-1406.391290,9326.594869
1186.313077,-536.266849,-888.247130,9474.636058
1186.313393,-1225.752797,-1332.370696,9548.656652
1186.313709,-1072.533697,-1628.453072,10066.800811
1186.314025,-459.657299,-2294.638420,11325.150913
1186.314340,0.000000,-1184.329507,10288.862594
1186.314656,-153.219100,-0.000000,8512.368333
1186.314972,-229.828649,-1184.329507,9178.553681
1186.315288,0.000000,-2368.659014,10436.903782
1186.315604,1225.752797,-1998.556043,10214.842000
1186.315919,2451.505594,-0.000000,9104.533087
1186.316235,1378.971896,148.041188,7772.162391
1186.316551,1149.143247,-666.185348,8956.491898
1186.316867,1991.848295,-1480.411884,9548.656652
1186.317182,1991.848295,-148.041188,9918.759623
1186.317498,1302.362347,1184.329507,8216.285956
1186.317814,766.095498,518.144159,7476.080014
1186.318130,153.219100,-814.226536,8882.471304
1186.318445,0.000000,-2368.659014,10214.842000
1186.318761,153.219100,-2368.659014,10881.027347
1186.319077,-306.438199,-1776.494261,10140.821405
1186.319393,-766.095498,-2812.782580,10066.800811
1186.319708,-842.705048,-3330.926739,11399.171507
1186.320024,0.000000,-2738.761985,10436.903782
1186.320340,995.924147,-2220.617826,10955.047942
1186.320656,1991.848295,-296.082377,9622.677246
1186.320971,2068.457845,-740.205942,8290.306550
1186.321287,2987.772442,-666.185348,8660.409521
1186.321603,3907.087040,-740.205942,8808.450710
1186.321919,4213.525239,-296.082377,8660.409521
1186.322235,4290.134789,296.082377,7846.182985
1186.322550,3830.477490,-444.123565,7476.080014
1186.322866,3447.429741,-1184.329507,8660.409521
1186.323182,2757.943793,-1554.432478,10214.842000
1186.323498,2528.115143,-1776.494261,9844.739029
1186.323813,2145.067394,-1036.288319,9696.697840
1186.324129,1838.629195,-1480.411884,10066.800811
1186.324445,1225.752797,-2886.803174,10881.027347
1186.324761,1455.581446,-2960.823768,11399.171507
1186.325076,1532.190996,-2294.638420,10362.883188
1186.325392,2068.457845,-1998.556043,9844.739029
1186.325708,2451.505594,-1850.514855,9770.718434
1186.326024,2451.505594,-2146.597232,9252.574275
1186.326339,2298.286494,-2590.720797,9548.656652
1186.326655,2911.162892,-1628.453072,9622.677246
1186.326971,3447.429741,-1258.350101,9770.718434
1186.327287,3677.258390,-1406.391290,8586.388927
1186.327602,3524.039291,-1924.535449,8734.430116
1186.327918,3907.087040,-2368.659014,9844.739029
1186.328234,3217.601092,-2146.597232,9622.677246
1186.328550,4060.306139,-1850.514855,9622.677246
1186.328865,3600.648841,-1258.350101,9030.512492
1186.329181,3830.477490,-1554.432478,9474.636058
1186.329497,3447.429741,-2146.597232,9548.656652
1186.329813,2911.162892,-2072.576638,9030.512492
1186.330129,2681.334243,-1702.473667,9622.677246
1186.330444,3217.601092,-1924.535449,10140.821405
1186.330760,2757.943793,-1850.514855,9030.512492
1186.331076,2834.553343,-1850.514855,9030.512492
1186.331392,2911.162892,-2294.638420,9622.677246
1186.331707,2451.505594,-2516.700203,9178.553681
1186.332023,2298.286494,-2516.700203,10066.800811
1186.332339,2604.724693,-3034.844362,9844.739029
1186.332655,2451.505594,-2294.638420,9696.697840
1186.332970,2911.162892,-2072.576638,9474.636058
1186.333286,2681.334243,-2664.741391,9326.594869
1186.333602,2834.553343,-2368.659014,9696.697840
1186.333918,3140.991542,-2146.597232,9696.697840
1186.334233,3524.039291,-1924.535449,8660.409521
1186.334549,3524.039291,-1480.411884,8660.409521
1186.334865,3600.648841,-1628.453072,8438.347739
1186.335181,3753.867940,-2294.638420,8586.388927
1186.335497,2757.943793,-2146.597232,9326.594869
1186.335812,2298.286494,-1702.473667,8956.491898
1186.336128,1915.238745,-1776.494261,8956.491898
1186.336444,1378.971896,-1776.494261,9474.636058
1186.336760,842.705048,-2368.659014,9918.759623
1186.337075,229.828649,-3256.906145,10288.862594
1186.337391,-306.438199,-3330.926739,10288.862594
1186.337707,-612.876398,-2886.803174,10066.800811
1186.338023,0.000000,-2886.803174,10955.047942
1186.338338,306.438199,-3034.844362,11029.068536
1186.338654,536.266849,-2442.679609,10288.862594
1186.338970,1302.362347,-2220.617826,9548.656652
1186.339286,1838.629195,-2664.741391,9548.656652
1186.339601,3140.991542,-2812.782580,9474.636058
1186.339917,3447.429741,-1702.473667,8734.430116
1186.340233,3830.477490,-1776.494261,9104.533087
1186.340549,4596.572988,-1554.432478,9178.553681
1186.340865,4443.353888,-1258.350101,8512.368333
1186.341180,3983.696590,-1702.473667,8734.430116
1186.341496,3907.087040,-2072.576638,9104.533087
1186.341812,3524.039291,-2072.576638,9400.615463
1186.342128,2757.943793,-1776.494261,9622.677246
1186.342443,1991.848295,-2368.659014,9844.739029
1186.342759,1991.848295,-3256.906145,10436.903782
1186.343075,1532.190996,-3701.029710,10584.944971
1186.343391,1225.752797,-3701.029710,10066.800811
1186.343706,1225.752797,-3552.988522,10140.821405
1186.344022,1991.848295,-3256.906145,10510.924376
1186.344338,1915.238745,-2738.761985,10584.944971
1186.344654,2451.505594,-2368.659014,9770.718434
1186.344969,2604.724693,-1998.556043,9326.594869
1186.345285,3217.601092,-2146.597232,9178.553681
1186.345601,3983.696590,-1776.494261,8734.430116
1186.345917,4213.525239,-1628.453072,8734.430116
1186.346232,4443.353888,-1702.473667,8512.368333
1186.346548,4673.182538,-2220.617826,8660.409521
1186.346864,4749.792088,-1998.556043,8882.471304
1186.347180,4213.525239,-1702.473667,9178.553681
1186.347496,3294.210641,-1776.494261,9400.615463
1186.347811,3830.477490,-2294.638420,9474.636058
1186.348127,3064.381992,-2368.659014,9548.656652
1186.348443,2604.724693,-2220.617826,9400.615463
1186.348759,2374.896044,-2294.638420,9400.615463
1186.349074,2221.676944,-2294.638420,9178.553681
1186.349390,2221.676944,-2368.659014,9474.636058
1186.349706,1991.848295,-2368.659014,9474.636058
1186.350022,1149.143247,-2072.576638,9770.718434
1186.350337,995.924147,-2516.700203,10436.903782
1186.350653,1991.848295,-3182.885551,10584.944971
1186.350969,1455.581446,-3034.844362,10288.862594
1186.351285,2068.457845,-1702.473667,9030.512492
1186.351600,2145.067394,-1480.411884,8734.430116
1186.351916,2987.772442,-1480.411884,8956.491898
1186.352232,2834.553343,-1480.411884,9252.574275
1186.352548,3217.601092,-1184.329507,9104.533087
1186.352864,3140.991542,-1184.329507,9104.533087
1186.353179,2834.553343,-1850.514855,9104.533087
1186.353495,3140.991542,-2516.700203,9696.697840
1186.353811,2834.553343,-2886.803174,9918.759623
1186.354127,3140.991542,-2368.659014,9918.759623
1186.354442,2911.162892,-1998.556043,9252.574275
1186.354758,2834.553343,-1554.432478,9104.533087
1186.355074,2757.943793,-1406.391290,9474.636058
1186.355390,2681.334243,-592.164754,8956.491898
1186.355705,2221.676944,-444.123565,8882.471304
1186.356021,1685.410096,-1184.329507,9400.615463
1186.356337,1302.362347,-2664.741391,10214.842000
1186.356653,1378.971896,-3849.070898,10436.903782
1186.356968,1149.143247,-4367.215058,10955.047942
1186.357284,1455.581446,-3627.009116,10658.965565
1186.357600,1991.848295,-3034.844362,9844.739029
1186.357916,2221.676944,-2146.597232,9622.677246
1186.358232,2298.286494,-1332.370696,9474.636058
1186.358547,2604.724693,-740.205942,9252.574275
1186.358863,2834.553343,-0.000000,8660.409521
1186.359179,2757.943793,-0.000000,8290.306550
1186.359495,2528.115143,-1110.308913,9252.574275
1186.359810,2911.162892,-2294.638420,9622.677246
1186.360126,2604.724693,-3256.906145,9844.739029
1186.360442,2681.334243,-3923.091493,10288.862594
1186.360758,2451.505594,-3997.112087,10362.883188
1186.361073,2604.724693,-3775.050304,10288.862594
1186.361389,2528.115143,-3034.844362,10436.903782
1186.361705,2451.505594,-1850.514855,9844.739029
1186.362021,2834.553343,-962.267725,9252.574275
1186.362336,2681.334243,-740.205942,8660.409521
1186.362652,3140.991542,-518.144159,8216.285956
1186.362968,2987.772442,-370.102971,7920.203579
1186.363284,2298.286494,-1332.370696,8290.306550
1186.363599,2374.896044,-2146.597232,8808.450710
1186.363915,1685.410096,-3478.967927,9696.697840
1186.364231,1302.362347,-4515.256246,10584.944971
1186.364547,689.485948,-5329.482782,11251.130318
1186.364863,919.314598,-5329.482782,11695.253884
1186.365178,1532.190996,-4441.235652,11325.150913
1186.365494,2298.286494,-3404.947333,10584.944971
1186.365810,3370.820191,-2664.741391,10140.821405
1186.366126,4213.525239,-1702.473667,9030.512492
1186.366441,4673.182538,-1110.308913,7994.224174
1186.366757,5362.668486,-518.144159,7105.977043
1186.367073,5132.839837,-444.123565,6809.894666
1186.367389,4826.401637,-222.061783,7105.977043
1186.367704,3983.696590,-518.144159,7550.100608
1186.368020,3140.991542,-1332.370696,8068.244768
1186.368336,1915.238745,-1998.556043,9030.512492
1186.368652,919.314598,-2812.782580,10288.862594
1186.368967,153.219100,-3775.050304,11029.068536
1186.369283,-229.828649,-4293.194464,11695.253884
1186.369599,229.828649,-4663.297435,11695.253884
1186.369915,306.438199,-4885.359217,11473.192101
1186.370231,612.876398,-4959.379811,11399.171507
1186.370546,1455.581446,-4441.235652,10732.986159
1186.370862,2451.505594,-3478.967927,9918.759623
1186.371178,3677.258390,-2368.659014,8882.471304
1186.371494,4443.353888,-1480.411884,8216.285956
1186.371809,5056.230287,296.082377,7105.977043
1186.372125,5439.278036,888.247130,6735.874072
1186.372441,5822.325785,444.123565,7031.956449
1186.372757,5286.058936,-296.082377,7328.038826
1186.373072,4749.792088,-1406.391290,8068.244768
1186.373388,2987.772442,-2590.720797,9252.574275
1186.373704,2221.676944,-3478.967927,10214.842000
1186.374020,1149.143247,-3627.009116,11251.130318
1186.374335,229.828649,-3701.029710,11769.274478
1186.374651,-153.219100,-3552.988522,11695.253884
1186.374967,-766.095498,-3182.885551,11103.089130
1186.375283,-689.485948,-3108.864956,10955.047942
1186.375598,459.657299,-2590.720797,10584.944971
1186.375914,689.485948,-2146.597232,9696.697840
1186.376230,1838.629195,-1480.411884,8882.471304
1186.376546,2834.553343,-740.205942,9104.533087
1186.376862,3370.820191,-888.247130,8734.430116
1186.377177,3600.648841,-1554.432478,8808.450710
1186.377493,3524.039291,-1628.453072,8956.491898
1186.377809,3294.210641,-1702.473667,9252.574275
1186.378125,2911.162892,-1924.535449,9474.636058
1186.378440,2604.724693,-1850.514855,9770.718434
1186.378756,2604.724693,-1406.391290,9696.697840
1186.379072,2145.067394,-962.267725,9548.656652
1186.379388,2374.896044,-1480.411884,9992.780217
1186.379703,1838.629195,-2072.576638,9696.697840
1186.380019,2068.457845,-2516.700203,9770.718434
1186.380335,2145.067394,-2516.700203,9992.780217
1186.380651,2298.286494,-2368.659014,9622.677246
1186.380966,2298.286494,-2146.597232,9696.697840
1186.381282,2451.505594,-1850.514855,9474.636058
1186.381598,1762.019645,-1702.473667,9548.656652
1186.381914,1838.629195,-1776.494261,9770.718434
1186.382230,1685.410096,-1924.535449,9696.697840
1186.382545,1762.019645,-1776.494261,9918.759623
1186.382861,1608.800546,-1702.473667,9474.636058
1186.383177,1838.629195,-1258.350101,9474.636058
1186.383493,1762.019645,-666.185348,8808.450710
1186.383808,1685.410096,-666.185348,9178.553681
1186.384124,1532.190996,-740.205942,8882.471304
1186.384440,1072.533697,-1036.288319,8808.450710
1186.384756,919.314598,-1628.453072,9104.533087
1186.385071,1455.581446,-1924.535449,9252.574275
1186.385387,1455.581446,-2072.576638,9622.677246
1186.385703,1838.629195,-2590.720797,9548.656652
1186.386019,1838.629195,-2812.782580,10140.821405
1186.386334,2374.896044,-2738.761985,9992.780217
1186.386650,2604.724693,-2368.659014,9844.739029
1186.386966,3370.820191,-1702.473667,9326.594869
1186.387282,3140.991542,-1628.453072,9474.636058
1186.387598,2911.162892,-1110.308913,9400.615463
1186.387913,3217.601092,-1480.411884,9252.574275
1186.388229,3140.991542,-1480.411884,9178.553681
1186.388545,2987.772442,-1924.535449,9326.594869
1186.388861,3064.381992,-2146.597232,9400.615463
1186.389176,3447.429741,-2368.659014,9548.656652
1186.389492,3524.039291,-2590.720797,9622.677246
1186.389808,3907.087040,-3108.864956,9622.677246
1186.390124,3907.087040,-3478.967927,10066.800811
1186.390439,4060.306139,-3552.988522,9844.739029
1186.390755,4136.915689,-3330.926739,10066.800811
1186.391071,3830.477490,-3108.864956,10288.862594
1186.391387,3524.039291,-2960.823768,9770.718434
1186.391702,3907.087040,-2812.782580,9696.697840
1186.392018,3064.381992,-2368.659014,9622.677246
1186.392334,3217.601092,-2368.659014,9178.553681
1186.392650,3064.381992,-2442.679609,9030.512492
1186.392965,3140.991542,-2442.679609,9104.533087
1186.393281,2757.943793,-3256.906145,9400.615463
1186.393597,2528.115143,-3775.050304,9622.677246
1186.393913,2221.676944,-3775.050304,9770.718434
1186.394229,2221.676944,-3923.091493,10066.800811
1186.394544,2145.067394,-3923.091493,10658.965565
1186.394860,2451.505594,-3923.091493,9918.759623
1186.395176,2221.676944,-3701.029710,9770.718434
1186.395492,2451.505594,-3478.967927,9400.615463
1186.395807,2528.115143,-2664.741391,9178.553681
1186.396123,3600.648841,-2738.761985,8734.430116
1186.396439,3064.381992,-2220.617826,8142.265362
1186.396755,3140.991542,-2072.576638,8438.347739
1186.397070,2911.162892,-2442.679609,8882.471304
1186.397386,2987.772442,-3034.844362,9178.553681
1186.397702,2834.553343,-3404.947333,9400.615463
1186.398018,2604.724693,-4293.194464,9548.656652
1186.398333,2145.067394,-4145.153275,9844.739029
1186.398649,2604.724693,-3997.112087,9918.759623
1186.398965,2834.553343,-3627.009116,9474.636058
1186.399281,3064.381992,-2516.700203,8882.471304
1186.399597,2911.162892,-1702.473667,8438.347739
1186.399912,2451.505594,-1110.308913,8290.306550
1186.400228,2374.896044,-962.267725,8068.244768
1186.400544,2451.505594,-592.164754,8216.285956
1186.400860,1378.971896,-814.226536,8142.265362
1186.401175,612.876398,-1406.391290,8808.450710
1186.401491,76.609550,-2368.659014,9548.656652
1186.401807,229.828649,-3404.947333,10288.862594
1186.402123,76.609550,-4145.153275,10658.965565
1186.402438,689.485948,-4293.194464,10955.047942
1186.402754,995.924147,-4441.235652,11177.109724
1186.403070,1762.019645,-3849.070898,11177.109724
1186.403386,2604.724693,-3034.844362,10510.924376
1186.403701,3524.039291,-1998.556043,9548.656652
1186.404017,4519.963438,-370.102971,8734.430116
1186.404333,4826.401637,592.164754,7698.141797
1186.404649,4903.011187,1110.308913,7105.977043
1186.404965,4596.572988,1480.411884,7105.977043
1186.405280,3524.039291,1702.473667,7846.182985
1186.405596,2987.772442,1036.288319,7994.224174
1186.405912,1991.848295,-0.000000,8882.471304
1186.406228,612.876398,-1406.391290,9992.780217
1186.406543,-153.219100,-2886.803174,11251.130318
1186.406859,-1072.533697,-3997.112087,12139.377449
1186.407175,-842.705048,-4663.297435,12731.542202
1186.407491,-612.876398,-4663.297435,12805.562797
1186.407806,-229.828649,-4367.215058,12361.439231
1186.408122,919.314598,-3552.988522,11843.295072
1186.408438,2298.286494,-2442.679609,11103.089130
1186.408754,3447.429741,-1036.288319,9400.615463
1186.409069,4826.401637,296.082377,8216.285956
1186.409385,6052.154434,1480.411884,7105.977043
1186.409701,6741.640382,2442.679609,6587.832884
1186.410017,6588.421283,2590.720797,6809.894666
1186.410332,5822.325785,1036.288319,7179.997637
1186.410648,4979.620737,-296.082377,8438.347739
1186.410964,3753.867940,-2294.638420,9548.656652
1186.411280,2451.505594,-3627.009116,10881.027347
1186.411596,1685.410096,-4515.256246,11843.295072
1186.411911,459.657299,-4663.297435,11991.336260
1186.412227,0.000000,-3701.029710,11917.315666
1186.412543,-383.047749,-3330.926739,11917.315666
1186.412859,612.876398,-2590.720797,11251.130318
1186.413174,1072.533697,-1702.473667,10214.842000
1186.413490,1991.848295,-1480.411884,9252.574275
1186.413806,2834.553343,-1480.411884,8734.430116
1186.414122,3600.648841,-1702.473667,8734.430116
1186.414437,4749.792088,-1850.514855,7920.203579
1186.414753,5286.058936,-2146.597232,8216.285956
1186.415069,4903.011187,-2886.803174,8734.430116
1186.415385,5056.230287,-3404.947333,9104.533087
1186.415700,4979.620737,-3108.864956,9252.574275
1186.416016,4749.792088,-2220.617826,9178.553681
1186.416332,3983.696590,-1406.391290,8734.430116
1186.416648,3140.991542,-1480.411884,8586.388927
1186.416964,3064.381992,-2146.597232,9030.512492
1186.417279,2451.505594,-3182.885551,9326.594869
1186.417595,1532.190996,-3552.988522,9030.512492
1186.417911,766.095498,-4071.132681,8882.471304
1186.418227,919.314598,-4811.338623,9622.677246
1186.418542,1455.581446,-4959.379811,9548.656652
1186.418858,1608.800546,-3404.947333,9622.677246
1186.419174,1072.533697,-2812.782580,9104.533087
1186.419490,919.314598,-3256.906145,9474.636058
1186.419805,1302.362347,-3849.070898,9918.759623
1186.420121,1762.019645,-4219.173869,10066.800811
1186.420437,2221.676944,-3627.009116,9474.636058
1186.420753,2451.505594,-3108.864956,9030.512492
1186.421068,3294.210641,-2886.803174,8808.450710
1186.421384,3753.867940,-2664.741391,8660.409521
1186.421700,3907.087040,-1850.514855,7994.224174
1186.422016,3064.381992,-1480.411884,8216.285956
1186.422331,2987.772442,-1628.453072,8808.450710
1186.422647,2987.772442,-1406.391290,8808.450710
1186.422963,2834.553343,-1184.329507,8734.430116
1186.423279,2834.553343,-1628.453072,9030.512492
1186.423595,2298.286494,-2072.576638,9400.615463
1186.423910,1685.410096,-1850.514855,9104.533087
1186.424226,766.095498,-2368.659014,9770.718434
1186.424542,229.828649,-3034.844362,10436.903782
1186.424858,229.828649,-3552.988522,11251.130318
1186.425173,-459.657299,-3552.988522,11547.212695
1186.425489,-306.438199,-3627.009116,11177.109724
1186.425805,459.657299,-3404.947333,11251.130318
1186.426121,1378.971896,-2368.659014,10214.842000
1186.426436,2374.896044,-2146.597232,9696.697840
1186.426752,3600.648841,-1332.370696,9474.636058
1186.427068,4903.011187,-740.205942,8808.450710
1186.427384,5822.325785,-666.185348,8290.306550
1186.427699,6128.763984,-1110.308913,8142.265362
1186.428015,6128.763984,-518.144159,8512.368333
1186.428331,5286.058936,-444.123565,7846.182985
1186.428647,4673.182538,-740.205942,8586.388927
1186.428963,3830.477490,-1036.288319,9770.718434
1186.429279,2528.115143,-666.185348,9844.739029
1186.429594,1225.752797,-1554.432478,10436.903782
1186.429910,536.266849,-2146.597232,10584.944971
1186.430226,-229.828649,-2442.679609,11029.068536
1186.430542,0.000000,-3034.844362,11547.212695
1186.430858,153.219100,-3552.988522,11769.274478
1186.431174,153.219100,-2960.823768,11103.089130
1186.431489,689.485948,-3330.926739,11473.192101
1186.431805,2221.676944,-3478.967927,11029.068536
1186.432121,2834.553343,-1998.556043,9178.553681
1186.432437,3753.867940,-296.082377,8364.327145
1186.432753,4519.963438,-518.144159,8586.388927
1186.433069,5056.230287,-74.020594,8660.409521
1186.433384,5515.887586,444.123565,7772.162391
1186.433700,4826.401637,-0.000000,7179.997637
1186.434016,3907.087040,-666.185348,7994.224174
1186.434332,3140.991542,-1036.288319,8068.244768
1186.434648,2145.067394,-592.164754,8364.327145
1186.434964,1302.362347,-592.164754,9548.656652
1186.435279,919.314598,-1850.514855,10436.903782
1186.435595,-383.047749,-3034.844362,10362.883188
1186.435911,-766.095498,-4071.132681,11177.109724
1186.436227,-536.266849,-5255.462188,11251.130318
1186.436543,229.828649,-4367.215058,11325.150913
1186.436859,995.924147,-3701.029710,10584.944971
1186.437174,2834.553343,-2368.659014,10584.944971
1186.437490,3677.258390,-2146.597232,8438.347739
1186.437806,3907.087040,-1702.473667,8290.306550
1186.438122,4826.401637,-740.205942,8290.306550
1186.438438,5592.497135,444.123565,6957.935855
1186.438754,5669.106685,1184.329507,5847.626942
1186.439069,5209.449386,888.247130,6513.812290
1186.439385,4519.963438,-444.123565,7254.018232
1186.439701,3753.867940,-666.185348,8660.409521
1186.440017,2604.724693,-1406.391290,8586.388927
1186.440333,1455.581446,-2294.638420,8956.491898
1186.440649,1762.019645,-3627.009116,11177.109724
1186.440964,0.000000,-3552.988522,11177.109724
1186.441280,-766.095498,-3330.926739,11547.212695
1186.441596,0.000000,-4145.153275,11177.109724
1186.441912,0.000000,-2442.679609,10807.006753
1186.442228,536.266849,-1554.432478,10362.883188
1186.442544,536.266849,-1406.391290,9622.677246
1186.442859,1455.581446,-666.185348,9178.553681
1186.443175,1838.629195,-1406.391290,9400.615463
1186.443491,2757.943793,-370.102971,8142.265362
1186.443807,3064.381992,-0.000000,7846.182985
1186.444123,2757.943793,-0.000000,8734.430116
1186.444439,2298.286494,296.082377,7920.203579
1186.444754,1762.019645,-148.041188,8734.430116
1186.445070,1532.190996,-296.082377,9474.636058
1186.445386,1072.533697,-592.164754,9696.697840
1186.445702,0.000000,-1628.453072,11029.068536
1186.446018,-612.876398,-1628.453072,10214.842000
1186.446334,-919.314598,-2294.638420,9548.656652
1186.446649,0.000000,-2516.700203,11621.233289
1186.446965,0.000000,-2146.597232,10955.047942
1186.447281,-306.438199,-1406.391290,10288.862594
1186.447597,0.000000,-2368.659014,10066.800811
1186.447913,536.266849,-1924.535449,9696.697840
1186.448229,1149.143247,-148.041188,9918.759623
1186.448544,1608.800546,-0.000000,9030.512492
1186.448860,689.485948,814.226536,9104.533087
1186.449176,842.705048,222.061783,9178.553681
1186.449492,919.314598,-592.164754,9252.574275
1186.449808,1532.190996,-518.144159,9474.636058
1186.450124,1302.362347,-518.144159,9326.594869
1186.450439,995.924147,-222.061783,8808.450710
1186.450755,-229.828649,-444.123565,8808.450710
1186.451071,383.047749,-740.205942,9844.739029
1186.451387,1149.143247,222.061783,9844.739029
1186.451703,383.047749,-222.061783,9326.594869
1186.452019,0.000000,592.164754,9400.615463
1186.452334,-536.266849,-666.185348,9030.512492
1186.452650,-153.219100,-1258.350101,9918.759623
1186.452966,842.705048,-1110.308913,10214.842000
1186.453282,842.705048,-1406.391290,9326.594869
1186.453598,0.000000,-666.185348,9770.718434
1186.453914,-459.657299,-962.267725,9326.594869
1186.454229,536.266849,-1184.329507,9474.636058
1186.454545,536.266849,666.185348,9400.615463
1186.454861,76.609550,1036.288319,9104.533087
1186.455177,-153.219100,1184.329507,8068.244768
1186.455493,-459.657299,592.164754,7994.224174
1186.455809,-76.609550,-74.020594,9474.636058
1186.456124,153.219100,-518.144159,9548.656652
1186.456440,-153.219100,-666.185348,9326.594869
1186.456756,-536.266849,-518.144159,9326.594869
1186.457072,-995.924147,-1924.535449,9918.759623
1186.457388,0.000000,-1554.432478,10362.883188
1186.457704,459.657299,370.102971,9474.636058
1186.458019,306.438199,888.247130,9474.636058
1186.458335,229.828649,1036.288319,8808.450710
1186.458651,-383.047749,296.082377,9696.697840
1186.458967,383.047749,148.041188,10066.800811
1186.459283,842.705048,1184.329507,9104.533087
1186.459599,536.266849,888.247130,8438.347739
1186.459914,0.000000,148.041188,9326.594869
1186.460230,153.219100,-1998.556043,10510.924376
1186.460546,842.705048,-1036.288319,10510.924376
1186.460862,1838.629195,-0.000000,9844.739029
1186.461178,995.924147,740.205942,9178.553681
1186.461494,842.705048,1332.370696,8882.471304
1186.461809,1762.019645,740.205942,9548.656652
1186.462125,2451.505594,1184.329507,10066.800811
1186.462441,2068.457845,1480.411884,9400.615463
1186.462757,1302.362347,814.226536,8290.306550
1186.463073,1302.362347,148.041188,8512.368333
1186.463389,1762.019645,-1184.329507,10436.903782
1186.463704,1685.410096,-148.041188,9696.697840
1186.464020,1225.752797,666.185348,9622.677246
1186.464336,-229.828649,518.144159,9252.574275
1186.464652,-612.876398,-222.061783,10362.883188
1186.464968,-689.485948,-1258.350101,10732.986159
1186.465284,-306.438199,-370.102971,10658.965565
1186.465600,-383.047749,-518.144159,10510.924376
1186.465915,-229.828649,-1480.411884,9992.780217
1186.466231,0.000000,-1480.411884,10288.862594
1186.466547,0.000000,-1776.494261,10732.986159
1186.466863,612.876398,-74.020594,8882.471304
1186.467179,459.657299,666.185348,8586.388927
1186.467495,612.876398,814.226536,8290.306550
1186.467810,383.047749,148.041188,9178.553681
1186.468126,1072.533697,-518.144159,10066.800811
1186.468442,1225.752797,-148.041188,9178.553681
1186.468758,383.047749,370.102971,8438.347739
1186.469074,0.000000,-296.082377,8660.409521
1186.469390,0.000000,-2516.700203,9474.636058
1186.469705,459.657299,-1110.308913,11029.068536
1186.470021,306.438199,-1480.411884,9844.739029
1186.470337,-842.705048,-666.185348,8586.388927
1186.470653,-1532.190996,-1036.288319,9400.615463
1186.470969,-612.876398,-2368.659014,9770.718434
1186.471285,0.000000,-962.267725,9918.759623
1186.471600,0.000000,148.041188,9104.533087
1186.471916,383.047749,-296.082377,8290.306550
1186.472232,0.000000,-1184.329507,8586.388927
1186.472548,383.047749,-1554.432478,9178.553681
1186.472864,1455.581446,-518.144159,8956.491898
1186.473180,1302.362347,-0.000000,7846.182985
1186.473495,536.266849,444.123565,8068.244768
1186.473811,229.828649,-0.000000,8882.471304
1186.474127,1072.533697,-1036.288319,10140.821405
1186.474443,919.314598,-0.000000,9548.656652
1186.474759,76.609550,518.144159,8660.409521
1186.475075,76.609550,1258.350101,8660.409521
1186.475390,0.000000,-370.102971,9474.636058
1186.475706,536.266849,-814.226536,10140.821405
1186.476022,1225.752797,-592.164754,9918.759623
1186.476338,459.657299,-0.000000,8512.368333
1186.476654,-306.438199,-74.020594,8882.471304
1186.476970,-383.047749,-1036.288319,10436.903782
1186.477285,842.705048,-0.000000,10658.965565
1186.477601,995.924147,1332.370696,9178.553681
1186.477917,153.219100,1406.391290,8068.244768
1186.478233,0.000000,-0.000000,9548.656652
1186.478549,0.000000,-1628.453072,10436.903782
1186.478865,689.485948,-740.205942,9400.615463
1186.479180,612.876398,148.041188,9474.636058
1186.479496,0.000000,296.082377,8438.347739
1186.479812,-766.095498,-74.020594,9696.697840
1186.480128,229.828649,-814.226536,10362.883188
1186.480444,306.438199,-518.144159,10436.903782
1186.480760,-536.266849,-148.041188,10140.821405
1186.481075,-689.485948,-74.020594,9844.739029
1186.481391,0.000000,-1036.288319,9696.697840
1186.481707,76.609550,-962.267725,10214.842000
1186.482023,1149.143247,148.041188,10140.821405
1186.482339,612.876398,-0.000000,9400.615463
1186.482655,383.047749,296.082377,9326.594869
1186.482970,76.609550,148.041188,9474.636058
1186.483286,306.438199,-518.144159,9918.759623
1186.483602,536.266849,-0.000000,10436.903782
1186.483918,306.438199,740.205942,9104.533087
1186.484234,153.219100,592.164754,9400.615463
1186.484550,536.266849,-888.247130,9770.718434
1186.484865,919.314598,-814.226536,10362.883188
1186.485181,1838.629195,1036.288319,9474.636058
1186.485497,1072.533697,814.226536,8808.450710
1186.485813,1149.143247,370.102971,8956.491898
1186.486129,1225.752797,-222.061783,10066.800811
1186.486445,1685.410096,-0.000000,9696.697840
1186.486760,1378.971896,814.226536,8808.450710
1186.487076,383.047749,962.267725,8882.471304
1186.487392,76.609550,-148.041188,9326.594869
1186.487708,306.438199,-666.185348,10436.903782
1186.488024,766.095498,-74.020594,9400.615463
1186.488340,689.485948,222.061783,9400.615463
1186.488655,0.000000,-0.000000,9104.533087
1186.488971,-919.314598,-888.247130,9474.636058
1186.489287,76.609550,-1628.453072,11103.089130
1186.489603,1762.019645,-444.123565,10658.965565
1186.489919,766.095498,1110.308913,8586.388927
1186.490235,153.219100,-0.000000,8290.306550
1186.490550,766.095498,-1628.453072,10214.842000
1186.490866,1149.143247,-1480.411884,9400.615463
1186.491182,1838.629195,-0.000000,9104.533087
1186.491498,1532.190996,-0.000000,8734.430116
1186.491814,1532.190996,-0.000000,8438.347739
1186.492130,766.095498,-444.123565,8142.265362
1186.492445,1378.971896,-888.247130,10066.800811
1186.492761,1225.752797,-74.020594,9474.636058
1186.493077,919.314598,222.061783,8512.368333
1186.493393,0.000000,-74.020594,8586.388927
1186.493709,-383.047749,-2220.617826,9844.739029
1186.494025,383.047749,-1924.535449,11029.068536
1186.494340,0.000000,-0.000000,9252.574275
1186.494656,-1302.362347,-0.000000,8438.347739
1186.494972,-1072.533697,-666.185348,9400.615463
1186.495288,-689.485948,-1702.473667,10214.842000
1186.495604,0.000000,-1036.288319,10362.883188
1186.495920,459.657299,-222.061783,9326.594869
1186.496235,0.000000,-296.082377,8808.450710
1186.496551,-306.438199,-1258.350101,9696.697840
1186.496867,153.219100,-1776.494261,10436.903782
1186.497183,766.095498,-0.000000,9326.594869
1186.497499,766.095498,1184.329507,8808.450710
1186.497815,306.438199,1184.329507,7772.162391
1186.498130,229.828649,-74.020594,9696.697840
1186.498446,689.485948,-1332.370696,10658.965565
1186.498762,995.924147,-370.102971,9252.574275
1186.499078,383.047749,-296.082377,9178.553681
1186.499394,76.609550,-518.144159,9622.677246
1186.499710,459.657299,-1036.288319,10066.800811
1186.500025,689.485948,-1110.308913,10066.800811
1186.500341,1378.971896,148.041188,9918.759623
1186.500657,383.047749,814.226536,8734.430116
1186.500973,383.047749,370.102971,8882.471304
1186.501289,536.266849,-296.082377,9770.718434
1186.501605,919.314598,-666.185348,10140.821405
1186.501920,1225.752797,444.123565,9326.594869
1186.502236,459.657299,444.123565,9104.533087
1186.502552,0.000000,-222.061783,9252.574275
1186.502868,612.876398,-1036.288319,9992.780217
1186.503184,919.314598,-296.082377,9992.780217
1186.503500,1455.581446,962.267725,9622.677246
1186.503815,306.438199,444.123565,9326.594869
1186.504131,76.609550,370.102971,9400.615463
1186.504447,766.095498,-666.185348,9844.739029
1186.504763,1225.752797,296.082377,9770.718434
1186.505079,689.485948,888.247130,9696.697840
1186.505395,0.000000,296.082377,9252.574275
1186.505710,229.828649,-296.082377,9622.677246
1186.506026,306.438199,-592.164754,9918.759623
1186.506342,766.095498,-740.205942,10140.821405
1186.506658,153.219100,444.123565,9474.636058
1186.506974,-459.657299,592.164754,8734.430116
1186.507290,153.219100,148.041188,9474.636058
1186.507605,536.266849,-74.020594,9918.759623
1186.507921,689.485948,518.144159,9474.636058
1186.508237,536.266849,1036.288319,8734.430116
1186.508553,76.609550,-222.061783,9326.594869
1186.508869,536.266849,-1184.329507,10288.862594
1186.509185,383.047749,-1110.308913,9696.697840
1186.509500,919.314598,-148.041188,9178.553681
1186.509816,383.047749,370.102971,8808.450710
1186.510132,-153.219100,518.144159,8438.347739
1186.510448,76.609550,-518.144159,9696.697840
1186.510764,153.219100,-222.061783,10436.903782
1186.511080,229.828649,1036.288319,9252.574275
1186.511395,0.000000,740.205942,8512.368333
1186.511711,76.609550,-296.082377,9030.512492
1186.512027,0.000000,-1258.350101,10362.883188
1186.512343,766.095498,-740.205942,10066.800811
1186.512659,153.219100,222.061783,8734.430116
1186.512975,229.828649,-74.020594,9400.615463
1186.513290,-459.657299,-518.144159,8956.491898
1186.513606,-153.219100,-888.247130,9770.718434
1186.513922,612.876398,-296.082377,9992.780217
1186.514238,612.876398,-0.000000,8660.409521
1186.514554,0.000000,-0.000000,8586.388927
1186.514870,0.000000,-666.185348,8882.471304
1186.515185,766.095498,-1406.391290,9844.739029
1186.515501,1302.362347,-222.061783,9030.512492
1186.515817,306.438199,296.082377,8216.285956
1186.516133,0.000000,-518.144159,8586.388927
1186.516449,0.000000,-1332.370696,10140.821405
1186.516765,229.828649,-1850.514855,9770.718434
1186.517080,229.828649,-222.061783,9474.636058
1186.517396,-153.219100,370.102971,9252.574275
1186.517712,-1072.533697,-444.123565,7550.100608
1186.518028,-459.657299,-962.267725,9918.759623
1186.518344,383.047749,-1258.350101,10658.965565
1186.518660,842.705048,-0.000000,9252.574275
1186.518975,153.219100,814.226536,8438.347739
1186.519291,-842.705048,-296.082377,9178.553681
1186.519607,-536.266849,-1776.494261,10362.883188
1186.519923,306.438199,-962.267725,11103.089130
1186.520239,919.314598,666.185348,9400.615463
1186.520555,153.219100,1110.308913,9400.615463
1186.520870,383.047749,370.102971,9178.553681
1186.521186,919.314598,-666.185348,9696.697840
1186.521502,1685.410096,-296.082377,10214.842000
1186.521818,1838.629195,370.102971,9326.594869
1186.522134,995.924147,1628.453072,9252.574275
1186.522450,919.314598,592.164754,9104.533087
1186.522765,1455.581446,-888.247130,9992.780217
1186.523081,2145.067394,444.123565,10214.842000
1186.523397,1455.581446,1554.432478,8882.471304
1186.523713,612.876398,518.144159,8808.450710
1186.524029,459.657299,-962.267725,9992.780217
1186.524345,1072.533697,-1036.288319,11103.089130
1186.524660,1532.190996,-74.020594,9770.718434
1186.524976,612.876398,-74.020594,9474.636058
1186.525292,229.828649,-0.000000,9252.574275
1186.525608,229.828649,-888.247130,10214.842000
1186.525924,306.438199,-592.164754,9548.656652
1186.526240,919.314598,-148.041188,10140.821405
1186.526555,306.438199,148.041188,9992.780217
1186.526871,-153.219100,-148.041188,9178.553681
1186.527187,0.000000,-1628.453072,10140.821405
1186.527503,689.485948,-1036.288319,10066.800811
1186.527819,995.924147,296.082377,9104.533087
1186.528135,766.095498,1036.288319,8068.244768
1186.528450,229.828649,370.102971,8216.285956
1186.528766,76.609550,-1332.370696,9622.677246
1186.529082,689.485948,-1554.432478,11103.089130
1186.529398,919.314598,-592.164754,9178.553681
1186.529714,0.000000,518.144159,8438.347739
1186.530029,-306.438199,-0.000000,8586.388927
1186.530345,0.000000,-1480.411884,9474.636058
1186.530661,995.924147,-666.185348,10584.944971
1186.530977,536.266849,518.144159,9400.615463
1186.531293,-536.266849,370.102971,7105.977043
1186.531608,-919.314598,-666.185348,9178.553681
1186.531924,0.000000,-1628.453072,10510.924376
1186.532240,842.705048,-74.020594,9548.656652
1186.532556,229.828649,1258.350101,8364.327145
1186.532872,-612.876398,814.226536,7920.203579
1186.533187,0.000000,-666.185348,9770.718434
1186.533503,229.828649,-222.061783,9474.636058
1186.533819,76.609550,592.164754,8660.409521
1186.534135,0.000000,-0.000000,9400.615463
1186.534450,0.000000,-0.000000,8734.430116
1186.534766,-229.828649,-592.164754,9696.697840
1186.535082,459.657299,-444.123565,10881.027347
1186.535398,919.314598,-0.000000,9252.574275
1186.535714,306.438199,592.164754,8586.388927
1186.536029,0.000000,592.164754,9326.594869
1186.536345,229.828649,-814.226536,9992.780217
1186.536661,1378.971896,-148.041188,10362.883188
1186.536977,1378.971896,740.205942,9178.553681
1186.537293,842.705048,1332.370696,9030.512492
1186.537608,459.657299,740.205942,8438.347739
1186.537924,612.876398,-444.123565,10066.800811
1186.538240,1149.143247,-518.144159,10288.862594
1186.538556,919.314598,444.123565,9844.739029
1186.538872,76.609550,370.102971,8882.471304
1186.539187,0.000000,-740.205942,8956.491898
1186.539503,612.876398,-1702.473667,11769.274478
1186.539819,1225.752797,-814.226536,10881.027347
1186.540135,612.876398,1036.288319,8956.491898
1186.540451,459.657299,1406.391290,8882.471304
1186.540766,459.657299,-0.000000,9548.656652
1186.541082,1149.143247,-222.061783,10214.842000
1186.541398,1225.752797,-0.000000,10066.800811
1186.541714,306.438199,370.102971,9252.574275
1186.542030,153.219100,-370.102971,9844.739029
1186.542345,0.000000,-1628.453072,9622.677246
1186.542661,306.438199,-1184.329507,10732.986159
1186.542977,459.657299,-444.123565,10584.944971
1186.543293,0.000000,296.082377,8882.471304
1186.543608,-536.266849,592.164754,9326.594869
1186.543924,-383.047749,-1184.329507,10807.006753
1186.544240,919.314598,-1184.329507,10658.965565
1186.544556,1225.752797,-0.000000,9252.574275
1186.544872,0.000000,-74.020594,8586.388927
1186.545187,-153.219100,-962.267725,9252.574275
1186.545503,689.485948,-1850.514855,9696.697840
1186.545819,1378.971896,-962.267725,9474.636058
1186.546135,612.876398,-0.000000,9178.553681
1186.546451,0.000000,-0.000000,9104.533087
1186.546766,76.609550,-666.185348,8438.347739
1186.547082,306.438199,-962.267725,9104.533087
1186.547398,919.314598,-222.061783,10140.821405
1186.547714,612.876398,-0.000000,9104.533087
1186.548030,612.876398,-0.000000,8142.265362
1186.548345,-383.047749,-740.205942,9400.615463
1186.548661,383.047749,-1554.432478,9696.697840
1186.548977,995.924147,-518.144159,9474.636058
1186.549293,153.219100,518.144159,9252.574275
1186.549609,-229.828649,296.082377,8364.327145
1186.549924,0.000000,-814.226536,8882.471304
1186.550240,383.047749,-1110.308913,10436.903782
1186.550556,919.314598,148.041188,9696.697840
1186.550872,612.876398,1036.288319,8216.285956
1186.551188,0.000000,296.082377,7328.038826
1186.551503,229.828649,-814.226536,9178.553681
1186.551819,1302.362347,-1036.288319,9992.780217
1186.552135,1072.533697,-148.041188,9178.553681
1186.552451,459.657299,814.226536,8290.306550
1186.552766,0.000000,-0.000000,8882.471304
1186.553082,153.219100,-1258.350101,10140.821405
1186.553398,229.828649,296.082377,8956.491898
1186.553714,536.266849,222.061783,9252.574275
1186.554030,76.609550,-0.000000,9178.553681
1186.554345,-536.266849,-1184.329507,9474.636058
1186.554661,-306.438199,-2072.576638,10510.924376
1186.554977,919.314598,-1332.370696,10362.883188
1186.555293,459.657299,-296.082377,9326.594869
1186.555609,0.000000,518.144159,8512.368333
1186.555924,-919.314598,-222.061783,10288.862594
1186.556240,383.047749,-814.226536,10881.027347
1186.556556,1149.143247,1036.288319,9178.553681
1186.556872,229.828649,1554.432478,8734.430116
1186.557188,-306.438199,-74.020594,9474.636058
1186.557503,766.095498,-1998.556043,9696.697840
1186.557819,995.924147,-962.267725,10436.903782
1186.558135,1149.143247,-592.164754,11103.089130
1186.558451,842.705048,-74.020594,9326.594869
1186.558767,76.609550,740.205942,8956.491898
1186.559082,229.828649,296.082377,10436.903782
1186.559398,766.095498,-370.102971,10881.027347
1186.559714,1455.581446,370.102971,9918.759623
1186.560030,842.705048,1036.288319,9252.574275
1186.560346,229.828649,-0.000000,9104.533087
1186.560661,766.095498,-1702.473667,10066.800811
1186.560977,1149.143247,-666.185348,10214.842000
1186.561293,842.705048,-0.000000,8808.450710
1186.561609,689.485948,296.082377,9474.636058
1186.561924,229.828649,-0.000000,8512.368333
1186.562240,153.219100,-1628.453072,10214.842000
1186.562556,1149.143247,-962.267725,10288.862594
1186.562872,842.705048,148.041188,9252.574275
1186.563188,153.219100,518.144159,8438.347739
1186.563503,0.000000,-296.082377,9400.615463
1186.563819,1072.533697,-222.061783,10510.924376
1186.564135,1685.410096,740.205942,8660.409521
