#time,accel_x,accel_y,accel_z
1154.846295,459.657299,-0.000000,9622.677246
1154.846611,383.047749,-222.061783,9548.656652
1154.846927,306.438199,-222.061783,9474.636058
1154.847242,383.047749,-222.061783,9400.615463
1154.847558,612.876398,-370.102971,9474.636058
1154.847874,383.047749,-444.123565,9252.574275
1154.848189,306.438199,-74.020594,9474.636058
1154.848505,229.828649,-74.020594,9474.636058
1154.848820,536.266849,-222.061783,9548.656652
1154.849136,459.657299,-222.061783,9474.636058
1154.849452,383.047749,-74.020594,9400.615463
1154.849767,229.828649,-370.102971,9400.615463
1154.850083,306.438199,-0.000000,9474.636058
1154.850399,153.219100,-0.000000,9400.615463
1154.850714,689.485948,-0.000000,9548.656652
1154.851030,612.876398,-74.020594,9548.656652
1154.851345,536.266849,-0.000000,9474.636058
1154.851661,153.219100,296.082377,9474.636058
1154.851977,229.828649,444.123565,9326.594869
1154.852292,459.657299,148.041188,9400.615463
1154.852608,306.438199,148.041188,9326.594869
1154.852924,766.095498,740.205942,9326.594869
1154.853239,383.047749,296.082377,9104.533087
1154.853555,383.047749,222.061783,9030.512492
1154.853870,766.095498,-222.061783,9548.656652
1154.854186,459.657299,74.020594,9326.594869
1154.854502,383.047749,592.164754,9326.594869
1154.854817,536.266849,666.185348,9252.574275
1154.855133,612.876398,296.082377,9474.636058
1154.855449,612.876398,518.144159,9548.656652
1154.855764,229.828649,740.205942,9474.636058
1154.856080,229.828649,962.267725,9548.656652
1154.856395,229.828649,666.185348,9474.636058
1154.856711,459.657299,370.102971,9252.574275
1154.857027,229.828649,666.185348,9252.574275
1154.857342,-229.828649,962.267725,9252.574275
1154.857658,0.000000,1110.308913,9326.594869
1154.857974,-229.828649,1036.288319,9030.512492
1154.858289,-459.657299,1258.350101,9474.636058
1154.858605,-536.266849,1332.370696,9474.636058
1154.858920,-842.705048,1406.391290,9252.574275
1154.859236,-995.924147,1406.391290,9252.574275
1154.859552,-1302.362347,1332.370696,9400.615463
1154.859867,-1149.143247,1036.288319,9696.697840
1154.860183,-1685.410096,1332.370696,9770.718434
1154.860499,-2068.457845,1332.370696,9770.718434
1154.860814,-1838.629195,1406.391290,9918.759623
1154.861130,-1991.848295,1332.370696,9770.718434
1154.861445,-2221.676944,1258.350101,9918.759623
1154.861761,-1762.019645,1406.391290,9474.636058
1154.862077,-1685.410096,1776.494261,9622.677246
1154.862392,-1685.410096,1924.535449,9548.656652
1154.862708,-1762.019645,1998.556043,9326.594869
1154.863024,-1685.410096,1702.473667,9326.594869
1154.863339,-1455.581446,1702.473667,9400.615463
1154.863655,-1378.971896,1628.453072,9548.656652
1154.863970,-1149.143247,1628.453072,9622.677246
1154.864286,-919.314598,1998.556043,9918.759623
1154.864602,-995.924147,2220.617826,10140.821405
1154.864917,-1225.752797,2146.597232,9252.574275
1154.865233,-1378.971896,2072.576638,9178.553681
1154.865549,-1072.533697,2368.659014,9474.636058
1154.865864,-1685.410096,2368.659014,9326.594869
1154.866180,-1225.752797,2294.638420,9252.574275
1154.866495,-1455.581446,1776.494261,9474.636058
1154.866811,-1915.238745,1702.473667,9474.636058
1154.867127,-2145.067394,1258.350101,9770.718434
1154.867442,-2221.676944,1110.308913,9992.780217
1154.867758,-2145.067394,1258.350101,9992.780217
1154.868074,-2221.676944,1184.329507,9770.718434
1154.868389,-2221.676944,1554.432478,9844.739029
1154.868705,-2221.676944,1332.370696,9548.656652
1154.869020,-2374.896044,1480.411884,9992.780217
1154.869336,-1915.238745,1406.391290,9548.656652
1154.869652,-1762.019645,1554.432478,9622.677246
1154.869967,-1608.800546,1776.494261,9474.636058
1154.870283,-1762.019645,1702.473667,9030.512492
1154.870599,-1378.971896,1998.556043,9326.594869
1154.870914,-2068.457845,2294.638420,9030.512492
1154.871230,-2298.286494,2516.700203,8882.471304
1154.871545,-2451.505594,2220.617826,8734.430116
1154.871861,-2528.115143,2146.597232,9178.553681
1154.872177,-2757.943793,1702.473667,9252.574275
1154.872492,-2987.772442,1258.350101,9474.636058
1154.872808,-2987.772442,814.226536,9696.697840
1154.873124,-2834.553343,518.144159,10140.821405
1154.873439,-2604.724693,-0.000000,10658.965565
1154.873755,-2451.505594,74.020594,10362.883188
1154.874070,-2145.067394,148.041188,10140.821405
1154.874386,-1225.752797,1184.329507,9696.697840
1154.874702,-459.657299,1628.453072,9548.656652
1154.875017,76.609550,2146.597232,8586.388927
1154.875333,536.266849,3108.864956,8142.265362
1154.875649,459.657299,3404.947333,8142.265362
1154.875964,459.657299,3182.885551,7698.141797
1154.876280,229.828649,3182.885551,7920.203579
1154.876595,-153.219100,2664.741391,8216.285956
1154.876911,-1149.143247,2738.761985,8068.244768
1154.877227,-2298.286494,1998.556043,8808.450710
1154.877542,-2604.724693,1480.411884,9622.677246
1154.877858,-2834.553343,1406.391290,9918.759623
1154.878174,-4060.306139,1036.288319,10658.965565
1154.878489,-4290.134789,444.123565,10807.006753
1154.878805,-3907.087040,444.123565,11547.212695
1154.879120,-3600.648841,-222.061783,11177.109724
1154.879436,-2757.943793,296.082377,11251.130318
1154.879752,-1685.410096,222.061783,10214.842000
1154.880067,-995.924147,1184.329507,9770.718434
1154.880383,229.828649,1850.514855,9178.553681
1154.880699,919.314598,2368.659014,8290.306550
1154.881014,1225.752797,3923.091493,8068.244768
1154.881330,1378.971896,4515.256246,7698.141797
1154.881645,1378.971896,4663.297435,7179.997637
1154.881961,153.219100,4737.318029,7254.018232
1154.882277,-459.657299,4441.235652,7846.182985
1154.882592,-1532.190996,3404.947333,8512.368333
1154.882908,-2911.162892,2294.638420,9696.697840
1154.883224,-3830.477490,814.226536,10807.006753
1154.883539,-4749.792088,-296.082377,11769.274478
1154.883855,-5286.058936,-1480.411884,12583.501014
1154.884170,-5515.887586,-1850.514855,12583.501014
1154.884486,-5132.839837,-1554.432478,12139.377449
1154.884802,-4136.915689,-962.267725,11843.295072
1154.885117,-2681.334243,296.082377,11103.089130
1154.885433,-1149.143247,1924.535449,9770.718434
1154.885749,0.000000,3404.947333,8142.265362
1154.886064,1149.143247,4737.318029,6735.874072
1154.886380,1608.800546,5477.523971,6365.771101
1154.886695,1378.971896,5699.585753,6143.709319
1154.887011,995.924147,5329.482782,6513.812290
1154.887327,383.047749,4219.173869,7328.038826
1154.887642,-1149.143247,2368.659014,8660.409521
1154.887958,-2528.115143,1036.288319,10214.842000
1154.888274,-3600.648841,-518.144159,11251.130318
1154.888589,-4290.134789,-1554.432478,12509.480420
1154.888905,-4443.353888,-1036.288319,12657.521608
1154.889220,-4519.963438,-74.020594,11843.295072
1154.889536,-3983.696590,296.082377,11325.150913
1154.889852,-3447.429741,1258.350101,10362.883188
1154.890167,-2145.067394,2294.638420,9474.636058
1154.890483,-995.924147,3256.906145,8438.347739
1154.890799,-383.047749,3849.070898,7698.141797
1154.891114,0.000000,3627.009116,7550.100608
1154.891430,536.266849,3108.864956,8068.244768
1154.891745,306.438199,2368.659014,8290.306550
1154.892061,536.266849,2294.638420,8364.327145
1154.892377,-153.219100,2368.659014,8734.430116
1154.892692,-1378.971896,1850.514855,9030.512492
1154.893008,-2298.286494,1628.453072,9770.718434
1154.893324,-2145.067394,1036.288319,10140.821405
1154.893639,-2604.724693,1258.350101,9992.780217
1154.893955,-3140.991542,1332.370696,9770.718434
1154.894270,-4060.306139,296.082377,9992.780217
1154.894586,-3447.429741,-222.061783,10658.965565
1154.894902,-2681.334243,148.041188,10436.903782
1154.895217,-2451.505594,1036.288319,9252.574275
1154.895533,-2528.115143,2072.576638,8734.430116
1154.895849,-1762.019645,1702.473667,8660.409521
1154.896164,-1225.752797,1554.432478,9400.615463
1154.896480,-1378.971896,1998.556043,9104.533087
1154.896795,-1532.190996,2220.617826,9474.636058
1154.897111,-1225.752797,1850.514855,9400.615463
1154.897427,-766.095498,1702.473667,9474.636058
1154.897742,-1072.533697,1554.432478,8956.491898
1154.898058,-919.314598,1406.391290,9326.594869
1154.898373,-536.266849,1110.308913,9178.553681
1154.898689,-689.485948,1406.391290,9104.533087
1154.899005,-1378.971896,1628.453072,9252.574275
1154.899320,-1608.800546,1850.514855,9474.636058
1154.899636,-1608.800546,2368.659014,9548.656652
1154.899952,-1378.971896,2442.679609,9400.615463
1154.900267,-1225.752797,3034.844362,8882.471304
1154.900583,-1149.143247,2812.782580,9030.512492
1154.900898,-1378.971896,2516.700203,8734.430116
1154.901214,-1762.019645,2220.617826,9474.636058
1154.901530,-2374.896044,1332.370696,10288.862594
1154.901845,-2451.505594,518.144159,10807.006753
1154.902161,-2528.115143,740.205942,10955.047942
1154.902477,-2604.724693,1036.288319,10288.862594
1154.902792,-2145.067394,1036.288319,10288.862594
1154.903108,-1455.581446,1184.329507,9770.718434
1154.903423,-919.314598,1702.473667,9474.636058
1154.903739,0.000000,2072.576638,9252.574275
1154.904055,306.438199,2516.700203,8956.491898
1154.904371,689.485948,2590.720797,8734.430116
1154.904686,1149.143247,3182.885551,7846.182985
1154.905002,995.924147,3034.844362,7402.059420
1154.905318,229.828649,3108.864956,8364.327145
1154.905634,-689.485948,3182.885551,8364.327145
1154.905949,-1532.190996,2960.823768,8734.430116
1154.906265,-2068.457845,2294.638420,10214.842000
1154.906581,-3217.601092,1628.453072,10362.883188
1154.906897,-3907.087040,740.205942,10214.842000
1154.907212,-4213.525239,-148.041188,11103.089130
1154.907528,-4749.792088,-592.164754,11695.253884
1154.907844,-4213.525239,-0.000000,11843.295072
1154.908160,-2834.553343,-444.123565,11177.109724
1154.908475,-3217.601092,-518.144159,10362.883188
1154.908791,-2451.505594,370.102971,10881.027347
1154.909107,-1378.971896,814.226536,9326.594869
1154.909423,-459.657299,1850.514855,7846.182985
1154.909738,-459.657299,2590.720797,8956.491898
1154.910054,612.876398,3330.926739,7994.224174
1154.910370,766.095498,3404.947333,6883.915261
1154.910685,-306.438199,2886.803174,7994.224174
1154.911001,-153.219100,1702.473667,8882.471304
1154.911317,-1072.533697,1036.288319,8512.368333
1154.911633,-2145.067394,962.267725,9474.636058
1154.911948,-2681.334243,-444.123565,10732.986159
1154.912264,-2451.505594,-888.247130,11547.212695
1154.912580,-3294.210641,-666.185348,10881.027347
1154.912896,-3753.867940,-1036.288319,11103.089130
1154.913211,-3217.601092,-1258.350101,10510.924376
1154.913527,-2451.505594,-814.226536,10288.862594
1154.913843,-1915.238745,-0.000000,10066.800811
1154.914159,153.219100,1036.288319,9474.636058
1154.914474,689.485948,1554.432478,8734.430116
1154.914790,995.924147,1776.494261,7698.141797
1154.915106,842.705048,1628.453072,7624.121203
1154.915422,1302.362347,1184.329507,7920.203579
1154.915737,1838.629195,1406.391290,8290.306550
1154.916053,1685.410096,1258.350101,8882.471304
1154.916369,1455.581446,-0.000000,9104.533087
1154.916685,612.876398,-296.082377,8956.491898
1154.917000,383.047749,-222.061783,9400.615463
1154.917316,689.485948,-666.185348,9844.739029
1154.917632,153.219100,-296.082377,10066.800811
1154.917948,383.047749,370.102971,9770.718434
1154.918263,229.828649,-0.000000,9178.553681
1154.918579,-995.924147,-74.020594,9548.656652
1154.918895,-842.705048,-222.061783,9252.574275
1154.919211,0.000000,-148.041188,9548.656652
1154.919526,0.000000,-0.000000,9474.636058
1154.919842,306.438199,-0.000000,9844.739029
1154.920158,229.828649,222.061783,9474.636058
1154.920474,0.000000,-444.123565,9844.739029
1154.920789,383.047749,-814.226536,9844.739029
1154.921105,1149.143247,222.061783,9104.533087
1154.921421,1378.971896,444.123565,9400.615463
1154.921737,1072.533697,222.061783,9400.615463
1154.922052,612.876398,370.102971,9400.615463
1154.922368,1072.533697,148.041188,8734.430116
1154.922684,1455.581446,370.102971,9030.512492
1154.923000,612.876398,74.020594,9770.718434
1154.923315,766.095498,-296.082377,9474.636058
1154.923631,229.828649,592.164754,8734.430116
1154.923947,-153.219100,814.226536,9844.739029
1154.924262,383.047749,370.102971,10288.862594
1154.924578,383.047749,1554.432478,8882.471304
1154.924894,-612.876398,888.247130,9844.739029
1154.925210,-842.705048,-296.082377,10881.027347
1154.925525,-766.095498,-222.061783,10214.842000
1154.925841,-306.438199,-444.123565,10362.883188
1154.926157,153.219100,370.102971,10288.862594
1154.926473,153.219100,518.144159,9992.780217
1154.926788,766.095498,-0.000000,9178.553681
1154.927104,995.924147,370.102971,8734.430116
1154.927420,995.924147,370.102971,9474.636058
1154.927736,2298.286494,740.205942,9474.636058
1154.928051,2298.286494,2072.576638,7920.203579
1154.928367,1838.629195,1702.473667,8438.347739
1154.928683,1532.190996,962.267725,8808.450710
1154.928999,689.485948,888.247130,8808.450710
1154.929314,229.828649,-0.000000,9474.636058
1154.929630,306.438199,-0.000000,10140.821405
1154.929946,-383.047749,-370.102971,9992.780217
1154.930262,-1072.533697,-592.164754,10288.862594
1154.930577,-1302.362347,-814.226536,10140.821405
1154.930893,-1532.190996,-1258.350101,10955.047942
1154.931209,-1072.533697,-1406.391290,10214.842000
1154.931525,-766.095498,-444.123565,10288.862594
1154.931840,-995.924147,-962.267725,9548.656652
1154.932156,-536.266849,-444.123565,9696.697840
1154.932472,76.609550,-518.144159,9770.718434
1154.932788,229.828649,-1110.308913,9548.656652
1154.933103,995.924147,1258.350101,9178.553681
1154.933419,1378.971896,370.102971,8512.368333
1154.933735,842.705048,-222.061783,8142.265362
1154.934051,306.438199,-0.000000,9474.636058
1154.934366,383.047749,-1332.370696,9918.759623
1154.934682,1149.143247,370.102971,8512.368333
1154.934998,229.828649,296.082377,8882.471304
1154.935314,-229.828649,-888.247130,9178.553681
1154.935629,153.219100,-592.164754,10140.821405
1154.935945,-612.876398,-370.102971,9326.594869
1154.936261,306.438199,-1036.288319,10362.883188
1154.936577,459.657299,-814.226536,9770.718434
1154.936892,842.705048,-1184.329507,9178.553681
1154.937208,383.047749,-1184.329507,9400.615463
1154.937524,919.314598,-1924.535449,9992.780217
1154.937839,1532.190996,-1184.329507,9992.780217
1154.938155,2145.067394,592.164754,8882.471304
1154.938471,2221.676944,1184.329507,8438.347739
1154.938787,1685.410096,444.123565,8142.265362
1154.939102,1685.410096,666.185348,8586.388927
1154.939418,1915.238745,-222.061783,9474.636058
1154.939734,2374.896044,370.102971,9252.574275
1154.940050,2068.457845,296.082377,8216.285956
1154.940365,306.438199,-740.205942,8586.388927
1154.940681,766.095498,-1036.288319,9696.697840
1154.940997,153.219100,-1480.411884,9918.759623
1154.941313,536.266849,-518.144159,10362.883188
1154.941628,0.000000,-0.000000,9844.739029
1154.941944,0.000000,-518.144159,9400.615463
1154.942260,-536.266849,-0.000000,9622.677246
1154.942576,-306.438199,-740.205942,10288.862594
1154.942891,153.219100,-370.102971,9622.677246
1154.943207,383.047749,148.041188,9326.594869
1154.943523,153.219100,-0.000000,9326.594869
1154.943839,459.657299,-814.226536,9326.594869
1154.944154,0.000000,-740.205942,9474.636058
1154.944470,229.828649,-888.247130,10140.821405
1154.944786,766.095498,-74.020594,10066.800811
1154.945102,1072.533697,222.061783,8956.491898
1154.945417,1072.533697,-0.000000,9030.512492
1154.945733,766.095498,148.041188,8586.388927
1154.946049,1149.143247,-962.267725,10214.842000
1154.946365,1225.752797,-1110.308913,9918.759623
1154.946680,1225.752797,-0.000000,9548.656652
1154.946996,612.876398,-222.061783,8882.471304
1154.947312,-459.657299,-888.247130,9474.636058
1154.947628,0.000000,-1332.370696,10436.903782
1154.947943,-229.828649,-1480.411884,10362.883188
1154.948259,-459.657299,444.123565,10214.842000
1154.948575,-919.314598,148.041188,9474.636058
1154.948891,-995.924147,-222.061783,9400.615463
1154.949206,-842.705048,-518.144159,10140.821405
1154.949522,-306.438199,-592.164754,11103.089130
1154.949838,612.876398,-74.020594,9474.636058
1154.950154,153.219100,-0.000000,9474.636058
1154.950469,153.219100,-370.102971,9178.553681
1154.950785,306.438199,-0.000000,9326.594869
1154.951101,1072.533697,-444.123565,9770.718434
1154.951416,1072.533697,1036.288319,9770.718434
1154.951732,1149.143247,1776.494261,9178.553681
1154.952048,1149.143247,666.185348,7920.203579
1154.952364,995.924147,1110.308913,8216.285956
1154.952679,536.266849,1110.308913,8882.471304
1154.952995,1149.143247,370.102971,9474.636058
1154.953311,612.876398,814.226536,8586.388927
1154.953627,0.000000,666.185348,9474.636058
1154.953942,-229.828649,-444.123565,9400.615463
1154.954258,-689.485948,-962.267725,9918.759623
1154.954574,-842.705048,-1702.473667,11103.089130
1154.954890,-306.438199,-888.247130,10362.883188
1154.955205,0.000000,-0.000000,9400.615463
1154.955521,-229.828649,-0.000000,8512.368333
1154.955837,-612.876398,370.102971,9252.574275
1154.956153,995.924147,-222.061783,9400.615463
1154.956468,2298.286494,370.102971,9252.574275
1154.956784,919.314598,1332.370696,8512.368333
1154.957100,995.924147,296.082377,8438.347739
1154.957416,919.314598,296.082377,8364.327145
1154.957731,229.828649,-0.000000,9030.512492
1154.958047,612.876398,444.123565,9696.697840
1154.958363,766.095498,1110.308913,9030.512492
1154.958679,0.000000,518.144159,8660.409521
1154.958994,-536.266849,370.102971,9992.780217
1154.959310,-1302.362347,-444.123565,9918.759623
1154.959626,-1455.581446,-1332.370696,11103.089130
1154.959942,-383.047749,-0.000000,10288.862594
1154.960257,-689.485948,-74.020594,9918.759623
1154.960573,-842.705048,-592.164754,10066.800811
1154.960889,-612.876398,-222.061783,9844.739029
1154.961205,-919.314598,-740.205942,10288.862594
1154.961520,536.266849,-222.061783,10732.986159
1154.961836,536.266849,444.123565,9696.697840
1154.962152,689.485948,740.205942,9252.574275
1154.962468,1072.533697,444.123565,9548.656652
1154.962783,1072.533697,-296.082377,9030.512492
1154.963099,1762.019645,222.061783,10140.821405
1154.963415,2298.286494,370.102971,9844.739029
1154.963731,1608.800546,148.041188,8660.409521
1154.964046,1302.362347,-0.000000,9178.553681
1154.964362,1532.190996,148.041188,9474.636058
1154.964678,1225.752797,-0.000000,9474.636058
1154.964993,1302.362347,-222.061783,9918.759623
1154.965309,1072.533697,-888.247130,10214.842000
1154.965625,0.000000,-1332.370696,10066.800811
1154.965941,0.000000,-1332.370696,10510.924376
1154.966256,0.000000,-962.267725,10362.883188
1154.966572,306.438199,-518.144159,9696.697840
1154.966888,612.876398,-0.000000,9326.594869
1154.967204,383.047749,-814.226536,8734.430116
1154.967519,-306.438199,-1036.288319,9400.615463
1154.967835,76.609550,-1480.411884,10436.903782
1154.968151,153.219100,-1406.391290,9696.697840
1154.968467,1838.629195,-148.041188,9400.615463
1154.968782,1149.143247,-0.000000,8808.450710
1154.969098,612.876398,-0.000000,8734.430116
1154.969414,229.828649,-666.185348,9400.615463
1154.969730,842.705048,-1406.391290,10066.800811
1154.970045,1455.581446,-370.102971,9474.636058
1154.970361,1225.752797,-0.000000,8142.265362
1154.970677,536.266849,-370.102971,8734.430116
1154.970993,459.657299,-740.205942,9400.615463
1154.971308,459.657299,-962.267725,9104.533087
1154.971624,76.609550,-888.247130,9770.718434
1154.971940,306.438199,-148.041188,9474.636058
1154.972256,76.609550,-666.185348,8956.491898
1154.972571,-229.828649,-74.020594,8808.450710
1154.972887,76.609550,-0.000000,9548.656652
1154.973203,153.219100,-222.061783,9252.574275
1154.973519,689.485948,518.144159,8734.430116
1154.973834,0.000000,592.164754,8586.388927
1154.974150,153.219100,-148.041188,9030.512492
1154.974466,76.609550,-74.020594,8808.450710
1154.974782,76.609550,-296.082377,8290.306550
1154.975097,689.485948,-148.041188,9918.759623
1154.975413,689.485948,-296.082377,9400.615463
1154.975729,383.047749,-296.082377,8586.388927
1154.976045,-459.657299,-0.000000,9548.656652
1154.976360,-153.219100,-666.185348,10214.842000
1154.976676,383.047749,518.144159,8882.471304
1154.976992,383.047749,1258.350101,9178.553681
1154.977308,-153.219100,-0.000000,9400.615463
1154.977623,-383.047749,-74.020594,9326.594869
1154.977939,-306.438199,-444.123565,9844.739029
1154.978255,76.609550,-518.144159,9844.739029
1154.978570,689.485948,-0.000000,10140.821405
1154.978886,383.047749,-148.041188,8956.491898
1154.979202,0.000000,-148.041188,9030.512492
1154.979518,-229.828649,-962.267725,10955.047942
1154.979833,842.705048,-444.123565,9992.780217
1154.980149,1072.533697,518.144159,9622.677246
1154.980465,995.924147,666.185348,9030.512492
1154.980781,459.657299,-518.144159,9474.636058
1154.981096,612.876398,-518.144159,9548.656652
1154.981412,689.485948,-518.144159,9844.739029
1154.981728,536.266849,-592.164754,10584.944971
1154.982044,842.705048,592.164754,9400.615463
1154.982359,459.657299,-0.000000,8660.409521
1154.982675,-153.219100,-444.123565,10140.821405
1154.982991,0.000000,-444.123565,11029.068536
1154.983307,536.266849,-148.041188,9400.615463
1154.983622,153.219100,296.082377,9696.697840
1154.983938,229.828649,-518.144159,10658.965565
1154.984254,153.219100,-666.185348,8956.491898
1154.984570,459.657299,-296.082377,9770.718434
1154.984885,536.266849,-1184.329507,10584.944971
1154.985201,1378.971896,-74.020594,10066.800811
1154.985517,2221.676944,666.185348,9030.512492
1154.985833,842.705048,592.164754,8438.347739
1154.986148,1378.971896,592.164754,9844.739029
1154.986464,1455.581446,-296.082377,9474.636058
1154.986780,1455.581446,592.164754,8882.471304
1154.987096,1378.971896,962.267725,9474.636058
1154.987411,1685.410096,-1110.308913,9548.656652
1154.987727,229.828649,-148.041188,8512.368333
1154.988043,536.266849,-592.164754,10214.842000
1154.988359,1149.143247,-1184.329507,10658.965565
1154.988674,1685.410096,-74.020594,9400.615463
1154.988990,919.314598,296.082377,8734.430116
1154.989306,612.876398,-518.144159,9030.512492
1154.989622,229.828649,-296.082377,9696.697840
1154.989937,1225.752797,-444.123565,9770.718434
1154.990253,1608.800546,-296.082377,9252.574275
1154.990569,1532.190996,-0.000000,8808.450710
1154.990885,919.314598,-0.000000,8068.244768
1154.991200,612.876398,-0.000000,8290.306550
1154.991516,612.876398,-592.164754,9326.594869
1154.991832,689.485948,-222.061783,9696.697840
1154.992147,612.876398,962.267725,9030.512492
1154.992463,0.000000,-0.000000,8586.388927
1154.992779,-1302.362347,-888.247130,8882.471304
1154.993095,-1072.533697,-1776.494261,10881.027347
1154.993410,-536.266849,-1776.494261,10362.883188
1154.993726,-306.438199,-222.061783,9474.636058
1154.994042,-1225.752797,-74.020594,9104.533087
1154.994358,-1302.362347,-888.247130,8882.471304
1154.994673,-1149.143247,-1332.370696,9918.759623
1154.994989,-1149.143247,-1554.432478,10140.821405
1154.995305,-689.485948,-74.020594,9474.636058
1154.995621,0.000000,-518.144159,8956.491898
1154.995936,0.000000,-1924.535449,9104.533087
1154.996252,0.000000,-148.041188,9030.512492
1154.996568,536.266849,-740.205942,9474.636058
1154.996884,1072.533697,-370.102971,8586.388927
1154.997199,612.876398,740.205942,9252.574275
1154.997515,383.047749,-962.267725,9770.718434
1154.997831,306.438199,-518.144159,9474.636058
1154.998147,0.000000,-148.041188,9770.718434
1154.998462,383.047749,-444.123565,9548.656652
1154.998778,995.924147,370.102971,9622.677246
1154.999094,0.000000,-222.061783,9104.533087
1154.999410,-306.438199,-740.205942,9474.636058
1154.999725,-383.047749,-1036.288319,10510.924376
1155.000041,0.000000,-1258.350101,10288.862594
1155.000357,536.266849,-0.000000,10066.800811
1155.000673,383.047749,444.123565,9400.615463
1155.000988,229.828649,-296.082377,9548.656652
1155.001304,-229.828649,-444.123565,9918.759623
1155.001620,76.609550,-222.061783,10140.821405
1155.001936,689.485948,-0.000000,10214.842000
1155.002251,1532.190996,814.226536,10214.842000
1155.002567,919.314598,1480.411884,8734.430116
1155.002883,1225.752797,1110.308913,9252.574275
1155.003199,1455.581446,444.123565,10214.842000
1155.003514,1072.533697,148.041188,9992.780217
1155.003830,1915.238745,1258.350101,9622.677246
1155.004146,1608.800546,-148.041188,9770.718434
1155.004462,1149.143247,-148.041188,9474.636058
1155.004777,919.314598,370.102971,10288.862594
1155.005093,919.314598,296.082377,9918.759623
1155.005409,1149.143247,740.205942,9326.594869
1155.005724,1378.971896,1332.370696,9252.574275
1155.006040,383.047749,222.061783,9326.594869
1155.006356,536.266849,-148.041188,9992.780217
1155.006672,995.924147,-296.082377,9770.718434
1155.006987,1149.143247,148.041188,9992.780217
1155.007303,995.924147,592.164754,9548.656652
1155.007619,383.047749,-370.102971,8808.450710
1155.007934,-229.828649,370.102971,9252.574275
1155.008250,0.000000,-0.000000,9770.718434
1155.008566,306.438199,148.041188,9548.656652
1155.008882,612.876398,1332.370696,9178.553681
1155.009197,0.000000,444.123565,8734.430116
1155.009513,0.000000,-666.185348,9104.533087
1155.009829,-306.438199,-296.082377,9474.636058
1155.010144,0.000000,-1036.288319,9178.553681
1155.010460,0.000000,-0.000000,9548.656652
1155.010776,153.219100,-74.020594,9474.636058
1155.011092,-459.657299,-444.123565,8586.388927
1155.011407,-383.047749,296.082377,9104.533087
1155.011723,0.000000,-222.061783,9400.615463
1155.012039,229.828649,-222.061783,9474.636058
1155.012355,536.266849,-0.000000,9696.697840
1155.012670,229.828649,-666.185348,8660.409521
1155.012986,-306.438199,-814.226536,8956.491898
1155.013302,-76.609550,-888.247130,9400.615463
1155.013617,689.485948,-740.205942,9696.697840
1155.013933,919.314598,-222.061783,8882.471304
1155.014249,229.828649,-296.082377,8734.430116
1155.014565,76.609550,-1110.308913,9326.594869
1155.014880,0.000000,-1036.288319,9178.553681
1155.015196,76.609550,-1480.411884,9696.697840
1155.015512,536.266849,-592.164754,9548.656652
1155.015827,689.485948,-74.020594,8808.450710
1155.016143,459.657299,-370.102971,8660.409521
1155.016459,-383.047749,-518.144159,9548.656652
1155.016775,153.219100,-518.144159,9474.636058
1155.017090,536.266849,-1110.308913,9844.739029
1155.017406,0.000000,-296.082377,9474.636058
1155.017722,0.000000,-1110.308913,9548.656652
1155.018037,-306.438199,-1258.350101,9622.677246
1155.018353,-153.219100,-1184.329507,9992.780217
1155.018669,306.438199,-1036.288319,10436.903782
1155.018985,1072.533697,-0.000000,9844.739029
1155.019300,383.047749,-74.020594,9030.512492
1155.019616,229.828649,222.061783,9104.533087
1155.019932,1072.533697,-0.000000,9770.718434
1155.020247,995.924147,-296.082377,9696.697840
1155.020563,1149.143247,296.082377,9844.739029
1155.020879,766.095498,444.123565,9326.594869
1155.021195,612.876398,-592.164754,8956.491898
1155.021510,383.047749,-148.041188,9178.553681
1155.021826,459.657299,-1110.308913,10510.924376
1155.022142,1302.362347,-296.082377,10732.986159
1155.022457,1302.362347,1184.329507,9622.677246
1155.022773,689.485948,518.144159,8586.388927
1155.023089,612.876398,-148.041188,9474.636058
1155.023405,842.705048,-592.164754,10214.842000
1155.023720,1378.971896,-0.000000,9622.677246
1155.024036,1455.581446,814.226536,9326.594869
1155.024352,1072.533697,222.061783,8956.491898
1155.024668,689.485948,222.061783,8956.491898
1155.024983,459.657299,-0.000000,9548.656652
1155.025299,919.314598,-222.061783,9474.636058
1155.025615,1149.143247,518.144159,9474.636058
1155.025930,842.705048,1110.308913,8808.450710
1155.026246,383.047749,-0.000000,8734.430116
1155.026562,76.609550,-518.144159,9770.718434
1155.026878,536.266849,-518.144159,10288.862594
1155.027193,306.438199,-0.000000,9474.636058
1155.027509,0.000000,888.247130,9918.759623
1155.027825,0.000000,296.082377,8734.430116
1155.028140,-383.047749,-0.000000,8734.430116
1155.028456,0.000000,-370.102971,10288.862594
1155.028772,229.828649,-296.082377,9622.677246
1155.029088,459.657299,666.185348,9030.512492
1155.029403,0.000000,370.102971,8808.450710
1155.029719,-459.657299,-592.164754,9326.594869
1155.030035,229.828649,-518.144159,9844.739029
1155.030350,612.876398,-666.185348,9474.636058
1155.030666,842.705048,-222.061783,9696.697840
1155.030982,383.047749,-296.082377,9326.594869
1155.031298,76.609550,-962.267725,9326.594869
1155.031613,0.000000,-1406.391290,9918.759623
1155.031929,0.000000,-666.185348,9844.739029
1155.032245,919.314598,962.267725,8882.471304
1155.032560,1149.143247,740.205942,8734.430116
1155.032876,689.485948,-592.164754,9104.533087
1155.033192,76.609550,-592.164754,9548.656652
1155.033508,0.000000,-888.247130,9992.780217
1155.033823,306.438199,-814.226536,9992.780217
1155.034139,536.266849,148.041188,9622.677246
1155.034455,0.000000,-0.000000,9178.553681
1155.034771,-766.095498,-222.061783,9400.615463
1155.035086,-766.095498,-962.267725,10732.986159
1155.035402,-306.438199,-814.226536,10584.944971
1155.035718,612.876398,444.123565,9474.636058
1155.036033,76.609550,-0.000000,9326.594869
1155.036349,306.438199,-370.102971,9844.739029
1155.036665,689.485948,-592.164754,9474.636058
1155.036981,1149.143247,-518.144159,9622.677246
1155.037296,612.876398,296.082377,9548.656652
1155.037612,1302.362347,666.185348,9030.512492
1155.037928,1455.581446,-0.000000,8364.327145
1155.038243,689.485948,-148.041188,9400.615463
1155.038559,229.828649,-592.164754,9992.780217
1155.038875,1685.410096,-370.102971,9622.677246
1155.039191,1455.581446,1184.329507,9030.512492
1155.039506,766.095498,222.061783,9030.512492
1155.039822,689.485948,-666.185348,8956.491898
1155.040138,536.266849,-592.164754,9326.594869
1155.040453,536.266849,-888.247130,10362.883188
1155.040769,766.095498,-962.267725,10584.944971
1155.041085,536.266849,-0.000000,8956.491898
1155.041401,76.609550,-74.020594,8660.409521
1155.041716,153.219100,-518.144159,9918.759623
1155.042032,766.095498,-1258.350101,9918.759623
1155.042348,612.876398,296.082377,9178.553681
1155.042663,689.485948,-0.000000,9030.512492
1155.042979,612.876398,-814.226536,9326.594869
1155.043295,689.485948,296.082377,9400.615463
1155.043611,0.000000,-296.082377,9622.677246
1155.043926,842.705048,-148.041188,9992.780217
1155.044242,689.485948,222.061783,9696.697840
1155.044558,0.000000,444.123565,8660.409521
1155.044873,-306.438199,-296.082377,9548.656652
1155.045189,0.000000,-1036.288319,9622.677246
1155.045505,76.609550,-962.267725,10214.842000
1155.045821,536.266849,-74.020594,9844.739029
1155.046136,229.828649,-0.000000,9104.533087
1155.046452,76.609550,-518.144159,9178.553681
1155.046768,-766.095498,-518.144159,9474.636058
1155.047084,612.876398,-1258.350101,9844.739029
1155.047399,919.314598,-666.185348,9474.636058
1155.047715,459.657299,-222.061783,9326.594869
1155.048031,306.438199,-1332.370696,9696.697840
1155.048346,229.828649,-1036.288319,9178.553681
1155.048662,229.828649,-222.061783,9104.533087
1155.048978,1149.143247,-0.000000,9326.594869
1155.049294,1225.752797,888.247130,8808.450710
1155.049609,1072.533697,222.061783,8882.471304
1155.049925,229.828649,-888.247130,9178.553681
1155.050241,76.609550,-1258.350101,9696.697840
1155.050556,459.657299,-1332.370696,9474.636058
1155.050872,842.705048,-666.185348,9992.780217
1155.051188,229.828649,-0.000000,9770.718434
1155.051504,0.000000,-666.185348,9770.718434
1155.051819,0.000000,370.102971,8882.471304
1155.052135,0.000000,-0.000000,9474.636058
1155.052451,842.705048,-0.000000,9548.656652
1155.052766,995.924147,814.226536,9326.594869
1155.053082,76.609550,370.102971,8512.368333
1155.053398,153.219100,-74.020594,9548.656652
1155.053714,0.000000,-666.185348,10214.842000
1155.054029,842.705048,-0.000000,9474.636058
1155.054345,1302.362347,444.123565,9178.553681
1155.054661,383.047749,444.123565,9400.615463
1155.054976,459.657299,222.061783,9474.636058
1155.055292,536.266849,518.144159,9400.615463
1155.055608,689.485948,-0.000000,9696.697840
1155.055924,1608.800546,1036.288319,10066.800811
1155.056239,1302.362347,666.185348,8734.430116
1155.056555,612.876398,518.144159,8364.327145
1155.056871,459.657299,148.041188,9326.594869
1155.057187,995.924147,-740.205942,9844.739029
1155.057502,1378.971896,-0.000000,9844.739029
1155.057818,842.705048,962.267725,9400.615463
1155.058134,612.876398,-0.000000,8808.450710
1155.058449,-229.828649,148.041188,9178.553681
1155.058765,76.609550,-74.020594,10362.883188
1155.059081,306.438199,222.061783,10288.862594
1155.059397,306.438199,1406.391290,8956.491898
1155.059712,-153.219100,888.247130,8660.409521
1155.060028,-766.095498,-296.082377,9622.677246
1155.060344,-766.095498,-1184.329507,10362.883188
1155.060659,-612.876398,-740.205942,10881.027347
1155.060975,-306.438199,148.041188,9770.718434
1155.061291,0.000000,-148.041188,9622.677246
1155.061607,-383.047749,-370.102971,9104.533087
1155.061922,-919.314598,-296.082377,9696.697840
1155.062238,0.000000,-370.102971,10214.842000
1155.062554,459.657299,666.185348,9622.677246
1155.062869,306.438199,814.226536,9178.553681
1155.063185,306.438199,-0.000000,8586.388927
1155.063501,459.657299,-1036.288319,9918.759623
1155.063817,766.095498,-592.164754,10584.944971
1155.064132,689.485948,-1110.308913,9992.780217
1155.064448,766.095498,-0.000000,9400.615463
1155.064764,459.657299,-370.102971,9474.636058
1155.065079,-383.047749,-962.267725,8808.450710
1155.065395,0.000000,-888.247130,9844.739029
1155.065711,536.266849,-666.185348,10584.944971
1155.066027,995.924147,370.102971,9474.636058
1155.066342,995.924147,370.102971,8586.388927
1155.066658,459.657299,-814.226536,8734.430116
1155.066974,229.828649,-740.205942,9622.677246
1155.067289,306.438199,-1110.308913,9992.780217
1155.067605,1225.752797,-518.144159,9622.677246
1155.067921,766.095498,-74.020594,9770.718434
1155.068237,536.266849,-740.205942,9326.594869
1155.068552,383.047749,-592.164754,9178.553681
1155.068868,0.000000,-888.247130,9474.636058
1155.069184,459.657299,-888.247130,10584.944971
1155.069500,1532.190996,296.082377,9622.677246
1155.069815,919.314598,-0.000000,7698.141797
1155.070131,0.000000,-518.144159,9252.574275
1155.070447,536.266849,-592.164754,9918.759623
1155.070762,995.924147,-962.267725,9696.697840
1155.071078,1532.190996,444.123565,9178.553681
1155.071394,1225.752797,-222.061783,9474.636058
1155.071710,766.095498,-1258.350101,9178.553681
1155.072025,0.000000,-1184.329507,9548.656652
1155.072341,689.485948,-1406.391290,10140.821405
1155.072657,1532.190996,-962.267725,9622.677246
1155.072972,1685.410096,444.123565,8956.491898
1155.073288,1378.971896,1036.288319,7550.100608
1155.073604,919.314598,592.164754,8142.265362
1155.073920,1149.143247,-740.205942,9252.574275
1155.074235,1302.362347,-296.082377,9474.636058
1155.074551,1608.800546,-0.000000,9548.656652
1155.074867,229.828649,-222.061783,8068.244768
1155.075182,-383.047749,-592.164754,8808.450710
1155.075498,-383.047749,-1554.432478,10214.842000
1155.075814,153.219100,-814.226536,10584.944971
1155.076130,76.609550,814.226536,9622.677246
1155.076445,-306.438199,888.247130,8734.430116
1155.076761,-766.095498,-0.000000,8734.430116
1155.077077,-919.314598,-74.020594,9548.656652
1155.077392,0.000000,-740.205942,10214.842000
1155.077708,383.047749,518.144159,9696.697840
1155.078024,0.000000,444.123565,9400.615463
1155.078340,-306.438199,-222.061783,8956.491898
1155.078655,-766.095498,-592.164754,9548.656652
1155.078971,0.000000,-518.144159,9992.780217
1155.079287,612.876398,-370.102971,10584.944971
1155.079603,995.924147,1036.288319,9844.739029
1155.079918,766.095498,592.164754,8216.285956
1155.080234,459.657299,-0.000000,9030.512492
1155.080550,766.095498,-444.123565,9992.780217
1155.080865,1225.752797,-148.041188,10214.842000
1155.081181,1302.362347,740.205942,9252.574275
1155.081497,919.314598,-0.000000,9548.656652
1155.081813,459.657299,-740.205942,9622.677246
1155.082128,0.000000,-666.185348,10066.800811
1155.082444,0.000000,-518.144159,10214.842000
1155.082760,612.876398,-222.061783,10955.047942
1155.083075,689.485948,740.205942,9918.759623
1155.083391,153.219100,-148.041188,9400.615463
1155.083707,-459.657299,-0.000000,9770.718434
1155.084023,153.219100,-814.226536,10732.986159
1155.084338,842.705048,-148.041188,10140.821405
1155.084654,689.485948,370.102971,9474.636058
1155.084970,153.219100,-666.185348,9474.636058
1155.085285,0.000000,-1554.432478,9770.718434
1155.085601,-229.828649,-1258.350101,10214.842000
1155.085917,842.705048,-888.247130,10066.800811
1155.086233,919.314598,666.185348,8734.430116
1155.086548,1225.752797,74.020594,9104.533087
1155.086864,383.047749,-222.061783,8956.491898
1155.087180,919.314598,-0.000000,9030.512492
1155.087495,612.876398,-370.102971,9178.553681
1155.087811,766.095498,-148.041188,9696.697840
1155.088127,1072.533697,-1110.308913,9178.553681
1155.088443,842.705048,-1258.350101,8660.409521
1155.088758,-229.828649,-962.267725,9400.615463
1155.089074,229.828649,-1110.308913,10066.800811
1155.089390,1378.971896,-370.102971,9400.615463
1155.089705,842.705048,888.247130,9178.553681
1155.090021,1149.143247,666.185348,8808.450710
1155.090337,1149.143247,-0.000000,8512.368333
1155.090653,766.095498,592.164754,8660.409521
1155.090968,1149.143247,518.144159,9252.574275
1155.091284,1302.362347,-148.041188,9326.594869
1155.091600,1225.752797,-148.041188,8660.409521
1155.091916,229.828649,-148.041188,9104.533087
1155.092231,153.219100,-296.082377,9622.677246
1155.092547,0.000000,-592.164754,9548.656652
1155.092863,842.705048,518.144159,9252.574275
1155.093178,612.876398,962.267725,9030.512492
1155.093494,-306.438199,-0.000000,8438.347739
1155.093810,-1225.752797,-370.102971,9474.636058
1155.094126,-229.828649,-962.267725,9918.759623
1155.094441,153.219100,-1036.288319,9918.759623
1155.094757,842.705048,296.082377,9252.574275
1155.095073,306.438199,-74.020594,8586.388927
1155.095388,-459.657299,-1110.308913,9252.574275
1155.095704,-153.219100,-1036.288319,9770.718434
1155.096020,0.000000,-296.082377,9400.615463
1155.096336,689.485948,296.082377,10066.800811
1155.096651,612.876398,962.267725,8882.471304
1155.096967,0.000000,370.102971,8660.409521
1155.097283,0.000000,-222.061783,9844.739029
1155.097598,306.438199,-1110.308913,10584.944971
1155.097914,766.095498,-370.102971,10214.842000
1155.098230,689.485948,-518.144159,9622.677246
1155.098546,0.000000,-814.226536,9770.718434
1155.098861,-153.219100,-1332.370696,11029.068536
1155.099177,76.609550,-740.205942,10732.986159
1155.099493,383.047749,-0.000000,10066.800811
1155.099808,766.095498,1258.350101,10066.800811
1155.100124,1072.533697,74.020594,9178.553681
1155.100440,153.219100,222.061783,9030.512492
1155.100756,459.657299,-148.041188,10658.965565
1155.101071,995.924147,-518.144159,10140.821405
1155.101387,1455.581446,592.164754,9178.553681
1155.101703,229.828649,370.102971,9622.677246
1155.102019,-383.047749,-0.000000,9252.574275
1155.102334,-153.219100,-740.205942,9992.780217
1155.102650,0.000000,-888.247130,11177.109724
1155.102966,383.047749,444.123565,10362.883188
1155.103281,919.314598,296.082377,8882.471304
1155.103597,459.657299,-0.000000,9178.553681
1155.103913,0.000000,-444.123565,9844.739029
1155.104229,383.047749,-740.205942,10140.821405
1155.104544,1225.752797,370.102971,9622.677246
1155.104860,919.314598,518.144159,8956.491898
1155.105176,766.095498,-74.020594,8882.471304
1155.105491,766.095498,-0.000000,8956.491898
1155.105807,383.047749,-592.164754,8956.491898
1155.106123,919.314598,-518.144159,9622.677246
1155.106439,1532.190996,370.102971,9696.697840
1155.106755,1149.143247,444.123565,8068.244768
1155.107071,459.657299,-0.000000,8068.244768
1155.107386,306.438199,-74.020594,9400.615463
1155.107702,919.314598,-296.082377,9474.636058
1155.108018,766.095498,-74.020594,9030.512492
1155.108334,689.485948,-0.000000,9104.533087
1155.108650,0.000000,-444.123565,8734.430116
1155.108966,76.609550,-1332.370696,9252.574275
1155.109282,-153.219100,-1554.432478,9474.636058
1155.109597,153.219100,-592.164754,9992.780217
1155.109913,459.657299,518.144159,8438.347739
1155.110229,76.609550,-0.000000,8068.244768
1155.110545,-383.047749,-444.123565,8882.471304
1155.110861,-383.047749,-814.226536,10066.800811
1155.111177,76.609550,-222.061783,9474.636058
1155.111493,536.266849,518.144159,8734.430116
1155.111809,0.000000,-0.000000,8882.471304
1155.112124,-612.876398,-888.247130,8956.491898
1155.112440,-612.876398,-962.267725,9548.656652
1155.112756,-306.438199,-666.185348,9918.759623
1155.113072,0.000000,-0.000000,9548.656652
1155.113388,536.266849,444.123565,9178.553681
1155.113704,0.000000,-0.000000,8586.388927
1155.114020,76.609550,-814.226536,9918.759623
1155.114335,536.266849,-962.267725,10658.965565
1155.114651,1072.533697,-222.061783,9548.656652
1155.114967,919.314598,444.123565,9400.615463
1155.115283,383.047749,-296.082377,9622.677246
1155.115599,612.876398,-1332.370696,9548.656652
1155.115915,0.000000,-518.144159,10436.903782
1155.116231,459.657299,296.082377,10140.821405
1155.116546,1225.752797,592.164754,9696.697840
1155.116862,919.314598,1036.288319,9326.594869
1155.117178,153.219100,-666.185348,9400.615463
1155.117494,995.924147,-814.226536,9918.759623
1155.117810,842.705048,-740.205942,9770.718434
1155.118126,766.095498,444.123565,9918.759623
1155.118442,1455.581446,370.102971,9622.677246
1155.118758,842.705048,-444.123565,9104.533087
1155.119073,-383.047749,-814.226536,10214.842000
1155.119389,459.657299,-592.164754,11251.130318
1155.119705,842.705048,-0.000000,9696.697840
1155.120021,612.876398,666.185348,9622.677246
1155.120337,1072.533697,-296.082377,9400.615463
1155.120653,459.657299,-814.226536,9474.636058
1155.120969,383.047749,-370.102971,10214.842000
1155.121284,612.876398,-592.164754,9770.718434
1155.121600,995.924147,-74.020594,10288.862594
1155.121916,842.705048,-0.000000,9474.636058
1155.122232,306.438199,-148.041188,8734.430116
1155.122548,229.828649,-370.102971,9918.759623
1155.122864,536.266849,-1628.453072,10658.965565
1155.123180,919.314598,-148.041188,9696.697840
1155.123495,1302.362347,814.226536,8808.450710
1155.123811,1455.581446,-148.041188,8660.409521
1155.124127,689.485948,148.041188,8956.491898
1155.124443,1302.362347,222.061783,9252.574275
1155.124759,1762.019645,444.123565,8438.347739
1155.125075,1685.410096,666.185348,8882.471304
1155.125391,612.876398,222.061783,8512.368333
1155.125707,0.000000,-518.144159,8808.450710
1155.126022,-689.485948,-1110.308913,9548.656652
1155.126338,-383.047749,-1258.350101,10066.800811
1155.126654,0.000000,296.082377,9252.574275
1155.126970,-229.828649,-0.000000,8882.471304
1155.127286,-995.924147,-740.205942,9104.533087
1155.127602,-1532.190996,-666.185348,9326.594869
1155.127918,-459.657299,-1110.308913,9992.780217
1155.128233,153.219100,-444.123565,9326.594869
1155.128549,0.000000,740.205942,8882.471304
1155.128865,-383.047749,-370.102971,8438.347739
1155.129181,0.000000,-592.164754,9326.594869
1155.129497,-306.438199,-740.205942,9622.677246
1155.129813,766.095498,-0.000000,9400.615463
1155.130129,1378.971896,1184.329507,8512.368333
1155.130444,689.485948,148.041188,8512.368333
1155.130760,919.314598,-222.061783,9178.553681
1155.131076,229.828649,-296.082377,9474.636058
1155.131392,689.485948,-666.185348,10066.800811
1155.131708,1225.752797,222.061783,9770.718434
1155.132024,1149.143247,-0.000000,9030.512492
1155.132340,153.219100,-0.000000,8882.471304
1155.132655,0.000000,-370.102971,9844.739029
1155.132971,306.438199,-1036.288319,10510.924376
1155.133287,1149.143247,-296.082377,10066.800811
1155.133603,0.000000,370.102971,9474.636058
1155.133919,-306.438199,-962.267725,9326.594869
1155.134235,-612.876398,-1110.308913,10066.800811
1155.134551,0.000000,-888.247130,10658.965565
1155.134867,76.609550,-296.082377,10140.821405
1155.135182,459.657299,222.061783,10066.800811
1155.135498,0.000000,-74.020594,9474.636058
1155.135814,76.609550,-370.102971,9622.677246
1155.136130,76.609550,-0.000000,9918.759623
1155.136446,612.876398,-148.041188,10288.862594
1155.136762,1149.143247,1036.288319,9474.636058
1155.137078,995.924147,518.144159,9326.594869
1155.137393,229.828649,-0.000000,9252.574275
1155.137709,459.657299,-0.000000,9770.718434
1155.138025,766.095498,-370.102971,9844.739029
1155.138341,1532.190996,888.247130,9474.636058
1155.138657,612.876398,962.267725,9178.553681
1155.138973,229.828649,-222.061783,9252.574275
1155.139289,0.000000,-518.144159,10140.821405
1155.139604,76.609550,-666.185348,10362.883188
1155.139920,536.266849,-222.061783,10066.800811
1155.140236,842.705048,666.185348,9252.574275
1155.140552,612.876398,-0.000000,9326.594869
1155.140868,612.876398,-296.082377,8956.491898
1155.141184,766.095498,-74.020594,9474.636058
1155.141500,842.705048,74.020594,9992.780217
1155.141816,1455.581446,592.164754,9400.615463
1155.142131,1072.533697,518.144159,8364.327145
1155.142447,459.657299,-296.082377,8734.430116
1155.142763,459.657299,-148.041188,9918.759623
1155.143079,689.485948,-962.267725,9400.615463
1155.143395,689.485948,444.123565,9474.636058
1155.143711,689.485948,1036.288319,8660.409521
1155.144027,383.047749,-74.020594,9030.512492
1155.144342,306.438199,-592.164754,9474.636058
1155.144658,0.000000,-666.185348,9474.636058
1155.144974,153.219100,-444.123565,10140.821405
1155.145290,306.438199,-0.000000,9178.553681
1155.145606,-229.828649,-518.144159,9030.512492
1155.145922,-306.438199,-666.185348,9696.697840
1155.146238,-383.047749,-962.267725,9770.718434
1155.146553,0.000000,-592.164754,9770.718434
1155.146869,306.438199,814.226536,9474.636058
1155.147185,306.438199,-0.000000,8956.491898
1155.147501,-689.485948,-148.041188,9400.615463
1155.147817,76.609550,-148.041188,9770.718434
1155.148133,459.657299,-814.226536,9178.553681
1155.148449,689.485948,-296.082377,9770.718434
1155.148765,1072.533697,-518.144159,9474.636058
1155.149080,995.924147,-370.102971,8882.471304
1155.149396,536.266849,-296.082377,9548.656652
1155.149712,459.657299,-592.164754,9474.636058
1155.150028,1072.533697,-518.144159,9844.739029
1155.150344,1455.581446,296.082377,9400.615463
1155.150660,1149.143247,-148.041188,9104.533087
1155.150976,536.266849,-814.226536,9474.636058
1155.151291,0.000000,-666.185348,9918.759623
1155.151607,229.828649,-592.164754,10362.883188
1155.151923,689.485948,-0.000000,9844.739029
1155.152239,383.047749,-296.082377,9474.636058
1155.152555,-612.876398,-962.267725,9696.697840
1155.152871,-766.095498,-962.267725,10955.047942
1155.153187,0.000000,-1184.329507,10288.862594
1155.153502,689.485948,-0.000000,9696.697840
1155.153818,1072.533697,518.144159,9548.656652
1155.154134,766.095498,-74.020594,9326.594869
1155.154450,689.485948,-0.000000,8512.368333
1155.154766,766.095498,-296.082377,9770.718434
1155.155082,1378.971896,-148.041188,10362.883188
1155.155398,1302.362347,518.144159,9178.553681
1155.155714,1225.752797,518.144159,7920.203579
1155.156029,919.314598,-518.144159,9326.594869
1155.156345,842.705048,-962.267725,9918.759623
1155.156661,842.705048,-518.144159,9992.780217
1155.156977,1149.143247,444.123565,9696.697840
1155.157293,766.095498,518.144159,9178.553681
1155.157609,0.000000,148.041188,8882.471304
1155.157925,76.609550,-592.164754,9844.739029
1155.158240,0.000000,-1184.329507,10140.821405
1155.158556,1302.362347,-148.041188,9548.656652
1155.158872,766.095498,-0.000000,9326.594869
1155.159188,76.609550,-740.205942,8956.491898
1155.159504,0.000000,-370.102971,9326.594869
1155.159820,0.000000,-0.000000,9548.656652
1155.160136,842.705048,296.082377,9696.697840
1155.160451,612.876398,740.205942,8734.430116
1155.160767,0.000000,592.164754,8882.471304
1155.161083,0.000000,-74.020594,9104.533087
1155.161399,0.000000,-1258.350101,9770.718434
1155.161715,766.095498,-148.041188,9918.759623
1155.162031,689.485948,-0.000000,9252.574275
1155.162347,383.047749,370.102971,8882.471304
1155.162662,-229.828649,-814.226536,9326.594869
1155.162978,-612.876398,-370.102971,10140.821405
1155.163294,306.438199,-444.123565,9548.656652
1155.163610,0.000000,592.164754,9474.636058
1155.163926,536.266849,740.205942,9474.636058
1155.164242,612.876398,-444.123565,8882.471304
1155.164558,383.047749,-222.061783,9178.553681
1155.164874,-229.828649,-518.144159,9474.636058
1155.165189,689.485948,-740.205942,9992.780217
1155.165505,536.266849,444.123565,9178.553681
1155.165821,0.000000,-0.000000,9326.594869
1155.166137,0.000000,-666.185348,9400.615463
1155.166453,0.000000,-1036.288319,9770.718434
1155.166769,383.047749,-370.102971,9844.739029
1155.167085,306.438199,814.226536,9400.615463
1155.167400,689.485948,-0.000000,8956.491898
1155.167716,76.609550,-370.102971,8956.491898
1155.168032,0.000000,-740.205942,9696.697840
1155.168348,306.438199,-1258.350101,10807.006753
1155.168664,459.657299,-222.061783,9696.697840
1155.168980,153.219100,296.082377,8660.409521
1155.169296,0.000000,-814.226536,9548.656652
1155.169611,-153.219100,-444.123565,9918.759623
1155.169927,-536.266849,-222.061783,9992.780217
1155.170243,229.828649,370.102971,9844.739029
1155.170559,229.828649,666.185348,9844.739029
1155.170875,229.828649,-0.000000,8956.491898
1155.171191,76.609550,-0.000000,9178.553681
1155.171507,0.000000,-592.164754,9696.697840
1155.171823,612.876398,-962.267725,10288.862594
1155.172138,1302.362347,444.123565,9474.636058
1155.172454,1149.143247,148.041188,9326.594869
1155.172770,995.924147,-222.061783,9178.553681
1155.173086,612.876398,222.061783,9918.759623
1155.173402,842.705048,-0.000000,9326.594869
1155.173718,1762.019645,518.144159,9474.636058
1155.174034,1455.581446,1110.308913,8512.368333
1155.174349,1149.143247,-0.000000,8734.430116
1155.174665,536.266849,-740.205942,9252.574275
1155.174981,612.876398,-1036.288319,10436.903782
1155.175297,766.095498,-74.020594,9918.759623
1155.175613,306.438199,518.144159,8808.450710
1155.175929,0.000000,-296.082377,9474.636058
1155.176245,-536.266849,-370.102971,9474.636058
1155.176560,-689.485948,-370.102971,9992.780217
1155.176876,-383.047749,-592.164754,9992.780217
1155.177192,383.047749,-74.020594,9548.656652
1155.177508,-153.219100,-74.020594,9104.533087
1155.177824,-153.219100,-370.102971,9252.574275
1155.178140,0.000000,-74.020594,9992.780217
1155.178456,153.219100,-222.061783,9326.594869
1155.178772,459.657299,666.185348,8956.491898
1155.179087,383.047749,444.123565,9252.574275
1155.179403,76.609550,-222.061783,8808.450710
1155.179719,0.000000,-74.020594,9548.656652
1155.180035,0.000000,-74.020594,10140.821405
1155.180351,383.047749,222.061783,9696.697840
1155.180667,995.924147,444.123565,9474.636058
1155.180983,612.876398,296.082377,8364.327145
1155.181298,306.438199,-370.102971,9474.636058
1155.181614,0.000000,-740.205942,9844.739029
1155.181930,459.657299,-1036.288319,9474.636058
1155.182246,995.924147,-740.205942,9770.718434
1155.182562,459.657299,-740.205942,9992.780217
1155.182878,76.609550,-962.267725,8808.450710
1155.183194,0.000000,-666.185348,9992.780217
1155.183509,229.828649,-1110.308913,10140.821405
1155.183825,1149.143247,-518.144159,9104.533087
1155.184141,919.314598,518.144159,8512.368333
1155.184457,612.876398,-962.267725,9400.615463
1155.184773,229.828649,-1258.350101,10140.821405
1155.185089,536.266849,-592.164754,9326.594869
1155.185405,612.876398,-814.226536,9178.553681
1155.185721,459.657299,-370.102971,9696.697840
1155.186036,-153.219100,-1110.308913,9400.615463
1155.186352,-229.828649,-592.164754,9400.615463
1155.186668,-536.266849,-666.185348,10288.862594
1155.186984,229.828649,-740.205942,9696.697840
1155.187300,766.095498,518.144159,9104.533087
1155.187616,612.876398,592.164754,8364.327145
1155.187932,229.828649,-666.185348,9696.697840
1155.188247,766.095498,-666.185348,9696.697840
1155.188563,612.876398,-296.082377,9400.615463
1155.188879,766.095498,592.164754,9474.636058
1155.189195,1685.410096,592.164754,9326.594869
1155.189511,612.876398,592.164754,8364.327145
1155.189827,306.438199,296.082377,9104.533087
1155.190143,383.047749,-962.267725,10510.924376
1155.190458,995.924147,148.041188,9844.739029
1155.190774,1225.752797,1036.288319,8734.430116
1155.191090,919.314598,-148.041188,9178.553681
1155.191406,229.828649,-222.061783,9104.533087
1155.191722,612.876398,-148.041188,9548.656652
1155.192038,1072.533697,-222.061783,9252.574275
1155.192354,995.924147,370.102971,9622.677246
1155.192669,536.266849,-0.000000,8882.471304
1155.192985,0.000000,-74.020594,9252.574275
1155.193301,-229.828649,-666.185348,9622.677246
1155.193617,0.000000,-592.164754,9992.780217
1155.193933,536.266849,518.144159,9400.615463
1155.194249,459.657299,370.102971,8956.491898
1155.194565,383.047749,-444.123565,9326.594869
1155.194881,-229.828649,-74.020594,10140.821405
1155.195196,-229.828649,-666.185348,9474.636058
1155.195512,612.876398,-0.000000,10362.883188
1155.195828,612.876398,814.226536,9622.677246
1155.196144,229.828649,518.144159,8956.491898
1155.196460,-536.266849,222.061783,9474.636058
1155.196776,0.000000,-444.123565,10807.006753
1155.197092,1225.752797,-222.061783,9844.739029
1155.197407,1378.971896,1258.350101,9252.574275
1155.197723,536.266849,1110.308913,8882.471304
1155.198039,306.438199,-370.102971,9844.739029
1155.198355,689.485948,-740.205942,9992.780217
1155.198671,612.876398,-222.061783,9400.615463
1155.198987,1225.752797,296.082377,10362.883188
1155.199303,536.266849,-296.082377,9770.718434
1155.199618,0.000000,-666.185348,9030.512492
1155.199934,0.000000,-518.144159,9696.697840
1155.200250,0.000000,-1184.329507,10362.883188
1155.200566,459.657299,-370.102971,9992.780217
1155.200882,1072.533697,-74.020594,9326.594869
1155.201198,306.438199,-518.144159,8808.450710
1155.201514,0.000000,-962.267725,9770.718434
1155.201830,76.609550,-1628.453072,9474.636058
1155.202145,459.657299,-962.267725,9992.780217
1155.202461,383.047749,-0.000000,9992.780217
1155.202777,536.266849,74.020594,8882.471304
1155.203093,306.438199,-740.205942,9474.636058
1155.203409,76.609550,-518.144159,10066.800811
1155.203725,919.314598,-740.205942,9548.656652
1155.204041,995.924147,740.205942,9474.636058
1155.204356,1072.533697,370.102971,9104.533087
1155.204672,76.609550,-666.185348,9326.594869
1155.204988,153.219100,-148.041188,9548.656652
1155.205304,0.000000,-888.247130,9770.718434
1155.205620,842.705048,-666.185348,9918.759623
1155.205936,1072.533697,-0.000000,9548.656652
1155.206252,229.828649,-296.082377,9178.553681
1155.206567,0.000000,-592.164754,9178.553681
1155.206883,76.609550,-592.164754,10140.821405
1155.207199,1072.533697,-74.020594,9178.553681
1155.207515,995.924147,888.247130,9030.512492
1155.207831,1072.533697,370.102971,8808.450710
1155.208147,459.657299,-1110.308913,8586.388927
1155.208463,229.828649,-518.144159,9474.636058
1155.208778,383.047749,-296.082377,9252.574275
1155.209094,612.876398,-222.061783,8882.471304
1155.209410,536.266849,-0.000000,8956.491898
1155.209726,-383.047749,-666.185348,8882.471304
1155.210042,-766.095498,-962.267725,9474.636058
1155.210358,-306.438199,-370.102971,10066.800811
1155.210673,306.438199,-0.000000,9400.615463
1155.210989,306.438199,740.205942,9104.533087
1155.211305,76.609550,-148.041188,9104.533087
1155.211621,-612.876398,-518.144159,9104.533087
1155.211937,229.828649,-0.000000,10214.842000
1155.212253,306.438199,-0.000000,9252.574275
1155.212568,0.000000,740.205942,8808.450710
1155.212884,153.219100,-0.000000,9400.615463
1155.213200,-459.657299,-592.164754,9400.615463
1155.213516,0.000000,370.102971,9992.780217
1155.213832,0.000000,148.041188,9326.594869
1155.214148,612.876398,444.123565,9770.718434
1155.214463,689.485948,666.185348,10436.903782
1155.214779,306.438199,-0.000000,9400.615463
1155.215095,383.047749,296.082377,9622.677246
1155.215411,536.266849,-518.144159,9918.759623
1155.215727,995.924147,-370.102971,10140.821405
1155.216043,1455.581446,-0.000000,9844.739029
1155.216359,612.876398,-444.123565,9400.615463
1155.216674,0.000000,-518.144159,9844.739029
1155.216990,459.657299,-444.123565,9918.759623
1155.217306,1072.533697,148.041188,9252.574275
1155.217622,1685.410096,444.123565,9474.636058
1155.217938,1072.533697,-518.144159,9326.594869
1155.218254,536.266849,-592.164754,9474.636058
1155.218569,306.438199,-666.185348,9770.718434
1155.218885,459.657299,-814.226536,9992.780217
1155.219201,766.095498,-0.000000,9474.636058
1155.219517,306.438199,296.082377,9622.677246
1155.219833,153.219100,-148.041188,9474.636058
1155.220149,-383.047749,-370.102971,9474.636058
1155.220464,0.000000,-592.164754,10436.903782
1155.220780,612.876398,-222.061783,10362.883188
1155.221096,766.095498,370.102971,9400.615463
1155.221412,536.266849,-0.000000,9326.594869
1155.221728,76.609550,-444.123565,9178.553681
1155.222044,-689.485948,-296.082377,9474.636058
1155.222359,1225.752797,-444.123565,9992.780217
1155.222675,1149.143247,1110.308913,9030.512492
1155.222991,919.314598,666.185348,9104.533087
1155.223307,689.485948,-222.061783,9104.533087
1155.223623,306.438199,-740.205942,9474.636058
1155.223939,536.266849,-666.185348,9696.697840
1155.224255,1455.581446,-222.061783,10288.862594
1155.224570,1225.752797,592.164754,7994.224174
1155.224886,459.657299,-370.102971,8586.388927
1155.225202,689.485948,-0.000000,9400.615463
1155.225518,76.609550,-1036.288319,9474.636058
1155.225834,766.095498,-518.144159,9474.636058
1155.226150,536.266849,-0.000000,9622.677246
1155.226465,153.219100,-740.205942,8808.450710
1155.226781,-229.828649,-444.123565,9104.533087
1155.227097,-383.047749,-1332.370696,9474.636058
1155.227413,76.609550,-1184.329507,9918.759623
1155.227729,229.828649,444.123565,9326.594869
1155.228045,0.000000,814.226536,7994.224174
1155.228360,-153.219100,-296.082377,8512.368333
1155.228676,-536.266849,-592.164754,10140.821405
1155.228992,-536.266849,-962.267725,10066.800811
1155.229308,153.219100,222.061783,9178.553681
1155.229624,0.000000,-296.082377,8882.471304
1155.229940,-689.485948,-592.164754,9252.574275
1155.230255,-842.705048,-592.164754,9400.615463
1155.230571,0.000000,-962.267725,9992.780217
1155.230887,536.266849,148.041188,9992.780217
1155.231203,76.609550,740.205942,9030.512492
1155.231519,0.000000,-74.020594,9030.512492
1155.231835,-229.828649,-1110.308913,9622.677246
1155.232150,0.000000,-814.226536,10584.944971
1155.232466,689.485948,-814.226536,10288.862594
1155.232782,1225.752797,444.123565,9400.615463
1155.233098,842.705048,296.082377,8660.409521
1155.233414,842.705048,-296.082377,9104.533087
1155.233730,689.485948,-296.082377,9400.615463
1155.234046,1225.752797,-444.123565,10140.821405
1155.234361,1685.410096,-0.000000,9252.574275
1155.234677,1532.190996,740.205942,9178.553681
1155.234993,612.876398,-740.205942,9104.533087
1155.235309,689.485948,-740.205942,9770.718434
1155.235625,536.266849,-740.205942,10288.862594
1155.235941,1149.143247,-0.000000,10436.903782
1155.236256,612.876398,370.102971,9770.718434
1155.236572,0.000000,-592.164754,9622.677246
1155.236888,-153.219100,-518.144159,9696.697840
1155.237204,229.828649,-1480.411884,10214.842000
1155.237520,766.095498,-1036.288319,10955.047942
1155.237836,842.705048,1036.288319,9474.636058
1155.238151,1225.752797,1184.329507,8586.388927
1155.238467,766.095498,-296.082377,9326.594869
1155.238783,1302.362347,-74.020594,9770.718434
1155.239099,1302.362347,-222.061783,9992.780217
1155.239415,2068.457845,518.144159,9178.553681
1155.239731,1455.581446,370.102971,8734.430116
1155.240046,995.924147,-1184.329507,9548.656652
1155.240362,459.657299,-1036.288319,10362.883188
1155.240678,459.657299,-296.082377,9844.739029
1155.240994,995.924147,-74.020594,9770.718434
1155.241310,1149.143247,1110.308913,9178.553681
1155.241626,919.314598,444.123565,8364.327145
1155.241942,229.828649,296.082377,9474.636058
1155.242257,842.705048,222.061783,8882.471304
1155.242573,536.266849,-296.082377,9030.512492
1155.242889,536.266849,444.123565,9696.697840
1155.243205,-306.438199,-0.000000,8438.347739
1155.243521,-459.657299,-962.267725,9326.594869
1155.243837,-612.876398,-370.102971,9918.759623
1155.244152,-919.314598,-888.247130,9770.718434
1155.244468,-153.219100,296.082377,9178.553681
1155.244784,-766.095498,518.144159,9178.553681
1155.245100,-1302.362347,-592.164754,8808.450710
1155.245416,-919.314598,-0.000000,9622.677246
1155.245732,-919.314598,-74.020594,9104.533087
1155.246047,-536.266849,222.061783,9474.636058
1155.246363,-153.219100,518.144159,9474.636058
1155.246679,-536.266849,-814.226536,8660.409521
1155.246995,-766.095498,-444.123565,9104.533087
1155.247311,-919.314598,-740.205942,9622.677246
1155.247627,76.609550,-296.082377,9178.553681
1155.247942,306.438199,592.164754,10066.800811
1155.248258,153.219100,518.144159,8808.450710
1155.248574,-153.219100,-0.000000,9030.512492
1155.248890,76.609550,-148.041188,9844.739029
1155.249206,0.000000,-148.041188,9326.594869
1155.249522,995.924147,-148.041188,10436.903782
1155.249837,229.828649,-74.020594,9400.615463
1155.250153,612.876398,-296.082377,9252.574275
1155.250469,383.047749,-518.144159,9474.636058
1155.250785,689.485948,-1110.308913,9770.718434
1155.251101,1072.533697,-740.205942,10288.862594
1155.251417,1455.581446,222.061783,9918.759623
1155.251733,842.705048,296.082377,9400.615463
1155.252048,459.657299,296.082377,9104.533087
1155.252364,1072.533697,592.164754,9770.718434
1155.252680,1302.362347,-222.061783,10066.800811
1155.252996,1225.752797,-0.000000,9474.636058
1155.253312,1378.971896,-370.102971,9918.759623
1155.253628,153.219100,-1110.308913,10140.821405
1155.253943,306.438199,-444.123565,10436.903782
1155.254259,383.047749,-444.123565,9918.759623
1155.254575,1225.752797,370.102971,9770.718434
1155.254891,995.924147,518.144159,9548.656652
1155.255207,536.266849,-0.000000,9474.636058
1155.255523,612.876398,-296.082377,9326.594869
1155.255838,1072.533697,-888.247130,10362.883188
1155.256154,1378.971896,148.041188,9548.656652
1155.256470,1149.143247,962.267725,8660.409521
1155.256786,1072.533697,-814.226536,9252.574275
1155.257102,1072.533697,-1110.308913,9696.697840
1155.257418,1072.533697,-1110.308913,9326.594869
1155.257733,1608.800546,-740.205942,9622.677246
1155.258049,1225.752797,370.102971,9252.574275
1155.258365,1302.362347,444.123565,8734.430116
1155.258681,1532.190996,-148.041188,8512.368333
1155.258997,689.485948,-148.041188,9400.615463
1155.259313,1225.752797,-222.061783,9326.594869
1155.259629,1302.362347,296.082377,8956.491898
1155.259944,1072.533697,666.185348,8142.265362
1155.260260,383.047749,-370.102971,8660.409521
1155.260576,0.000000,-370.102971,8882.471304
1155.260892,229.828649,-814.226536,9844.739029
1155.261208,153.219100,-518.144159,9918.759623
1155.261524,153.219100,222.061783,9770.718434
1155.261839,-459.657299,-296.082377,8956.491898
1155.262155,-842.705048,-222.061783,9252.574275
1155.262471,-995.924147,-1036.288319,9548.656652
1155.262787,229.828649,-74.020594,9770.718434
1155.263103,383.047749,814.226536,9104.533087
1155.263419,306.438199,148.041188,8586.388927
1155.263734,-612.876398,-296.082377,8808.450710
1155.264050,-842.705048,-296.082377,9104.533087
1155.264366,0.000000,-592.164754,9548.656652
1155.264682,0.000000,-0.000000,9696.697840
1155.264998,153.219100,740.205942,9844.739029
1155.265314,-842.705048,-814.226536,9178.553681
1155.265629,-766.095498,-740.205942,9696.697840
1155.265945,-536.266849,-962.267725,9992.780217
1155.266261,229.828649,-518.144159,10214.842000
1155.266577,0.000000,-0.000000,9474.636058
1155.266893,-536.266849,-814.226536,9622.677246
1155.267209,-612.876398,-518.144159,10584.944971
1155.267524,-153.219100,-888.247130,9918.759623
1155.267840,459.657299,-592.164754,10362.883188
1155.268156,383.047749,296.082377,9992.780217
1155.268472,229.828649,-0.000000,9474.636058
1155.268788,306.438199,-518.144159,9030.512492
1155.269104,153.219100,-222.061783,9770.718434
1155.269420,612.876398,-370.102971,10436.903782
1155.269735,1455.581446,-74.020594,10140.821405
1155.270051,1225.752797,592.164754,9252.574275
1155.270367,76.609550,-444.123565,9400.615463
1155.270683,306.438199,-666.185348,9770.718434
1155.270999,153.219100,-370.102971,9844.739029
1155.271315,536.266849,-0.000000,9844.739029
1155.271630,842.705048,444.123565,10140.821405
1155.271946,842.705048,-74.020594,9326.594869
1155.272262,0.000000,-0.000000,9030.512492
1155.272578,612.876398,-444.123565,9622.677246
1155.272894,766.095498,-296.082377,9770.718434
1155.273210,1378.971896,666.185348,9770.718434
1155.273525,842.705048,370.102971,8882.471304
1155.273841,536.266849,-888.247130,9104.533087
1155.274157,919.314598,-814.226536,10140.821405
1155.274473,1149.143247,-444.123565,9104.533087
1155.274789,1302.362347,370.102971,9474.636058
1155.275105,1302.362347,222.061783,9696.697840
1155.275420,1149.143247,-296.082377,8660.409521
1155.275736,459.657299,666.185348,8956.491898
1155.276052,1225.752797,296.082377,8956.491898
1155.276368,1762.019645,-74.020594,9400.615463
1155.276684,1991.848295,666.185348,8808.450710
1155.277000,1378.971896,-0.000000,8142.265362
1155.277316,612.876398,-740.205942,9696.697840
1155.277631,459.657299,-592.164754,9770.718434
1155.277947,995.924147,222.061783,9622.677246
1155.278263,612.876398,814.226536,8660.409521
1155.278579,-459.657299,444.123565,9030.512492
1155.278895,-459.657299,-666.185348,9326.594869
1155.279211,-536.266849,-518.144159,9622.677246
1155.279526,0.000000,-518.144159,9992.780217
1155.279842,153.219100,-444.123565,10362.883188
1155.280158,-766.095498,-74.020594,9252.574275
1155.280474,-306.438199,-518.144159,9326.594869
1155.280790,-459.657299,-1110.308913,9474.636058
1155.281106,-383.047749,-370.102971,9474.636058
1155.281421,-153.219100,-444.123565,10881.027347
1155.281737,842.705048,-148.041188,9474.636058
1155.282053,76.609550,-74.020594,8808.450710
1155.282369,-306.438199,592.164754,8882.471304
1155.282685,306.438199,-518.144159,9400.615463
1155.283001,1838.629195,-222.061783,10140.821405
1155.283316,1378.971896,1702.473667,8660.409521
1155.283632,536.266849,592.164754,8586.388927
1155.283948,306.438199,-962.267725,10066.800811
1155.284264,383.047749,-1480.411884,10584.944971
1155.284580,76.609550,-444.123565,9178.553681
1155.284896,842.705048,592.164754,10288.862594
1155.285211,229.828649,370.102971,9770.718434
1155.285527,-229.828649,-444.123565,9474.636058
1155.285843,-536.266849,-148.041188,9622.677246
1155.286159,-306.438199,-1110.308913,9992.780217
1155.286475,76.609550,-518.144159,9918.759623
1155.286791,153.219100,-74.020594,10436.903782
1155.287107,-153.219100,-592.164754,9844.739029
1155.287422,-612.876398,-222.061783,9104.533087
1155.287738,76.609550,-296.082377,10066.800811
1155.288054,229.828649,-666.185348,10140.821405
1155.288370,459.657299,666.185348,9474.636058
1155.288686,766.095498,370.102971,9104.533087
1155.289002,383.047749,-222.061783,8882.471304
1155.289317,1072.533697,-518.144159,10066.800811
1155.289633,1378.971896,-370.102971,9622.677246
1155.289949,1532.190996,518.144159,8956.491898
1155.290265,1762.019645,444.123565,8882.471304
1155.290581,1072.533697,-740.205942,8660.409521
1155.290897,995.924147,-518.144159,9548.656652
1155.291212,919.314598,-888.247130,10436.903782
1155.291528,1608.800546,-74.020594,9622.677246
1155.291844,1455.581446,740.205942,8734.430116
1155.292160,536.266849,-148.041188,9030.512492
1155.292476,229.828649,-740.205942,9622.677246
1155.292792,383.047749,-370.102971,9104.533087
1155.293107,919.314598,-592.164754,9770.718434
1155.293423,766.095498,-0.000000,9918.759623
1155.293739,76.609550,-222.061783,8808.450710
1155.294055,536.266849,-518.144159,9104.533087
1155.294371,-153.219100,-444.123565,8882.471304
1155.294687,306.438199,-1110.308913,9696.697840
1155.295003,842.705048,-0.000000,9400.615463
1155.295318,153.219100,370.102971,8882.471304
1155.295634,153.219100,-370.102971,8956.491898
1155.295950,229.828649,148.041188,8808.450710
1155.296266,229.828649,-0.000000,9104.533087
1155.296582,459.657299,222.061783,9844.739029
1155.296898,612.876398,1036.288319,9400.615463
1155.297213,-306.438199,370.102971,8216.285956
1155.297529,-842.705048,-370.102971,9696.697840
1155.297845,-383.047749,-814.226536,10362.883188
1155.298161,-306.438199,-370.102971,9178.553681
1155.298477,153.219100,592.164754,9622.677246
1155.298793,0.000000,-592.164754,9548.656652
1155.299108,-383.047749,-888.247130,9992.780217
1155.299424,-229.828649,-370.102971,10214.842000
1155.299740,459.657299,-592.164754,9918.759623
1155.300056,1302.362347,592.164754,9548.656652
1155.300372,842.705048,666.185348,8734.430116
1155.300688,766.095498,-148.041188,9104.533087
1155.301003,919.314598,-888.247130,10140.821405
1155.301319,1149.143247,-0.000000,9548.656652
1155.301635,1915.238745,370.102971,9104.533087
1155.301951,995.924147,-0.000000,9104.533087
1155.302267,612.876398,-296.082377,9474.636058
1155.302583,459.657299,-444.123565,9696.697840
1155.302898,689.485948,-592.164754,9622.677246
1155.303214,459.657299,-666.185348,10436.903782
1155.303530,306.438199,-296.082377,9844.739029
1155.303846,-153.219100,-888.247130,9252.574275
1155.304162,-383.047749,-740.205942,9844.739029
1155.304478,-229.828649,-1184.329507,10658.965565
1155.304794,0.000000,-370.102971,10288.862594
1155.305109,612.876398,370.102971,9400.615463
1155.305425,459.657299,-0.000000,8956.491898
1155.305741,229.828649,-962.267725,9844.739029
1155.306057,383.047749,-888.247130,9622.677246
1155.306373,919.314598,-148.041188,9548.656652
1155.306689,689.485948,518.144159,9548.656652
1155.307004,1378.971896,296.082377,8808.450710
1155.307320,995.924147,-74.020594,8734.430116
1155.307636,612.876398,-222.061783,9918.759623
1155.307952,919.314598,-370.102971,9770.718434
1155.308268,1149.143247,222.061783,9104.533087
1155.308584,1685.410096,444.123565,8586.388927
1155.308899,1532.190996,296.082377,9030.512492
1155.309215,153.219100,-74.020594,9400.615463
1155.309531,306.438199,-518.144159,9252.574275
1155.309847,995.924147,-740.205942,9770.718434
1155.310163,1149.143247,370.102971,9548.656652
1155.310478,612.876398,148.041188,8586.388927
1155.310794,0.000000,-814.226536,9030.512492
1155.311110,-153.219100,-444.123565,10066.800811
1155.311426,153.219100,-962.267725,9992.780217
1155.311742,612.876398,-74.020594,9178.553681
1155.312057,306.438199,592.164754,8364.327145
1155.312373,-306.438199,-444.123565,8438.347739
1155.312689,0.000000,-666.185348,9844.739029
1155.313005,-306.438199,-740.205942,9770.718434
1155.313321,612.876398,-296.082377,9400.615463
1155.313636,229.828649,148.041188,8882.471304
1155.313952,-383.047749,-1036.288319,9104.533087
1155.314268,-153.219100,-1554.432478,9844.739029
1155.314584,-306.438199,-814.226536,9844.739029
1155.314900,-383.047749,-222.061783,9918.759623
1155.315215,76.609550,296.082377,9400.615463
1155.315531,612.876398,-0.000000,9104.533087
1155.315847,0.000000,-222.061783,9030.512492
1155.316163,0.000000,-0.000000,9252.574275
1155.316479,919.314598,-1110.308913,9548.656652
1155.316794,1302.362347,-222.061783,9548.656652
1155.317110,689.485948,444.123565,9622.677246
1155.317426,459.657299,-296.082377,8586.388927
1155.317742,459.657299,-296.082377,9918.759623
1155.318058,612.876398,-740.205942,9844.739029
1155.318373,76.609550,-296.082377,9844.739029
1155.318689,766.095498,444.123565,9622.677246
1155.319005,842.705048,-444.123565,9474.636058
1155.319321,-229.828649,-592.164754,9474.636058
1155.319637,459.657299,-518.144159,10436.903782
1155.319952,919.314598,-518.144159,9474.636058
1155.320268,919.314598,444.123565,9400.615463
1155.320584,0.000000,666.185348,9474.636058
1155.320900,0.000000,-444.123565,9696.697840
1155.321216,153.219100,222.061783,9696.697840
1155.321531,76.609550,-296.082377,10436.903782
1155.321847,459.657299,-296.082377,10436.903782
1155.322163,689.485948,740.205942,9548.656652
1155.322479,536.266849,-222.061783,8808.450710
1155.322795,919.314598,-296.082377,9844.739029
1155.323110,919.314598,-74.020594,10288.862594
1155.323426,1072.533697,74.020594,8882.471304
1155.323742,766.095498,814.226536,9104.533087
1155.324058,229.828649,-370.102971,9548.656652
1155.324374,229.828649,-740.205942,10066.800811
1155.324689,0.000000,-0.000000,9548.656652
1155.325005,306.438199,-666.185348,9548.656652
1155.325321,689.485948,-0.000000,9992.780217
1155.325637,612.876398,-1036.288319,8660.409521
1155.325953,536.266849,-1332.370696,9400.615463
1155.326268,842.705048,-148.041188,10066.800811
1155.326584,1225.752797,-444.123565,8808.450710
1155.326900,1532.190996,518.144159,9030.512492
1155.327216,1378.971896,962.267725,8660.409521
1155.327532,995.924147,-74.020594,8364.327145
1155.327848,459.657299,-0.000000,9104.533087
1155.328163,229.828649,-222.061783,9770.718434
1155.328479,766.095498,-296.082377,9474.636058
1155.328795,612.876398,888.247130,8882.471304
1155.329111,0.000000,-74.020594,8364.327145
1155.329427,-229.828649,-666.185348,9252.574275
1155.329742,76.609550,296.082377,9178.553681
1155.330058,-229.828649,-0.000000,9622.677246
1155.330374,0.000000,-0.000000,9696.697840
1155.330690,-689.485948,-666.185348,9252.574275
1155.331006,-689.485948,-518.144159,9474.636058
1155.331321,-612.876398,-148.041188,9770.718434
1155.331637,-306.438199,-592.164754,9548.656652
1155.331953,229.828649,-0.000000,9696.697840
1155.332269,383.047749,-296.082377,9474.636058
1155.332585,0.000000,-814.226536,9326.594869
1155.332900,229.828649,-592.164754,9178.553681
1155.333216,536.266849,-222.061783,9326.594869
1155.333532,842.705048,296.082377,9548.656652
1155.333848,1378.971896,444.123565,8956.491898
1155.334164,842.705048,148.041188,8438.347739
1155.334479,612.876398,-222.061783,9474.636058
1155.334795,536.266849,-518.144159,9326.594869
1155.335111,612.876398,-814.226536,9474.636058
1155.335427,689.485948,-518.144159,9918.759623
1155.335743,536.266849,-888.247130,9548.656652
1155.336058,306.438199,-1184.329507,9474.636058
1155.336374,0.000000,-518.144159,10658.965565
1155.336690,0.000000,-666.185348,9696.697840
1155.337006,383.047749,-888.247130,9696.697840
1155.337322,229.828649,-74.020594,10510.924376
1155.337637,0.000000,-962.267725,10140.821405
1155.337953,-306.438199,-370.102971,9400.615463
1155.338269,383.047749,-148.041188,9844.739029
1155.338585,1149.143247,-814.226536,9770.718434
1155.338901,1302.362347,370.102971,9104.533087
1155.339216,842.705048,592.164754,9104.533087
1155.339532,995.924147,-222.061783,9622.677246
1155.339848,919.314598,148.041188,9474.636058
1155.340164,1225.752797,444.123565,9474.636058
1155.340480,1608.800546,962.267725,9252.574275
1155.340795,1685.410096,370.102971,9178.553681
1155.341111,919.314598,-444.123565,9548.656652
1155.341427,612.876398,-444.123565,9844.739029
1155.341743,612.876398,-666.185348,9622.677246
1155.342059,995.924147,-0.000000,9622.677246
1155.342374,842.705048,962.267725,8734.430116
1155.342690,229.828649,-0.000000,9104.533087
1155.343006,459.657299,-444.123565,9918.759623
1155.343322,153.219100,-296.082377,9400.615463
1155.343638,229.828649,148.041188,8808.450710
1155.343953,153.219100,444.123565,8808.450710
1155.344269,0.000000,-518.144159,9104.533087
1155.344585,-306.438199,-444.123565,9548.656652
1155.344901,-153.219100,-74.020594,9844.739029
1155.345217,-153.219100,-518.144159,9770.718434
1155.345532,229.828649,-0.000000,9030.512492
1155.345848,0.000000,370.102971,8808.450710
1155.346164,0.000000,-222.061783,8956.491898
1155.346480,-536.266849,-296.082377,9770.718434
1155.346796,76.609550,-74.020594,9918.759623
1155.347111,536.266849,962.267725,8882.471304
1155.347427,229.828649,740.205942,8142.265362
1155.347743,153.219100,-222.061783,8882.471304
1155.348059,153.219100,-518.144159,10140.821405
1155.348375,0.000000,-518.144159,9622.677246
1155.348690,0.000000,222.061783,9474.636058
1155.349006,306.438199,1036.288319,9326.594869
1155.349322,153.219100,-0.000000,8882.471304
1155.349638,0.000000,-0.000000,10140.821405
1155.349954,-766.095498,-0.000000,9474.636058
1155.350270,0.000000,-962.267725,9918.759623
1155.350585,536.266849,-592.164754,10066.800811
1155.350901,306.438199,-444.123565,9770.718434
1155.351217,76.609550,-740.205942,9400.615463
1155.351533,306.438199,-370.102971,9622.677246
1155.351849,612.876398,-0.000000,9844.739029
1155.352164,1225.752797,444.123565,9548.656652
1155.352480,1608.800546,888.247130,8882.471304
1155.352796,1072.533697,296.082377,8364.327145
1155.353112,919.314598,-222.061783,8808.450710
1155.353428,612.876398,-1184.329507,9622.677246
1155.353743,919.314598,-740.205942,10436.903782
1155.354059,919.314598,518.144159,9474.636058
1155.354375,459.657299,-0.000000,9474.636058
1155.354691,-229.828649,-888.247130,9844.739029
1155.355007,0.000000,-666.185348,10436.903782
1155.355322,383.047749,-1184.329507,10066.800811
1155.355638,1225.752797,-296.082377,10214.842000
1155.355954,229.828649,592.164754,9030.512492
1155.356270,536.266849,-444.123565,9178.553681
1155.356586,689.485948,-222.061783,9548.656652
1155.356901,459.657299,-74.020594,9770.718434
1155.357217,766.095498,-0.000000,9696.697840
1155.357533,1149.143247,222.061783,9104.533087
1155.357849,459.657299,-370.102971,9696.697840
1155.358165,612.876398,-666.185348,10066.800811
1155.358480,1149.143247,-666.185348,9770.718434
1155.358796,1302.362347,-518.144159,9918.759623
1155.359112,1072.533697,444.123565,9548.656652
1155.359428,842.705048,-0.000000,8734.430116
1155.359744,995.924147,-0.000000,9178.553681
1155.360059,842.705048,-0.000000,9104.533087
1155.360375,1302.362347,148.041188,9178.553681
1155.360691,1532.190996,-0.000000,9178.553681
1155.361007,919.314598,-148.041188,8660.409521
1155.361323,995.924147,-592.164754,9104.533087
1155.361638,153.219100,-1036.288319,9474.636058
1155.361954,536.266849,-814.226536,9622.677246
1155.362270,842.705048,-0.000000,9178.553681
1155.362586,229.828649,370.102971,8364.327145
1155.362902,153.219100,-0.000000,9474.636058
1155.363217,-459.657299,-888.247130,9770.718434
1155.363533,229.828649,-518.144159,9252.574275
1155.363849,-306.438199,-740.205942,9696.697840
1155.364165,76.609550,-444.123565,9252.574275
1155.364481,0.000000,-222.061783,9178.553681
1155.364796,-229.828649,-444.123565,9178.553681
1155.365112,-766.095498,-666.185348,10362.883188
1155.365428,153.219100,-740.205942,10436.903782
1155.365744,536.266849,370.102971,9326.594869
1155.366060,612.876398,1110.308913,8586.388927
1155.366375,536.266849,370.102971,9030.512492
1155.366691,229.828649,-296.082377,9400.615463
1155.367007,306.438199,-296.082377,9548.656652
1155.367323,766.095498,-370.102971,9844.739029
1155.367639,766.095498,-0.000000,9104.533087
1155.367954,76.609550,-1036.288319,9178.553681
1155.368270,153.219100,-1110.308913,10214.842000
1155.368586,76.609550,-740.205942,10066.800811
1155.368902,383.047749,-296.082377,9770.718434
1155.369218,842.705048,518.144159,9474.636058
1155.369533,766.095498,-148.041188,9178.553681
1155.369849,-536.266849,-444.123565,9178.553681
1155.370165,153.219100,-222.061783,9770.718434
1155.370481,383.047749,-1036.288319,10362.883188
1155.370797,1072.533697,-0.000000,9474.636058
1155.371113,536.266849,518.144159,8808.450710
1155.371428,0.000000,-444.123565,9178.553681
1155.371744,0.000000,-1332.370696,10288.862594
1155.372060,229.828649,-666.185348,10436.903782
1155.372376,536.266849,296.082377,9770.718434
1155.372692,383.047749,1184.329507,9104.533087
1155.373007,536.266849,370.102971,9326.594869
1155.373323,459.657299,296.082377,9326.594869
1155.373639,689.485948,370.102971,9548.656652
1155.373955,1378.971896,-0.000000,9696.697840
1155.374271,1072.533697,370.102971,8734.430116
1155.374586,1072.533697,-444.123565,9400.615463
1155.374902,842.705048,-888.247130,9992.780217
1155.375218,459.657299,-370.102971,8882.471304
1155.375534,1072.533697,-814.226536,10362.883188
1155.375850,1608.800546,-148.041188,9844.739029
1155.376165,612.876398,222.061783,9030.512492
1155.376481,689.485948,148.041188,9178.553681
1155.376797,919.314598,740.205942,8882.471304
1155.377113,842.705048,296.082377,9326.594869
1155.377429,1149.143247,444.123565,9252.574275
1155.377744,766.095498,-0.000000,8586.388927
1155.378060,306.438199,-962.267725,9548.656652
1155.378376,229.828649,-1628.453072,10066.800811
1155.378692,153.219100,-444.123565,8956.491898
1155.379008,306.438199,-0.000000,10362.883188
1155.379323,229.828649,296.082377,8438.347739
1155.379639,0.000000,148.041188,8956.491898
1155.379955,-612.876398,-0.000000,9918.759623
1155.380271,-306.438199,-444.123565,10214.842000
1155.380587,153.219100,-74.020594,9326.594869
1155.380902,0.000000,444.123565,9030.512492
1155.381218,-459.657299,-592.164754,9178.553681
1155.381534,0.000000,-666.185348,9622.677246
1155.381850,-229.828649,-0.000000,9400.615463
1155.382166,153.219100,-518.144159,9844.739029
1155.382481,383.047749,-0.000000,9770.718434
1155.382797,153.219100,666.185348,8660.409521
1155.383113,0.000000,-74.020594,9030.512492
1155.383429,919.314598,-296.082377,9918.759623
1155.383745,536.266849,-666.185348,9474.636058
1155.384060,919.314598,-148.041188,9622.677246
1155.384376,1072.533697,-370.102971,9252.574275
1155.384692,612.876398,-666.185348,8808.450710
1155.385008,459.657299,-1332.370696,9918.759623
1155.385324,76.609550,-740.205942,10214.842000
1155.385639,612.876398,-518.144159,9622.677246
1155.385955,1225.752797,370.102971,9178.553681
1155.386271,229.828649,296.082377,8734.430116
1155.386587,383.047749,-444.123565,10066.800811
1155.386903,612.876398,-444.123565,9918.759623
1155.387218,0.000000,-74.020594,8734.430116
1155.387534,689.485948,-444.123565,10066.800811
1155.387850,995.924147,-962.267725,9030.512492
1155.388166,0.000000,-814.226536,9252.574275
1155.388482,-229.828649,-1406.391290,10214.842000
1155.388797,0.000000,-888.247130,10584.944971
1155.389113,306.438199,-0.000000,9474.636058
1155.389429,689.485948,1036.288319,9178.553681
1155.389745,459.657299,518.144159,8882.471304
1155.390061,612.876398,-74.020594,9178.553681
1155.390376,306.438199,-0.000000,9696.697840
1155.390692,766.095498,-444.123565,9696.697840
1155.391008,1455.581446,-0.000000,9696.697840
1155.391324,995.924147,222.061783,8438.347739
1155.391640,612.876398,-222.061783,9326.594869
1155.391955,383.047749,-148.041188,9770.718434
1155.392271,306.438199,-222.061783,10066.800811
1155.392587,689.485948,-0.000000,9770.718434
1155.392903,842.705048,888.247130,8734.430116
1155.393219,536.266849,-222.061783,9400.615463
1155.393535,919.314598,-370.102971,9400.615463
1155.393850,1225.752797,-740.205942,9326.594869
1155.394166,1302.362347,-0.000000,9548.656652
1155.394482,1455.581446,666.185348,8586.388927
1155.394798,1072.533697,-0.000000,8068.244768
1155.395114,76.609550,-222.061783,9548.656652
1155.395429,459.657299,-888.247130,10288.862594
1155.395745,306.438199,-74.020594,9400.615463
1155.396061,229.828649,1036.288319,9252.574275
1155.396377,536.266849,222.061783,9474.636058
1155.396693,76.609550,-592.164754,9326.594869
1155.397008,0.000000,-222.061783,10140.821405
1155.397324,0.000000,-0.000000,9696.697840
1155.397640,153.219100,-0.000000,9696.697840
1155.397956,76.609550,296.082377,8734.430116
1155.398272,-459.657299,-296.082377,9918.759623
1155.398587,-153.219100,-1110.308913,10140.821405
1155.398903,-459.657299,-444.123565,9918.759623
1155.399219,-76.609550,-0.000000,10436.903782
1155.399535,0.000000,-74.020594,9548.656652
1155.399851,536.266849,296.082377,9252.574275
1155.400166,-153.219100,444.123565,9548.656652
1155.400482,306.438199,-0.000000,8956.491898
1155.400798,842.705048,-666.185348,9548.656652
1155.401114,1302.362347,-222.061783,9622.677246
1155.401430,459.657299,-296.082377,8808.450710
1155.401745,-153.219100,-1184.329507,10066.800811
1155.402061,0.000000,-888.247130,10436.903782
1155.402377,229.828649,-518.144159,9622.677246
1155.402693,689.485948,592.164754,9622.677246
1155.403009,459.657299,888.247130,8660.409521
1155.403324,536.266849,-148.041188,9252.574275
1155.403640,229.828649,-888.247130,9622.677246
1155.403956,-383.047749,-444.123565,9548.656652
1155.404272,766.095498,-814.226536,10066.800811
1155.404588,383.047749,-592.164754,9252.574275
1155.404903,-536.266849,-1184.329507,9622.677246
1155.405219,-229.828649,-1184.329507,10584.944971
1155.405535,0.000000,-740.205942,9992.780217
1155.405851,0.000000,370.102971,9400.615463
1155.406167,766.095498,1184.329507,9548.656652
1155.406482,842.705048,444.123565,8660.409521
1155.406798,995.924147,222.061783,8586.388927
1155.407114,842.705048,-222.061783,9474.636058
1155.407430,995.924147,-814.226536,9326.594869
1155.407746,1532.190996,-148.041188,9252.574275
1155.408061,1378.971896,296.082377,8364.327145
1155.408377,689.485948,-666.185348,9104.533087
1155.408693,766.095498,-740.205942,10066.800811
1155.409009,459.657299,-740.205942,9178.553681
1155.409325,1072.533697,-0.000000,9548.656652
1155.409640,1149.143247,148.041188,9104.533087
1155.409956,919.314598,-444.123565,8882.471304
1155.410272,383.047749,-592.164754,9548.656652
1155.410588,842.705048,-518.144159,9696.697840
1155.410904,1225.752797,-444.123565,8956.491898
1155.411220,1302.362347,592.164754,9252.574275
1155.411535,1072.533697,666.185348,8290.306550
1155.411851,153.219100,-666.185348,8956.491898
1155.412167,-383.047749,-740.205942,9844.739029
1155.412483,0.000000,-962.267725,10140.821405
1155.412799,0.000000,-0.000000,9992.780217
1155.413114,0.000000,-0.000000,9400.615463
1155.413430,-306.438199,222.061783,9178.553681
1155.413746,306.438199,-0.000000,9548.656652
1155.414062,153.219100,-222.061783,9622.677246
1155.414378,76.609550,222.061783,10066.800811
1155.414693,536.266849,370.102971,9326.594869
1155.415009,0.000000,-444.123565,8956.491898
1155.415325,-153.219100,-444.123565,10436.903782
1155.415641,-76.609550,-148.041188,10510.924376
1155.415957,306.438199,666.185348,9474.636058
1155.416273,153.219100,962.267725,9696.697840
1155.416588,153.219100,518.144159,9104.533087
1155.416904,0.000000,-148.041188,9474.636058
1155.417220,0.000000,-370.102971,10584.944971
1155.417536,612.876398,-0.000000,9622.677246
1155.417852,459.657299,296.082377,9844.739029
1155.418167,153.219100,-0.000000,9104.533087
1155.418483,0.000000,-518.144159,9622.677246
1155.418799,-153.219100,-740.205942,10362.883188
1155.419115,-306.438199,-1110.308913,10140.821405
1155.419431,-229.828649,-74.020594,9622.677246
1155.419746,383.047749,-222.061783,9548.656652
1155.420062,612.876398,-888.247130,9400.615463
1155.420378,153.219100,-518.144159,10140.821405
1155.420694,0.000000,-740.205942,9474.636058
1155.421010,842.705048,-444.123565,9326.594869
1155.421326,536.266849,-296.082377,9622.677246
1155.421641,153.219100,-444.123565,9622.677246
1155.421957,153.219100,-962.267725,9992.780217
1155.422273,0.000000,-296.082377,9326.594869
1155.422589,459.657299,-222.061783,9474.636058
1155.422905,1378.971896,222.061783,9400.615463
1155.423220,919.314598,-0.000000,7994.224174
1155.423536,766.095498,-222.061783,9326.594869
1155.423852,689.485948,-1036.288319,9548.656652
1155.424168,536.266849,-518.144159,9548.656652
1155.424484,842.705048,-0.000000,9326.594869
1155.424799,1149.143247,-518.144159,9252.574275
1155.425115,842.705048,-296.082377,9104.533087
1155.425431,536.266849,-148.041188,9400.615463
1155.425747,536.266849,-1036.288319,9696.697840
1155.426063,1072.533697,-1036.288319,9770.718434
1155.426378,1685.410096,222.061783,9844.739029
1155.426694,1378.971896,814.226536,7846.182985
1155.427010,1608.800546,296.082377,8734.430116
1155.427326,1149.143247,-370.102971,9844.739029
1155.427642,1378.971896,-370.102971,9252.574275
1155.427958,1608.800546,222.061783,9474.636058
1155.428273,1149.143247,888.247130,7994.224174
1155.428589,459.657299,444.123565,8438.347739
1155.428905,0.000000,-444.123565,9770.718434
1155.429221,-229.828649,-962.267725,10362.883188
1155.429537,153.219100,-0.000000,10140.821405
1155.429852,0.000000,666.185348,9030.512492
1155.430168,-229.828649,-0.000000,9104.533087
1155.430484,-229.828649,-666.185348,10436.903782
1155.430800,-459.657299,-518.144159,9474.636058
1155.431116,689.485948,-444.123565,10362.883188
1155.431431,536.266849,148.041188,9400.615463
1155.431747,0.000000,148.041188,8438.347739
1155.432063,76.609550,-222.061783,9918.759623
1155.432379,612.876398,-1036.288319,10436.903782
1155.432695,306.438199,-592.164754,9770.718434
1155.433011,766.095498,-0.000000,9770.718434
1155.433326,459.657299,296.082377,9178.553681
1155.433642,995.924147,-222.061783,9400.615463
1155.433958,536.266849,-296.082377,9992.780217
1155.434274,536.266849,-592.164754,9474.636058
1155.434590,1149.143247,-74.020594,9770.718434
1155.434905,1378.971896,592.164754,9030.512492
1155.435221,76.609550,-814.226536,9548.656652
1155.435537,153.219100,-1258.350101,10436.903782
1155.435853,0.000000,-1036.288319,9918.759623
1155.436169,766.095498,-296.082377,10066.800811
1155.436484,536.266849,-0.000000,9918.759623
1155.436800,383.047749,148.041188,9178.553681
1155.437116,306.438199,-370.102971,9252.574275
1155.437432,153.219100,-148.041188,9770.718434
1155.437748,383.047749,-0.000000,9696.697840
1155.438064,459.657299,296.082377,9622.677246
1155.438379,383.047749,222.061783,8734.430116
1155.438695,0.000000,-740.205942,10140.821405
1155.439011,0.000000,-148.041188,9992.780217
1155.439327,153.219100,-592.164754,9474.636058
1155.439643,536.266849,-74.020594,10288.862594
1155.439958,459.657299,518.144159,9030.512492
1155.440274,689.485948,444.123565,8586.388927
1155.440590,459.657299,296.082377,9844.739029
1155.440906,306.438199,-518.144159,9844.739029
1155.441222,383.047749,-444.123565,8956.491898
1155.441537,842.705048,-0.000000,9770.718434
1155.441853,459.657299,-740.205942,9252.574275
1155.442169,383.047749,-962.267725,9992.780217
1155.442485,383.047749,-296.082377,9474.636058
1155.442801,842.705048,-592.164754,9178.553681
1155.443116,1302.362347,-666.185348,9474.636058
1155.443432,1378.971896,-1036.288319,8882.471304
1155.443748,1225.752797,-666.185348,9770.718434
1155.444064,1302.362347,-592.164754,9400.615463
1155.444380,1302.362347,-370.102971,8216.285956
1155.444696,1762.019645,-592.164754,9844.739029
1155.445011,1991.848295,-0.000000,9474.636058
1155.445327,1378.971896,-0.000000,8068.244768
1155.445643,995.924147,-296.082377,8956.491898
1155.445959,842.705048,-370.102971,9252.574275
1155.446275,229.828649,-296.082377,9918.759623
1155.446590,383.047749,444.123565,9030.512492
1155.446906,-459.657299,-0.000000,8882.471304
1155.447222,-1302.362347,-148.041188,9548.656652
1155.447538,-842.705048,-888.247130,9326.594869
1155.447854,-1532.190996,-962.267725,9770.718434
1155.448169,-1838.629195,-814.226536,10066.800811
1155.448485,-1378.971896,-2220.617826,9992.780217
1155.448801,-1532.190996,-2738.761985,10510.924376
1155.449117,-2374.896044,-1628.453072,11029.068536
1155.449433,-1762.019645,-2220.617826,10140.821405
1155.449749,-76.609550,-666.185348,10732.986159
1155.450064,229.828649,-222.061783,9030.512492
1155.450380,306.438199,-0.000000,8438.347739
1155.450696,1762.019645,-370.102971,9326.594869
1155.451012,1149.143247,-1332.370696,9178.553681
1155.451328,1608.800546,-814.226536,9178.553681
1155.451643,1838.629195,-592.164754,9252.574275
1155.451959,1455.581446,-592.164754,8512.368333
1155.452275,1149.143247,-1110.308913,9178.553681
1155.452591,995.924147,-1480.411884,10362.883188
1155.452907,689.485948,-1554.432478,9696.697840
1155.453222,612.876398,-1850.514855,10436.903782
1155.453538,383.047749,-1332.370696,9326.594869
1155.453854,995.924147,-2368.659014,10214.842000
1155.454170,842.705048,-2886.803174,10881.027347
1155.454486,1072.533697,-2590.720797,9918.759623
1155.454802,1378.971896,-2368.659014,9918.759623
1155.455117,2451.505594,-2664.741391,10510.924376
1155.455433,2451.505594,-2738.761985,9104.533087
1155.455749,3140.991542,-2072.576638,9474.636058
1155.456065,4213.525239,-1406.391290,8956.491898
1155.456381,3830.477490,-740.205942,8660.409521
1155.456696,4443.353888,-296.082377,8438.347739
1155.457012,4903.011187,-74.020594,7994.224174
1155.457328,4366.744339,-0.000000,7846.182985
1155.457644,4290.134789,-814.226536,8438.347739
1155.457960,2987.772442,-1258.350101,8290.306550
1155.458275,2068.457845,-1776.494261,9770.718434
1155.458591,2298.286494,-3034.844362,9918.759623
1155.458907,1685.410096,-2664.741391,9918.759623
1155.459223,1225.752797,-3478.967927,10807.006753
1155.459539,1608.800546,-3552.988522,11177.109724
1155.459855,1608.800546,-3034.844362,10066.800811
1155.460170,1762.019645,-2960.823768,10214.842000
1155.460486,3140.991542,-2146.597232,9474.636058
1155.460802,3907.087040,-1258.350101,8660.409521
1155.461118,4443.353888,-444.123565,8216.285956
1155.461434,4519.963438,-740.205942,8068.244768
1155.461749,4290.134789,-1332.370696,7550.100608
1155.462065,3753.867940,-148.041188,7772.162391
1155.462381,3524.039291,-962.267725,7772.162391
1155.462697,3140.991542,-1702.473667,8882.471304
1155.463013,2681.334243,-2072.576638,9770.718434
1155.463328,2221.676944,-2664.741391,9992.780217
1155.463644,1838.629195,-2590.720797,10214.842000
1155.463960,1225.752797,-2960.823768,10214.842000
1155.464276,995.924147,-2146.597232,10288.862594
1155.464592,1991.848295,-2368.659014,10584.944971
1155.464907,1991.848295,-2294.638420,10732.986159
1155.465223,2068.457845,-1850.514855,9992.780217
1155.465539,2757.943793,-2886.803174,9326.594869
1155.465855,3370.820191,-2368.659014,8956.491898
1155.466171,3064.381992,-1924.535449,9326.594869
1155.466487,3753.867940,-1110.308913,9326.594869
1155.466802,4213.525239,-592.164754,9178.553681
1155.467118,3600.648841,-296.082377,8882.471304
1155.467434,3217.601092,-1036.288319,9030.512492
1155.467750,3140.991542,-1850.514855,8956.491898
1155.468066,2145.067394,-1628.453072,9696.697840
1155.468381,1915.238745,-1406.391290,10510.924376
1155.468697,1532.190996,-1850.514855,9844.739029
1155.469013,1455.581446,-2220.617826,10510.924376
1155.469329,766.095498,-2294.638420,10436.903782
1155.469645,459.657299,-3330.926739,10066.800811
1155.469960,842.705048,-3034.844362,9992.780217
1155.470276,612.876398,-2146.597232,9474.636058
1155.470592,842.705048,-1998.556043,10066.800811
1155.470908,1532.190996,-2590.720797,10658.965565
1155.471224,1455.581446,-2812.782580,10362.883188
1155.471540,1762.019645,-2738.761985,9918.759623
1155.471855,2145.067394,-3256.906145,9474.636058
1155.472171,2374.896044,-2886.803174,9548.656652
1155.472487,3217.601092,-2738.761985,9474.636058
1155.472803,3140.991542,-2368.659014,9474.636058
1155.473119,2834.553343,-2072.576638,9178.553681
1155.473434,2834.553343,-1554.432478,9178.553681
1155.473750,3064.381992,-1850.514855,8882.471304
1155.474066,2757.943793,-1998.556043,8734.430116
1155.474382,3217.601092,-1924.535449,8586.388927
1155.474698,2681.334243,-2368.659014,8660.409521
1155.475013,3064.381992,-3182.885551,9474.636058
1155.475329,2604.724693,-3108.864956,9326.594869
1155.475645,1762.019645,-2960.823768,9474.636058
1155.475961,1302.362347,-3330.926739,9696.697840
1155.476277,1838.629195,-2960.823768,9992.780217
1155.476593,1532.190996,-2368.659014,9918.759623
1155.476908,1838.629195,-2294.638420,9474.636058
1155.477224,1378.971896,-1998.556043,9474.636058
1155.477540,2451.505594,-1924.535449,9104.533087
1155.477856,3217.601092,-2146.597232,8660.409521
1155.478172,3294.210641,-1998.556043,8512.368333
1155.478487,3294.210641,-2146.597232,8882.471304
1155.478803,3600.648841,-2738.761985,9400.615463
1155.479119,4290.134789,-3256.906145,9696.697840
1155.479435,4213.525239,-2590.720797,9252.574275
1155.479751,4443.353888,-1998.556043,8364.327145
1155.480066,4290.134789,-1480.411884,8290.306550
1155.480382,4519.963438,-1258.350101,8808.450710
1155.480698,4596.572988,-740.205942,8956.491898
1155.481014,3983.696590,-444.123565,8808.450710
1155.481330,2987.772442,-1258.350101,8956.491898
1155.481646,2834.553343,-2368.659014,9696.697840
1155.481961,1915.238745,-3256.906145,10584.944971
1155.482277,1608.800546,-3701.029710,10732.986159
1155.482593,1455.581446,-3182.885551,10510.924376
1155.482909,1225.752797,-2516.700203,10510.924376
1155.483225,842.705048,-1998.556043,10288.862594
1155.483540,1532.190996,-1998.556043,10140.821405
1155.483856,1991.848295,-962.267725,9326.594869
1155.484172,2528.115143,-1184.329507,9400.615463
1155.484488,2757.943793,-1776.494261,9548.656652
1155.484804,2757.943793,-2368.659014,9770.718434
1155.485119,3064.381992,-2960.823768,9992.780217
1155.485435,3600.648841,-2960.823768,10140.821405
1155.485751,3600.648841,-2072.576638,9178.553681
1155.486067,3753.867940,-1184.329507,9326.594869
1155.486383,3753.867940,-1110.308913,9104.533087
1155.486698,3064.381992,-1110.308913,9104.533087
1155.487014,2987.772442,-666.185348,9030.512492
1155.487330,2451.505594,-814.226536,9252.574275
1155.487646,2451.505594,-1406.391290,9622.677246
1155.487962,1685.410096,-2146.597232,10066.800811
1155.488278,1608.800546,-3108.864956,10510.924376
1155.488593,1302.362347,-3404.947333,11177.109724
1155.488909,1072.533697,-3923.091493,11029.068536
1155.489225,1225.752797,-3997.112087,10807.006753
1155.489541,1608.800546,-3478.967927,10436.903782
1155.489857,1838.629195,-2590.720797,10436.903782
1155.490172,2374.896044,-1406.391290,9548.656652
1155.490488,2757.943793,-296.082377,8882.471304
1155.490804,3370.820191,-148.041188,8216.285956
1155.491120,3677.258390,222.061783,7994.224174
1155.491436,3677.258390,-296.082377,7772.162391
1155.491751,3600.648841,-1332.370696,8290.306550
1155.492067,3677.258390,-2442.679609,9252.574275
1155.492383,2987.772442,-3701.029710,9844.739029
1155.492699,2298.286494,-4515.256246,10658.965565
1155.493015,1685.410096,-4737.318029,10510.924376
1155.493331,1838.629195,-4071.132681,10732.986159
1155.493646,1532.190996,-3182.885551,10584.944971
1155.493962,2068.457845,-2220.617826,9770.718434
1155.494278,2298.286494,-2220.617826,9474.636058
1155.494594,2757.943793,-1998.556043,8956.491898
1155.494910,3217.601092,-1702.473667,8142.265362
1155.495225,2987.772442,-1702.473667,7476.080014
1155.495541,2604.724693,-1998.556043,7624.121203
1155.495857,2298.286494,-2220.617826,8142.265362
1155.496173,1532.190996,-2368.659014,8512.368333
1155.496489,1532.190996,-2664.741391,9030.512492
1155.496804,689.485948,-3034.844362,9918.759623
1155.497120,306.438199,-3923.091493,10214.842000
1155.497436,536.266849,-4219.173869,10881.027347
1155.497752,1072.533697,-4293.194464,10881.027347
1155.498068,1991.848295,-3701.029710,10214.842000
1155.498384,2374.896044,-3108.864956,9770.718434
1155.498699,2834.553343,-2738.761985,9178.553681
1155.499015,3753.867940,-1924.535449,9104.533087
1155.499331,4443.353888,-1184.329507,8142.265362
1155.499647,4443.353888,-222.061783,7846.182985
1155.499963,4290.134789,444.123565,7550.100608
1155.500278,4060.306139,-0.000000,7994.224174
1155.500594,3907.087040,-592.164754,8364.327145
1155.500910,3447.429741,-1406.391290,9252.574275
1155.501226,3217.601092,-2516.700203,9622.677246
1155.501542,2374.896044,-3034.844362,10140.821405
1155.501857,2068.457845,-3775.050304,10807.006753
1155.502173,1532.190996,-3627.009116,11325.150913
1155.502489,1378.971896,-3182.885551,11103.089130
1155.502805,1608.800546,-2664.741391,10362.883188
1155.503121,1072.533697,-2146.597232,10288.862594
1155.503437,1838.629195,-1850.514855,10214.842000
1155.503752,2451.505594,-1406.391290,9474.636058
1155.504068,3217.601092,-1110.308913,8808.450710
1155.504384,3447.429741,-814.226536,8660.409521
1155.504700,3677.258390,-1258.350101,8808.450710
1155.505016,3447.429741,-1924.535449,8882.471304
1155.505331,3600.648841,-2442.679609,9474.636058
1155.505647,3064.381992,-2664.741391,9770.718434
1155.505963,2374.896044,-2368.659014,10436.903782
1155.506279,1838.629195,-2516.700203,10288.862594
1155.506595,1608.800546,-2220.617826,10436.903782
1155.506910,1378.971896,-1850.514855,10140.821405
1155.507226,1838.629195,-1776.494261,9474.636058
1155.507542,1532.190996,-1702.473667,9696.697840
1155.507858,1915.238745,-2294.638420,9474.636058
1155.508174,1991.848295,-2368.659014,9548.656652
1155.508489,2451.505594,-2516.700203,9326.594869
1155.508805,2221.676944,-2294.638420,9474.636058
1155.509121,2834.553343,-1850.514855,8882.471304
1155.509437,2528.115143,-1850.514855,9326.594869
1155.509753,2221.676944,-1702.473667,9548.656652
1155.510069,2145.067394,-1702.473667,9548.656652
1155.510384,2298.286494,-1924.535449,9696.697840
1155.510700,1991.848295,-1924.535449,9474.636058
1155.511016,1991.848295,-1628.453072,9400.615463
1155.511332,1838.629195,-1258.350101,8956.491898
1155.511648,1762.019645,-666.185348,8882.471304
1155.511964,1532.190996,-740.205942,8734.430116
1155.512280,1532.190996,-592.164754,8586.388927
1155.512596,1455.581446,-740.205942,8438.347739
1155.512912,1225.752797,-962.267725,8808.450710
1155.513228,1072.533697,-1480.411884,9030.512492
1155.513543,995.924147,-2146.597232,10214.842000
1155.513859,995.924147,-2368.659014,10066.800811
1155.514175,1532.190996,-2812.782580,10140.821405
1155.514491,1915.238745,-2442.679609,10066.800811
1155.514807,2068.457845,-2368.659014,9622.677246
1155.515123,2757.943793,-1776.494261,9622.677246
1155.515439,3217.601092,-1036.288319,9474.636058
1155.515755,3677.258390,-740.205942,9030.512492
1155.516071,3370.820191,-518.144159,8808.450710
1155.516387,3447.429741,-814.226536,8734.430116
1155.516702,3447.429741,-1036.288319,9252.574275
1155.517018,3830.477490,-1258.350101,9326.594869
1155.517334,3677.258390,-1480.411884,9326.594869
1155.517650,3983.696590,-2220.617826,9696.697840
1155.517966,4060.306139,-3182.885551,10140.821405
1155.518282,3753.867940,-3701.029710,10288.862594
1155.518598,3600.648841,-3923.091493,10807.006753
1155.518914,3294.210641,-3627.009116,10881.027347
1155.519230,2987.772442,-3256.906145,10881.027347
1155.519546,2911.162892,-3034.844362,10658.965565
1155.519861,2604.724693,-2368.659014,10362.883188
1155.520177,2834.553343,-2516.700203,9992.780217
1155.520493,2987.772442,-2664.741391,9474.636058
1155.520809,3370.820191,-2664.741391,9326.594869
1155.521125,3447.429741,-2960.823768,9474.636058
1155.521441,3753.867940,-3034.844362,9548.656652
1155.521757,3677.258390,-3478.967927,9252.574275
1155.522073,3370.820191,-3330.926739,9178.553681
1155.522389,2834.553343,-3627.009116,9548.656652
1155.522705,2834.553343,-4145.153275,9622.677246
1155.523020,2451.505594,-3997.112087,10140.821405
1155.523336,2068.457845,-4293.194464,10362.883188
1155.523652,2145.067394,-4145.153275,10066.800811
1155.523968,1915.238745,-3923.091493,9696.697840
1155.524284,2221.676944,-3552.988522,9548.656652
1155.524600,2757.943793,-3256.906145,9326.594869
1155.524916,2681.334243,-2960.823768,8734.430116
1155.525232,2757.943793,-2960.823768,8808.450710
1155.525548,2834.553343,-3034.844362,9104.533087
1155.525864,3217.601092,-3849.070898,9474.636058
1155.526179,3370.820191,-3775.050304,9252.574275
1155.526495,3370.820191,-3849.070898,9326.594869
1155.526811,3217.601092,-3701.029710,9400.615463
1155.527127,3677.258390,-4219.173869,9474.636058
1155.527443,3907.087040,-3404.947333,8512.368333
1155.527759,3753.867940,-1998.556043,8216.285956
1155.528075,3753.867940,-888.247130,7698.141797
1155.528391,3140.991542,-888.247130,7772.162391
1155.528707,2528.115143,-296.082377,8068.244768
1155.529023,1991.848295,-962.267725,8364.327145
1155.529338,1072.533697,-1184.329507,8290.306550
1155.529654,153.219100,-2072.576638,8734.430116
1155.529970,76.609550,-3108.864956,9696.697840
1155.530286,306.438199,-3923.091493,10288.862594
1155.530602,383.047749,-4441.235652,10807.006753
1155.530918,536.266849,-4737.318029,10658.965565
1155.531234,1072.533697,-4737.318029,11029.068536
1155.531550,1608.800546,-3923.091493,10658.965565
1155.531866,2068.457845,-2516.700203,10140.821405
1155.532182,3370.820191,-1110.308913,9252.574275
1155.532497,4060.306139,444.123565,8364.327145
1155.532813,4366.744339,1184.329507,7254.018232
1155.533129,4749.792088,1628.453072,6957.935855
1155.533445,4673.182538,1406.391290,7105.977043
1155.533761,3217.601092,1110.308913,7254.018232
1155.534077,2374.896044,518.144159,8068.244768
1155.534393,1378.971896,-592.164754,9474.636058
1155.534709,0.000000,-1776.494261,10510.924376
1155.535025,-919.314598,-2590.720797,11621.233289
1155.535341,-1608.800546,-3849.070898,12435.459826
1155.535656,-1455.581446,-4145.153275,13175.665768
1155.535972,-1072.533697,-4293.194464,13471.748144
1155.536288,-383.047749,-3627.009116,12879.583391
1155.536604,1532.190996,-2664.741391,11621.233289
1155.536920,2451.505594,-1628.453072,10436.903782
1155.537236,4136.915689,-222.061783,9104.533087
1155.537552,5362.668486,962.267725,7994.224174
1155.537868,6588.421283,2590.720797,7105.977043
1155.538184,6818.249932,3034.844362,6661.853478
1155.538500,6281.983084,2664.741391,7105.977043
1155.538815,5592.497135,1036.288319,7772.162391
1155.539131,4903.011187,-1036.288319,9252.574275
1155.539447,3370.820191,-2738.761985,10584.944971
1155.539763,2451.505594,-4219.173869,11695.253884
1155.540079,1532.190996,-4367.215058,11991.336260
1155.540395,0.000000,-3627.009116,12139.377449
1155.540711,76.609550,-3256.906145,12065.356855
1155.541027,536.266849,-2368.659014,11547.212695
1155.541343,1378.971896,-1776.494261,10807.006753
1155.541659,2068.457845,-1554.432478,9992.780217
1155.541974,2451.505594,-1998.556043,9252.574275
1155.542290,3140.991542,-2738.761985,9104.533087
1155.542606,4443.353888,-2368.659014,8956.491898
1155.542922,4903.011187,-2220.617826,8660.409521
1155.543238,5132.839837,-2442.679609,8586.388927
1155.543554,5056.230287,-2886.803174,8882.471304
1155.543870,5209.449386,-3478.967927,9178.553681
1155.544186,4826.401637,-3034.844362,9030.512492
1155.544502,4366.744339,-2220.617826,9178.553681
1155.544818,3524.039291,-1776.494261,8808.450710
1155.545133,3217.601092,-1406.391290,8512.368333
1155.545449,2528.115143,-2368.659014,9252.574275
1155.545765,2068.457845,-3182.885551,9104.533087
1155.546081,1149.143247,-3552.988522,9030.512492
1155.546397,306.438199,-4441.235652,9622.677246
1155.546713,612.876398,-5551.544565,9104.533087
1155.547029,1149.143247,-5107.421000,9770.718434
1155.547345,1149.143247,-3997.112087,9326.594869
1155.547661,842.705048,-3775.050304,9474.636058
1155.547977,919.314598,-3849.070898,9622.677246
1155.548292,1225.752797,-4071.132681,9622.677246
1155.548608,1608.800546,-3701.029710,9326.594869
1155.548924,2298.286494,-3701.029710,9326.594869
1155.549240,2834.553343,-3478.967927,8660.409521
1155.549556,3600.648841,-3330.926739,8142.265362
1155.549872,3830.477490,-2664.741391,7772.162391
1155.550188,3753.867940,-2442.679609,7624.121203
1155.550504,3753.867940,-2072.576638,8216.285956
1155.550820,3140.991542,-1702.473667,7994.224174
1155.551136,3294.210641,-1628.453072,7920.203579
1155.551451,3064.381992,-1702.473667,8438.347739
1155.551767,2681.334243,-2590.720797,9030.512492
1155.552083,2451.505594,-2664.741391,8956.491898
1155.552399,1378.971896,-2442.679609,9104.533087
1155.552715,842.705048,-3034.844362,9918.759623
1155.553031,229.828649,-3182.885551,10288.862594
1155.553347,153.219100,-3034.844362,10732.986159
1155.553663,-689.485948,-3330.926739,10955.047942
1155.553979,-306.438199,-3478.967927,11029.068536
1155.554294,306.438199,-3404.947333,10584.944971
1155.554610,1608.800546,-2812.782580,10955.047942
1155.554926,2145.067394,-2146.597232,10214.842000
1155.555242,3524.039291,-1184.329507,9178.553681
1155.555558,4213.525239,-296.082377,8068.244768
1155.555874,5056.230287,-0.000000,8660.409521
1155.556190,5822.325785,-296.082377,8142.265362
1155.556506,5132.839837,-0.000000,7698.141797
1155.556822,4673.182538,-0.000000,8734.430116
1155.557138,4290.134789,-1480.411884,10140.821405
1155.557453,3217.601092,-592.164754,9622.677246
1155.557769,2068.457845,-518.144159,10066.800811
1155.558085,1532.190996,-444.123565,10807.006753
1155.558401,919.314598,-1406.391290,11251.130318
1155.558717,306.438199,-1554.432478,10881.027347
1155.559033,76.609550,-1628.453072,11843.295072
1155.559349,229.828649,-1628.453072,11843.295072
1155.559665,766.095498,-1332.370696,11621.233289
1155.559981,1072.533697,-1480.411884,10807.006753
1155.560297,1838.629195,-1406.391290,10510.924376
1155.560612,2604.724693,-74.020594,9770.718434
1155.560928,3140.991542,518.144159,8734.430116
1155.561244,3830.477490,444.123565,8808.450710
1155.561560,4290.134789,740.205942,9104.533087
1155.561876,4519.963438,740.205942,8290.306550
1155.562192,4136.915689,444.123565,8660.409521
1155.562508,3830.477490,-592.164754,9030.512492
1155.562824,3447.429741,-370.102971,9622.677246
1155.563140,2911.162892,-518.144159,9326.594869
1155.563456,2374.896044,-148.041188,9770.718434
1155.563771,2681.334243,-740.205942,10955.047942
1155.564087,1915.238745,-1628.453072,9622.677246
1155.564403,1149.143247,-1924.535449,9696.697840
1155.564719,919.314598,-2072.576638,9992.780217
1155.565035,1378.971896,-2368.659014,10214.842000
1155.565351,1685.410096,-1184.329507,9770.718434
1155.565667,1762.019645,-888.247130,9548.656652
1155.565983,1455.581446,-1554.432478,8734.430116
1155.566299,1608.800546,-1406.391290,8142.265362
1155.566615,1455.581446,-222.061783,8364.327145
1155.566930,1838.629195,-1258.350101,8734.430116
1155.567246,1838.629195,222.061783,8438.347739
1155.567562,995.924147,666.185348,7920.203579
1155.567878,383.047749,-1924.535449,7994.224174
1155.568194,306.438199,-1776.494261,9992.780217
1155.568510,-229.828649,-2368.659014,9696.697840
1155.568826,0.000000,-2072.576638,9252.574275
1155.569142,689.485948,-1554.432478,9474.636058
1155.569458,383.047749,-1850.514855,9474.636058
1155.569774,995.924147,-1702.473667,9326.594869
1155.570089,0.000000,-1110.308913,8734.430116
1155.570405,306.438199,-518.144159,8660.409521
1155.570721,383.047749,-0.000000,8216.285956
1155.571037,153.219100,-592.164754,9104.533087
1155.571353,0.000000,-814.226536,9474.636058
1155.571669,-536.266849,-1480.411884,9030.512492
1155.571985,-689.485948,-1258.350101,9400.615463
1155.572301,-306.438199,-1406.391290,9548.656652
1155.572617,-383.047749,-1258.350101,9252.574275
1155.572933,536.266849,-1332.370696,10510.924376
1155.573248,0.000000,-1998.556043,9844.739029
1155.573564,0.000000,-2220.617826,10510.924376
1155.573880,383.047749,-1776.494261,10066.800811
1155.574196,1608.800546,-888.247130,9548.656652
1155.574512,1991.848295,-0.000000,8660.409521
1155.574828,1685.410096,-222.061783,9178.553681
1155.575144,2221.676944,296.082377,9400.615463
1155.575460,2068.457845,-592.164754,9104.533087
1155.575776,1302.362347,222.061783,9400.615463
1155.576092,1378.971896,-518.144159,9548.656652
1155.576407,766.095498,-888.247130,9548.656652
1155.576723,-153.219100,-222.061783,9474.636058
1155.577039,-1378.971896,-1480.411884,11103.089130
1155.577355,-766.095498,-1184.329507,11473.192101
1155.577671,-1302.362347,-814.226536,10510.924376
1155.577987,-1302.362347,-740.205942,10362.883188
1155.578303,-1838.629195,-740.205942,10214.842000
1155.578619,-1302.362347,-1110.308913,10436.903782
1155.578935,-153.219100,-296.082377,10140.821405
1155.579251,306.438199,-148.041188,9992.780217
1155.579566,229.828649,148.041188,10436.903782
1155.579882,0.000000,296.082377,8142.265362
1155.580198,1149.143247,-370.102971,9030.512492
1155.580514,1302.362347,592.164754,9992.780217
1155.580830,1455.581446,1332.370696,9030.512492
1155.581146,1685.410096,962.267725,8660.409521
1155.581462,1149.143247,148.041188,9992.780217
1155.581778,1532.190996,-1036.288319,10214.842000
1155.582094,459.657299,-740.205942,9844.739029
1155.582410,842.705048,-148.041188,10066.800811
1155.582725,612.876398,-222.061783,9474.636058
1155.583041,919.314598,-0.000000,9918.759623
1155.583357,153.219100,-370.102971,9474.636058
1155.583673,229.828649,-592.164754,9770.718434
1155.583989,612.876398,-592.164754,9474.636058
1155.584305,842.705048,222.061783,8512.368333
1155.584621,842.705048,592.164754,8734.430116
1155.584937,1072.533697,-74.020594,9030.512492
1155.585253,1302.362347,-0.000000,8882.471304
1155.585569,1072.533697,-0.000000,9474.636058
1155.585884,1225.752797,-74.020594,8512.368333
1155.586200,766.095498,74.020594,8882.471304
1155.586516,766.095498,444.123565,9030.512492
1155.586832,459.657299,-0.000000,8956.491898
1155.587148,612.876398,-296.082377,9696.697840
1155.587464,229.828649,666.185348,9474.636058
1155.587780,919.314598,740.205942,8734.430116
1155.588096,306.438199,666.185348,8956.491898
1155.588412,-383.047749,1036.288319,8734.430116
1155.588728,-306.438199,-74.020594,9992.780217
1155.589043,0.000000,740.205942,10288.862594
1155.589359,0.000000,740.205942,9030.512492
1155.589675,-153.219100,222.061783,8660.409521
1155.589991,0.000000,296.082377,10066.800811
1155.590307,-383.047749,-0.000000,9918.759623
1155.590623,-229.828649,370.102971,9844.739029
1155.590939,-153.219100,740.205942,9770.718434
1155.591255,0.000000,296.082377,9400.615463
1155.591571,459.657299,666.185348,10066.800811
1155.591887,229.828649,-0.000000,9326.594869
1155.592202,229.828649,-592.164754,9474.636058
1155.592518,459.657299,-518.144159,10510.924376
1155.592834,919.314598,-444.123565,9844.739029
1155.593150,1455.581446,-148.041188,9474.636058
1155.593466,766.095498,-370.102971,9622.677246
1155.593782,153.219100,-1258.350101,9548.656652
1155.594098,842.705048,-666.185348,10436.903782
1155.594414,919.314598,-0.000000,8882.471304
1155.594730,612.876398,-222.061783,9548.656652
1155.595046,76.609550,-0.000000,9622.677246
1155.595361,-766.095498,-296.082377,9548.656652
1155.595677,-842.705048,-740.205942,10436.903782
1155.595993,-306.438199,-148.041188,10732.986159
1155.596309,-306.438199,-444.123565,9548.656652
1155.596625,-919.314598,-814.226536,9844.739029
1155.596941,-689.485948,-1702.473667,10658.965565
1155.597257,0.000000,-1998.556043,10658.965565
1155.597573,306.438199,-740.205942,10288.862594
1155.597889,459.657299,-0.000000,8882.471304
1155.598205,919.314598,-0.000000,9326.594869
1155.598520,995.924147,592.164754,8882.471304
1155.598836,1302.362347,-444.123565,9474.636058
1155.599152,1762.019645,666.185348,9030.512492
1155.599468,1685.410096,222.061783,8068.244768
1155.599784,1072.533697,-444.123565,7994.224174
1155.600100,766.095498,-1332.370696,9400.615463
1155.600416,0.000000,-1776.494261,10214.842000
1155.600732,0.000000,-1258.350101,9844.739029
1155.601048,0.000000,-444.123565,9696.697840
1155.601364,0.000000,-740.205942,9474.636058
1155.601679,-153.219100,-1332.370696,9474.636058
1155.601995,-153.219100,-1332.370696,9400.615463
1155.602311,0.000000,-1480.411884,10066.800811
1155.602627,153.219100,-1258.350101,9326.594869
1155.602943,919.314598,-740.205942,8956.491898
1155.603259,1149.143247,-1258.350101,8956.491898
1155.603575,842.705048,-962.267725,8882.471304
1155.603891,842.705048,-1110.308913,8586.388927
1155.604207,995.924147,-666.185348,9474.636058
1155.604523,1225.752797,444.123565,8586.388927
1155.604838,1455.581446,666.185348,8808.450710
1155.605154,1455.581446,296.082377,8882.471304
1155.605470,383.047749,370.102971,9030.512492
1155.605786,689.485948,370.102971,8956.491898
1155.606102,919.314598,370.102971,9178.553681
1155.606418,1072.533697,-0.000000,9400.615463
1155.606734,459.657299,-666.185348,9548.656652
1155.607050,-383.047749,-962.267725,9548.656652
1155.607366,-383.047749,-814.226536,10140.821405
1155.607682,383.047749,148.041188,10362.883188
1155.607997,459.657299,1184.329507,8660.409521
1155.608313,689.485948,1184.329507,9178.553681
1155.608629,383.047749,740.205942,9030.512492
1155.608945,536.266849,-444.123565,9178.553681
1155.609261,1072.533697,-148.041188,10362.883188
1155.609576,306.438199,444.123565,9400.615463
1155.609892,842.705048,444.123565,8956.491898
1155.610208,536.266849,-0.000000,8660.409521
1155.610524,-306.438199,-222.061783,9770.718434
1155.610839,76.609550,-1110.308913,10881.027347
1155.611155,-153.219100,222.061783,9622.677246
1155.611471,0.000000,1036.288319,9252.574275
1155.611787,-229.828649,592.164754,9178.553681
1155.612103,-536.266849,444.123565,9992.780217
1155.612418,-842.705048,-0.000000,9992.780217
1155.612734,0.000000,296.082377,10066.800811
1155.613050,0.000000,666.185348,9400.615463
1155.613366,-612.876398,-0.000000,9992.780217
1155.613682,-612.876398,-222.061783,9622.677246
1155.613997,-842.705048,-1332.370696,10436.903782
1155.614313,-766.095498,-1036.288319,10584.944971
1155.614629,0.000000,222.061783,10510.924376
1155.614945,76.609550,-0.000000,10140.821405
1155.615260,995.924147,296.082377,9548.656652
1155.615576,-612.876398,296.082377,9844.739029
1155.615892,612.876398,74.020594,9696.697840
1155.616208,1378.971896,962.267725,9030.512492
1155.616524,1608.800546,222.061783,9030.512492
1155.616839,1072.533697,-0.000000,9548.656652
1155.617155,689.485948,-888.247130,9474.636058
1155.617471,995.924147,-1110.308913,9992.780217
1155.617787,1378.971896,296.082377,9548.656652
1155.618103,1072.533697,962.267725,8660.409521
1155.618418,1072.533697,370.102971,8660.409521
1155.618734,459.657299,-0.000000,9400.615463
1155.619050,306.438199,-148.041188,9326.594869
1155.619366,1072.533697,-518.144159,9770.718434
1155.619681,689.485948,-962.267725,9474.636058
1155.619997,0.000000,-296.082377,9622.677246
1155.620313,153.219100,-1406.391290,9104.533087
1155.620629,0.000000,-592.164754,10140.821405
1155.620945,0.000000,-888.247130,9770.718434
1155.621260,536.266849,-370.102971,9400.615463
1155.621576,1608.800546,592.164754,8512.368333
1155.621892,919.314598,-0.000000,8512.368333
1155.622208,1149.143247,222.061783,8364.327145
1155.622524,1838.629195,-0.000000,8734.430116
1155.622839,1532.190996,740.205942,9326.594869
1155.623155,1991.848295,666.185348,8216.285956
1155.623471,1302.362347,74.020594,8216.285956
1155.623787,689.485948,-444.123565,9104.533087
1155.624102,536.266849,-1702.473667,9696.697840
1155.624418,459.657299,-1850.514855,9326.594869
1155.624734,995.924147,-1036.288319,10214.842000
1155.625050,459.657299,-740.205942,10140.821405
1155.625366,229.828649,-0.000000,8882.471304
1155.625681,76.609550,-0.000000,8586.388927
1155.625997,459.657299,-1036.288319,9548.656652
1155.626313,995.924147,-814.226536,9622.677246
1155.626629,1225.752797,-370.102971,8660.409521
1155.626945,536.266849,-444.123565,9178.553681
1155.627260,383.047749,-1776.494261,9474.636058
1155.627576,536.266849,-1628.453072,10732.986159
1155.627892,919.314598,-0.000000,9918.759623
1155.628208,459.657299,370.102971,8882.471304
1155.628523,459.657299,814.226536,9548.656652
1155.628839,0.000000,-0.000000,9474.636058
1155.629155,-536.266849,-370.102971,9918.759623
1155.629471,383.047749,-74.020594,10955.047942
1155.629787,536.266849,-74.020594,9918.759623
1155.630102,76.609550,-0.000000,9252.574275
1155.630418,-229.828649,-740.205942,10436.903782
1155.630734,-919.314598,-1332.370696,10288.862594
1155.631050,-536.266849,-740.205942,11029.068536
1155.631366,-229.828649,-0.000000,10510.924376
1155.631681,-153.219100,-0.000000,9770.718434
1155.631997,-153.219100,-74.020594,10214.842000
1155.632313,-383.047749,-0.000000,9770.718434
1155.632629,229.828649,-296.082377,9696.697840
1155.632944,536.266849,444.123565,9548.656652
1155.633260,842.705048,370.102971,8586.388927
1155.633576,919.314598,-296.082377,9326.594869
1155.633892,306.438199,-1480.411884,9548.656652
1155.634208,-612.876398,-2220.617826,9548.656652
1155.634523,76.609550,-1554.432478,10510.924376
1155.634839,536.266849,-592.164754,9400.615463
1155.635155,229.828649,-296.082377,9696.697840
1155.635471,1072.533697,666.185348,9178.553681
1155.635786,0.000000,-74.020594,8512.368333
1155.636102,612.876398,-0.000000,9252.574275
1155.636418,919.314598,592.164754,9696.697840
1155.636734,1072.533697,-0.000000,8364.327145
1155.637050,842.705048,-592.164754,8586.388927
1155.637365,153.219100,-518.144159,9474.636058
1155.637681,306.438199,-1036.288319,9992.780217
1155.637997,612.876398,-0.000000,9622.677246
1155.638313,306.438199,1184.329507,8586.388927
1155.638629,153.219100,1258.350101,9030.512492
1155.638944,76.609550,666.185348,9030.512492
1155.639260,0.000000,296.082377,9326.594869
1155.639576,1072.533697,148.041188,9770.718434
1155.639892,842.705048,296.082377,9104.533087
1155.640207,1225.752797,-0.000000,9326.594869
1155.640523,612.876398,-740.205942,9696.697840
1155.640839,383.047749,-518.144159,9030.512492
1155.641155,766.095498,-74.020594,9474.636058
1155.641471,842.705048,740.205942,9326.594869
1155.641786,689.485948,444.123565,9326.594869
1155.642102,766.095498,666.185348,8660.409521
1155.642418,383.047749,518.144159,8808.450710
1155.642734,536.266849,-518.144159,9770.718434
1155.643050,1378.971896,-0.000000,9696.697840
1155.643365,1149.143247,-0.000000,8660.409521
1155.643681,459.657299,-296.082377,8882.471304
1155.643997,0.000000,-1036.288319,10066.800811
1155.644313,-383.047749,-2146.597232,10807.006753
1155.644628,0.000000,-1036.288319,9992.780217
1155.644944,-536.266849,592.164754,9252.574275
1155.645260,-153.219100,-0.000000,10066.800811
1155.645576,383.047749,-0.000000,9622.677246
1155.645892,-306.438199,888.247130,9030.512492
1155.646207,-153.219100,592.164754,9918.759623
1155.646523,306.438199,370.102971,8956.491898
1155.646839,153.219100,-74.020594,9252.574275
1155.647155,0.000000,-222.061783,9844.739029
1155.647471,-689.485948,-888.247130,9548.656652
1155.647786,-612.876398,-2146.597232,10658.965565
