#time,accel_x,accel_y,accel_z
1081.167598,153.219100,-444.123565,9770.718434
1081.167914,229.828649,-222.061783,9474.636058
1081.168230,306.438199,-296.082377,9474.636058
1081.168546,536.266849,-0.000000,9326.594869
1081.168862,536.266849,-74.020594,9400.615463
1081.169178,459.657299,-222.061783,9252.574275
1081.169494,536.266849,-74.020594,9474.636058
1081.169810,153.219100,-444.123565,9474.636058
1081.170126,459.657299,-0.000000,9474.636058
1081.170442,306.438199,-148.041188,9400.615463
1081.170758,306.438199,-148.041188,9400.615463
1081.171074,306.438199,-74.020594,9474.636058
1081.171390,306.438199,-74.020594,9548.656652
1081.171706,459.657299,-74.020594,9622.677246
1081.172022,689.485948,-74.020594,9696.697840
1081.172338,76.609550,296.082377,9474.636058
1081.172654,459.657299,222.061783,9400.615463
1081.172970,306.438199,296.082377,9548.656652
1081.173285,229.828649,370.102971,9326.594869
1081.173601,459.657299,370.102971,9400.615463
1081.173917,536.266849,222.061783,9104.533087
1081.174233,612.876398,222.061783,9178.553681
1081.174549,766.095498,-0.000000,9548.656652
1081.174865,383.047749,296.082377,9474.636058
1081.175181,459.657299,592.164754,9326.594869
1081.175497,306.438199,222.061783,9326.594869
1081.175813,612.876398,518.144159,9622.677246
1081.176129,612.876398,592.164754,9400.615463
1081.176445,-306.438199,518.144159,9474.636058
1081.176761,153.219100,1110.308913,9326.594869
1081.177077,0.000000,962.267725,9400.615463
1081.177393,76.609550,962.267725,9474.636058
1081.177709,0.000000,740.205942,9326.594869
1081.178025,306.438199,740.205942,9252.574275
1081.178341,-229.828649,962.267725,9326.594869
1081.178657,-229.828649,962.267725,9400.615463
1081.178973,-459.657299,1110.308913,9474.636058
1081.179288,-306.438199,1332.370696,9326.594869
1081.179604,0.000000,1332.370696,9474.636058
1081.179920,-842.705048,1184.329507,9030.512492
1081.180236,-1072.533697,1406.391290,9474.636058
1081.180552,-1532.190996,1258.350101,9474.636058
1081.180868,-1762.019645,1332.370696,9770.718434
1081.181184,-1455.581446,1110.308913,9844.739029
1081.181500,-1915.238745,1480.411884,9770.718434
1081.181816,-2145.067394,1406.391290,9696.697840
1081.182132,-1991.848295,1628.453072,9918.759623
1081.182448,-1991.848295,1628.453072,9622.677246
1081.182764,-1915.238745,1554.432478,9474.636058
1081.183080,-1915.238745,1776.494261,9326.594869
1081.183396,-1455.581446,1850.514855,9252.574275
1081.183712,-1378.971896,1628.453072,9474.636058
1081.184028,-1685.410096,1702.473667,9252.574275
1081.184344,-1455.581446,1480.411884,9918.759623
1081.184660,-1302.362347,1554.432478,9474.636058
1081.184976,-1302.362347,1924.535449,9696.697840
1081.185292,-1072.533697,1924.535449,9474.636058
1081.185607,-995.924147,1850.514855,9474.636058
1081.185923,-1532.190996,2368.659014,9252.574275
1081.186239,-1378.971896,2294.638420,9622.677246
1081.186555,-1225.752797,2442.679609,9400.615463
1081.186871,-1378.971896,2146.597232,9400.615463
1081.187187,-1685.410096,2072.576638,9400.615463
1081.187503,-1685.410096,1332.370696,9844.739029
1081.187819,-2068.457845,1184.329507,9770.718434
1081.188135,-2221.676944,1110.308913,9844.739029
1081.188451,-2298.286494,1110.308913,9844.739029
1081.188767,-2145.067394,1184.329507,9918.759623
1081.189083,-1762.019645,962.267725,10214.842000
1081.189399,-1838.629195,1554.432478,9474.636058
1081.189715,-2068.457845,1332.370696,9622.677246
1081.190031,-1991.848295,1480.411884,9622.677246
1081.190347,-1762.019645,1110.308913,9622.677246
1081.190663,-1685.410096,1628.453072,9400.615463
1081.190979,-1608.800546,1480.411884,9252.574275
1081.191295,-1915.238745,1776.494261,9252.574275
1081.191610,-2221.676944,1998.556043,8956.491898
1081.191926,-2221.676944,2294.638420,8956.491898
1081.192242,-2298.286494,2368.659014,9252.574275
1081.192558,-2451.505594,2146.597232,9252.574275
1081.192874,-2834.553343,1776.494261,9400.615463
1081.193190,-2987.772442,1258.350101,9548.656652
1081.193506,-2681.334243,518.144159,9696.697840
1081.193822,-2681.334243,222.061783,10140.821405
1081.194138,-2451.505594,-0.000000,10214.842000
1081.194454,-1991.848295,370.102971,10288.862594
1081.194770,-1608.800546,518.144159,9992.780217
1081.195086,-919.314598,1258.350101,9548.656652
1081.195402,-459.657299,1776.494261,9400.615463
1081.195718,153.219100,2220.617826,8734.430116
1081.196034,383.047749,2960.823768,8216.285956
1081.196350,383.047749,3182.885551,8068.244768
1081.196666,76.609550,2812.782580,7772.162391
1081.196982,229.828649,3034.844362,8068.244768
1081.197298,-306.438199,2738.761985,8142.265362
1081.197613,-1149.143247,2738.761985,8512.368333
1081.197929,-2145.067394,2368.659014,9622.677246
1081.198245,-2834.553343,1702.473667,10140.821405
1081.198561,-3830.477490,1258.350101,10436.903782
1081.198877,-4290.134789,814.226536,10807.006753
1081.199193,-4443.353888,518.144159,10955.047942
1081.199509,-3600.648841,-0.000000,11325.150913
1081.199825,-3217.601092,-0.000000,11251.130318
1081.200141,-2298.286494,222.061783,10732.986159
1081.200457,-1378.971896,666.185348,9992.780217
1081.200773,-536.266849,1184.329507,9326.594869
1081.201089,459.657299,2664.741391,8808.450710
1081.201405,766.095498,3034.844362,8068.244768
1081.201721,1072.533697,3923.091493,7994.224174
1081.202037,1455.581446,4515.256246,7550.100608
1081.202353,1072.533697,4589.276840,7031.956449
1081.202669,0.000000,4737.318029,7105.977043
1081.202985,-1149.143247,3849.070898,7920.203579
1081.203301,-2068.457845,2886.803174,8586.388927
1081.203617,-3294.210641,1998.556043,10066.800811
1081.203932,-4519.963438,370.102971,11325.150913
1081.204248,-5362.668486,-666.185348,12361.439231
1081.204564,-5745.716235,-1332.370696,12583.501014
1081.204880,-5362.668486,-1776.494261,13027.624579
1081.205196,-4673.182538,-1406.391290,12509.480420
1081.205512,-3524.039291,-518.144159,11843.295072
1081.205828,-2528.115143,888.247130,10436.903782
1081.206144,-612.876398,2368.659014,9178.553681
1081.206460,612.876398,3997.112087,7624.121203
1081.206776,1378.971896,5181.441594,6365.771101
1081.207092,1608.800546,5773.606348,5995.668130
1081.207408,1608.800546,5921.647536,6291.750507
1081.207724,689.485948,4811.338623,6883.915261
1081.208040,229.828649,3627.009116,7994.224174
1081.208356,-1685.410096,1702.473667,9178.553681
1081.208672,-2911.162892,-0.000000,11251.130318
1081.208988,-3830.477490,-1258.350101,11991.336260
1081.209304,-4213.525239,-2072.576638,12583.501014
1081.209620,-4213.525239,-1036.288319,12361.439231
1081.209935,-3907.087040,-444.123565,11991.336260
1081.210251,-3370.820191,296.082377,11103.089130
1081.210567,-2298.286494,1406.391290,9918.759623
1081.210883,-919.314598,2442.679609,8586.388927
1081.211199,0.000000,4071.132681,7994.224174
1081.211515,383.047749,4219.173869,7179.997637
1081.211831,995.924147,3923.091493,6883.915261
1081.212147,766.095498,2960.823768,7698.141797
1081.212463,383.047749,1924.535449,8290.306550
1081.212779,306.438199,1258.350101,8956.491898
1081.213095,-383.047749,518.144159,9696.697840
1081.213411,-1762.019645,444.123565,10214.842000
1081.213727,-2298.286494,444.123565,10584.944971
1081.214043,-2911.162892,370.102971,10658.965565
1081.214359,-3064.381992,666.185348,10584.944971
1081.214675,-3524.039291,444.123565,10584.944971
1081.214991,-3753.867940,296.082377,10140.821405
1081.215307,-3294.210641,-74.020594,9918.759623
1081.215623,-2528.115143,-296.082377,9770.718434
1081.215938,-1915.238745,296.082377,8882.471304
1081.216254,-1838.629195,814.226536,8734.430116
1081.216570,-1532.190996,1036.288319,8438.347739
1081.216886,-766.095498,814.226536,8882.471304
1081.217202,-1149.143247,1184.329507,9178.553681
1081.217518,-1225.752797,1332.370696,9770.718434
1081.217834,-995.924147,962.267725,9252.574275
1081.218150,-536.266849,-0.000000,9918.759623
1081.218466,-383.047749,-666.185348,10140.821405
1081.218782,-229.828649,-518.144159,9400.615463
1081.219098,76.609550,-444.123565,9326.594869
1081.219414,612.876398,-518.144159,9178.553681
1081.219730,842.705048,-148.041188,9326.594869
1081.220046,1072.533697,370.102971,8956.491898
1081.220362,1302.362347,888.247130,8882.471304
1081.220678,1302.362347,1554.432478,8956.491898
1081.220994,1225.752797,1702.473667,8660.409521
1081.221310,1378.971896,1998.556043,8216.285956
1081.221626,1072.533697,1332.370696,8808.450710
1081.221942,766.095498,592.164754,8808.450710
1081.222257,612.876398,-0.000000,9474.636058
1081.222573,-689.485948,-518.144159,9918.759623
1081.222889,-1302.362347,-814.226536,11029.068536
1081.223205,-1302.362347,-1036.288319,11547.212695
1081.223521,-536.266849,-666.185348,10881.027347
1081.223837,-842.705048,-222.061783,10288.862594
1081.224153,-612.876398,-370.102971,9622.677246
1081.224469,612.876398,-222.061783,9252.574275
1081.224785,1608.800546,-74.020594,9326.594869
1081.225101,1991.848295,1110.308913,8438.347739
1081.225417,1991.848295,740.205942,8438.347739
1081.225733,2374.896044,518.144159,9104.533087
1081.226049,2221.676944,888.247130,9104.533087
1081.226365,1532.190996,1036.288319,8586.388927
1081.226681,1302.362347,518.144159,8882.471304
1081.226997,612.876398,518.144159,9104.533087
1081.227313,306.438199,444.123565,9400.615463
1081.227629,-229.828649,148.041188,9918.759623
1081.227946,-766.095498,-0.000000,10214.842000
1081.228262,-1072.533697,-666.185348,10510.924376
1081.228578,-842.705048,-814.226536,10066.800811
1081.228894,-1532.190996,-1406.391290,10214.842000
1081.229210,-919.314598,-1332.370696,9992.780217
1081.229526,-383.047749,-1406.391290,9992.780217
1081.229842,-536.266849,-666.185348,9474.636058
1081.230158,229.828649,-0.000000,9400.615463
1081.230474,612.876398,222.061783,9326.594869
1081.230790,842.705048,740.205942,9178.553681
1081.231106,919.314598,1184.329507,8438.347739
1081.231422,1302.362347,962.267725,8216.285956
1081.231738,1455.581446,518.144159,8808.450710
1081.232054,1378.971896,-0.000000,8734.430116
1081.232370,1225.752797,-222.061783,9104.533087
1081.232686,766.095498,-444.123565,10066.800811
1081.233002,459.657299,-666.185348,10362.883188
1081.233318,383.047749,-148.041188,9918.759623
1081.233634,306.438199,296.082377,9400.615463
1081.233951,153.219100,592.164754,9252.574275
1081.234267,536.266849,444.123565,9326.594869
1081.234583,536.266849,370.102971,9326.594869
1081.234899,0.000000,222.061783,9326.594869
1081.235215,0.000000,-370.102971,9622.677246
1081.235531,0.000000,-518.144159,9992.780217
1081.235847,0.000000,-148.041188,9844.739029
1081.236163,-459.657299,-74.020594,9696.697840
1081.236479,229.828649,-74.020594,9474.636058
1081.236795,383.047749,-74.020594,9400.615463
1081.237111,76.609550,222.061783,9326.594869
1081.237427,153.219100,-296.082377,9548.656652
1081.237743,612.876398,-592.164754,10214.842000
1081.238059,995.924147,-296.082377,9770.718434
1081.238375,919.314598,-0.000000,9474.636058
1081.238691,383.047749,-0.000000,9326.594869
1081.239007,1685.410096,-370.102971,9030.512492
1081.239323,919.314598,-444.123565,9030.512492
1081.239639,383.047749,-296.082377,9548.656652
1081.239955,153.219100,-666.185348,9770.718434
1081.240272,459.657299,-814.226536,9992.780217
1081.240588,0.000000,-444.123565,10140.821405
1081.240904,153.219100,-296.082377,9474.636058
1081.241220,612.876398,-370.102971,9326.594869
1081.241536,689.485948,-444.123565,9104.533087
1081.241852,1072.533697,-222.061783,9178.553681
1081.242168,1225.752797,-444.123565,9030.512492
1081.242484,919.314598,-666.185348,9252.574275
1081.242800,995.924147,-592.164754,9918.759623
1081.243116,766.095498,-148.041188,9252.574275
1081.243432,766.095498,518.144159,8808.450710
1081.243748,766.095498,-0.000000,9178.553681
1081.244064,766.095498,-370.102971,9622.677246
1081.244380,689.485948,-296.082377,9326.594869
1081.244696,153.219100,-222.061783,9548.656652
1081.245012,689.485948,-1110.308913,10066.800811
1081.245328,383.047749,-740.205942,10140.821405
1081.245644,766.095498,296.082377,9548.656652
1081.245960,689.485948,148.041188,9400.615463
1081.246276,766.095498,-0.000000,9400.615463
1081.246593,842.705048,1110.308913,9326.594869
1081.246909,689.485948,1406.391290,8660.409521
1081.247225,612.876398,962.267725,8808.450710
1081.247541,612.876398,-0.000000,9844.739029
1081.247857,1225.752797,296.082377,9770.718434
1081.248173,536.266849,962.267725,9178.553681
1081.248489,229.828649,370.102971,9326.594869
1081.248805,153.219100,-148.041188,9844.739029
1081.249121,0.000000,-74.020594,9548.656652
1081.249437,-842.705048,-370.102971,10214.842000
1081.249753,-536.266849,-444.123565,10658.965565
1081.250069,-459.657299,-592.164754,10658.965565
1081.250385,-229.828649,-0.000000,10066.800811
1081.250701,-383.047749,148.041188,9252.574275
1081.251017,153.219100,-0.000000,9474.636058
1081.251333,689.485948,148.041188,9104.533087
1081.251649,459.657299,444.123565,8734.430116
1081.251965,0.000000,-0.000000,9030.512492
1081.252281,229.828649,-888.247130,10066.800811
1081.252597,153.219100,-666.185348,10214.842000
1081.252914,0.000000,-0.000000,9548.656652
1081.253230,-383.047749,-74.020594,9178.553681
1081.253546,0.000000,-296.082377,9400.615463
1081.253862,-536.266849,-222.061783,9918.759623
1081.254178,-842.705048,-296.082377,9474.636058
1081.254494,-995.924147,-1110.308913,9992.780217
1081.254810,-536.266849,-1554.432478,10436.903782
1081.255126,0.000000,-888.247130,9844.739029
1081.255442,0.000000,-666.185348,9252.574275
1081.255758,459.657299,-296.082377,8882.471304
1081.256074,229.828649,-0.000000,9252.574275
1081.256390,536.266849,740.205942,8956.491898
1081.256706,536.266849,814.226536,8808.450710
1081.257022,766.095498,296.082377,9178.553681
1081.257338,842.705048,296.082377,9326.594869
1081.257654,995.924147,222.061783,9178.553681
1081.257970,919.314598,-0.000000,8956.491898
1081.258286,689.485948,-222.061783,9474.636058
1081.258602,459.657299,-518.144159,9474.636058
1081.258919,153.219100,-592.164754,9252.574275
1081.259235,0.000000,-0.000000,9400.615463
1081.259551,459.657299,-740.205942,10066.800811
1081.259867,612.876398,-666.185348,10214.842000
1081.260183,995.924147,-296.082377,9474.636058
1081.260499,919.314598,-222.061783,9104.533087
1081.260815,1532.190996,-518.144159,9548.656652
1081.261131,1838.629195,-0.000000,8956.491898
1081.261447,1149.143247,444.123565,8882.471304
1081.261763,1225.752797,-0.000000,9400.615463
1081.262079,1225.752797,-0.000000,9548.656652
1081.262395,1532.190996,370.102971,9178.553681
1081.262711,766.095498,-74.020594,9326.594869
1081.263027,459.657299,-518.144159,9548.656652
1081.263343,306.438199,-1110.308913,9992.780217
1081.263659,0.000000,-1110.308913,9770.718434
1081.263975,-153.219100,-1258.350101,10584.944971
1081.264291,383.047749,-1258.350101,10881.027347
1081.264607,0.000000,-666.185348,9844.739029
1081.264923,306.438199,-148.041188,9992.780217
1081.265240,689.485948,-814.226536,9252.574275
1081.265556,1225.752797,-444.123565,9474.636058
1081.265872,842.705048,222.061783,8956.491898
1081.266188,689.485948,666.185348,9030.512492
1081.266504,689.485948,-0.000000,9696.697840
1081.266820,612.876398,-74.020594,9400.615463
1081.267136,766.095498,-148.041188,9400.615463
1081.267452,383.047749,-296.082377,9252.574275
1081.267768,612.876398,-888.247130,9548.656652
1081.268084,0.000000,-888.247130,9992.780217
1081.268400,229.828649,-666.185348,9696.697840
1081.268716,0.000000,-148.041188,9252.574275
1081.269032,-153.219100,-518.144159,9770.718434
1081.269348,229.828649,-592.164754,10288.862594
1081.269664,383.047749,-296.082377,9548.656652
1081.269980,612.876398,-0.000000,9400.615463
1081.270296,766.095498,518.144159,9252.574275
1081.270612,995.924147,370.102971,8956.491898
1081.270928,842.705048,666.185348,8364.327145
1081.271244,842.705048,1036.288319,8734.430116
1081.271561,1072.533697,518.144159,9548.656652
1081.271877,842.705048,814.226536,9474.636058
1081.272193,76.609550,1110.308913,8734.430116
1081.272509,229.828649,222.061783,9252.574275
1081.272825,306.438199,-592.164754,9548.656652
1081.273141,-229.828649,-222.061783,9622.677246
1081.273457,-689.485948,-444.123565,9548.656652
1081.273773,-306.438199,-1332.370696,10436.903782
1081.274089,0.000000,-518.144159,10510.924376
1081.274405,383.047749,444.123565,9474.636058
1081.274721,153.219100,148.041188,9104.533087
1081.275037,229.828649,592.164754,8956.491898
1081.275353,612.876398,-0.000000,9400.615463
1081.275669,766.095498,148.041188,9104.533087
1081.275985,0.000000,740.205942,8956.491898
1081.276301,383.047749,-370.102971,9844.739029
1081.276617,612.876398,-0.000000,9400.615463
1081.276933,-229.828649,222.061783,9252.574275
1081.277249,-383.047749,-296.082377,9326.594869
1081.277565,459.657299,-296.082377,9622.677246
1081.277882,-536.266849,-592.164754,9696.697840
1081.278198,0.000000,-74.020594,9918.759623
1081.278514,0.000000,-888.247130,9696.697840
1081.278830,0.000000,-666.185348,9918.759623
1081.279146,383.047749,-814.226536,9770.718434
1081.279462,306.438199,-370.102971,9474.636058
1081.279778,536.266849,-518.144159,9252.574275
1081.280094,1225.752797,-666.185348,9104.533087
1081.280410,919.314598,148.041188,8956.491898
1081.280726,842.705048,370.102971,9178.553681
1081.281042,842.705048,-0.000000,9030.512492
1081.281358,995.924147,-148.041188,9474.636058
1081.281674,842.705048,-0.000000,9696.697840
1081.281990,842.705048,-296.082377,9104.533087
1081.282306,536.266849,-592.164754,9400.615463
1081.282622,459.657299,-518.144159,9918.759623
1081.282938,0.000000,-296.082377,9696.697840
1081.283254,229.828649,-518.144159,10214.842000
1081.283570,612.876398,-518.144159,10658.965565
1081.283887,459.657299,-740.205942,10288.862594
1081.284203,842.705048,-370.102971,9400.615463
1081.284519,1225.752797,-444.123565,9548.656652
1081.284835,1685.410096,-592.164754,9326.594869
1081.285151,2221.676944,-222.061783,9252.574275
1081.285467,1532.190996,370.102971,8734.430116
1081.285783,1532.190996,592.164754,9030.512492
1081.286099,1762.019645,370.102971,9178.553681
1081.286415,1225.752797,370.102971,8882.471304
1081.286731,459.657299,-222.061783,9548.656652
1081.287047,689.485948,-1258.350101,9918.759623
1081.287363,153.219100,-1554.432478,9992.780217
1081.287679,0.000000,-1628.453072,10066.800811
1081.287995,-459.657299,-1702.473667,10436.903782
1081.288311,459.657299,-1850.514855,10584.944971
1081.288627,0.000000,-1110.308913,10214.842000
1081.288943,0.000000,-592.164754,9400.615463
1081.289259,0.000000,-518.144159,8956.491898
1081.289575,612.876398,-518.144159,8882.471304
1081.289891,536.266849,-444.123565,8142.265362
1081.290208,459.657299,-592.164754,8882.471304
1081.290524,459.657299,-740.205942,9252.574275
1081.290840,766.095498,-740.205942,9178.553681
1081.291156,612.876398,-0.000000,9104.533087
1081.291472,612.876398,222.061783,8808.450710
1081.291788,76.609550,-0.000000,8734.430116
1081.292104,0.000000,-444.123565,9252.574275
1081.292420,-383.047749,-296.082377,9252.574275
1081.292736,-689.485948,-888.247130,10066.800811
1081.293052,-229.828649,-1110.308913,10066.800811
1081.293368,0.000000,-814.226536,9844.739029
1081.293684,0.000000,222.061783,9400.615463
1081.294000,153.219100,444.123565,8882.471304
1081.294316,689.485948,518.144159,8734.430116
1081.294632,459.657299,1036.288319,8660.409521
1081.294948,459.657299,1036.288319,8882.471304
1081.295264,842.705048,888.247130,9104.533087
1081.295580,842.705048,-0.000000,9474.636058
1081.295896,842.705048,444.123565,9400.615463
1081.296212,1302.362347,222.061783,9178.553681
1081.296529,536.266849,296.082377,9844.739029
1081.296845,229.828649,740.205942,9548.656652
1081.297161,536.266849,518.144159,9104.533087
1081.297477,612.876398,296.082377,9474.636058
1081.297793,995.924147,296.082377,10214.842000
1081.298109,842.705048,222.061783,9696.697840
1081.298425,995.924147,740.205942,9400.615463
1081.298741,383.047749,666.185348,9400.615463
1081.299057,612.876398,296.082377,9326.594869
1081.299373,459.657299,148.041188,9622.677246
1081.299689,153.219100,592.164754,9770.718434
1081.300005,-229.828649,518.144159,9770.718434
1081.300321,0.000000,-0.000000,10288.862594
1081.300637,0.000000,-592.164754,10510.924376
1081.300953,-383.047749,-0.000000,10140.821405
1081.301269,-383.047749,222.061783,9844.739029
1081.301585,0.000000,-296.082377,9992.780217
1081.301901,-459.657299,370.102971,10288.862594
1081.302217,-383.047749,592.164754,10140.821405
1081.302533,0.000000,-148.041188,10140.821405
1081.302850,153.219100,-0.000000,9992.780217
1081.303166,153.219100,74.020594,9696.697840
1081.303482,306.438199,-0.000000,9474.636058
1081.303798,1072.533697,-296.082377,9548.656652
1081.304114,306.438199,-0.000000,9474.636058
1081.304430,766.095498,592.164754,9622.677246
1081.304746,153.219100,518.144159,9104.533087
1081.305062,153.219100,222.061783,9474.636058
1081.305378,229.828649,-296.082377,10288.862594
1081.305694,76.609550,-222.061783,9696.697840
1081.306010,229.828649,-74.020594,9326.594869
1081.306326,153.219100,-962.267725,9918.759623
1081.306642,76.609550,-962.267725,9622.677246
1081.306958,0.000000,-740.205942,9474.636058
1081.307274,306.438199,-1184.329507,9696.697840
1081.307590,766.095498,-1406.391290,10140.821405
1081.307906,766.095498,-962.267725,9474.636058
1081.308222,995.924147,-592.164754,9178.553681
1081.308538,1378.971896,-740.205942,8660.409521
1081.308855,1915.238745,-592.164754,8660.409521
1081.309171,1991.848295,-370.102971,8216.285956
1081.309487,1225.752797,-296.082377,8512.368333
1081.309803,1302.362347,-888.247130,9326.594869
1081.310119,1302.362347,-666.185348,9030.512492
1081.310435,1149.143247,-518.144159,8512.368333
1081.310751,536.266849,-666.185348,8882.471304
1081.311067,76.609550,-1480.411884,9474.636058
1081.311383,383.047749,-1554.432478,9474.636058
1081.311699,-306.438199,-1554.432478,9696.697840
1081.312015,-459.657299,-1628.453072,10288.862594
1081.312331,76.609550,-1480.411884,9474.636058
1081.312647,0.000000,-1110.308913,9696.697840
1081.312963,306.438199,-1036.288319,9178.553681
1081.313279,306.438199,-814.226536,8882.471304
1081.313595,919.314598,-962.267725,9326.594869
1081.313911,919.314598,-666.185348,8956.491898
1081.314227,459.657299,-148.041188,8660.409521
1081.314543,612.876398,-0.000000,8364.327145
1081.314859,766.095498,-148.041188,8734.430116
1081.315176,842.705048,-0.000000,9400.615463
1081.315492,459.657299,-74.020594,9326.594869
1081.315808,459.657299,-444.123565,9252.574275
1081.316124,383.047749,-962.267725,9770.718434
1081.316440,0.000000,-740.205942,9770.718434
1081.316756,153.219100,-518.144159,9770.718434
1081.317072,0.000000,-592.164754,10140.821405
1081.317388,229.828649,-444.123565,10288.862594
1081.317704,0.000000,222.061783,9548.656652
1081.318020,306.438199,296.082377,9400.615463
1081.318336,459.657299,148.041188,9400.615463
1081.318652,536.266849,370.102971,9104.533087
1081.318968,306.438199,592.164754,9474.636058
1081.319284,306.438199,592.164754,9918.759623
1081.319600,689.485948,370.102971,10140.821405
1081.319916,766.095498,666.185348,9622.677246
1081.320232,536.266849,962.267725,9696.697840
1081.320548,459.657299,740.205942,9548.656652
1081.320864,689.485948,444.123565,9548.656652
1081.321180,153.219100,666.185348,9770.718434
1081.321497,153.219100,518.144159,10066.800811
1081.321813,612.876398,296.082377,10288.862594
1081.322129,612.876398,296.082377,10066.800811
1081.322445,306.438199,740.205942,9696.697840
1081.322761,153.219100,296.082377,9400.615463
1081.323077,383.047749,370.102971,9622.677246
1081.323393,76.609550,888.247130,9844.739029
1081.323709,153.219100,740.205942,9696.697840
1081.324025,-229.828649,666.185348,9474.636058
1081.324341,0.000000,592.164754,9918.759623
1081.324657,-229.828649,-0.000000,9696.697840
1081.324973,-383.047749,-0.000000,9770.718434
1081.325289,-536.266849,-148.041188,9770.718434
1081.325605,-306.438199,-0.000000,9992.780217
1081.325921,-153.219100,-0.000000,9622.677246
1081.326237,-229.828649,-74.020594,9622.677246
1081.326553,0.000000,-518.144159,10732.986159
1081.326868,229.828649,-222.061783,9992.780217
1081.327184,229.828649,-0.000000,9400.615463
1081.327500,76.609550,-0.000000,9104.533087
1081.327816,536.266849,-296.082377,9474.636058
1081.328131,919.314598,-0.000000,9030.512492
1081.328447,229.828649,148.041188,8808.450710
1081.328763,229.828649,148.041188,9400.615463
1081.329079,536.266849,-296.082377,9474.636058
1081.329394,995.924147,-0.000000,9770.718434
1081.329710,766.095498,-74.020594,9474.636058
1081.330026,842.705048,-444.123565,8956.491898
1081.330342,766.095498,-1036.288319,9400.615463
1081.330657,459.657299,-1184.329507,9400.615463
1081.330973,383.047749,-1184.329507,9844.739029
1081.331289,612.876398,-814.226536,9622.677246
1081.331605,919.314598,-592.164754,9770.718434
1081.331920,1532.190996,-444.123565,9326.594869
1081.332236,995.924147,-74.020594,8364.327145
1081.332552,1532.190996,-444.123565,8808.450710
1081.332868,1915.238745,-1036.288319,9548.656652
1081.333183,1532.190996,-444.123565,9474.636058
1081.333499,766.095498,-0.000000,8660.409521
1081.333815,1149.143247,-444.123565,9178.553681
1081.334131,1532.190996,-518.144159,9992.780217
1081.334446,1149.143247,-296.082377,9622.677246
1081.334762,612.876398,-296.082377,9030.512492
1081.335078,995.924147,-1110.308913,9474.636058
1081.335394,459.657299,-1406.391290,9844.739029
1081.335709,536.266849,-1184.329507,9844.739029
1081.336025,306.438199,-1036.288319,9770.718434
1081.336341,612.876398,-1258.350101,10288.862594
1081.336657,459.657299,-962.267725,9844.739029
1081.336972,536.266849,-444.123565,8956.491898
1081.337288,842.705048,-814.226536,9326.594869
1081.337604,1302.362347,-518.144159,9030.512492
1081.337919,1072.533697,-296.082377,8290.306550
1081.338235,766.095498,-444.123565,8808.450710
1081.338551,612.876398,-666.185348,9918.759623
1081.338867,842.705048,-518.144159,9548.656652
1081.339182,459.657299,-296.082377,9400.615463
1081.339498,0.000000,-814.226536,9326.594869
1081.339814,0.000000,-888.247130,9696.697840
1081.340130,0.000000,-518.144159,9696.697840
1081.340445,0.000000,-1110.308913,9696.697840
1081.340761,-153.219100,-1110.308913,9844.739029
1081.341077,306.438199,-814.226536,9622.677246
1081.341393,536.266849,-222.061783,9548.656652
1081.341708,229.828649,296.082377,9178.553681
1081.342024,383.047749,222.061783,9030.512492
1081.342340,842.705048,222.061783,9030.512492
1081.342656,689.485948,148.041188,9474.636058
1081.342971,383.047749,814.226536,9178.553681
1081.343287,383.047749,296.082377,9696.697840
1081.343603,306.438199,222.061783,9622.677246
1081.343919,1149.143247,888.247130,9474.636058
1081.344234,383.047749,962.267725,9178.553681
1081.344550,383.047749,888.247130,9030.512492
1081.344866,459.657299,296.082377,9548.656652
1081.345182,0.000000,222.061783,9992.780217
1081.345497,-383.047749,-0.000000,10288.862594
1081.345813,229.828649,-222.061783,10362.883188
1081.346129,459.657299,-74.020594,10214.842000
1081.346445,536.266849,592.164754,9400.615463
1081.346760,766.095498,1036.288319,8660.409521
1081.347076,536.266849,888.247130,8956.491898
1081.347392,229.828649,1036.288319,8808.450710
1081.347708,306.438199,1110.308913,9178.553681
1081.348023,383.047749,592.164754,9474.636058
1081.348339,0.000000,222.061783,9474.636058
1081.348655,0.000000,148.041188,9844.739029
1081.348970,-229.828649,-148.041188,9696.697840
1081.349286,-459.657299,-0.000000,9696.697840
1081.349602,-306.438199,-444.123565,9918.759623
1081.349918,-383.047749,-296.082377,10066.800811
1081.350233,-306.438199,-0.000000,9770.718434
1081.350549,-689.485948,-148.041188,10140.821405
1081.350865,76.609550,-222.061783,9770.718434
1081.351181,229.828649,-222.061783,9622.677246
1081.351496,-76.609550,-74.020594,9400.615463
1081.351812,306.438199,74.020594,8956.491898
1081.352128,536.266849,-148.041188,9030.512492
1081.352444,919.314598,-0.000000,9326.594869
1081.352759,153.219100,-148.041188,9104.533087
1081.353075,306.438199,-592.164754,9400.615463
1081.353391,459.657299,-740.205942,9992.780217
1081.353707,229.828649,-296.082377,9474.636058
1081.354022,153.219100,-148.041188,9030.512492
1081.354338,536.266849,-370.102971,9474.636058
1081.354654,612.876398,-592.164754,9400.615463
1081.354970,229.828649,-0.000000,9030.512492
1081.355285,1072.533697,-666.185348,9770.718434
1081.355601,1072.533697,-1110.308913,9844.739029
1081.355917,1225.752797,-592.164754,9622.677246
1081.356233,1378.971896,-370.102971,9178.553681
1081.356548,1378.971896,-1036.288319,9104.533087
1081.356864,1302.362347,-148.041188,9548.656652
1081.357180,1149.143247,148.041188,9252.574275
1081.357496,612.876398,666.185348,8734.430116
1081.357811,689.485948,148.041188,10214.842000
1081.358127,919.314598,-518.144159,9326.594869
1081.358443,612.876398,-222.061783,9474.636058
1081.358759,229.828649,-814.226536,9918.759623
1081.359074,0.000000,-1554.432478,9696.697840
1081.359390,0.000000,-1628.453072,10214.842000
1081.359706,-153.219100,-1406.391290,10288.862594
1081.360021,-153.219100,-1554.432478,10584.944971
1081.360337,306.438199,-962.267725,10140.821405
1081.360653,536.266849,-296.082377,9474.636058
1081.360969,1149.143247,-148.041188,8956.491898
1081.361284,1149.143247,-148.041188,9252.574275
1081.361600,1149.143247,296.082377,8216.285956
1081.361916,1149.143247,148.041188,8438.347739
1081.362232,459.657299,-444.123565,8956.491898
1081.362547,1072.533697,-666.185348,9770.718434
1081.362863,306.438199,-1036.288319,9844.739029
1081.363179,0.000000,-814.226536,9696.697840
1081.363495,0.000000,-666.185348,9326.594869
1081.363810,-306.438199,-814.226536,9474.636058
1081.364126,-153.219100,-1110.308913,9400.615463
1081.364442,-383.047749,-962.267725,9548.656652
1081.364758,0.000000,-888.247130,9548.656652
1081.365073,153.219100,-814.226536,9622.677246
1081.365389,689.485948,-296.082377,9696.697840
1081.365705,612.876398,-0.000000,8512.368333
1081.366021,536.266849,-0.000000,8438.347739
1081.366336,842.705048,148.041188,8660.409521
1081.366652,842.705048,592.164754,8808.450710
1081.366968,536.266849,1036.288319,8882.471304
1081.367284,612.876398,592.164754,9548.656652
1081.367599,612.876398,148.041188,9474.636058
1081.367915,0.000000,592.164754,9030.512492
1081.368231,-153.219100,888.247130,9178.553681
1081.368547,153.219100,-148.041188,9178.553681
1081.368862,459.657299,-74.020594,9844.739029
1081.369178,-229.828649,222.061783,9474.636058
1081.369494,-153.219100,-0.000000,9400.615463
1081.369810,0.000000,-148.041188,9844.739029
1081.370125,-306.438199,-74.020594,10140.821405
1081.370441,383.047749,1036.288319,9326.594869
1081.370757,306.438199,592.164754,9474.636058
1081.371073,306.438199,1036.288319,9178.553681
1081.371388,1072.533697,1036.288319,8956.491898
1081.371704,536.266849,1036.288319,9104.533087
1081.372020,-229.828649,592.164754,9622.677246
1081.372335,153.219100,444.123565,10066.800811
1081.372651,0.000000,666.185348,10066.800811
1081.372967,-689.485948,370.102971,9844.739029
1081.373283,-459.657299,-222.061783,10288.862594
1081.373598,0.000000,-296.082377,10066.800811
1081.373914,-766.095498,-148.041188,10288.862594
1081.374230,-383.047749,-370.102971,10510.924376
1081.374546,76.609550,-740.205942,10584.944971
1081.374861,383.047749,-148.041188,10066.800811
1081.375177,766.095498,444.123565,9548.656652
1081.375493,766.095498,740.205942,9104.533087
1081.375809,1149.143247,814.226536,9326.594869
1081.376124,1225.752797,518.144159,8956.491898
1081.376440,842.705048,814.226536,9252.574275
1081.376756,842.705048,444.123565,9252.574275
1081.377072,919.314598,-74.020594,9844.739029
1081.377387,612.876398,-296.082377,10140.821405
1081.377703,459.657299,-666.185348,9770.718434
1081.378019,383.047749,-444.123565,9770.718434
1081.378335,76.609550,-1110.308913,10288.862594
1081.378650,689.485948,-888.247130,9770.718434
1081.378966,306.438199,-518.144159,9548.656652
1081.379282,306.438199,-740.205942,9770.718434
1081.379598,689.485948,-1110.308913,10214.842000
1081.379913,1072.533697,-666.185348,9474.636058
1081.380229,1532.190996,-148.041188,8882.471304
1081.380545,1762.019645,-0.000000,8290.306550
1081.380861,1532.190996,-74.020594,8660.409521
1081.381176,1762.019645,-0.000000,8734.430116
1081.381492,1455.581446,-0.000000,8660.409521
1081.381808,1072.533697,-592.164754,9474.636058
1081.382124,995.924147,-518.144159,9696.697840
1081.382439,766.095498,-666.185348,9400.615463
1081.382755,0.000000,-1110.308913,9474.636058
1081.383071,153.219100,-1628.453072,9844.739029
1081.383386,0.000000,-1702.473667,10066.800811
1081.383702,-306.438199,-1258.350101,9918.759623
1081.384018,-153.219100,-1480.411884,9992.780217
1081.384334,689.485948,-1406.391290,10214.842000
1081.384649,689.485948,-888.247130,9104.533087
1081.384965,842.705048,-740.205942,8882.471304
1081.385281,995.924147,-1036.288319,8808.450710
1081.385597,1225.752797,-444.123565,8808.450710
1081.385912,842.705048,148.041188,8216.285956
1081.386228,766.095498,-0.000000,8734.430116
1081.386544,536.266849,-592.164754,9474.636058
1081.386860,229.828649,-370.102971,9178.553681
1081.387175,306.438199,-518.144159,9030.512492
1081.387491,0.000000,-1036.288319,9400.615463
1081.387807,0.000000,-1850.514855,9770.718434
1081.388123,-76.609550,-1406.391290,9696.697840
1081.388438,0.000000,-1184.329507,9770.718434
1081.388754,76.609550,-444.123565,9474.636058
1081.389070,153.219100,-444.123565,9548.656652
1081.389386,689.485948,-74.020594,9326.594869
1081.389701,612.876398,-0.000000,8956.491898
1081.390017,766.095498,148.041188,8660.409521
1081.390333,1149.143247,-0.000000,8660.409521
1081.390649,766.095498,666.185348,8660.409521
1081.390964,689.485948,666.185348,8882.471304
1081.391280,459.657299,666.185348,9548.656652
1081.391596,842.705048,666.185348,9104.533087
1081.391912,383.047749,592.164754,9252.574275
1081.392227,76.609550,740.205942,9474.636058
1081.392543,0.000000,-0.000000,9622.677246
1081.392859,0.000000,-0.000000,9696.697840
1081.393175,0.000000,148.041188,9844.739029
1081.393490,-306.438199,-0.000000,9918.759623
1081.393806,76.609550,-74.020594,10510.924376
1081.394122,383.047749,444.123565,9844.739029
1081.394437,306.438199,1184.329507,9548.656652
1081.394753,383.047749,1110.308913,9178.553681
1081.395069,766.095498,1036.288319,9252.574275
1081.395385,459.657299,1258.350101,9548.656652
1081.395700,229.828649,1258.350101,9178.553681
1081.396016,0.000000,740.205942,9622.677246
1081.396332,76.609550,444.123565,10214.842000
1081.396648,-229.828649,518.144159,10140.821405
1081.396963,-536.266849,-0.000000,9622.677246
1081.397279,-536.266849,-222.061783,10140.821405
1081.397595,0.000000,-814.226536,10362.883188
1081.397911,-229.828649,-370.102971,9918.759623
1081.398226,0.000000,-148.041188,10362.883188
1081.398542,0.000000,-518.144159,10362.883188
1081.398858,536.266849,-222.061783,10436.903782
1081.399174,842.705048,-148.041188,9992.780217
1081.399489,766.095498,740.205942,9252.574275
1081.399805,1225.752797,666.185348,8882.471304
1081.400121,1072.533697,222.061783,8882.471304
1081.400437,1072.533697,518.144159,9178.553681
1081.400752,0.000000,-148.041188,9770.718434
1081.401068,919.314598,-0.000000,9622.677246
1081.401384,153.219100,-0.000000,9400.615463
1081.401700,-153.219100,-148.041188,9326.594869
1081.402015,0.000000,-518.144159,9622.677246
1081.402331,0.000000,-1332.370696,9844.739029
1081.402647,0.000000,-1110.308913,10214.842000
1081.402963,0.000000,-1110.308913,10214.842000
1081.403278,306.438199,-1258.350101,9844.739029
1081.403594,919.314598,-1406.391290,9474.636058
1081.403910,1225.752797,-666.185348,9326.594869
1081.404226,1302.362347,-888.247130,8808.450710
1081.404541,1532.190996,-0.000000,8068.244768
1081.404857,1685.410096,592.164754,8068.244768
1081.405173,1455.581446,444.123565,8660.409521
1081.405489,1455.581446,-0.000000,8734.430116
1081.405804,1149.143247,-296.082377,8808.450710
1081.406120,919.314598,-592.164754,9474.636058
1081.406436,383.047749,-1258.350101,9178.553681
1081.406751,306.438199,-1702.473667,9326.594869
1081.407067,229.828649,-1776.494261,9918.759623
1081.407383,0.000000,-1554.432478,9178.553681
1081.407699,229.828649,-1332.370696,9918.759623
1081.408014,0.000000,-1480.411884,9696.697840
1081.408330,689.485948,-1406.391290,9474.636058
1081.408646,612.876398,-1480.411884,9474.636058
1081.408962,842.705048,-444.123565,9178.553681
1081.409277,1532.190996,-592.164754,8364.327145
1081.409593,1608.800546,-370.102971,8216.285956
1081.409909,689.485948,-0.000000,8586.388927
1081.410225,919.314598,-370.102971,8734.430116
1081.410540,995.924147,-370.102971,9030.512492
1081.410856,536.266849,-814.226536,8956.491898
1081.411172,153.219100,-962.267725,9252.574275
1081.411488,0.000000,-888.247130,9622.677246
1081.411803,0.000000,-1036.288319,9474.636058
1081.412119,-306.438199,-1184.329507,9548.656652
1081.412435,-459.657299,-1258.350101,9844.739029
1081.412751,-459.657299,-1184.329507,9918.759623
1081.413066,536.266849,-814.226536,10066.800811
1081.413382,459.657299,-666.185348,9992.780217
1081.413698,689.485948,-0.000000,9252.574275
1081.414014,1072.533697,444.123565,9030.512492
1081.414329,1225.752797,444.123565,8734.430116
1081.414645,1072.533697,1406.391290,8734.430116
1081.414961,459.657299,1406.391290,8956.491898
1081.415277,536.266849,962.267725,9326.594869
1081.415592,459.657299,1184.329507,9770.718434
1081.415908,153.219100,592.164754,9770.718434
1081.416224,0.000000,296.082377,9918.759623
1081.416540,229.828649,-0.000000,10140.821405
1081.416855,0.000000,222.061783,10066.800811
1081.417171,0.000000,222.061783,10362.883188
1081.417487,-383.047749,-0.000000,10658.965565
1081.417802,0.000000,296.082377,10288.862594
1081.418118,536.266849,444.123565,9918.759623
1081.418434,383.047749,814.226536,9474.636058
1081.418750,459.657299,1184.329507,9400.615463
1081.419065,536.266849,814.226536,9400.615463
1081.419381,459.657299,962.267725,9104.533087
1081.419697,383.047749,1406.391290,9474.636058
1081.420013,0.000000,666.185348,9696.697840
1081.420328,0.000000,296.082377,9696.697840
1081.420644,-536.266849,296.082377,9770.718434
1081.420960,-229.828649,-148.041188,10140.821405
1081.421276,-306.438199,-740.205942,10436.903782
1081.421591,-612.876398,-370.102971,10214.842000
1081.421907,-612.876398,-370.102971,10214.842000
1081.422223,-306.438199,-444.123565,9844.739029
1081.422539,0.000000,-592.164754,9844.739029
1081.422854,536.266849,-296.082377,9696.697840
1081.423170,1072.533697,-148.041188,9326.594869
1081.423486,919.314598,222.061783,9104.533087
1081.423802,995.924147,370.102971,8512.368333
1081.424117,1072.533697,222.061783,8512.368333
1081.424433,612.876398,666.185348,8734.430116
1081.424749,689.485948,444.123565,9104.533087
1081.425065,612.876398,-74.020594,9252.574275
1081.425380,306.438199,-444.123565,9474.636058
1081.425696,306.438199,-1258.350101,9548.656652
1081.426012,0.000000,-1258.350101,9770.718434
1081.426328,612.876398,-1554.432478,9252.574275
1081.426643,0.000000,-1332.370696,9696.697840
1081.426959,229.828649,-1184.329507,9770.718434
1081.427275,229.828649,-1332.370696,9622.677246
1081.427591,919.314598,-1184.329507,9622.677246
1081.427907,1149.143247,-0.000000,8808.450710
1081.428223,1532.190996,-74.020594,8216.285956
1081.428538,1838.629195,222.061783,8512.368333
1081.428854,2298.286494,444.123565,8364.327145
1081.429170,1608.800546,370.102971,8512.368333
1081.429486,1225.752797,-148.041188,8882.471304
1081.429802,766.095498,-370.102971,8956.491898
1081.430118,766.095498,-518.144159,9178.553681
1081.430434,383.047749,-1332.370696,9622.677246
1081.430750,-153.219100,-1406.391290,10214.842000
1081.431066,0.000000,-1628.453072,10362.883188
1081.431382,0.000000,-1184.329507,9696.697840
1081.431697,-306.438199,-1036.288319,10140.821405
1081.432013,0.000000,-1406.391290,10510.924376
1081.432329,459.657299,-1184.329507,9844.739029
1081.432645,919.314598,-592.164754,9474.636058
1081.432961,1302.362347,-592.164754,9178.553681
1081.433277,1225.752797,-148.041188,9104.533087
1081.433593,1072.533697,-0.000000,9030.512492
1081.433909,995.924147,296.082377,8734.430116
1081.434225,306.438199,296.082377,9030.512492
1081.434540,536.266849,-148.041188,9696.697840
1081.434856,842.705048,-296.082377,9696.697840
1081.435172,76.609550,-592.164754,9770.718434
1081.435488,-76.609550,-1184.329507,9696.697840
1081.435804,-536.266849,-1998.556043,10436.903782
1081.436120,-459.657299,-1850.514855,10584.944971
1081.436436,-306.438199,-1258.350101,10436.903782
1081.436752,-612.876398,-740.205942,10362.883188
1081.437068,306.438199,-666.185348,10362.883188
1081.437383,536.266849,-0.000000,9770.718434
1081.437699,766.095498,518.144159,9030.512492
1081.438015,1378.971896,888.247130,8808.450710
1081.438331,1685.410096,1110.308913,8956.491898
1081.438647,1455.581446,1184.329507,8142.265362
1081.438963,1072.533697,1184.329507,8586.388927
1081.439279,995.924147,1036.288319,9030.512492
1081.439595,689.485948,592.164754,9178.553681
1081.439911,153.219100,740.205942,9474.636058
1081.440226,0.000000,370.102971,9770.718434
1081.440542,-229.828649,-0.000000,10362.883188
1081.440858,-153.219100,-370.102971,9992.780217
1081.441174,-229.828649,-370.102971,10288.862594
1081.441490,-153.219100,-370.102971,10658.965565
1081.441806,536.266849,-222.061783,10436.903782
1081.442122,612.876398,444.123565,9770.718434
1081.442438,919.314598,1036.288319,8808.450710
1081.442754,1072.533697,1776.494261,8882.471304
1081.443069,1225.752797,1332.370696,8512.368333
1081.443385,995.924147,1332.370696,8142.265362
1081.443701,536.266849,1406.391290,8586.388927
1081.444017,0.000000,444.123565,9474.636058
1081.444333,0.000000,370.102971,9696.697840
1081.444649,-306.438199,222.061783,9326.594869
1081.444965,-766.095498,-962.267725,10140.821405
1081.445281,-766.095498,-1036.288319,10066.800811
1081.445597,-919.314598,-1406.391290,10140.821405
1081.445913,-1072.533697,-740.205942,10732.986159
1081.446228,-995.924147,-888.247130,10436.903782
1081.446544,-229.828649,-370.102971,10140.821405
1081.446860,0.000000,222.061783,9696.697840
1081.447176,459.657299,444.123565,9030.512492
1081.447492,919.314598,592.164754,9104.533087
1081.447808,1532.190996,592.164754,8808.450710
1081.448124,1302.362347,740.205942,8512.368333
1081.448440,842.705048,814.226536,8808.450710
1081.448756,612.876398,370.102971,9474.636058
1081.449071,689.485948,-222.061783,9844.739029
1081.449387,306.438199,-222.061783,9696.697840
1081.449703,-229.828649,-444.123565,9770.718434
1081.450019,0.000000,-1036.288319,9770.718434
1081.450335,0.000000,-1332.370696,10066.800811
1081.450651,-383.047749,-1184.329507,10214.842000
1081.450967,76.609550,-962.267725,9918.759623
1081.451283,536.266849,-1258.350101,9992.780217
1081.451599,1149.143247,-1036.288319,9992.780217
1081.451914,995.924147,-0.000000,8956.491898
1081.452230,1455.581446,-0.000000,8660.409521
1081.452546,2145.067394,-518.144159,8660.409521
1081.452862,1991.848295,962.267725,8956.491898
1081.453178,1685.410096,888.247130,8216.285956
1081.453494,1378.971896,222.061783,8882.471304
1081.453810,1302.362347,-0.000000,9104.533087
1081.454126,612.876398,-222.061783,9030.512492
1081.454442,842.705048,-962.267725,10066.800811
1081.454757,0.000000,-1628.453072,10288.862594
1081.455073,-383.047749,-1554.432478,10362.883188
1081.455389,0.000000,-1702.473667,10214.842000
1081.455705,-229.828649,-1702.473667,10140.821405
1081.456021,-153.219100,-1924.535449,9992.780217
1081.456337,383.047749,-1480.411884,10140.821405
1081.456653,689.485948,-740.205942,9326.594869
1081.456969,1149.143247,-444.123565,8882.471304
1081.457285,1302.362347,-0.000000,8512.368333
1081.457600,1378.971896,222.061783,8068.244768
1081.457916,1149.143247,296.082377,8290.306550
1081.458232,689.485948,-296.082377,8882.471304
1081.458548,153.219100,-1110.308913,9696.697840
1081.458864,306.438199,-1332.370696,9844.739029
1081.459180,-306.438199,-962.267725,9474.636058
1081.459496,-766.095498,-1184.329507,9696.697840
1081.459812,-229.828649,-1628.453072,9770.718434
1081.460128,-229.828649,-1258.350101,10066.800811
1081.460444,-612.876398,-1036.288319,9770.718434
1081.460759,153.219100,-1110.308913,10288.862594
1081.461075,459.657299,-888.247130,9474.636058
1081.461391,766.095498,-74.020594,9178.553681
1081.461707,842.705048,666.185348,8734.430116
1081.462023,1532.190996,518.144159,8734.430116
1081.462339,1455.581446,814.226536,8290.306550
1081.462655,1149.143247,1184.329507,8438.347739
1081.462971,612.876398,1036.288319,8586.388927
1081.463287,536.266849,814.226536,9178.553681
1081.463602,536.266849,518.144159,9400.615463
1081.463918,-229.828649,444.123565,9178.553681
1081.464234,-689.485948,-296.082377,10066.800811
1081.464550,-306.438199,-592.164754,10214.842000
1081.464866,-459.657299,-740.205942,10288.862594
1081.465182,-306.438199,-296.082377,10436.903782
1081.465498,-306.438199,-296.082377,10362.883188
1081.465814,0.000000,74.020594,10140.821405
1081.466130,383.047749,666.185348,9770.718434
1081.466445,766.095498,1184.329507,9400.615463
1081.466761,919.314598,1480.411884,8808.450710
1081.467077,1532.190996,1702.473667,8364.327145
1081.467393,995.924147,1702.473667,8734.430116
1081.467709,1072.533697,1998.556043,8808.450710
1081.468025,536.266849,1332.370696,9326.594869
1081.468341,383.047749,1258.350101,10140.821405
1081.468657,-153.219100,-0.000000,9622.677246
1081.468973,-536.266849,-222.061783,9918.759623
1081.469288,-459.657299,-740.205942,10214.842000
1081.469604,-612.876398,-1332.370696,10732.986159
1081.469920,-766.095498,-592.164754,11029.068536
1081.470236,-919.314598,-518.144159,10807.006753
1081.470552,-306.438199,-222.061783,10066.800811
1081.470868,229.828649,-370.102971,10436.903782
1081.471184,459.657299,-0.000000,9326.594869
1081.471500,995.924147,740.205942,8808.450710
1081.471816,1532.190996,518.144159,8512.368333
1081.472131,1838.629195,518.144159,8586.388927
1081.472447,1225.752797,666.185348,9030.512492
1081.472763,1149.143247,148.041188,8956.491898
1081.473079,919.314598,-74.020594,9400.615463
1081.473395,689.485948,-222.061783,9918.759623
1081.473711,153.219100,-222.061783,9474.636058
1081.474027,306.438199,-666.185348,9844.739029
1081.474343,76.609550,-962.267725,9844.739029
1081.474659,153.219100,-1258.350101,10066.800811
1081.474975,229.828649,-1258.350101,10214.842000
1081.475290,536.266849,-1406.391290,10214.842000
1081.475606,842.705048,-888.247130,9992.780217
1081.475922,1149.143247,-592.164754,9400.615463
1081.476238,1455.581446,-296.082377,8734.430116
1081.476554,1302.362347,-74.020594,8438.347739
1081.476870,1685.410096,296.082377,8808.450710
1081.477186,1072.533697,-0.000000,8808.450710
1081.477502,919.314598,-148.041188,9104.533087
1081.477818,995.924147,-74.020594,9178.553681
1081.478133,919.314598,-444.123565,9104.533087
1081.478449,689.485948,-1184.329507,9400.615463
1081.478765,153.219100,-1850.514855,9844.739029
1081.479081,306.438199,-2146.597232,10140.821405
1081.479397,306.438199,-1554.432478,9474.636058
1081.479713,0.000000,-1998.556043,9918.759623
1081.480029,153.219100,-2072.576638,10510.924376
1081.480345,459.657299,-1628.453072,9918.759623
1081.480661,689.485948,-962.267725,8808.450710
1081.480976,995.924147,-518.144159,9104.533087
1081.481292,1532.190996,-0.000000,8586.388927
1081.481608,1072.533697,-0.000000,8364.327145
1081.481924,536.266849,148.041188,8364.327145
1081.482240,-383.047749,-592.164754,9030.512492
1081.482556,306.438199,-592.164754,9696.697840
1081.482872,153.219100,-592.164754,9548.656652
1081.483188,-306.438199,-740.205942,9696.697840
1081.483504,0.000000,-888.247130,9696.697840
1081.483819,-766.095498,-1702.473667,9474.636058
1081.484135,-459.657299,-1702.473667,9992.780217
1081.484451,-229.828649,-1406.391290,10214.842000
1081.484767,0.000000,-1036.288319,9992.780217
1081.485083,766.095498,-666.185348,9400.615463
1081.485399,995.924147,-0.000000,9474.636058
1081.485715,1378.971896,518.144159,8438.347739
1081.486031,1608.800546,1332.370696,7624.121203
1081.486347,1532.190996,1332.370696,8142.265362
1081.486662,1225.752797,1110.308913,8734.430116
1081.486978,919.314598,962.267725,8734.430116
1081.487294,842.705048,814.226536,9104.533087
1081.487610,459.657299,444.123565,9474.636058
1081.487926,0.000000,-0.000000,9622.677246
1081.488242,-306.438199,-148.041188,9992.780217
1081.488558,-612.876398,-148.041188,10288.862594
1081.488874,-689.485948,-296.082377,10510.924376
1081.489190,-919.314598,-0.000000,10362.883188
1081.489505,-842.705048,-0.000000,10510.924376
1081.489821,0.000000,-74.020594,10140.821405
1081.490137,306.438199,740.205942,9696.697840
1081.490453,536.266849,1258.350101,9326.594869
1081.490769,766.095498,1406.391290,8808.450710
1081.491085,1455.581446,1702.473667,8512.368333
1081.491401,1225.752797,1776.494261,9104.533087
1081.491717,689.485948,1702.473667,8956.491898
1081.492033,919.314598,1184.329507,9770.718434
1081.492349,689.485948,888.247130,9400.615463
1081.492664,229.828649,888.247130,9992.780217
1081.492980,-306.438199,148.041188,9844.739029
1081.493296,-153.219100,-370.102971,10214.842000
1081.493612,-689.485948,-0.000000,10066.800811
1081.493928,-612.876398,-296.082377,10362.883188
1081.494244,-612.876398,-666.185348,10436.903782
1081.494560,-306.438199,-888.247130,10436.903782
1081.494876,0.000000,-222.061783,10066.800811
1081.495192,0.000000,-148.041188,9548.656652
1081.495507,689.485948,-0.000000,9770.718434
1081.495823,766.095498,296.082377,9104.533087
1081.496139,995.924147,1184.329507,8512.368333
1081.496455,919.314598,1110.308913,8734.430116
1081.496771,1149.143247,592.164754,9326.594869
1081.497087,689.485948,444.123565,9104.533087
1081.497403,842.705048,-148.041188,9474.636058
1081.497719,689.485948,-444.123565,9474.636058
1081.498035,459.657299,-814.226536,9622.677246
1081.498350,383.047749,-962.267725,10140.821405
1081.498666,612.876398,-666.185348,9992.780217
1081.498982,229.828649,-814.226536,9844.739029
1081.499298,612.876398,-888.247130,10214.842000
1081.499614,842.705048,-814.226536,9770.718434
1081.499930,919.314598,-444.123565,9178.553681
1081.500246,1378.971896,-444.123565,9474.636058
1081.500562,1608.800546,-370.102971,8882.471304
1081.500878,1378.971896,-0.000000,8290.306550
1081.501193,1302.362347,296.082377,8364.327145
1081.501509,1149.143247,-74.020594,8734.430116
1081.501825,1608.800546,-444.123565,9400.615463
1081.502141,919.314598,-666.185348,9178.553681
1081.502457,0.000000,-1110.308913,9474.636058
1081.502773,153.219100,-1628.453072,9918.759623
1081.503089,76.609550,-1702.473667,9474.636058
1081.503405,0.000000,-1702.473667,9696.697840
1081.503721,0.000000,-1628.453072,10140.821405
1081.504036,383.047749,-1998.556043,9918.759623
1081.504352,536.266849,-1406.391290,9622.677246
1081.504668,689.485948,-1332.370696,8956.491898
1081.504984,1149.143247,-1332.370696,9104.533087
1081.505300,1685.410096,-444.123565,8364.327145
1081.505616,1072.533697,-74.020594,8290.306550
1081.505932,306.438199,-74.020594,8290.306550
1081.506248,536.266849,-666.185348,9178.553681
1081.506564,76.609550,-814.226536,9326.594869
1081.506880,0.000000,-370.102971,9178.553681
1081.507195,-229.828649,-666.185348,9400.615463
1081.507511,-306.438199,-1184.329507,9326.594869
1081.507827,-306.438199,-1554.432478,9474.636058
1081.508143,-689.485948,-1776.494261,10288.862594
1081.508459,-766.095498,-1554.432478,9770.718434
1081.508775,-689.485948,-1850.514855,10066.800811
1081.509091,0.000000,-1110.308913,10066.800811
1081.509407,1608.800546,-148.041188,9178.553681
1081.509723,536.266849,296.082377,9030.512492
1081.510038,1302.362347,666.185348,8734.430116
1081.510354,1225.752797,1184.329507,8586.388927
1081.510670,1225.752797,1332.370696,8660.409521
1081.510986,919.314598,1554.432478,8660.409521
1081.511302,1072.533697,962.267725,9474.636058
1081.511618,766.095498,888.247130,9622.677246
1081.511934,229.828649,740.205942,9252.574275
1081.512250,0.000000,296.082377,9918.759623
1081.512566,0.000000,-0.000000,10066.800811
1081.512881,-306.438199,-0.000000,10140.821405
1081.513197,-842.705048,-0.000000,10436.903782
1081.513513,-383.047749,-444.123565,10881.027347
1081.513829,229.828649,-444.123565,10732.986159
1081.514145,842.705048,370.102971,10510.924376
1081.514461,459.657299,1184.329507,9400.615463
1081.514777,689.485948,666.185348,8956.491898
1081.515093,1225.752797,1628.453072,9104.533087
1081.515409,995.924147,1554.432478,8734.430116
1081.515724,766.095498,1406.391290,9326.594869
1081.516040,536.266849,1036.288319,9474.636058
1081.516356,76.609550,1036.288319,9622.677246
1081.516672,0.000000,740.205942,9918.759623
1081.516988,153.219100,-0.000000,9548.656652
1081.517304,0.000000,-296.082377,9770.718434
1081.517620,-383.047749,-888.247130,9992.780217
1081.517936,-766.095498,-370.102971,10362.883188
1081.518252,-766.095498,-740.205942,10881.027347
1081.518567,-459.657299,-592.164754,10510.924376
1081.518883,-383.047749,-148.041188,9992.780217
1081.519199,76.609550,370.102971,9326.594869
1081.519515,0.000000,370.102971,9030.512492
1081.519831,766.095498,296.082377,9104.533087
1081.520147,919.314598,444.123565,8956.491898
1081.520463,383.047749,518.144159,8734.430116
1081.520779,536.266849,-0.000000,9400.615463
1081.521095,1149.143247,-296.082377,9622.677246
1081.521411,766.095498,-0.000000,9400.615463
1081.521726,919.314598,222.061783,9400.615463
1081.522042,689.485948,-296.082377,9252.574275
1081.522358,306.438199,-592.164754,9400.615463
1081.522674,153.219100,-962.267725,9474.636058
1081.522990,306.438199,-1480.411884,9770.718434
1081.523306,766.095498,-1332.370696,10066.800811
1081.523622,995.924147,-740.205942,9770.718434
1081.523938,1225.752797,-296.082377,8882.471304
1081.524254,1455.581446,-740.205942,8734.430116
1081.524569,1225.752797,-740.205942,8882.471304
1081.524885,1762.019645,-0.000000,8438.347739
1081.525201,1072.533697,-74.020594,8586.388927
1081.525517,1149.143247,-444.123565,9104.533087
1081.525833,995.924147,-814.226536,9548.656652
1081.526149,1149.143247,-740.205942,9252.574275
1081.526465,689.485948,-888.247130,9178.553681
1081.526781,229.828649,-1110.308913,9400.615463
1081.527097,229.828649,-1258.350101,9474.636058
1081.527412,76.609550,-1406.391290,9918.759623
1081.527728,-306.438199,-1554.432478,10066.800811
1081.528044,153.219100,-1628.453072,9844.739029
1081.528360,536.266849,-1406.391290,9622.677246
1081.528676,536.266849,-592.164754,9252.574275
1081.528992,536.266849,-592.164754,9030.512492
1081.529308,1302.362347,-962.267725,9104.533087
1081.529624,689.485948,-296.082377,8956.491898
1081.529940,229.828649,148.041188,9400.615463
1081.530255,459.657299,-518.144159,9326.594869
1081.530571,229.828649,-666.185348,9474.636058
1081.530887,229.828649,-370.102971,9622.677246
1081.531203,689.485948,-1110.308913,9622.677246
1081.531519,306.438199,-740.205942,9474.636058
1081.531835,76.609550,-666.185348,9548.656652
1081.532151,0.000000,-370.102971,9696.697840
1081.532467,459.657299,-962.267725,9918.759623
1081.532782,229.828649,-814.226536,9844.739029
1081.533098,383.047749,-962.267725,9770.718434
1081.533414,689.485948,-74.020594,9696.697840
1081.533730,995.924147,-0.000000,8734.430116
1081.534046,1302.362347,518.144159,8364.327145
1081.534362,919.314598,814.226536,8808.450710
1081.534678,536.266849,1110.308913,8882.471304
1081.534994,306.438199,814.226536,9548.656652
1081.535310,612.876398,518.144159,9844.739029
1081.535625,306.438199,370.102971,9918.759623
1081.535941,0.000000,296.082377,9474.636058
1081.536257,0.000000,-148.041188,10140.821405
1081.536573,229.828649,-148.041188,10288.862594
1081.536889,0.000000,-444.123565,9992.780217
1081.537205,-536.266849,592.164754,10732.986159
1081.537521,229.828649,518.144159,10214.842000
1081.537837,612.876398,518.144159,9548.656652
1081.538153,766.095498,1332.370696,9548.656652
1081.538468,766.095498,1184.329507,9030.512492
1081.538784,1225.752797,740.205942,8808.450710
1081.539100,536.266849,1184.329507,9400.615463
1081.539416,766.095498,1406.391290,9474.636058
1081.539732,536.266849,888.247130,9030.512492
1081.540048,0.000000,296.082377,9770.718434
1081.540364,0.000000,-0.000000,10436.903782
1081.540680,0.000000,-0.000000,9844.739029
1081.540995,-612.876398,-0.000000,9622.677246
1081.541311,-536.266849,-74.020594,9918.759623
1081.541627,-229.828649,-74.020594,9770.718434
1081.541943,-689.485948,-370.102971,9844.739029
1081.542259,-612.876398,-444.123565,10140.821405
1081.542575,76.609550,-370.102971,10584.944971
1081.542891,0.000000,-296.082377,9474.636058
1081.543207,-153.219100,-0.000000,9030.512492
1081.543523,306.438199,-0.000000,9326.594869
1081.543838,1149.143247,296.082377,8882.471304
1081.544154,1072.533697,592.164754,8586.388927
1081.544470,612.876398,592.164754,9030.512492
1081.544786,995.924147,222.061783,9326.594869
1081.545102,1225.752797,-148.041188,9326.594869
1081.545418,842.705048,296.082377,8882.471304
1081.545734,459.657299,-222.061783,9622.677246
1081.546050,1149.143247,-666.185348,9696.697840
1081.546366,766.095498,-370.102971,8956.491898
1081.546681,612.876398,-296.082377,9548.656652
1081.546997,229.828649,-1110.308913,9918.759623
1081.547313,689.485948,-962.267725,10214.842000
1081.547629,995.924147,-518.144159,9548.656652
1081.547945,766.095498,-518.144159,8956.491898
1081.548261,766.095498,-740.205942,9104.533087
1081.548577,919.314598,-370.102971,9104.533087
1081.548893,766.095498,-222.061783,8956.491898
1081.549208,919.314598,-666.185348,9252.574275
1081.549524,612.876398,-814.226536,9326.594869
1081.549840,995.924147,-814.226536,9622.677246
1081.550156,689.485948,-962.267725,9474.636058
1081.550472,689.485948,-888.247130,9474.636058
1081.550788,612.876398,-1332.370696,9326.594869
1081.551104,459.657299,-814.226536,9104.533087
1081.551420,766.095498,-962.267725,9252.574275
1081.551736,229.828649,-1258.350101,9696.697840
1081.552051,689.485948,-1184.329507,10066.800811
1081.552367,612.876398,-962.267725,9696.697840
1081.552683,612.876398,-592.164754,9030.512492
1081.552999,383.047749,-518.144159,8882.471304
1081.553315,536.266849,-222.061783,9400.615463
1081.553631,536.266849,-1184.329507,9252.574275
1081.553947,0.000000,-740.205942,9178.553681
1081.554263,-153.219100,-666.185348,9844.739029
1081.554579,153.219100,-666.185348,9844.739029
1081.554894,0.000000,-370.102971,9844.739029
1081.555210,153.219100,-296.082377,9548.656652
1081.555526,-153.219100,-222.061783,9178.553681
1081.555842,0.000000,-444.123565,9918.759623
1081.556158,0.000000,-518.144159,9474.636058
1081.556474,0.000000,-888.247130,9992.780217
1081.556790,383.047749,-1184.329507,10214.842000
1081.557106,689.485948,-0.000000,9622.677246
1081.557421,689.485948,370.102971,8956.491898
1081.557737,995.924147,666.185348,8660.409521
1081.558053,1225.752797,222.061783,8808.450710
1081.558369,766.095498,370.102971,8660.409521
1081.558685,689.485948,370.102971,8734.430116
1081.559001,383.047749,370.102971,8882.471304
1081.559317,383.047749,222.061783,9474.636058
1081.559633,229.828649,-0.000000,10140.821405
1081.559949,0.000000,-0.000000,9474.636058
1081.560264,-229.828649,-0.000000,9474.636058
1081.560580,0.000000,-74.020594,9770.718434
1081.560896,-306.438199,-0.000000,9770.718434
1081.561212,-153.219100,-0.000000,9844.739029
1081.561528,0.000000,-740.205942,10140.821405
1081.561844,612.876398,-74.020594,10436.903782
1081.562160,689.485948,444.123565,9400.615463
1081.562476,536.266849,518.144159,9030.512492
1081.562792,689.485948,666.185348,9474.636058
1081.563107,766.095498,1036.288319,9252.574275
1081.563423,689.485948,1554.432478,8882.471304
1081.563739,153.219100,962.267725,9474.636058
1081.564055,383.047749,-0.000000,9844.739029
1081.564371,612.876398,-0.000000,9918.759623
1081.564687,76.609550,-148.041188,9696.697840
1081.565003,0.000000,-74.020594,9622.677246
1081.565319,0.000000,-0.000000,9474.636058
1081.565634,-229.828649,-0.000000,9548.656652
1081.565950,-612.876398,-148.041188,10214.842000
1081.566266,-229.828649,-592.164754,10436.903782
1081.566582,153.219100,-444.123565,9992.780217
1081.566898,0.000000,-0.000000,9474.636058
1081.567214,306.438199,-296.082377,9474.636058
1081.567530,689.485948,-148.041188,9844.739029
1081.567846,919.314598,-74.020594,9178.553681
1081.568162,689.485948,296.082377,9104.533087
1081.568477,383.047749,222.061783,9474.636058
1081.568793,766.095498,-148.041188,9400.615463
1081.569109,766.095498,-0.000000,9474.636058
1081.569425,995.924147,-0.000000,9622.677246
1081.569741,919.314598,-0.000000,9104.533087
1081.570057,842.705048,-370.102971,8734.430116
1081.570373,842.705048,-740.205942,9178.553681
1081.570689,766.095498,-888.247130,9622.677246
1081.571004,459.657299,-666.185348,9548.656652
1081.571320,536.266849,-740.205942,10214.842000
1081.571636,689.485948,-370.102971,9696.697840
1081.571952,766.095498,-222.061783,8956.491898
1081.572268,536.266849,-296.082377,8956.491898
1081.572584,842.705048,-666.185348,9326.594869
1081.572900,1072.533697,-222.061783,8882.471304
1081.573216,459.657299,-222.061783,8956.491898
1081.573532,536.266849,-666.185348,9844.739029
1081.573847,689.485948,-1110.308913,9770.718434
1081.574163,842.705048,-666.185348,9178.553681
1081.574479,306.438199,-666.185348,9474.636058
1081.574795,459.657299,-1554.432478,9548.656652
1081.575111,459.657299,-1332.370696,9548.656652
1081.575427,383.047749,-740.205942,9548.656652
1081.575743,306.438199,-1406.391290,9622.677246
1081.576059,995.924147,-1110.308913,10214.842000
1081.576375,995.924147,-370.102971,8956.491898
1081.576690,1072.533697,-814.226536,8586.388927
1081.577006,842.705048,-888.247130,9252.574275
1081.577322,842.705048,-740.205942,9104.533087
1081.577638,1072.533697,-0.000000,8734.430116
1081.577954,383.047749,-370.102971,8956.491898
1081.578270,306.438199,-962.267725,9770.718434
1081.578586,306.438199,-518.144159,9992.780217
1081.578902,0.000000,-518.144159,9474.636058
1081.579217,-153.219100,-518.144159,9474.636058
1081.579533,-153.219100,-666.185348,9326.594869
1081.579849,-153.219100,-592.164754,9844.739029
1081.580165,0.000000,-888.247130,9844.739029
1081.580481,383.047749,-592.164754,9844.739029
1081.580797,306.438199,-592.164754,9474.636058
1081.581113,689.485948,-592.164754,9548.656652
1081.581429,766.095498,-0.000000,9548.656652
1081.581745,612.876398,518.144159,8808.450710
1081.582060,1225.752797,370.102971,8882.471304
1081.582376,1225.752797,1036.288319,8364.327145
1081.582692,842.705048,962.267725,8734.430116
1081.583008,689.485948,888.247130,9622.677246
1081.583324,995.924147,518.144159,9548.656652
1081.583640,612.876398,666.185348,9474.636058
1081.583956,306.438199,666.185348,9400.615463
1081.584272,0.000000,370.102971,9548.656652
1081.584588,76.609550,-0.000000,9474.636058
1081.584903,153.219100,-0.000000,9696.697840
1081.585219,-153.219100,222.061783,10288.862594
1081.585535,0.000000,-0.000000,10288.862594
1081.585851,383.047749,-222.061783,9992.780217
1081.586167,153.219100,444.123565,9696.697840
1081.586483,383.047749,962.267725,9844.739029
1081.586799,536.266849,1036.288319,8882.471304
1081.587115,229.828649,592.164754,9030.512492
1081.587430,306.438199,370.102971,9770.718434
1081.587746,153.219100,-0.000000,9696.697840
1081.588062,153.219100,-148.041188,9992.780217
1081.588378,0.000000,518.144159,9770.718434
1081.588694,76.609550,222.061783,9992.780217
1081.589010,76.609550,296.082377,8734.430116
1081.589326,383.047749,-0.000000,9474.636058
1081.589642,0.000000,-370.102971,9844.739029
1081.589958,0.000000,-666.185348,9992.780217
1081.590273,153.219100,-666.185348,10140.821405
1081.590589,229.828649,-666.185348,10584.944971
1081.590905,76.609550,-296.082377,9696.697840
1081.591221,459.657299,74.020594,9696.697840
1081.591537,459.657299,148.041188,9104.533087
1081.591853,612.876398,-74.020594,9400.615463
1081.592169,306.438199,-0.000000,9474.636058
1081.592485,459.657299,222.061783,9474.636058
1081.592801,383.047749,-0.000000,9918.759623
1081.593116,383.047749,-0.000000,9622.677246
1081.593432,689.485948,-74.020594,9326.594869
1081.593748,766.095498,-444.123565,9400.615463
1081.594064,689.485948,-444.123565,9622.677246
1081.594380,459.657299,-222.061783,9400.615463
1081.594696,536.266849,-222.061783,9548.656652
1081.595012,612.876398,-814.226536,10066.800811
1081.595328,689.485948,-666.185348,9844.739029
1081.595643,1149.143247,-222.061783,9548.656652
1081.595959,995.924147,-0.000000,9030.512492
1081.596275,1378.971896,-296.082377,8956.491898
1081.596591,842.705048,-370.102971,9104.533087
1081.596907,766.095498,-74.020594,9030.512492
1081.597223,306.438199,-222.061783,9252.574275
1081.597539,76.609550,-296.082377,9400.615463
1081.597855,0.000000,-740.205942,9770.718434
1081.598171,0.000000,-1036.288319,9918.759623
1081.598486,-229.828649,-666.185348,9326.594869
1081.598802,-153.219100,-1184.329507,9474.636058
1081.599118,229.828649,-1036.288319,9696.697840
1081.599434,0.000000,-1332.370696,9178.553681
1081.599750,76.609550,-962.267725,9992.780217
1081.600066,612.876398,-962.267725,9918.759623
1081.600382,612.876398,-814.226536,9326.594869
1081.600698,459.657299,-0.000000,8882.471304
1081.601014,689.485948,-74.020594,8808.450710
1081.601329,919.314598,-148.041188,8882.471304
1081.601645,612.876398,-0.000000,8734.430116
1081.601961,306.438199,-296.082377,8956.491898
1081.602277,459.657299,-1110.308913,9696.697840
1081.602593,459.657299,-1480.411884,9622.677246
1081.602909,-153.219100,-888.247130,9474.636058
1081.603225,229.828649,-666.185348,9474.636058
1081.603541,0.000000,-740.205942,9326.594869
1081.603856,229.828649,-814.226536,9326.594869
1081.604172,0.000000,-370.102971,9474.636058
1081.604488,153.219100,-1110.308913,9696.697840
1081.604804,612.876398,-370.102971,9770.718434
1081.605120,1149.143247,-74.020594,9474.636058
1081.605436,995.924147,148.041188,9178.553681
1081.605752,1455.581446,-0.000000,9104.533087
1081.606068,1608.800546,370.102971,8438.347739
1081.606384,1685.410096,740.205942,8660.409521
1081.606699,689.485948,370.102971,9178.553681
1081.607015,689.485948,814.226536,9326.594869
1081.607331,1072.533697,740.205942,9548.656652
1081.607647,919.314598,518.144159,9770.718434
1081.607963,0.000000,814.226536,9104.533087
1081.608279,306.438199,-222.061783,9844.739029
1081.608595,459.657299,-222.061783,9992.780217
1081.608911,-536.266849,296.082377,10288.862594
1081.609227,0.000000,-296.082377,10214.842000
1081.609542,459.657299,-0.000000,9770.718434
1081.609858,76.609550,444.123565,9992.780217
1081.610174,383.047749,962.267725,9844.739029
1081.610490,383.047749,666.185348,9548.656652
1081.610806,536.266849,962.267725,9104.533087
1081.611122,536.266849,1036.288319,9548.656652
1081.611438,153.219100,1036.288319,9178.553681
1081.611754,-459.657299,444.123565,9844.739029
1081.612069,76.609550,-148.041188,10436.903782
1081.612385,0.000000,-74.020594,10510.924376
1081.612701,-153.219100,-0.000000,9992.780217
1081.613017,-689.485948,-444.123565,9622.677246
1081.613333,-459.657299,-592.164754,10140.821405
1081.613649,-153.219100,-370.102971,9770.718434
1081.613965,-306.438199,-444.123565,9770.718434
1081.614281,0.000000,-148.041188,10288.862594
1081.614597,153.219100,-222.061783,9696.697840
1081.614912,612.876398,-74.020594,9104.533087
1081.615228,536.266849,-370.102971,8512.368333
1081.615544,1455.581446,-148.041188,8956.491898
1081.615860,1455.581446,-0.000000,8734.430116
1081.616176,689.485948,-0.000000,8660.409521
1081.616492,229.828649,-0.000000,9400.615463
1081.616808,689.485948,-518.144159,9844.739029
1081.617124,459.657299,148.041188,8882.471304
1081.617439,306.438199,296.082377,9178.553681
1081.617755,76.609550,-444.123565,9326.594869
1081.618071,153.219100,-1258.350101,9548.656652
1081.618387,0.000000,-1036.288319,9844.739029
1081.618703,229.828649,-1110.308913,9770.718434
1081.619019,383.047749,-518.144159,9474.636058
1081.619335,689.485948,-592.164754,9326.594869
1081.619651,766.095498,-74.020594,9178.553681
1081.619967,1225.752797,-0.000000,9104.533087
1081.620282,1302.362347,-148.041188,9030.512492
1081.620598,1378.971896,-0.000000,8216.285956
1081.620914,842.705048,-0.000000,8142.265362
1081.621230,919.314598,-296.082377,9178.553681
1081.621546,842.705048,-592.164754,9622.677246
1081.621862,1532.190996,-592.164754,9548.656652
1081.622178,689.485948,-370.102971,8956.491898
1081.622494,229.828649,-518.144159,9326.594869
1081.622810,306.438199,-1406.391290,9474.636058
1081.623125,1072.533697,-1480.411884,9918.759623
1081.623441,383.047749,-814.226536,9622.677246
1081.623757,459.657299,-740.205942,9400.615463
1081.624073,995.924147,-740.205942,9844.739029
1081.624389,919.314598,-814.226536,9622.677246
1081.624705,1225.752797,-666.185348,9252.574275
1081.625021,995.924147,-370.102971,8956.491898
1081.625337,1072.533697,-148.041188,9030.512492
1081.625652,995.924147,-0.000000,8882.471304
1081.625968,459.657299,148.041188,9400.615463
1081.626284,229.828649,148.041188,9696.697840
1081.626600,306.438199,-296.082377,10066.800811
1081.626916,0.000000,-296.082377,9622.677246
1081.627232,-306.438199,-296.082377,9622.677246
1081.627548,0.000000,-814.226536,9844.739029
1081.627864,76.609550,-1036.288319,9474.636058
1081.628180,76.609550,-888.247130,9992.780217
1081.628495,76.609550,-296.082377,10066.800811
1081.628811,0.000000,-370.102971,10362.883188
1081.629127,459.657299,-0.000000,9918.759623
1081.629443,842.705048,444.123565,8660.409521
1081.629759,689.485948,518.144159,8956.491898
1081.630075,1149.143247,592.164754,9252.574275
1081.630391,1072.533697,1184.329507,8660.409521
1081.630707,612.876398,962.267725,8808.450710
1081.631023,1149.143247,444.123565,9400.615463
1081.631338,919.314598,370.102971,9326.594869
1081.631654,229.828649,148.041188,9696.697840
1081.631970,0.000000,370.102971,9918.759623
1081.632286,0.000000,-0.000000,9770.718434
1081.632602,0.000000,-148.041188,9844.739029
1081.632918,-536.266849,-0.000000,9844.739029
1081.633234,-459.657299,-74.020594,10288.862594
1081.633550,0.000000,-148.041188,10140.821405
1081.633865,229.828649,-0.000000,10066.800811
1081.634181,76.609550,370.102971,9770.718434
1081.634497,612.876398,888.247130,9252.574275
1081.634813,612.876398,888.247130,8882.471304
1081.635129,766.095498,1036.288319,9104.533087
1081.635445,229.828649,666.185348,8586.388927
1081.635761,0.000000,444.123565,9474.636058
1081.636077,0.000000,-0.000000,9918.759623
1081.636393,-383.047749,222.061783,9474.636058
1081.636708,-383.047749,-0.000000,9622.677246
1081.637024,-153.219100,-814.226536,9992.780217
1081.637340,-306.438199,-1036.288319,9548.656652
1081.637656,-612.876398,-296.082377,9844.739029
1081.637972,-536.266849,-962.267725,9918.759623
1081.638288,-383.047749,-740.205942,10436.903782
1081.638604,0.000000,-888.247130,10732.986159
1081.638920,383.047749,-222.061783,9178.553681
1081.639235,459.657299,222.061783,9030.512492
1081.639551,995.924147,-296.082377,8808.450710
1081.639867,1225.752797,-0.000000,8882.471304
1081.640183,919.314598,296.082377,8808.450710
1081.640499,689.485948,148.041188,8586.388927
1081.640815,1225.752797,-0.000000,9400.615463
1081.641131,1225.752797,-222.061783,9474.636058
1081.641447,995.924147,-74.020594,9252.574275
1081.641762,766.095498,-592.164754,9400.615463
1081.642078,1072.533697,-666.185348,9474.636058
1081.642394,842.705048,-518.144159,9178.553681
1081.642710,229.828649,-592.164754,9770.718434
1081.643026,536.266849,-1554.432478,10288.862594
1081.643342,919.314598,-1480.411884,9992.780217
1081.643658,995.924147,-888.247130,9696.697840
1081.643974,1225.752797,-148.041188,9400.615463
1081.644290,1455.581446,-444.123565,8956.491898
1081.644605,1915.238745,-222.061783,8808.450710
1081.644921,1532.190996,-0.000000,8882.471304
1081.645237,1072.533697,148.041188,9104.533087
1081.645553,995.924147,-296.082377,9548.656652
1081.645869,1225.752797,-444.123565,9696.697840
1081.646185,995.924147,-592.164754,9252.574275
1081.646501,536.266849,-592.164754,9030.512492
1081.646817,306.438199,-1036.288319,9844.739029
1081.647132,306.438199,-1480.411884,10214.842000
1081.647448,0.000000,-1258.350101,10140.821405
1081.647764,0.000000,-1332.370696,10658.965565
1081.648080,0.000000,-1332.370696,10288.862594
1081.648396,459.657299,-444.123565,9400.615463
1081.648712,766.095498,-148.041188,9474.636058
1081.649028,1149.143247,-518.144159,8586.388927
1081.649344,766.095498,222.061783,9104.533087
1081.649660,383.047749,444.123565,8734.430116
1081.649975,153.219100,-222.061783,9178.553681
1081.650291,153.219100,-814.226536,9622.677246
1081.650607,0.000000,-814.226536,9918.759623
1081.650923,-229.828649,-222.061783,9474.636058
1081.651239,-306.438199,-222.061783,9622.677246
1081.651555,-229.828649,-518.144159,9844.739029
1081.651871,-229.828649,-740.205942,9844.739029
1081.652187,-383.047749,-444.123565,9474.636058
1081.652502,-612.876398,-740.205942,9992.780217
1081.652818,0.000000,-962.267725,9992.780217
1081.653134,459.657299,-370.102971,9548.656652
1081.653450,689.485948,-444.123565,8882.471304
1081.653766,766.095498,296.082377,8660.409521
1081.654082,995.924147,370.102971,8290.306550
1081.654398,1072.533697,962.267725,8216.285956
1081.654714,842.705048,1332.370696,8290.306550
1081.655030,612.876398,-0.000000,9474.636058
1081.655345,383.047749,-0.000000,9474.636058
1081.655661,0.000000,370.102971,9252.574275
1081.655977,-459.657299,-74.020594,9400.615463
1081.656293,-459.657299,-518.144159,9474.636058
1081.656609,-383.047749,-444.123565,10584.944971
1081.656925,-766.095498,-0.000000,9548.656652
1081.657241,-536.266849,-0.000000,9844.739029
1081.657557,76.609550,-296.082377,9992.780217
1081.657872,536.266849,296.082377,9548.656652
1081.658188,536.266849,962.267725,9252.574275
1081.658504,842.705048,1184.329507,8660.409521
1081.658820,1302.362347,888.247130,8808.450710
1081.659136,1149.143247,1554.432478,8808.450710
1081.659452,612.876398,1184.329507,8734.430116
1081.659768,536.266849,444.123565,9844.739029
1081.660084,383.047749,592.164754,9474.636058
1081.660400,-383.047749,222.061783,9844.739029
1081.660715,-536.266849,-518.144159,10140.821405
1081.661031,-612.876398,-592.164754,9918.759623
1081.661347,0.000000,-666.185348,10955.047942
1081.661663,-612.876398,-666.185348,10658.965565
1081.661979,-689.485948,-518.144159,10362.883188
1081.662295,0.000000,-740.205942,10436.903782
1081.662611,459.657299,-518.144159,10066.800811
1081.662927,689.485948,-0.000000,9844.739029
1081.663242,1149.143247,518.144159,9326.594869
1081.663558,1685.410096,370.102971,8512.368333
1081.663874,1685.410096,518.144159,8586.388927
1081.664190,1302.362347,296.082377,8956.491898
1081.664506,995.924147,-0.000000,9326.594869
1081.664822,1072.533697,-444.123565,9992.780217
1081.665138,919.314598,-74.020594,9696.697840
1081.665454,459.657299,-148.041188,9696.697840
1081.665770,306.438199,-592.164754,9696.697840
1081.666085,459.657299,-888.247130,9548.656652
1081.666401,383.047749,-1110.308913,9918.759623
1081.666717,76.609550,-962.267725,10214.842000
1081.667033,612.876398,-1184.329507,9992.780217
1081.667349,1072.533697,-1110.308913,10066.800811
1081.667665,1072.533697,-518.144159,9696.697840
1081.667981,1685.410096,-74.020594,9104.533087
1081.668297,1532.190996,-0.000000,8438.347739
1081.668612,1838.629195,222.061783,8586.388927
1081.668928,1532.190996,148.041188,8882.471304
1081.669244,1378.971896,-222.061783,8808.450710
1081.669560,995.924147,-74.020594,9252.574275
1081.669876,919.314598,-740.205942,9548.656652
1081.670192,306.438199,-740.205942,9178.553681
1081.670508,0.000000,-888.247130,9474.636058
1081.670824,76.609550,-1628.453072,9918.759623
1081.671140,-153.219100,-1480.411884,9844.739029
1081.671455,-459.657299,-1110.308913,9844.739029
1081.671771,0.000000,-1406.391290,9992.780217
1081.672087,306.438199,-1406.391290,9622.677246
1081.672403,536.266849,-1258.350101,9474.636058
1081.672719,689.485948,-370.102971,8586.388927
1081.673035,995.924147,-592.164754,8364.327145
1081.673351,995.924147,-148.041188,8660.409521
1081.673667,766.095498,-148.041188,8364.327145
1081.673982,306.438199,-0.000000,8734.430116
1081.674298,0.000000,-666.185348,9252.574275
1081.674614,0.000000,-592.164754,9252.574275
1081.674930,-306.438199,-1036.288319,9474.636058
1081.675246,-536.266849,-1036.288319,9918.759623
1081.675562,-766.095498,-1850.514855,9918.759623
1081.675878,-689.485948,-1554.432478,9918.759623
1081.676194,-842.705048,-1110.308913,9474.636058
1081.676510,-383.047749,-888.247130,9548.656652
1081.676825,612.876398,-296.082377,9770.718434
1081.677141,919.314598,370.102971,9400.615463
1081.677457,766.095498,518.144159,7994.224174
1081.677773,1225.752797,962.267725,8660.409521
1081.678089,1378.971896,814.226536,8364.327145
1081.678405,995.924147,1036.288319,8438.347739
1081.678721,842.705048,1258.350101,8956.491898
1081.679037,459.657299,444.123565,9178.553681
1081.679352,383.047749,740.205942,9400.615463
1081.679668,0.000000,592.164754,9844.739029
1081.679984,0.000000,148.041188,10066.800811
1081.680300,-153.219100,-74.020594,9696.697840
1081.680616,-306.438199,-74.020594,9992.780217
1081.680932,-459.657299,-0.000000,10140.821405
1081.681248,-383.047749,-370.102971,10807.006753
1081.681564,383.047749,-0.000000,10881.027347
1081.681880,842.705048,666.185348,9548.656652
1081.682195,919.314598,1332.370696,9252.574275
1081.682511,1532.190996,1406.391290,9104.533087
1081.682827,1991.848295,1554.432478,9104.533087
1081.683143,1455.581446,1702.473667,8882.471304
1081.683459,1149.143247,1924.535449,9030.512492
1081.683775,536.266849,1184.329507,9474.636058
1081.684091,306.438199,888.247130,9844.739029
1081.684407,0.000000,518.144159,9992.780217
1081.684722,0.000000,592.164754,10066.800811
1081.685038,-536.266849,-592.164754,10066.800811
1081.685354,-766.095498,-1110.308913,10584.944971
1081.685670,-689.485948,-1480.411884,10732.986159
1081.685986,-689.485948,-1554.432478,10732.986159
1081.686302,-383.047749,-1332.370696,10436.903782
1081.686618,0.000000,-296.082377,9770.718434
1081.686934,306.438199,-0.000000,9474.636058
1081.687250,689.485948,296.082377,9178.553681
1081.687565,1378.971896,-0.000000,9030.512492
1081.687881,1608.800546,740.205942,8512.368333
1081.688197,612.876398,444.123565,8142.265362
1081.688513,919.314598,296.082377,8734.430116
1081.688829,842.705048,-222.061783,9474.636058
1081.689145,766.095498,-444.123565,9918.759623
1081.689461,459.657299,-296.082377,9252.574275
1081.689777,0.000000,-814.226536,9178.553681
1081.690092,153.219100,-1110.308913,9918.759623
1081.690408,153.219100,-1332.370696,10288.862594
1081.690724,383.047749,-1332.370696,9918.759623
1081.691040,229.828649,-1184.329507,10066.800811
1081.691356,1302.362347,-1110.308913,9844.739029
1081.691672,1302.362347,-444.123565,8808.450710
1081.691988,1991.848295,-0.000000,8438.347739
1081.692304,1762.019645,296.082377,8216.285956
1081.692619,1915.238745,222.061783,8808.450710
1081.692935,1685.410096,740.205942,8290.306550
1081.693251,1225.752797,370.102971,8660.409521
1081.693567,995.924147,-444.123565,9622.677246
1081.693883,766.095498,-592.164754,9548.656652
1081.694199,459.657299,-666.185348,9178.553681
1081.694515,229.828649,-1332.370696,9400.615463
1081.694831,0.000000,-1776.494261,9770.718434
1081.695147,-689.485948,-2368.659014,10658.965565
1081.695462,0.000000,-2220.617826,10066.800811
1081.695778,-153.219100,-1850.514855,9992.780217
1081.696094,229.828649,-1776.494261,10214.842000
1081.696410,459.657299,-1036.288319,9030.512492
1081.696726,612.876398,-444.123565,8438.347739
1081.697042,995.924147,-444.123565,8512.368333
1081.697358,1302.362347,296.082377,8586.388927
1081.697674,995.924147,222.061783,8364.327145
1081.697989,689.485948,-0.000000,8660.409521
1081.698305,383.047749,-444.123565,9030.512492
1081.698621,0.000000,-1036.288319,9548.656652
1081.698937,0.000000,-1258.350101,9696.697840
1081.699253,-689.485948,-1110.308913,10140.821405
1081.699569,-1225.752797,-1480.411884,9474.636058
1081.699885,-766.095498,-1036.288319,10066.800811
1081.700201,-766.095498,-592.164754,9696.697840
1081.700517,-229.828649,-814.226536,9992.780217
1081.700832,459.657299,-370.102971,9992.780217
1081.701148,689.485948,-74.020594,9474.636058
1081.701464,1302.362347,222.061783,9178.553681
1081.701780,1225.752797,444.123565,8660.409521
1081.702096,1838.629195,888.247130,8586.388927
1081.702412,1455.581446,1702.473667,8660.409521
1081.702728,1072.533697,1998.556043,8438.347739
1081.703044,689.485948,1110.308913,9326.594869
1081.703359,459.657299,1332.370696,10288.862594
1081.703675,306.438199,592.164754,9474.636058
1081.703991,0.000000,370.102971,10362.883188
1081.704307,0.000000,-0.000000,9770.718434
1081.704623,-153.219100,-740.205942,10140.821405
1081.704939,0.000000,-74.020594,10214.842000
1081.705255,-153.219100,-370.102971,10584.944971
1081.705571,-76.609550,-0.000000,10510.924376
1081.705887,766.095498,814.226536,9844.739029
1081.706202,766.095498,1036.288319,8808.450710
1081.706518,919.314598,1480.411884,8882.471304
1081.706834,1225.752797,1332.370696,9030.512492
1081.707150,766.095498,1184.329507,8512.368333
1081.707466,536.266849,1702.473667,9178.553681
1081.707782,0.000000,666.185348,9474.636058
1081.708098,-536.266849,296.082377,9992.780217
1081.708414,-689.485948,222.061783,10214.842000
1081.708729,-1072.533697,-518.144159,9844.739029
1081.709045,-1302.362347,-592.164754,10140.821405
1081.709361,-1455.581446,-370.102971,10288.862594
1081.709677,-1302.362347,-592.164754,10066.800811
1081.709993,-919.314598,-370.102971,10066.800811
1081.710309,0.000000,-888.247130,9918.759623
1081.710625,0.000000,-740.205942,9992.780217
1081.710941,536.266849,296.082377,9178.553681
1081.711257,612.876398,370.102971,8512.368333
1081.711572,919.314598,-0.000000,9104.533087
1081.711888,919.314598,444.123565,9030.512492
1081.712204,612.876398,740.205942,8438.347739
1081.712520,612.876398,666.185348,9178.553681
1081.712836,612.876398,-0.000000,9548.656652
1081.713152,383.047749,-0.000000,9326.594869
1081.713468,76.609550,-296.082377,9548.656652
1081.713784,76.609550,-888.247130,9844.739029
1081.714099,153.219100,-1036.288319,9844.739029
1081.714415,0.000000,-1332.370696,9918.759623
1081.714731,459.657299,-1406.391290,9992.780217
1081.715047,459.657299,-1332.370696,10436.903782
1081.715363,1149.143247,-962.267725,9770.718434
1081.715679,1532.190996,-370.102971,9030.512492
1081.715995,1762.019645,-222.061783,8660.409521
1081.716311,2298.286494,148.041188,8438.347739
1081.716627,2451.505594,-148.041188,8438.347739
1081.716942,1991.848295,-0.000000,8956.491898
1081.717258,1762.019645,-0.000000,8808.450710
1081.717574,1838.629195,-74.020594,9178.553681
1081.717890,1685.410096,-740.205942,9844.739029
1081.718206,842.705048,-444.123565,9622.677246
1081.718522,459.657299,-962.267725,9696.697840
1081.718838,383.047749,-1628.453072,9844.739029
1081.719154,153.219100,-1924.535449,9844.739029
1081.719469,0.000000,-2072.576638,9770.718434
1081.719785,459.657299,-2146.597232,10214.842000
1081.720101,689.485948,-1628.453072,10362.883188
1081.720417,306.438199,-1406.391290,9770.718434
1081.720733,919.314598,-518.144159,9178.553681
1081.721049,919.314598,-518.144159,8734.430116
1081.721365,1072.533697,-148.041188,8734.430116
1081.721681,919.314598,-0.000000,8808.450710
1081.721997,536.266849,-0.000000,8808.450710
1081.722312,689.485948,-518.144159,9622.677246
1081.722628,229.828649,-370.102971,9104.533087
1081.722944,-229.828649,-444.123565,9030.512492
1081.723260,-153.219100,-518.144159,9178.553681
1081.723576,-229.828649,-888.247130,9548.656652
1081.723892,-459.657299,-1184.329507,10140.821405
1081.724208,-612.876398,-1036.288319,9696.697840
1081.724524,-383.047749,-1258.350101,10066.800811
1081.724839,0.000000,-1332.370696,10288.862594
1081.725155,229.828649,-592.164754,9474.636058
1081.725471,766.095498,592.164754,8956.491898
1081.725787,919.314598,666.185348,8956.491898
1081.726103,995.924147,1036.288319,8364.327145
1081.726419,1149.143247,1924.535449,8290.306550
1081.726735,689.485948,1628.453072,8734.430116
1081.727051,612.876398,1258.350101,9474.636058
1081.727367,459.657299,592.164754,9474.636058
1081.727682,229.828649,222.061783,9622.677246
1081.727998,-153.219100,-0.000000,9992.780217
1081.728314,0.000000,-518.144159,10066.800811
1081.728630,-612.876398,-444.123565,10140.821405
1081.728946,-612.876398,-370.102971,10436.903782
1081.729262,-306.438199,74.020594,10510.924376
1081.729578,153.219100,592.164754,9918.759623
1081.729894,459.657299,666.185348,9548.656652
1081.730209,842.705048,888.247130,9252.574275
1081.730522,995.924147,1036.288319,8882.471304
1081.730838,1072.533697,1110.308913,8956.491898
1081.731153,1149.143247,888.247130,9178.553681
1081.731469,536.266849,1184.329507,9548.656652
1081.731785,306.438199,814.226536,9474.636058
1081.732101,383.047749,518.144159,9844.739029
1081.732416,-229.828649,296.082377,9770.718434
1081.732732,-153.219100,-74.020594,9548.656652
1081.733048,-766.095498,-444.123565,10288.862594
1081.733363,-689.485948,-592.164754,10510.924376
1081.733679,-766.095498,-740.205942,10288.862594
1081.733995,-689.485948,-296.082377,10436.903782
1081.734311,0.000000,-740.205942,10362.883188
1081.734626,306.438199,-592.164754,9992.780217
1081.734942,229.828649,-0.000000,9474.636058
1081.735258,766.095498,148.041188,8882.471304
1081.735573,1225.752797,370.102971,9104.533087
1081.735889,1072.533697,1184.329507,8660.409521
1081.736205,842.705048,1332.370696,9252.574275
1081.736521,919.314598,444.123565,9548.656652
1081.736836,919.314598,296.082377,9252.574275
1081.737152,459.657299,-0.000000,9400.615463
1081.737468,612.876398,-888.247130,9918.759623
1081.737783,383.047749,-1036.288319,9844.739029
1081.738099,459.657299,-1110.308913,9844.739029
1081.738415,-306.438199,-1258.350101,9400.615463
1081.738730,229.828649,-962.267725,10066.800811
1081.739046,689.485948,-1184.329507,10140.821405
1081.739362,995.924147,-1184.329507,9474.636058
1081.739678,1302.362347,-518.144159,9548.656652
1081.739993,1608.800546,-518.144159,8808.450710
1081.740309,1915.238745,-592.164754,8734.430116
1081.740625,1685.410096,-148.041188,8290.306550
1081.740940,1685.410096,-0.000000,8734.430116
1081.741256,1608.800546,222.061783,9104.533087
1081.741572,1149.143247,-148.041188,9252.574275
1081.741888,1149.143247,-666.185348,8956.491898
1081.742203,689.485948,-814.226536,8956.491898
1081.742519,153.219100,-1628.453072,9770.718434
1081.742835,0.000000,-1850.514855,9548.656652
1081.743150,0.000000,-1702.473667,9696.697840
1081.743466,-306.438199,-1554.432478,9622.677246
1081.743782,0.000000,-1776.494261,10140.821405
1081.744098,153.219100,-1776.494261,9918.759623
1081.744413,76.609550,-740.205942,8882.471304
1081.744729,612.876398,-1110.308913,8808.450710
1081.745045,842.705048,-1258.350101,8808.450710
1081.745360,612.876398,-814.226536,9104.533087
1081.745676,383.047749,-148.041188,9030.512492
1081.745992,76.609550,-0.000000,8734.430116
1081.746308,76.609550,222.061783,8660.409521
1081.746623,76.609550,148.041188,8956.491898
1081.746939,-229.828649,-370.102971,9178.553681
1081.747255,0.000000,-888.247130,9770.718434
1081.747570,0.000000,-1184.329507,9548.656652
1081.747886,-536.266849,-1110.308913,9844.739029
1081.748202,-766.095498,-1406.391290,9918.759623
1081.748518,-536.266849,-1110.308913,9992.780217
1081.748833,76.609550,-296.082377,9992.780217
1081.749149,306.438199,370.102971,9326.594869
1081.749465,612.876398,518.144159,9178.553681
1081.749780,995.924147,444.123565,8956.491898
1081.750096,1072.533697,666.185348,8808.450710
1081.750412,842.705048,592.164754,9178.553681
1081.750728,842.705048,888.247130,9178.553681
1081.751043,1072.533697,666.185348,9474.636058
1081.751359,842.705048,592.164754,9992.780217
1081.751675,612.876398,1258.350101,9400.615463
1081.751990,306.438199,740.205942,9252.574275
1081.752306,459.657299,740.205942,9770.718434
1081.752622,76.609550,-0.000000,10140.821405
1081.752937,153.219100,-0.000000,10214.842000
1081.753253,153.219100,-0.000000,10362.883188
1081.753569,459.657299,-222.061783,10510.924376
1081.753885,995.924147,592.164754,10288.862594
1081.754200,1072.533697,1406.391290,9252.574275
1081.754516,459.657299,1332.370696,8956.491898
1081.754832,689.485948,962.267725,9252.574275
1081.755147,459.657299,740.205942,9474.636058
1081.755463,306.438199,666.185348,9548.656652
1081.755779,0.000000,296.082377,10140.821405
1081.756095,0.000000,296.082377,9992.780217
1081.756410,0.000000,814.226536,9622.677246
1081.756726,0.000000,296.082377,9252.574275
1081.757042,76.609550,-222.061783,10362.883188
1081.757357,459.657299,-370.102971,10140.821405
1081.757673,-383.047749,-296.082377,9252.574275
1081.757989,-76.609550,-444.123565,10140.821405
1081.758305,0.000000,-518.144159,10288.862594
1081.758620,536.266849,-370.102971,9474.636058
1081.758936,842.705048,-0.000000,8956.491898
1081.759252,536.266849,-0.000000,9104.533087
1081.759567,766.095498,-222.061783,9104.533087
1081.759883,1378.971896,-0.000000,9326.594869
1081.760199,995.924147,592.164754,9178.553681
1081.760515,689.485948,296.082377,9844.739029
1081.760830,1072.533697,-74.020594,9622.677246
1081.761146,306.438199,-222.061783,9178.553681
1081.761462,153.219100,-74.020594,9326.594869
1081.761777,306.438199,-592.164754,9770.718434
1081.762093,459.657299,-1036.288319,9992.780217
1081.762409,0.000000,-74.020594,9770.718434
1081.762725,76.609550,-296.082377,9992.780217
1081.763040,995.924147,-888.247130,9992.780217
1081.763356,689.485948,-666.185348,9696.697840
1081.763672,995.924147,-1110.308913,9178.553681
1081.763987,995.924147,-814.226536,9030.512492
1081.764303,1302.362347,-1184.329507,8956.491898
1081.764619,1225.752797,-0.000000,8882.471304
1081.764935,995.924147,-0.000000,8882.471304
1081.765250,766.095498,-296.082377,9178.553681
1081.765566,842.705048,-444.123565,9104.533087
1081.765882,459.657299,-814.226536,9548.656652
1081.766197,536.266849,-1036.288319,9474.636058
1081.766513,229.828649,-1554.432478,9400.615463
1081.766829,536.266849,-1554.432478,9844.739029
1081.767145,0.000000,-1554.432478,9474.636058
1081.767460,-229.828649,-1628.453072,9548.656652
1081.767776,76.609550,-1406.391290,9992.780217
1081.768092,612.876398,-1776.494261,9844.739029
1081.768407,229.828649,-814.226536,9474.636058
1081.768723,76.609550,-740.205942,9030.512492
1081.769039,536.266849,-740.205942,8734.430116
1081.769354,536.266849,-296.082377,9326.594869
1081.769670,689.485948,-0.000000,8734.430116
1081.769986,229.828649,-0.000000,8882.471304
1081.770302,0.000000,-296.082377,9474.636058
1081.770617,0.000000,-296.082377,9104.533087
1081.770933,-153.219100,-444.123565,9400.615463
1081.771249,-459.657299,-666.185348,9770.718434
1081.771564,-153.219100,-666.185348,9696.697840
1081.771880,-153.219100,-444.123565,9770.718434
1081.772196,0.000000,-222.061783,9474.636058
1081.772512,0.000000,-148.041188,9770.718434
1081.772827,229.828649,-370.102971,9918.759623
1081.773143,536.266849,-0.000000,9622.677246
1081.773459,612.876398,296.082377,8956.491898
1081.773774,995.924147,592.164754,9178.553681
1081.774090,1225.752797,814.226536,8882.471304
1081.774406,919.314598,1036.288319,9104.533087
1081.774722,919.314598,1184.329507,9326.594869
1081.775037,612.876398,740.205942,9548.656652
1081.775353,919.314598,592.164754,10066.800811
1081.775669,459.657299,-0.000000,9770.718434
1081.775984,459.657299,222.061783,9622.677246
1081.776300,459.657299,-0.000000,10288.862594
1081.776616,229.828649,-0.000000,10066.800811
1081.776932,383.047749,518.144159,9770.718434
1081.777247,612.876398,-148.041188,10140.821405
1081.777563,306.438199,296.082377,10436.903782
1081.777879,995.924147,1036.288319,9992.780217
1081.778194,383.047749,888.247130,8956.491898
1081.778510,1149.143247,592.164754,9104.533087
1081.778826,766.095498,444.123565,9696.697840
1081.779142,919.314598,518.144159,9400.615463
1081.779457,76.609550,814.226536,9622.677246
1081.779773,76.609550,814.226536,9918.759623
1081.780089,153.219100,296.082377,9622.677246
1081.780404,153.219100,-0.000000,9622.677246
1081.780720,-306.438199,296.082377,9622.677246
1081.781036,0.000000,-370.102971,9622.677246
1081.781352,-383.047749,-222.061783,9622.677246
1081.781667,-842.705048,-0.000000,9992.780217
1081.781983,-766.095498,-518.144159,10658.965565
1081.782299,-459.657299,-148.041188,9622.677246
1081.782614,-306.438199,-0.000000,9622.677246
1081.782930,-612.876398,-222.061783,9326.594869
1081.783246,0.000000,-740.205942,9548.656652
1081.783561,229.828649,-518.144159,9178.553681
1081.783877,229.828649,-0.000000,9326.594869
1081.784193,0.000000,-0.000000,9400.615463
1081.784509,229.828649,370.102971,9178.553681
1081.784824,459.657299,222.061783,9030.512492
1081.785140,459.657299,-0.000000,9548.656652
1081.785456,459.657299,-74.020594,9474.636058
1081.785771,536.266849,-444.123565,8660.409521
1081.786087,459.657299,-370.102971,9178.553681
1081.786403,842.705048,-888.247130,9400.615463
1081.786719,919.314598,-814.226536,9326.594869
1081.787034,1302.362347,-444.123565,9252.574275
1081.787350,1225.752797,-518.144159,9178.553681
1081.787666,1225.752797,-518.144159,9400.615463
1081.787981,919.314598,-518.144159,9474.636058
1081.788297,1072.533697,-814.226536,9400.615463
1081.788613,995.924147,-592.164754,9474.636058
1081.788929,536.266849,-518.144159,9030.512492
1081.789244,842.705048,-814.226536,9474.636058
1081.789560,1149.143247,-962.267725,10140.821405
1081.789876,842.705048,-962.267725,9548.656652
1081.790191,766.095498,-444.123565,8734.430116
1081.790507,612.876398,-814.226536,9400.615463
1081.790823,1072.533697,-1702.473667,9770.718434
1081.791139,689.485948,-1332.370696,9622.677246
1081.791454,459.657299,-1332.370696,9844.739029
1081.791770,689.485948,-1332.370696,9770.718434
1081.792086,995.924147,-1184.329507,9548.656652
1081.792401,1302.362347,-888.247130,9030.512492
1081.792717,1608.800546,-370.102971,8882.471304
1081.793033,1455.581446,-370.102971,8808.450710
1081.793349,1838.629195,-74.020594,8956.491898
1081.793664,1149.143247,-222.061783,8512.368333
1081.793980,536.266849,-296.082377,9474.636058
1081.794296,459.657299,-1036.288319,9770.718434
1081.794611,153.219100,-814.226536,9770.718434
1081.794927,153.219100,-444.123565,9474.636058
1081.795243,0.000000,-740.205942,9696.697840
1081.795559,0.000000,-814.226536,9326.594869
1081.795874,153.219100,-296.082377,9918.759623
1081.796190,-306.438199,-296.082377,9992.780217
1081.796506,76.609550,-370.102971,9918.759623
1081.796821,229.828649,-0.000000,9030.512492
1081.797137,383.047749,370.102971,9178.553681
1081.797453,612.876398,-370.102971,9252.574275
1081.797768,689.485948,-370.102971,9326.594869
1081.798084,1072.533697,-0.000000,9326.594869
1081.798400,1149.143247,666.185348,9326.594869
1081.798716,766.095498,1036.288319,8364.327145
1081.799031,1302.362347,814.226536,9400.615463
1081.799347,1225.752797,592.164754,9400.615463
1081.799663,612.876398,740.205942,9326.594869
1081.799978,459.657299,-0.000000,9696.697840
1081.800294,536.266849,-74.020594,9622.677246
1081.800610,0.000000,-296.082377,9696.697840
1081.800926,-229.828649,-0.000000,9918.759623
1081.801241,383.047749,296.082377,9918.759623
1081.801557,0.000000,222.061783,9992.780217
1081.801873,153.219100,370.102971,9844.739029
1081.802188,0.000000,-148.041188,9400.615463
1081.802504,153.219100,148.041188,9104.533087
1081.802820,76.609550,444.123565,9178.553681
1081.803136,0.000000,296.082377,9178.553681
1081.803451,-229.828649,370.102971,9326.594869
1081.803767,-229.828649,370.102971,9696.697840
1081.804083,-306.438199,370.102971,9400.615463
1081.804398,-383.047749,296.082377,9326.594869
1081.804714,-919.314598,-222.061783,9326.594869
1081.805030,-612.876398,-592.164754,9844.739029
1081.805346,-766.095498,-518.144159,9770.718434
1081.805661,-1149.143247,-592.164754,9918.759623
1081.805977,-842.705048,-444.123565,10362.883188
1081.806293,-536.266849,-370.102971,10436.903782
1081.806608,0.000000,-296.082377,9918.759623
1081.806924,-459.657299,518.144159,8956.491898
1081.807240,0.000000,222.061783,9030.512492
1081.807556,536.266849,-0.000000,9548.656652
1081.807871,229.828649,296.082377,8956.491898
1081.808187,0.000000,370.102971,9844.739029
1081.808503,229.828649,-444.123565,9992.780217
1081.808818,766.095498,-0.000000,9474.636058
1081.809134,842.705048,814.226536,9104.533087
1081.809450,766.095498,518.144159,8956.491898
1081.809766,1072.533697,-518.144159,9474.636058
1081.810081,1225.752797,-444.123565,9400.615463
1081.810397,995.924147,-296.082377,9474.636058
1081.810713,842.705048,-296.082377,9548.656652
1081.811028,1378.971896,-444.123565,10214.842000
1081.811344,1455.581446,-814.226536,9696.697840
1081.811660,1225.752797,-592.164754,9252.574275
1081.811976,1302.362347,-74.020594,9474.636058
1081.812291,1838.629195,-296.082377,9178.553681
1081.812607,1455.581446,-74.020594,8808.450710
1081.812923,1149.143247,-148.041188,9104.533087
1081.813238,1225.752797,-296.082377,9622.677246
1081.813554,1302.362347,-444.123565,9474.636058
1081.813870,995.924147,-222.061783,9696.697840
1081.814185,689.485948,-814.226536,9696.697840
1081.814501,842.705048,-1702.473667,9474.636058
1081.814817,1225.752797,-1554.432478,9696.697840
1081.815133,689.485948,-1036.288319,9696.697840
1081.815448,842.705048,-1036.288319,10066.800811
1081.815764,995.924147,-1036.288319,10362.883188
1081.816080,1378.971896,-814.226536,9474.636058
1081.816395,612.876398,-296.082377,8808.450710
1081.816711,1072.533697,-592.164754,9474.636058
1081.817027,766.095498,-814.226536,9252.574275
1081.817343,612.876398,296.082377,9326.594869
1081.817658,383.047749,-148.041188,9326.594869
1081.817974,306.438199,-518.144159,9030.512492
1081.818290,0.000000,-518.144159,9474.636058
1081.818605,0.000000,-888.247130,9326.594869
1081.818921,0.000000,-1258.350101,9770.718434
1081.819237,-612.876398,-1258.350101,9696.697840
1081.819553,-536.266849,-1184.329507,9474.636058
1081.819868,-612.876398,-740.205942,9844.739029
1081.820184,-612.876398,-444.123565,9770.718434
1081.820500,-383.047749,-222.061783,9548.656652
1081.820815,383.047749,-0.000000,9474.636058
1081.821131,306.438199,-0.000000,8364.327145
1081.821447,383.047749,148.041188,8808.450710
1081.821763,766.095498,-74.020594,8734.430116
1081.822078,1762.019645,-148.041188,8882.471304
1081.822394,612.876398,518.144159,9252.574275
1081.822710,153.219100,592.164754,8956.491898
1081.823025,306.438199,592.164754,9326.594869
1081.823341,689.485948,370.102971,9252.574275
1081.823657,-459.657299,296.082377,9400.615463
1081.823973,306.438199,370.102971,9548.656652
1081.824288,229.828649,-148.041188,9474.636058
1081.824604,229.828649,148.041188,9474.636058
1081.824920,76.609550,-148.041188,9696.697840
1081.825235,689.485948,-296.082377,9992.780217
1081.825551,536.266849,518.144159,9770.718434
1081.825867,842.705048,740.205942,9474.636058
1081.826183,919.314598,740.205942,9252.574275
1081.826498,842.705048,444.123565,8808.450710
1081.826814,1455.581446,962.267725,9474.636058
1081.827130,842.705048,740.205942,9104.533087
1081.827445,689.485948,592.164754,9918.759623
1081.827761,306.438199,592.164754,10066.800811
1081.828077,229.828649,666.185348,9326.594869
1081.828392,229.828649,518.144159,9696.697840
1081.828708,-229.828649,370.102971,9474.636058
1081.829024,-229.828649,-740.205942,9918.759623
1081.829340,-153.219100,-740.205942,9992.780217
1081.829655,-1149.143247,-592.164754,10584.944971
1081.829971,-536.266849,-370.102971,10436.903782
1081.830287,-306.438199,-518.144159,10288.862594
1081.830602,0.000000,-148.041188,9548.656652
1081.830918,0.000000,222.061783,9400.615463
1081.831234,459.657299,-0.000000,9326.594869
1081.831550,842.705048,-74.020594,9252.574275
1081.831865,459.657299,-74.020594,9400.615463
1081.832181,383.047749,-0.000000,9474.636058
1081.832497,612.876398,-0.000000,9696.697840
1081.832812,612.876398,222.061783,9548.656652
1081.833128,612.876398,444.123565,9844.739029
1081.833444,536.266849,370.102971,9400.615463
1081.833760,842.705048,-0.000000,9326.594869
1081.834075,766.095498,-296.082377,9252.574275
1081.834391,919.314598,-1184.329507,9474.636058
1081.834707,689.485948,-1110.308913,10214.842000
1081.835022,919.314598,-1554.432478,10658.965565
1081.835338,1149.143247,-814.226536,9622.677246
1081.835654,919.314598,-370.102971,8808.450710
1081.835970,1532.190996,-0.000000,9030.512492
1081.836285,1838.629195,222.061783,8882.471304
1081.836601,1225.752797,-0.000000,8364.327145
1081.836917,919.314598,-0.000000,9104.533087
1081.837232,1149.143247,-740.205942,9474.636058
1081.837548,1225.752797,-888.247130,9474.636058
1081.837864,842.705048,-592.164754,9326.594869
1081.838180,76.609550,-1184.329507,9252.574275
1081.838495,0.000000,-1554.432478,9400.615463
1081.838811,153.219100,-1924.535449,9326.594869
1081.839127,0.000000,-1776.494261,9548.656652
1081.839442,-229.828649,-1332.370696,10362.883188
1081.839758,306.438199,-962.267725,9474.636058
1081.840074,306.438199,-962.267725,9104.533087
1081.840390,229.828649,-740.205942,9252.574275
1081.840705,536.266849,-74.020594,8882.471304
1081.841021,306.438199,-0.000000,8364.327145
1081.841337,459.657299,-592.164754,8586.388927
1081.841652,-229.828649,-814.226536,9474.636058
1081.841968,0.000000,-740.205942,9474.636058
1081.842284,0.000000,-814.226536,9696.697840
1081.842599,0.000000,-518.144159,9622.677246
1081.842915,-153.219100,-666.185348,9474.636058
1081.843231,-229.828649,-370.102971,9474.636058
1081.843547,0.000000,-666.185348,9548.656652
1081.843862,-229.828649,-222.061783,9474.636058
1081.844178,0.000000,-0.000000,9178.553681
1081.844494,229.828649,-296.082377,9696.697840
1081.844809,459.657299,-370.102971,9918.759623
1081.845125,383.047749,-0.000000,9474.636058
1081.845441,766.095498,-0.000000,8956.491898
1081.845757,1072.533697,444.123565,9400.615463
1081.846072,1378.971896,814.226536,8882.471304
1081.846388,1225.752797,1110.308913,8882.471304
1081.846704,995.924147,888.247130,9474.636058
1081.847019,1149.143247,592.164754,9770.718434
1081.847335,1302.362347,740.205942,9918.759623
1081.847651,689.485948,814.226536,9252.574275
1081.847967,1072.533697,148.041188,9400.615463
1081.848282,1378.971896,-0.000000,9622.677246
1081.848598,459.657299,518.144159,9474.636058
1081.848914,0.000000,296.082377,10288.862594
1081.849229,306.438199,-148.041188,10436.903782
1081.849545,536.266849,222.061783,10140.821405
1081.849861,689.485948,1036.288319,9770.718434
1081.850177,612.876398,1406.391290,9252.574275
1081.850492,766.095498,1184.329507,9104.533087
1081.850808,1149.143247,814.226536,9104.533087
1081.851124,536.266849,666.185348,9030.512492
1081.851439,0.000000,1036.288319,9548.656652
1081.851755,153.219100,444.123565,9770.718434
1081.852071,-229.828649,592.164754,9622.677246
1081.852387,-689.485948,518.144159,9918.759623
1081.852702,-766.095498,-0.000000,10140.821405
1081.853018,-689.485948,-370.102971,10066.800811
1081.853334,-919.314598,-222.061783,10362.883188
1081.853649,-1072.533697,-518.144159,10584.944971
1081.853965,-766.095498,-666.185348,10881.027347
1081.854281,-229.828649,-148.041188,10140.821405
1081.854597,229.828649,296.082377,9548.656652
1081.854912,842.705048,296.082377,9474.636058
1081.855228,842.705048,-0.000000,9104.533087
1081.855544,1302.362347,592.164754,8882.471304
1081.855859,842.705048,740.205942,8660.409521
1081.856175,383.047749,518.144159,9178.553681
1081.856491,612.876398,370.102971,9474.636058
1081.856807,612.876398,666.185348,9474.636058
1081.857122,153.219100,-148.041188,9400.615463
1081.857438,0.000000,-962.267725,9548.656652
1081.857754,383.047749,-1258.350101,10214.842000
1081.858069,229.828649,-1258.350101,9622.677246
1081.858385,153.219100,-1036.288319,9696.697840
1081.858701,383.047749,-1258.350101,9844.739029
1081.859016,766.095498,-1184.329507,9918.759623
1081.859332,995.924147,-370.102971,9252.574275
1081.859648,536.266849,-0.000000,8512.368333
1081.859964,1378.971896,-518.144159,8734.430116
1081.860279,1378.971896,-666.185348,8808.450710
1081.860595,1532.190996,-148.041188,8364.327145
1081.860911,1149.143247,-444.123565,8734.430116
1081.861226,1225.752797,-962.267725,9252.574275
1081.861542,1378.971896,-1036.288319,9622.677246
1081.861858,919.314598,-1036.288319,8956.491898
1081.862174,536.266849,-666.185348,8956.491898
1081.862489,76.609550,-1554.432478,9844.739029
1081.862805,153.219100,-1924.535449,9844.739029
1081.863121,0.000000,-1332.370696,9696.697840
1081.863436,0.000000,-1332.370696,9178.553681
1081.863752,612.876398,-1406.391290,9918.759623
1081.864068,919.314598,-1480.411884,9622.677246
1081.864384,306.438199,-888.247130,9030.512492
1081.864699,1072.533697,-592.164754,8808.450710
1081.865015,1378.971896,-370.102971,8586.388927
1081.865331,919.314598,-370.102971,8882.471304
1081.865646,459.657299,-148.041188,9104.533087
1081.865962,383.047749,-0.000000,9474.636058
1081.866278,536.266849,-370.102971,9770.718434
1081.866594,306.438199,-518.144159,9474.636058
1081.866909,76.609550,-888.247130,9178.553681
1081.867225,0.000000,-1110.308913,9622.677246
1081.867541,459.657299,-1036.288319,9992.780217
1081.867856,383.047749,-1036.288319,9844.739029
1081.868172,-153.219100,-592.164754,9770.718434
1081.868488,306.438199,-148.041188,9696.697840
1081.868804,766.095498,444.123565,9326.594869
1081.869119,995.924147,592.164754,8956.491898
1081.869435,919.314598,666.185348,9622.677246
1081.869751,1455.581446,370.102971,9030.512492
1081.870066,1149.143247,666.185348,8956.491898
1081.870382,842.705048,740.205942,9030.512492
1081.870698,612.876398,222.061783,9622.677246
1081.871014,383.047749,666.185348,9770.718434
1081.871329,383.047749,888.247130,9622.677246
1081.871645,229.828649,888.247130,9326.594869
1081.871961,-383.047749,296.082377,9992.780217
1081.872276,0.000000,-0.000000,10140.821405
1081.872592,76.609550,-148.041188,9918.759623
1081.872908,153.219100,518.144159,9770.718434
1081.873224,229.828649,296.082377,9992.780217
1081.873539,766.095498,222.061783,9622.677246
1081.873855,919.314598,666.185348,9548.656652
1081.874171,1225.752797,1480.411884,9178.553681
1081.874486,919.314598,814.226536,8660.409521
1081.874802,459.657299,518.144159,9104.533087
1081.875118,306.438199,592.164754,9770.718434
1081.875433,0.000000,666.185348,9696.697840
1081.875749,0.000000,962.267725,9474.636058
1081.876065,-383.047749,370.102971,9696.697840
1081.876381,-306.438199,-0.000000,9918.759623
1081.876696,-689.485948,-740.205942,9918.759623
1081.877012,-766.095498,-962.267725,10584.944971
1081.877328,-1072.533697,-888.247130,10214.842000
1081.877643,-459.657299,-518.144159,10288.862594
1081.877959,0.000000,-148.041188,9844.739029
1081.878275,153.219100,-148.041188,10066.800811
1081.878591,0.000000,296.082377,9622.677246
1081.878906,383.047749,444.123565,8660.409521
1081.879222,766.095498,370.102971,8586.388927
1081.879538,995.924147,370.102971,9178.553681
1081.879853,536.266849,222.061783,8586.388927
1081.880169,76.609550,-0.000000,9178.553681
1081.880485,229.828649,-592.164754,9770.718434
1081.880801,153.219100,-444.123565,9622.677246
1081.881116,0.000000,148.041188,9030.512492
1081.881432,0.000000,-444.123565,9326.594869
1081.881748,0.000000,-888.247130,10362.883188
1081.882063,0.000000,-888.247130,9474.636058
1081.882379,0.000000,-666.185348,9474.636058
1081.882695,306.438199,-1184.329507,10214.842000
1081.883011,229.828649,-1332.370696,9770.718434
1081.883326,995.924147,-148.041188,8882.471304
1081.883642,1378.971896,-296.082377,8808.450710
1081.883958,1762.019645,-592.164754,8882.471304
1081.884273,1685.410096,-148.041188,8882.471304
1081.884589,1302.362347,222.061783,8438.347739
1081.884905,1072.533697,-148.041188,8956.491898
1081.885221,766.095498,-518.144159,9252.574275
1081.885536,1072.533697,-666.185348,9400.615463
1081.885852,1072.533697,-1036.288319,9622.677246
1081.886168,612.876398,-1258.350101,9326.594869
1081.886483,612.876398,-1258.350101,9844.739029
1081.886799,612.876398,-1924.535449,9548.656652
1081.887115,153.219100,-1628.453072,9918.759623
1081.887431,306.438199,-1406.391290,10214.842000
1081.887746,459.657299,-1628.453072,9844.739029
1081.888062,1072.533697,-962.267725,9918.759623
1081.888378,766.095498,-740.205942,9252.574275
1081.888693,1072.533697,-222.061783,8734.430116
1081.889009,1455.581446,-370.102971,9030.512492
1081.889325,1302.362347,-0.000000,8882.471304
1081.889640,612.876398,222.061783,9252.574275
1081.889956,536.266849,-518.144159,9400.615463
1081.890272,459.657299,-518.144159,9622.677246
1081.890588,76.609550,-518.144159,9548.656652
1081.890903,-383.047749,-592.164754,9474.636058
1081.891219,0.000000,-666.185348,9992.780217
1081.891535,76.609550,-888.247130,9770.718434
1081.891850,0.000000,-518.144159,9992.780217
1081.892166,-383.047749,-1036.288319,10584.944971
1081.892482,153.219100,-740.205942,9696.697840
1081.892798,842.705048,296.082377,9770.718434
1081.893113,919.314598,444.123565,8586.388927
1081.893429,1532.190996,962.267725,8882.471304
1081.893745,1762.019645,1110.308913,8734.430116
1081.894060,1225.752797,1258.350101,8586.388927
1081.894376,919.314598,1184.329507,8808.450710
1081.894692,536.266849,666.185348,8734.430116
1081.895008,919.314598,-0.000000,10066.800811
1081.895323,0.000000,296.082377,9622.677246
1081.895639,0.000000,148.041188,9548.656652
1081.895955,-229.828649,-0.000000,9696.697840
1081.896270,-459.657299,-740.205942,10436.903782
1081.896586,-459.657299,-444.123565,10510.924376
1081.896902,-536.266849,222.061783,10140.821405
1081.897218,229.828649,-0.000000,10214.842000
1081.897533,459.657299,-0.000000,10066.800811
1081.897849,689.485948,666.185348,9252.574275
1081.898165,1072.533697,444.123565,8882.471304
1081.898480,1225.752797,740.205942,8882.471304
1081.898796,1225.752797,962.267725,8586.388927
1081.899112,842.705048,1554.432478,8956.491898
1081.899428,153.219100,888.247130,9178.553681
1081.899743,-459.657299,444.123565,9844.739029
1081.900059,-383.047749,148.041188,9770.718434
1081.900375,-919.314598,-0.000000,9918.759623
1081.900690,-1072.533697,-814.226536,10362.883188
1081.901006,-1149.143247,-888.247130,10362.883188
1081.901322,-689.485948,-370.102971,10510.924376
1081.901638,-1302.362347,-1184.329507,10510.924376
1081.901953,-766.095498,-666.185348,10658.965565
1081.902269,-229.828649,-222.061783,9918.759623
1081.902585,0.000000,-74.020594,9400.615463
1081.902900,153.219100,-0.000000,9178.553681
1081.903216,919.314598,666.185348,9030.512492
1081.903532,1149.143247,962.267725,8068.244768
1081.903848,1149.143247,740.205942,8586.388927
1081.904163,766.095498,-0.000000,9474.636058
1081.904479,919.314598,148.041188,9474.636058
1081.904795,459.657299,-74.020594,9104.533087
1081.905110,153.219100,-74.020594,9696.697840
1081.905426,0.000000,-888.247130,9992.780217
1081.905742,76.609550,-962.267725,9992.780217
1081.906057,383.047749,-1332.370696,9770.718434
1081.906373,306.438199,-888.247130,9548.656652
1081.906689,612.876398,-888.247130,9622.677246
1081.907005,1225.752797,-740.205942,9252.574275
1081.907320,1608.800546,-296.082377,9252.574275
1081.907636,1838.629195,-296.082377,8882.471304
1081.907952,1685.410096,-666.185348,8956.491898
1081.908267,1838.629195,-74.020594,8808.450710
1081.908583,1455.581446,518.144159,8734.430116
1081.908899,1378.971896,444.123565,8734.430116
1081.909215,842.705048,-148.041188,8882.471304
1081.909530,919.314598,-518.144159,9474.636058
1081.909846,536.266849,-518.144159,9178.553681
1081.910162,0.000000,-1110.308913,9252.574275
1081.910477,459.657299,-1480.411884,10140.821405
1081.910793,76.609550,-1702.473667,9992.780217
1081.911109,153.219100,-1332.370696,9918.759623
1081.911425,76.609550,-1110.308913,10214.842000
1081.911740,536.266849,-1332.370696,9770.718434
1081.912056,1149.143247,-740.205942,9400.615463
1081.912372,995.924147,-148.041188,8956.491898
1081.912687,842.705048,-148.041188,8734.430116
1081.913003,1225.752797,-0.000000,8808.450710
1081.913319,689.485948,-0.000000,8216.285956
1081.913635,459.657299,296.082377,9178.553681
1081.913950,459.657299,-222.061783,9548.656652
1081.914266,-153.219100,-592.164754,9252.574275
1081.914582,-689.485948,-740.205942,9622.677246
1081.914897,-842.705048,-1258.350101,10066.800811
1081.915213,-689.485948,-1924.535449,10214.842000
1081.915529,-689.485948,-1554.432478,10881.027347
1081.915845,-536.266849,-444.123565,9696.697840
1081.916160,-153.219100,148.041188,9474.636058
1081.916476,459.657299,-0.000000,9622.677246
1081.916792,1072.533697,148.041188,9030.512492
1081.917107,1072.533697,666.185348,8438.347739
1081.917423,1149.143247,592.164754,8438.347739
1081.917739,1149.143247,370.102971,8956.491898
1081.918055,1149.143247,518.144159,8882.471304
1081.918370,1149.143247,888.247130,8808.450710
1081.918686,766.095498,962.267725,9474.636058
1081.919002,153.219100,518.144159,9992.780217
1081.919317,229.828649,370.102971,9474.636058
1081.919633,0.000000,296.082377,10066.800811
1081.919949,153.219100,-370.102971,10510.924376
1081.920264,306.438199,-666.185348,10288.862594
1081.920580,76.609550,-222.061783,9992.780217
1081.920896,229.828649,-74.020594,10362.883188
1081.921212,689.485948,444.123565,10066.800811
1081.921527,1072.533697,518.144159,9770.718434
1081.921843,842.705048,296.082377,9474.636058
1081.922159,995.924147,740.205942,8956.491898
1081.922474,1455.581446,1110.308913,8956.491898
1081.922790,1838.629195,962.267725,8882.471304
1081.923106,919.314598,962.267725,9326.594869
1081.923422,306.438199,1036.288319,9178.553681
1081.923737,459.657299,666.185348,9474.636058
1081.924053,-459.657299,-0.000000,9548.656652
1081.924369,-1149.143247,-1406.391290,10732.986159
1081.924684,-995.924147,-1850.514855,10510.924376
1081.925000,-1302.362347,-1628.453072,10807.006753
1081.925316,-1072.533697,-1258.350101,10288.862594
1081.925632,-1149.143247,-962.267725,9770.718434
1081.925947,-459.657299,-666.185348,9696.697840
1081.926263,459.657299,-74.020594,9770.718434
1081.926579,919.314598,148.041188,8734.430116
1081.926894,919.314598,518.144159,8660.409521
1081.927210,1072.533697,296.082377,8882.471304
1081.927526,1072.533697,370.102971,8438.347739
1081.927842,1378.971896,1110.308913,7624.121203
1081.928157,1149.143247,814.226536,8438.347739
1081.928473,536.266849,-0.000000,9622.677246
1081.928789,76.609550,-888.247130,9696.697840
1081.929104,-459.657299,-814.226536,10362.883188
1081.929420,-536.266849,-1332.370696,10066.800811
1081.929736,229.828649,-1554.432478,10140.821405
1081.930052,229.828649,-814.226536,9992.780217
1081.930367,0.000000,-444.123565,9548.656652
1081.930683,919.314598,-666.185348,9918.759623
1081.930999,919.314598,-444.123565,9548.656652
1081.931314,842.705048,-148.041188,8956.491898
1081.931630,1685.410096,-222.061783,8808.450710
1081.931946,1455.581446,-444.123565,8586.388927
1081.932262,1608.800546,-148.041188,8660.409521
1081.932577,1762.019645,-148.041188,8956.491898
1081.932893,1302.362347,-148.041188,8882.471304
1081.933209,689.485948,-370.102971,9252.574275
1081.933525,689.485948,-666.185348,9400.615463
1081.933840,0.000000,-814.226536,9696.697840
1081.934156,0.000000,-1184.329507,9918.759623
1081.934472,0.000000,-1628.453072,9918.759623
1081.934788,76.609550,-1628.453072,10140.821405
1081.935104,-766.095498,-2368.659014,10510.924376
1081.935419,0.000000,-1702.473667,10214.842000
1081.935735,459.657299,-962.267725,9622.677246
1081.936051,1225.752797,-962.267725,9474.636058
1081.936367,1149.143247,-148.041188,8734.430116
1081.936683,1532.190996,-0.000000,9030.512492
1081.936998,1608.800546,222.061783,9252.574275
1081.937314,1455.581446,370.102971,8512.368333
1081.937630,689.485948,370.102971,9030.512492
1081.937946,459.657299,-0.000000,9400.615463
1081.938261,0.000000,-370.102971,9696.697840
1081.938577,-612.876398,-740.205942,9696.697840
1081.938893,-612.876398,-962.267725,9992.780217
1081.939209,-459.657299,-1406.391290,10140.821405
1081.939525,-766.095498,-1036.288319,9696.697840
1081.939840,-306.438199,-296.082377,9548.656652
1081.940156,0.000000,-296.082377,9622.677246
1081.940472,383.047749,-370.102971,9844.739029
1081.940788,766.095498,222.061783,9030.512492
1081.941103,1225.752797,370.102971,8586.388927
1081.941419,1455.581446,370.102971,8512.368333
1081.941735,1762.019645,518.144159,8586.388927
1081.942051,1608.800546,1036.288319,8660.409521
1081.942367,919.314598,1184.329507,8734.430116
1081.942682,536.266849,592.164754,9326.594869
1081.942998,459.657299,370.102971,9622.677246
1081.943314,229.828649,222.061783,9548.656652
1081.943630,0.000000,-0.000000,9622.677246
1081.943946,-229.828649,-296.082377,10288.862594
1081.944261,0.000000,-740.205942,10362.883188
1081.944577,-383.047749,-370.102971,10140.821405
1081.944893,-229.828649,-0.000000,10066.800811
1081.945209,459.657299,296.082377,9844.739029
1081.945524,919.314598,148.041188,9474.636058
1081.945840,842.705048,740.205942,9474.636058
1081.946156,1149.143247,814.226536,9178.553681
1081.946472,1149.143247,518.144159,8734.430116
1081.946788,1072.533697,1184.329507,9030.512492
1081.947103,766.095498,1036.288319,8808.450710
1081.947419,383.047749,814.226536,9474.636058
1081.947735,-229.828649,296.082377,9474.636058
1081.948051,-459.657299,-0.000000,9696.697840
1081.948367,-842.705048,-370.102971,9918.759623
1081.948682,-1072.533697,-666.185348,10584.944971
1081.948998,-1225.752797,-962.267725,10436.903782
1081.949314,-995.924147,-1110.308913,10362.883188
1081.949630,-1072.533697,-592.164754,9992.780217
1081.949945,-536.266849,-296.082377,10140.821405
1081.950261,0.000000,-370.102971,9696.697840
1081.950577,1072.533697,-370.102971,10066.800811
1081.950893,689.485948,444.123565,8956.491898
1081.951209,1149.143247,1184.329507,7920.203579
1081.951524,1762.019645,-0.000000,8660.409521
1081.951840,1225.752797,1184.329507,8512.368333
1081.952156,306.438199,666.185348,8364.327145
1081.952472,612.876398,148.041188,9622.677246
1081.952788,689.485948,-74.020594,9252.574275
1081.953103,0.000000,-444.123565,9252.574275
1081.953419,76.609550,-444.123565,9770.718434
1081.953735,0.000000,-1184.329507,9770.718434
1081.954051,0.000000,-1628.453072,10584.944971
1081.954366,76.609550,-1184.329507,10066.800811
1081.954682,-306.438199,-1184.329507,9844.739029
1081.954998,919.314598,-888.247130,9770.718434
1081.955314,1225.752797,-814.226536,9104.533087
1081.955630,1225.752797,-444.123565,8808.450710
1081.955945,1838.629195,-370.102971,9622.677246
1081.956261,1915.238745,-148.041188,8734.430116
1081.956577,1915.238745,592.164754,7994.224174
1081.956893,1149.143247,148.041188,8882.471304
1081.957208,1378.971896,-74.020594,8808.450710
1081.957524,1149.143247,-444.123565,8956.491898
1081.957840,612.876398,-888.247130,9326.594869
1081.958156,306.438199,-1554.432478,9548.656652
1081.958472,0.000000,-1702.473667,9992.780217
1081.958787,76.609550,-1480.411884,9696.697840
1081.959103,-536.266849,-1406.391290,10140.821405
1081.959419,-229.828649,-1554.432478,10584.944971
1081.959735,383.047749,-1110.308913,9770.718434
1081.960051,459.657299,-888.247130,8956.491898
1081.960366,612.876398,-592.164754,9400.615463
1081.960682,1149.143247,-814.226536,9030.512492
1081.960998,1149.143247,296.082377,8882.471304
1081.961314,1072.533697,296.082377,8734.430116
1081.961629,612.876398,370.102971,8660.409521
1081.961945,612.876398,814.226536,9104.533087
1081.962261,0.000000,-74.020594,9474.636058
1081.962577,306.438199,-296.082377,9178.553681
1081.962893,-383.047749,-740.205942,9844.739029
1081.963208,-306.438199,-1480.411884,10214.842000
1081.963524,-153.219100,-740.205942,10066.800811
1081.963840,-306.438199,-666.185348,9992.780217
1081.964156,-383.047749,-0.000000,9770.718434
1081.964472,76.609550,-0.000000,9770.718434
1081.964787,383.047749,370.102971,9474.636058
1081.965103,689.485948,518.144159,8734.430116
1081.965419,919.314598,740.205942,9030.512492
1081.965735,1302.362347,814.226536,9252.574275
1081.966050,995.924147,888.247130,9104.533087
1081.966366,689.485948,888.247130,9178.553681
1081.966682,842.705048,814.226536,9474.636058
1081.966998,0.000000,444.123565,9548.656652
1081.967314,76.609550,592.164754,9770.718434
1081.967629,76.609550,-0.000000,9844.739029
1081.967945,153.219100,-296.082377,9844.739029
1081.968261,0.000000,-222.061783,9844.739029
1081.968577,-306.438199,-518.144159,10510.924376
1081.968893,0.000000,-222.061783,9844.739029
1081.969208,689.485948,222.061783,9992.780217
1081.969524,995.924147,518.144159,9696.697840
1081.969840,1149.143247,592.164754,8956.491898
1081.970156,1532.190996,518.144159,9178.553681
1081.970471,1685.410096,814.226536,9252.574275
1081.970787,1455.581446,1036.288319,8882.471304
1081.971103,995.924147,1110.308913,9030.512492
1081.971419,459.657299,1036.288319,9104.533087
1081.971735,153.219100,148.041188,9770.718434
1081.972050,-459.657299,-0.000000,9992.780217
1081.972366,-842.705048,-0.000000,9622.677246
1081.972682,-995.924147,-592.164754,10140.821405
1081.972998,-1072.533697,-1110.308913,10510.924376
1081.973313,-689.485948,-888.247130,10214.842000
1081.973629,-995.924147,-592.164754,9696.697840
1081.973945,-459.657299,-888.247130,10214.842000
1081.974261,459.657299,-370.102971,9992.780217
