#time,accel_x,accel_y,accel_z
738.832296,536.266849,-222.061783,9474.636058
738.832612,306.438199,-148.041188,9548.656652
738.832927,612.876398,-148.041188,9326.594869
738.833243,612.876398,-296.082377,9474.636058
738.833558,536.266849,-148.041188,9622.677246
738.833874,306.438199,-148.041188,9400.615463
738.834189,459.657299,-148.041188,9474.636058
738.834505,612.876398,-444.123565,9622.677246
738.834820,612.876398,-0.000000,9474.636058
738.835136,76.609550,-222.061783,9474.636058
738.835451,459.657299,-74.020594,9474.636058
738.835767,459.657299,-370.102971,9474.636058
738.836082,306.438199,-148.041188,9548.656652
738.836398,459.657299,-222.061783,9474.636058
738.836713,459.657299,-222.061783,9474.636058
738.837029,383.047749,-222.061783,9400.615463
738.837344,0.000000,-0.000000,9474.636058
738.837660,76.609550,148.041188,9770.718434
738.837975,536.266849,518.144159,9548.656652
738.838291,306.438199,592.164754,9178.553681
738.838606,536.266849,74.020594,9326.594869
738.838922,229.828649,-0.000000,9326.594869
738.839237,229.828649,-0.000000,9474.636058
738.839553,153.219100,-148.041188,9400.615463
738.839868,306.438199,-296.082377,9474.636058
738.840184,-229.828649,-518.144159,9622.677246
738.840499,153.219100,-296.082377,9548.656652
738.840815,383.047749,-0.000000,9770.718434
738.841130,536.266849,296.082377,9474.636058
738.841446,612.876398,740.205942,9326.594869
738.841761,842.705048,888.247130,9178.553681
738.842077,842.705048,740.205942,9400.615463
738.842392,1072.533697,666.185348,9178.553681
738.842708,612.876398,740.205942,9030.512492
738.843023,689.485948,592.164754,9252.574275
738.843339,689.485948,-0.000000,9696.697840
738.843654,766.095498,222.061783,9696.697840
738.843970,612.876398,518.144159,9844.739029
738.844285,612.876398,592.164754,9918.759623
738.844601,689.485948,592.164754,9474.636058
738.844916,766.095498,518.144159,9474.636058
738.845232,1608.800546,1110.308913,9474.636058
738.845547,1762.019645,1110.308913,9474.636058
738.845863,1455.581446,1480.411884,9178.553681
738.846178,2145.067394,1554.432478,9252.574275
738.846494,2145.067394,1554.432478,9104.533087
738.846809,2451.505594,1480.411884,9030.512492
738.847125,2604.724693,1850.514855,9104.533087
738.847440,2451.505594,1628.453072,9252.574275
738.847756,2681.334243,1776.494261,9474.636058
738.848071,2681.334243,2146.597232,9474.636058
738.848387,2451.505594,1998.556043,9696.697840
738.848702,2834.553343,2220.617826,9474.636058
738.849018,2604.724693,2294.638420,9548.656652
738.849333,2834.553343,2368.659014,9548.656652
738.849649,3294.210641,2294.638420,9400.615463
738.849964,2757.943793,2442.679609,9326.594869
738.850280,3294.210641,2442.679609,9326.594869
738.850595,3370.820191,2442.679609,9400.615463
738.850911,3064.381992,2590.720797,9178.553681
738.851226,3830.477490,2146.597232,9252.574275
738.851542,3217.601092,2664.741391,9622.677246
738.851857,3140.991542,2368.659014,9474.636058
738.852173,3064.381992,2664.741391,9474.636058
738.852488,3064.381992,2590.720797,9474.636058
738.852804,2911.162892,2368.659014,9770.718434
738.853119,2987.772442,2294.638420,9696.697840
738.853435,2681.334243,2294.638420,9844.739029
738.853750,2528.115143,2368.659014,10140.821405
738.854066,2681.334243,2146.597232,10140.821405
738.854381,2681.334243,2072.576638,10584.944971
738.854697,2604.724693,2442.679609,9844.739029
738.855012,2604.724693,2442.679609,9918.759623
738.855328,2528.115143,2294.638420,9696.697840
738.855643,2834.553343,2072.576638,9770.718434
738.855959,2681.334243,2294.638420,9696.697840
738.856274,2528.115143,2072.576638,9474.636058
738.856590,2757.943793,1998.556043,9326.594869
738.856905,2681.334243,2072.576638,9400.615463
738.857221,2757.943793,1998.556043,9474.636058
738.857536,1915.238745,1776.494261,9548.656652
738.857852,1685.410096,1480.411884,9622.677246
738.858167,1225.752797,962.267725,9696.697840
738.858483,766.095498,370.102971,10140.821405
738.858798,766.095498,-0.000000,10362.883188
738.859114,612.876398,-296.082377,10807.006753
738.859429,612.876398,-444.123565,10955.047942
738.859745,995.924147,-518.144159,10658.965565
738.860060,1302.362347,-0.000000,10214.842000
738.860376,1991.848295,814.226536,9918.759623
738.860691,2834.553343,1850.514855,8956.491898
738.861007,3217.601092,2368.659014,8142.265362
738.861322,4136.915689,2886.803174,7698.141797
738.861638,4213.525239,2960.823768,7254.018232
738.861953,4673.182538,2294.638420,7105.977043
738.862269,4136.915689,1850.514855,7254.018232
738.862584,3600.648841,1480.411884,7698.141797
738.862900,2681.334243,888.247130,8660.409521
738.863215,1455.581446,518.144159,9178.553681
738.863531,612.876398,-0.000000,9622.677246
738.863846,76.609550,-0.000000,10140.821405
738.864162,-689.485948,-74.020594,10436.903782
738.864477,-995.924147,-296.082377,10807.006753
738.864793,-995.924147,-888.247130,11251.130318
738.865108,-689.485948,-1258.350101,10955.047942
738.865424,0.000000,-666.185348,10510.924376
738.865739,766.095498,-0.000000,10584.944971
738.866055,1915.238745,814.226536,9548.656652
738.866370,3600.648841,2294.638420,9326.594869
738.866686,4749.792088,3404.947333,8290.306550
738.867001,5592.497135,3775.050304,7402.059420
738.867317,6205.373534,3997.112087,7179.997637
738.867632,6511.811733,4367.215058,6439.791695
738.867948,6971.469032,4589.276840,6587.832884
738.868263,6435.202183,4219.173869,6883.915261
738.868579,5439.278036,3552.988522,7476.080014
738.868894,4596.572988,2442.679609,8882.471304
738.869210,2757.943793,1258.350101,9844.739029
738.869525,1149.143247,-0.000000,11251.130318
738.869841,0.000000,-592.164754,12361.439231
738.870156,-1072.533697,-1110.308913,13101.645173
738.870472,-1149.143247,-296.082377,13249.686362
738.870788,-995.924147,222.061783,12953.603985
738.871103,76.609550,1036.288319,12213.398043
738.871419,919.314598,2368.659014,10658.965565
738.871734,2221.676944,3478.967927,9252.574275
738.872050,3830.477490,4145.153275,7994.224174
738.872365,5515.887586,4071.132681,7105.977043
738.872681,6358.592633,3923.091493,7105.977043
738.872996,6281.983084,3775.050304,7328.038826
738.873312,6358.592633,3256.906145,7772.162391
738.873627,5822.325785,2516.700203,8734.430116
738.873943,4903.011187,2368.659014,9770.718434
738.874258,4060.306139,2294.638420,10436.903782
738.874574,3064.381992,2220.617826,11325.150913
738.874889,1991.848295,2146.597232,11399.171507
738.875205,1302.362347,3108.864956,10807.006753
738.875520,842.705048,3404.947333,10658.965565
738.875836,1532.190996,2886.803174,10510.924376
738.876151,1455.581446,2664.741391,10066.800811
738.876467,1685.410096,2590.720797,9252.574275
738.876782,1378.971896,2294.638420,9178.553681
738.877098,1838.629195,962.267725,9474.636058
738.877413,2145.067394,1628.453072,9104.533087
738.877729,1915.238745,1998.556043,9474.636058
738.878044,1149.143247,2442.679609,9326.594869
738.878360,766.095498,2960.823768,9252.574275
738.878675,1225.752797,2072.576638,9400.615463
738.878991,1762.019645,1332.370696,10140.821405
738.879306,1685.410096,1554.432478,10658.965565
738.879622,919.314598,814.226536,10584.944971
738.879937,1302.362347,1554.432478,10881.027347
738.880253,2145.067394,1850.514855,10658.965565
738.880568,2681.334243,2960.823768,10214.842000
738.880884,3140.991542,4441.235652,8216.285956
738.881199,3600.648841,4811.338623,7105.977043
738.881515,4443.353888,3404.947333,7105.977043
738.881830,4979.620737,3256.906145,6439.791695
738.882146,4290.134789,2886.803174,6661.853478
738.882461,3217.601092,1776.494261,7772.162391
738.882777,2298.286494,-592.164754,9474.636058
738.883092,995.924147,-1036.288319,10881.027347
738.883408,-459.657299,-148.041188,11473.192101
738.883723,-1532.190996,-0.000000,11621.233289
738.884039,-1072.533697,-0.000000,12435.459826
738.884354,-612.876398,-0.000000,11177.109724
738.884670,383.047749,370.102971,10881.027347
738.884985,459.657299,1110.308913,10436.903782
738.885301,1685.410096,518.144159,9548.656652
738.885616,3294.210641,148.041188,9178.553681
738.885932,4213.525239,1184.329507,8364.327145
738.886247,4903.011187,2590.720797,7476.080014
738.886563,5822.325785,2368.659014,7550.100608
738.886878,6052.154434,1924.535449,7402.059420
738.887194,5439.278036,1702.473667,7624.121203
738.887509,5286.058936,1554.432478,7920.203579
738.887825,5209.449386,1258.350101,8586.388927
738.888140,3677.258390,1702.473667,9326.594869
738.888456,2528.115143,2146.597232,9474.636058
738.888771,2068.457845,1184.329507,9622.677246
738.889087,1225.752797,814.226536,10955.047942
738.889402,0.000000,-296.082377,11251.130318
738.889718,-919.314598,-1850.514855,11621.233289
738.890033,-459.657299,-2220.617826,11843.295072
738.890349,-306.438199,-2072.576638,11473.192101
738.890664,459.657299,-1406.391290,11177.109724
738.890980,1991.848295,-740.205942,10955.047942
738.891295,2528.115143,814.226536,9252.574275
738.891611,3140.991542,2590.720797,7624.121203
738.891926,3753.867940,2146.597232,7550.100608
738.892242,3830.477490,2146.597232,8068.244768
738.892557,3753.867940,2368.659014,7846.182985
738.892873,3140.991542,1850.514855,7920.203579
738.893188,2911.162892,370.102971,8586.388927
738.893504,2145.067394,-74.020594,9696.697840
738.893819,995.924147,370.102971,9918.759623
738.894135,153.219100,-592.164754,10881.027347
738.894450,0.000000,-666.185348,10881.027347
738.894766,-1225.752797,-0.000000,10881.027347
738.895081,-766.095498,-0.000000,11399.171507
738.895397,-459.657299,-1184.329507,10807.006753
738.895712,-995.924147,-740.205942,10584.944971
738.896028,-689.485948,-1036.288319,9992.780217
738.896343,0.000000,-1332.370696,10362.883188
738.896659,153.219100,-74.020594,9104.533087
738.896974,0.000000,1406.391290,8586.388927
738.897290,612.876398,1110.308913,8364.327145
738.897605,1072.533697,296.082377,8808.450710
738.897921,995.924147,518.144159,8956.491898
738.898237,689.485948,-0.000000,8734.430116
738.898552,536.266849,-444.123565,9992.780217
738.898868,536.266849,296.082377,9548.656652
738.899183,459.657299,222.061783,9104.533087
738.899499,919.314598,-222.061783,9178.553681
738.899814,306.438199,444.123565,9326.594869
738.900130,0.000000,740.205942,9104.533087
738.900445,76.609550,-0.000000,8734.430116
738.900761,0.000000,888.247130,9252.574275
738.901076,0.000000,1406.391290,8364.327145
738.901392,-306.438199,296.082377,8882.471304
738.901707,-459.657299,-370.102971,8586.388927
738.902023,-1915.238745,-0.000000,9178.553681
738.902338,-1378.971896,-814.226536,9770.718434
738.902654,-2068.457845,-1332.370696,10362.883188
738.902969,-2834.553343,-296.082377,10584.944971
738.903285,-1991.848295,-518.144159,10807.006753
738.903600,-842.705048,-222.061783,10140.821405
738.903916,-766.095498,666.185348,10140.821405
738.904231,-229.828649,1036.288319,9252.574275
738.904547,612.876398,1332.370696,9030.512492
738.904862,1685.410096,2294.638420,8808.450710
738.905178,2221.676944,2368.659014,8438.347739
738.905493,3370.820191,888.247130,8364.327145
738.905809,2987.772442,962.267725,8660.409521
738.906124,2298.286494,1554.432478,7846.182985
738.906440,2145.067394,518.144159,8660.409521
738.906755,1532.190996,740.205942,10140.821405
738.907071,0.000000,1036.288319,10066.800811
738.907387,-306.438199,222.061783,10584.944971
738.907702,0.000000,-518.144159,10658.965565
738.908018,-1072.533697,-222.061783,10732.986159
738.908333,-1225.752797,-592.164754,10807.006753
738.908649,-536.266849,-1332.370696,11547.212695
738.908964,-383.047749,-222.061783,10362.883188
738.909280,919.314598,444.123565,10066.800811
738.909595,1915.238745,-962.267725,9844.739029
738.909911,2298.286494,148.041188,9474.636058
738.910226,1915.238745,444.123565,8290.306550
738.910542,2757.943793,-74.020594,9030.512492
738.910857,2451.505594,518.144159,8956.491898
738.911173,1838.629195,444.123565,9696.697840
738.911488,2604.724693,296.082377,9252.574275
738.911804,2298.286494,-444.123565,9252.574275
738.912119,1149.143247,-148.041188,9622.677246
738.912435,1225.752797,-518.144159,9696.697840
738.912750,306.438199,-666.185348,10214.842000
738.913066,0.000000,444.123565,10214.842000
738.913381,0.000000,-666.185348,9918.759623
738.913697,306.438199,-1628.453072,9918.759623
738.914012,-536.266849,-1406.391290,10140.821405
738.914328,-689.485948,-1628.453072,9770.718434
738.914643,-229.828649,-1628.453072,9400.615463
738.914959,229.828649,-1036.288319,9918.759623
738.915274,612.876398,-444.123565,9178.553681
738.915590,1302.362347,-814.226536,8438.347739
738.915906,689.485948,-74.020594,8734.430116
738.916221,612.876398,-814.226536,8660.409521
738.916537,689.485948,-814.226536,8586.388927
738.916852,0.000000,-148.041188,8808.450710
738.917168,0.000000,222.061783,8882.471304
738.917483,383.047749,-888.247130,8808.450710
738.917799,76.609550,-1406.391290,9178.553681
738.918114,-842.705048,-1036.288319,9474.636058
738.918430,-766.095498,-1628.453072,9474.636058
738.918745,-766.095498,-1554.432478,9548.656652
738.919061,-1072.533697,-1332.370696,9844.739029
738.919376,-536.266849,-1554.432478,9770.718434
738.919692,0.000000,-1184.329507,8882.471304
738.920007,-995.924147,-296.082377,8660.409521
738.920323,-842.705048,-1110.308913,9104.533087
738.920638,-306.438199,-1332.370696,9992.780217
738.920954,-306.438199,-74.020594,9474.636058
738.921269,0.000000,222.061783,8216.285956
738.921585,153.219100,-444.123565,7994.224174
738.921900,459.657299,-740.205942,9474.636058
738.922216,153.219100,-1184.329507,9918.759623
738.922531,459.657299,-962.267725,9622.677246
738.922847,153.219100,-0.000000,9474.636058
738.923162,76.609550,962.267725,9548.656652
738.923478,1072.533697,296.082377,9474.636058
738.923793,1149.143247,1036.288319,9178.553681
738.924109,842.705048,1184.329507,9326.594869
738.924424,919.314598,-370.102971,9252.574275
738.924740,842.705048,-0.000000,9622.677246
738.925056,153.219100,1036.288319,9400.615463
738.925371,612.876398,370.102971,9326.594869
738.925687,766.095498,222.061783,9326.594869
738.926002,0.000000,148.041188,10288.862594
738.926318,0.000000,-0.000000,10214.842000
738.926633,0.000000,296.082377,10584.944971
738.926949,-153.219100,1332.370696,10584.944971
738.927264,383.047749,1036.288319,10140.821405
738.927580,1149.143247,740.205942,9548.656652
738.927895,1378.971896,1258.350101,9696.697840
738.928211,766.095498,1110.308913,9622.677246
738.928526,1762.019645,-0.000000,9918.759623
738.928842,1149.143247,740.205942,9622.677246
738.929157,1149.143247,1480.411884,9474.636058
738.929473,1991.848295,592.164754,8956.491898
738.929788,1302.362347,740.205942,9030.512492
738.930104,689.485948,814.226536,9770.718434
738.930419,229.828649,-222.061783,9844.739029
738.930735,-153.219100,-370.102971,10881.027347
738.931050,-459.657299,370.102971,11029.068536
738.931366,229.828649,-148.041188,10807.006753
738.931681,153.219100,-0.000000,10214.842000
738.931997,0.000000,666.185348,10140.821405
738.932312,383.047749,-222.061783,10140.821405
738.932628,842.705048,-74.020594,9548.656652
738.932943,919.314598,814.226536,9844.739029
738.933259,1608.800546,1184.329507,8734.430116
738.933575,2298.286494,296.082377,7402.059420
738.933890,1455.581446,-370.102971,9030.512492
738.934206,1991.848295,-666.185348,9696.697840
738.934521,1532.190996,-814.226536,9400.615463
738.934837,612.876398,444.123565,9178.553681
738.935152,153.219100,222.061783,9178.553681
738.935468,919.314598,-666.185348,9548.656652
738.935783,76.609550,-222.061783,9400.615463
738.936099,-842.705048,-296.082377,9844.739029
738.936414,-383.047749,-1110.308913,10066.800811
738.936730,-383.047749,-666.185348,9548.656652
738.937045,-383.047749,518.144159,8808.450710
738.937361,229.828649,-1036.288319,8438.347739
738.937676,612.876398,-814.226536,8956.491898
738.937992,76.609550,-592.164754,8956.491898
738.938307,0.000000,-1332.370696,9104.533087
738.938623,0.000000,-1554.432478,9622.677246
738.938938,-383.047749,-962.267725,9844.739029
738.939254,306.438199,-740.205942,9104.533087
738.939569,536.266849,-1110.308913,9104.533087
738.939885,0.000000,-74.020594,9104.533087
738.940200,-306.438199,-370.102971,8956.491898
738.940516,-459.657299,-1554.432478,9252.574275
738.940831,-306.438199,-0.000000,8956.491898
738.941147,229.828649,-0.000000,8068.244768
738.941462,766.095498,-888.247130,8438.347739
738.941778,0.000000,-1036.288319,9252.574275
738.942093,-383.047749,-962.267725,9992.780217
738.942409,0.000000,-1998.556043,9474.636058
738.942725,-612.876398,-1332.370696,9030.512492
738.943040,-766.095498,-740.205942,10066.800811
738.943356,-536.266849,-1702.473667,9918.759623
738.943671,76.609550,-1184.329507,9696.697840
738.943987,-229.828649,-666.185348,9992.780217
738.944302,0.000000,-444.123565,9474.636058
738.944618,306.438199,-0.000000,9252.574275
738.944933,612.876398,740.205942,8956.491898
738.945249,1685.410096,222.061783,8734.430116
738.945564,1915.238745,-148.041188,8808.450710
738.945880,1455.581446,666.185348,8734.430116
738.946195,1302.362347,-296.082377,9474.636058
738.946511,1378.971896,-740.205942,9770.718434
738.946826,536.266849,148.041188,9918.759623
738.947142,995.924147,-0.000000,10214.842000
738.947457,1149.143247,-0.000000,10140.821405
738.947773,842.705048,370.102971,9918.759623
738.948088,766.095498,222.061783,10436.903782
738.948404,689.485948,-370.102971,10066.800811
738.948719,459.657299,222.061783,9918.759623
738.949035,689.485948,814.226536,9474.636058
738.949350,1225.752797,222.061783,8956.491898
738.949666,919.314598,-222.061783,9622.677246
738.949981,459.657299,-370.102971,10362.883188
738.950297,306.438199,-814.226536,10066.800811
738.950612,383.047749,-518.144159,9992.780217
738.950928,153.219100,-222.061783,9992.780217
738.951244,1072.533697,-666.185348,10066.800811
738.951559,1225.752797,-74.020594,9844.739029
738.951875,153.219100,370.102971,9400.615463
738.952190,383.047749,-0.000000,9474.636058
738.952506,919.314598,222.061783,9548.656652
738.952821,459.657299,1332.370696,8808.450710
738.953137,689.485948,592.164754,8808.450710
738.953452,1225.752797,-296.082377,9104.533087
738.953768,383.047749,-518.144159,9474.636058
738.954083,0.000000,-740.205942,9696.697840
738.954399,0.000000,-592.164754,9992.780217
738.954714,-153.219100,-370.102971,9770.718434
738.955030,-459.657299,666.185348,9400.615463
738.955345,153.219100,444.123565,9252.574275
738.955661,995.924147,-814.226536,9770.718434
738.955976,229.828649,-74.020594,9252.574275
738.956292,-229.828649,-0.000000,9474.636058
738.956607,0.000000,-1110.308913,9474.636058
738.956923,689.485948,888.247130,9178.553681
738.957238,612.876398,814.226536,7698.141797
738.957554,919.314598,592.164754,8290.306550
738.957869,536.266849,-0.000000,9178.553681
738.958185,0.000000,-888.247130,8660.409521
738.958500,153.219100,-962.267725,9252.574275
738.958816,-459.657299,-518.144159,9400.615463
738.959131,0.000000,-296.082377,9992.780217
738.959447,383.047749,-592.164754,9548.656652
738.959762,-459.657299,-444.123565,9474.636058
738.960078,-766.095498,296.082377,10140.821405
738.960394,-459.657299,-814.226536,9548.656652
738.960709,-229.828649,-74.020594,9178.553681
738.961025,0.000000,-74.020594,9696.697840
738.961340,612.876398,-666.185348,8808.450710
738.961656,766.095498,-518.144159,9104.533087
738.961971,229.828649,-592.164754,9400.615463
738.962287,383.047749,-1258.350101,9622.677246
738.962602,-536.266849,-518.144159,9696.697840
738.962918,-229.828649,518.144159,9622.677246
738.963233,306.438199,-444.123565,9918.759623
738.963549,689.485948,-370.102971,10140.821405
738.963864,76.609550,-0.000000,10362.883188
738.964180,383.047749,-148.041188,9030.512492
738.964495,76.609550,-0.000000,9474.636058
738.964811,612.876398,962.267725,9992.780217
738.965126,995.924147,592.164754,9030.512492
738.965442,1762.019645,888.247130,8438.347739
738.965757,842.705048,370.102971,9696.697840
738.966073,306.438199,-592.164754,9992.780217
738.966388,919.314598,-666.185348,9400.615463
738.966704,76.609550,-0.000000,10140.821405
738.967019,229.828649,-74.020594,10436.903782
738.967335,689.485948,-888.247130,10140.821405
738.967650,383.047749,-296.082377,10807.006753
738.967966,76.609550,-222.061783,10066.800811
738.968281,766.095498,-222.061783,9844.739029
738.968597,689.485948,666.185348,9474.636058
738.968913,689.485948,888.247130,9622.677246
738.969228,1838.629195,-0.000000,9178.553681
738.969544,1915.238745,-222.061783,9252.574275
738.969859,1532.190996,-0.000000,8882.471304
738.970175,1225.752797,-1036.288319,10214.842000
738.970490,1532.190996,-592.164754,9622.677246
738.970806,1532.190996,740.205942,9474.636058
738.971121,1608.800546,-0.000000,9696.697840
738.971437,1455.581446,-444.123565,9474.636058
738.971752,919.314598,-148.041188,9326.594869
738.972068,689.485948,-370.102971,10140.821405
738.972383,995.924147,-666.185348,9844.739029
738.972699,689.485948,888.247130,8956.491898
738.973014,1149.143247,1702.473667,8808.450710
738.973330,1532.190996,-0.000000,9104.533087
738.973645,1149.143247,-666.185348,9474.636058
738.973961,306.438199,-518.144159,9104.533087
738.974276,76.609550,-1258.350101,10288.862594
738.974592,153.219100,-962.267725,9622.677246
738.974907,-229.828649,592.164754,9474.636058
738.975223,459.657299,222.061783,9178.553681
738.975538,459.657299,-0.000000,9252.574275
738.975854,76.609550,814.226536,8956.491898
738.976169,-383.047749,222.061783,8734.430116
738.976485,-153.219100,-296.082377,9474.636058
738.976800,0.000000,222.061783,9178.553681
738.977116,459.657299,148.041188,8586.388927
738.977431,383.047749,-296.082377,8882.471304
738.977747,-612.876398,-296.082377,9326.594869
738.978063,-536.266849,-962.267725,9178.553681
738.978378,-766.095498,-444.123565,9030.512492
738.978694,-1378.971896,-370.102971,9622.677246
738.979009,-612.876398,-74.020594,9696.697840
738.979325,-459.657299,-370.102971,9030.512492
738.979640,-689.485948,-518.144159,9474.636058
738.979956,-919.314598,-814.226536,9992.780217
738.980271,-689.485948,-1036.288319,9548.656652
738.980587,-612.876398,-0.000000,9474.636058
738.980902,-383.047749,370.102971,8882.471304
738.981218,459.657299,148.041188,8808.450710
738.981533,306.438199,-0.000000,8808.450710
738.981849,153.219100,-0.000000,9252.574275
738.982164,229.828649,-1184.329507,9622.677246
738.982480,229.828649,-592.164754,9770.718434
738.982795,0.000000,370.102971,9918.759623
738.983111,995.924147,-0.000000,9696.697840
738.983426,689.485948,-370.102971,9548.656652
738.983742,153.219100,-0.000000,9696.697840
738.984057,383.047749,-592.164754,10214.842000
738.984373,612.876398,-74.020594,9622.677246
738.984688,306.438199,666.185348,10066.800811
738.985004,995.924147,148.041188,9696.697840
738.985319,1838.629195,-296.082377,9252.574275
738.985635,919.314598,444.123565,9622.677246
738.985950,383.047749,296.082377,9548.656652
738.986266,689.485948,-444.123565,9770.718434
738.986581,306.438199,370.102971,9696.697840
738.986897,919.314598,518.144159,10140.821405
738.987213,1762.019645,-666.185348,10510.924376
738.987528,1378.971896,-0.000000,10288.862594
738.987844,766.095498,444.123565,9178.553681
738.988159,1225.752797,-370.102971,9326.594869
738.988475,1072.533697,-74.020594,9770.718434
738.988790,1072.533697,592.164754,9696.697840
738.989106,1378.971896,-222.061783,9548.656652
738.989421,1532.190996,-518.144159,9326.594869
738.989737,612.876398,-592.164754,9696.697840
738.990052,1072.533697,-740.205942,9622.677246
738.990368,689.485948,-1110.308913,9844.739029
738.990683,76.609550,-148.041188,9918.759623
738.990999,842.705048,-296.082377,9770.718434
738.991315,842.705048,-1184.329507,9548.656652
738.991630,229.828649,-740.205942,10288.862594
738.991946,0.000000,-1036.288319,9474.636058
738.992262,995.924147,-1036.288319,8734.430116
738.992578,995.924147,296.082377,9252.574275
738.992893,612.876398,518.144159,8808.450710
738.993209,1915.238745,-740.205942,8586.388927
738.993525,1225.752797,-814.226536,8512.368333
738.993841,536.266849,-666.185348,8290.306550
738.994157,842.705048,-1554.432478,8660.409521
738.994472,229.828649,-962.267725,9622.677246
738.994788,0.000000,-74.020594,9326.594869
738.995104,536.266849,-370.102971,8956.491898
738.995420,229.828649,-888.247130,8956.491898
738.995735,-229.828649,-444.123565,8956.491898
738.996051,0.000000,-1184.329507,9252.574275
738.996367,-229.828649,-888.247130,8438.347739
738.996683,-612.876398,222.061783,9030.512492
738.996999,76.609550,-148.041188,9104.533087
738.997314,76.609550,-814.226536,8290.306550
738.997630,-995.924147,-740.205942,8956.491898
738.997946,-919.314598,-1110.308913,9622.677246
738.998262,-766.095498,-1332.370696,9326.594869
738.998577,-1762.019645,-222.061783,9844.739029
738.998893,-919.314598,-0.000000,9400.615463
738.999209,76.609550,-888.247130,9622.677246
738.999525,-306.438199,-814.226536,9770.718434
738.999841,-995.924147,-444.123565,9992.780217
739.000156,-766.095498,-740.205942,9400.615463
739.000472,-229.828649,222.061783,9326.594869
739.000788,0.000000,1110.308913,9474.636058
739.001104,766.095498,148.041188,9400.615463
739.001419,459.657299,-148.041188,8956.491898
739.001735,-306.438199,-0.000000,9474.636058
739.002051,153.219100,-1184.329507,10140.821405
739.002367,612.876398,-814.226536,9770.718434
739.002683,0.000000,444.123565,9992.780217
739.002998,612.876398,370.102971,10066.800811
739.003314,1225.752797,-222.061783,9992.780217
739.003630,153.219100,444.123565,9770.718434
739.003946,459.657299,592.164754,9770.718434
739.004262,1149.143247,148.041188,9770.718434
739.004577,1225.752797,1258.350101,9844.739029
739.004893,1302.362347,1258.350101,9326.594869
739.005209,2451.505594,666.185348,9104.533087
739.005525,1378.971896,518.144159,9252.574275
739.005840,1302.362347,962.267725,9622.677246
739.006156,1149.143247,-296.082377,9622.677246
739.006472,919.314598,518.144159,10214.842000
739.006788,612.876398,1554.432478,10214.842000
739.007104,1455.581446,-0.000000,9992.780217
739.007419,1225.752797,592.164754,10066.800811
739.007735,689.485948,1110.308913,9770.718434
739.008051,1149.143247,592.164754,9326.594869
739.008367,1455.581446,444.123565,9696.697840
739.008682,689.485948,962.267725,9918.759623
739.008998,2528.115143,518.144159,9474.636058
739.009314,1915.238745,296.082377,9030.512492
739.009630,766.095498,518.144159,9400.615463
739.009946,995.924147,-74.020594,9992.780217
739.010261,995.924147,-370.102971,9844.739029
739.010577,306.438199,222.061783,10436.903782
739.010893,766.095498,370.102971,9770.718434
739.011209,1302.362347,-222.061783,9252.574275
739.011524,842.705048,-0.000000,9474.636058
739.011840,229.828649,-148.041188,9326.594869
739.012156,459.657299,-518.144159,9474.636058
739.012472,689.485948,-0.000000,9622.677246
739.012788,459.657299,666.185348,8882.471304
739.013103,919.314598,-370.102971,8364.327145
739.013419,383.047749,-962.267725,9178.553681
739.013735,-153.219100,-1480.411884,9326.594869
739.014051,-153.219100,-1850.514855,9992.780217
739.014366,-383.047749,-1702.473667,9918.759623
739.014682,-383.047749,-592.164754,9622.677246
739.014998,0.000000,-740.205942,9844.739029
739.015314,689.485948,-814.226536,9474.636058
739.015630,-383.047749,-0.000000,8808.450710
739.015945,-306.438199,-444.123565,9326.594869
739.016261,229.828649,-518.144159,9104.533087
739.016577,-383.047749,-0.000000,8586.388927
739.016893,0.000000,444.123565,8956.491898
739.017209,689.485948,-1332.370696,8512.368333
739.017524,0.000000,-888.247130,8734.430116
739.017840,-459.657299,-1110.308913,9104.533087
739.018156,-1072.533697,-2368.659014,9326.594869
739.018472,-919.314598,-1332.370696,9992.780217
739.018787,-995.924147,-1184.329507,10140.821405
739.019103,-306.438199,-1406.391290,9918.759623
739.019419,-919.314598,-888.247130,9548.656652
739.019735,-1149.143247,-666.185348,9622.677246
739.020051,-459.657299,-1110.308913,9770.718434
739.020366,-383.047749,-444.123565,8882.471304
739.020682,-153.219100,444.123565,8956.491898
739.020998,459.657299,-296.082377,8216.285956
739.021314,689.485948,-1184.329507,9030.512492
739.021629,229.828649,-888.247130,9622.677246
739.021945,153.219100,-1554.432478,9474.636058
739.022261,536.266849,-1184.329507,9918.759623
739.022577,153.219100,-0.000000,9992.780217
739.022893,919.314598,222.061783,9548.656652
739.023208,1455.581446,-0.000000,9474.636058
739.023524,842.705048,-0.000000,9548.656652
739.023840,612.876398,-0.000000,9474.636058
739.024156,1378.971896,148.041188,9696.697840
739.024471,995.924147,1184.329507,9918.759623
739.024787,1302.362347,1184.329507,8734.430116
739.025103,2145.067394,1110.308913,8512.368333
739.025419,1455.581446,370.102971,9400.615463
739.025735,689.485948,-518.144159,9696.697840
739.026050,1225.752797,-518.144159,10732.986159
739.026366,229.828649,-74.020594,9696.697840
739.026682,766.095498,296.082377,9844.739029
739.026998,1608.800546,-296.082377,10066.800811
739.027313,1302.362347,-222.061783,10066.800811
739.027629,459.657299,740.205942,9696.697840
739.027945,1072.533697,444.123565,9104.533087
739.028261,1225.752797,592.164754,9252.574275
739.028577,995.924147,1850.514855,9104.533087
739.028892,1455.581446,518.144159,8586.388927
739.029208,1685.410096,-296.082377,9252.574275
739.029524,842.705048,-148.041188,9622.677246
739.029840,689.485948,-370.102971,9844.739029
739.030155,689.485948,-592.164754,10140.821405
739.030471,0.000000,296.082377,9918.759623
739.030787,229.828649,592.164754,10658.965565
739.031103,995.924147,-0.000000,9844.739029
739.031419,153.219100,444.123565,9474.636058
739.031734,0.000000,370.102971,9400.615463
739.032050,459.657299,-518.144159,10362.883188
739.032366,0.000000,296.082377,9918.759623
739.032682,0.000000,1628.453072,8660.409521
739.032998,919.314598,814.226536,9104.533087
739.033313,995.924147,-74.020594,8956.491898
739.033629,0.000000,-592.164754,9326.594869
739.033945,0.000000,-1554.432478,10288.862594
739.034261,76.609550,-1184.329507,10140.821405
739.034576,306.438199,518.144159,9548.656652
739.034892,842.705048,148.041188,9474.636058
739.035208,1072.533697,-444.123565,9622.677246
739.035524,76.609550,-0.000000,9844.739029
739.035840,0.000000,-148.041188,9030.512492
739.036155,306.438199,-0.000000,8956.491898
739.036471,0.000000,592.164754,8882.471304
739.036787,536.266849,296.082377,8586.388927
739.037103,1378.971896,-370.102971,9030.512492
739.037418,76.609550,-740.205942,9326.594869
739.037734,-536.266849,-962.267725,9178.553681
739.038050,-306.438199,-1480.411884,9474.636058
739.038366,-536.266849,-1258.350101,9844.739029
739.038682,-919.314598,-370.102971,9918.759623
739.038997,-229.828649,-1110.308913,9992.780217
739.039313,-612.876398,-1184.329507,9770.718434
739.039629,-1225.752797,-1184.329507,10436.903782
739.039945,-459.657299,-1332.370696,9548.656652
739.040260,76.609550,-0.000000,8660.409521
739.040576,-306.438199,814.226536,8808.450710
739.040892,766.095498,370.102971,8364.327145
739.041208,766.095498,-592.164754,8586.388927
739.041524,-459.657299,-740.205942,9474.636058
739.041839,0.000000,-1702.473667,9548.656652
739.042155,153.219100,-1554.432478,9252.574275
739.042471,-383.047749,-592.164754,9474.636058
739.042787,153.219100,-1110.308913,9844.739029
739.043102,1072.533697,-1628.453072,10214.842000
739.043418,153.219100,222.061783,9548.656652
739.043734,-306.438199,-222.061783,9474.636058
739.044050,689.485948,-444.123565,9474.636058
739.044366,459.657299,814.226536,9030.512492
739.044681,1149.143247,740.205942,8364.327145
739.044997,1991.848295,-74.020594,9178.553681
739.045313,1685.410096,-592.164754,9474.636058
739.045629,919.314598,-518.144159,9178.553681
739.045944,536.266849,-814.226536,9104.533087
739.046260,919.314598,-592.164754,10510.924376
739.046576,536.266849,370.102971,9844.739029
739.046892,1225.752797,148.041188,9548.656652
739.047208,1225.752797,-222.061783,10140.821405
739.047523,919.314598,-74.020594,9696.697840
739.047839,689.485948,-592.164754,9622.677246
739.048155,842.705048,222.061783,9474.636058
739.048471,766.095498,1332.370696,9178.553681
739.048787,1378.971896,1110.308913,8808.450710
739.049102,1991.848295,-74.020594,9252.574275
739.049418,536.266849,-370.102971,9104.533087
739.049734,153.219100,-1332.370696,9918.759623
739.050050,459.657299,-1110.308913,10288.862594
739.050365,229.828649,-0.000000,10362.883188
739.050681,842.705048,592.164754,10066.800811
739.050997,1302.362347,370.102971,9400.615463
739.051313,306.438199,444.123565,9548.656652
739.051629,153.219100,-296.082377,9844.739029
739.051944,459.657299,-814.226536,9992.780217
739.052260,766.095498,444.123565,9770.718434
739.052576,153.219100,1110.308913,9252.574275
739.052892,1072.533697,-0.000000,9622.677246
739.053207,1072.533697,222.061783,8956.491898
739.053523,459.657299,222.061783,8956.491898
739.053839,153.219100,-666.185348,9178.553681
739.054155,76.609550,-296.082377,9918.759623
739.054471,0.000000,222.061783,10066.800811
739.054786,383.047749,-0.000000,9548.656652
739.055102,536.266849,-444.123565,9844.739029
739.055418,-229.828649,-444.123565,9844.739029
739.055734,-689.485948,-444.123565,9622.677246
739.056049,76.609550,-444.123565,9622.677246
739.056365,-306.438199,814.226536,9252.574275
739.056681,0.000000,962.267725,9030.512492
739.056997,536.266849,-148.041188,8956.491898
739.057313,306.438199,-0.000000,9178.553681
739.057628,-153.219100,-370.102971,8956.491898
739.057944,0.000000,-814.226536,9622.677246
739.058260,-383.047749,-888.247130,9696.697840
739.058576,-383.047749,-148.041188,9622.677246
739.058891,0.000000,-1332.370696,9178.553681
739.059207,0.000000,-1036.288319,9844.739029
739.059523,-383.047749,-740.205942,10436.903782
739.059839,0.000000,-1036.288319,9326.594869
739.060155,76.609550,222.061783,9178.553681
739.060470,153.219100,888.247130,8660.409521
739.060786,1455.581446,-0.000000,8512.368333
739.061102,1072.533697,-74.020594,8438.347739
739.061418,153.219100,-444.123565,8956.491898
739.061734,612.876398,-1184.329507,9400.615463
739.062049,689.485948,-888.247130,9030.512492
739.062365,76.609550,-0.000000,9622.677246
739.062681,536.266849,-370.102971,9770.718434
739.062997,612.876398,-1184.329507,9696.697840
739.063312,-229.828649,-74.020594,9548.656652
739.063628,-383.047749,-518.144159,10140.821405
739.063944,229.828649,-1332.370696,9770.718434
739.064260,229.828649,518.144159,9178.553681
739.064576,536.266849,1406.391290,8882.471304
739.064891,1838.629195,148.041188,8956.491898
739.065207,1455.581446,-74.020594,8734.430116
739.065523,612.876398,-0.000000,8956.491898
739.065839,1072.533697,-592.164754,9548.656652
739.066154,1072.533697,-518.144159,9622.677246
739.066470,689.485948,666.185348,9326.594869
739.066786,1225.752797,444.123565,9548.656652
739.067102,1302.362347,-296.082377,9696.697840
739.067418,459.657299,-0.000000,9548.656652
739.067733,612.876398,-296.082377,9770.718434
739.068049,995.924147,-962.267725,10288.862594
739.068365,153.219100,740.205942,9400.615463
739.068681,995.924147,444.123565,9474.636058
739.068996,1838.629195,-148.041188,9844.739029
739.069312,689.485948,-0.000000,9474.636058
739.069628,76.609550,-0.000000,9548.656652
739.069944,612.876398,-592.164754,9474.636058
739.070260,459.657299,-592.164754,9474.636058
739.070575,536.266849,-370.102971,10584.944971
739.070891,1378.971896,-1036.288319,10288.862594
739.071207,612.876398,-592.164754,9918.759623
739.071523,0.000000,-74.020594,9992.780217
739.071838,536.266849,-592.164754,9326.594869
739.072154,842.705048,-0.000000,9474.636058
739.072470,689.485948,1480.411884,9104.533087
739.072786,1149.143247,370.102971,8808.450710
739.073102,1149.143247,-370.102971,9252.574275
739.073417,-383.047749,-740.205942,8956.491898
739.073733,0.000000,-1184.329507,9400.615463
739.074049,306.438199,-1036.288319,9992.780217
739.074365,-383.047749,-222.061783,9844.739029
739.074680,229.828649,-148.041188,10066.800811
739.074996,536.266849,-222.061783,9178.553681
739.075312,-229.828649,-370.102971,9252.574275
739.075628,0.000000,-518.144159,9474.636058
739.075944,229.828649,-814.226536,9178.553681
739.076259,-229.828649,222.061783,8882.471304
739.076575,0.000000,148.041188,9178.553681
739.076891,842.705048,-444.123565,8438.347739
739.077207,229.828649,-370.102971,8438.347739
739.077523,-459.657299,-666.185348,9400.615463
739.077838,0.000000,-1184.329507,9622.677246
739.078154,-229.828649,-666.185348,9400.615463
739.078470,-536.266849,148.041188,9178.553681
739.078786,306.438199,-222.061783,9474.636058
739.079101,153.219100,-1036.288319,9326.594869
739.079417,-689.485948,-222.061783,9252.574275
739.079733,-383.047749,-296.082377,9178.553681
739.080049,-153.219100,-592.164754,9474.636058
739.080365,-459.657299,518.144159,9030.512492
739.080680,153.219100,-222.061783,9400.615463
739.080996,766.095498,-1110.308913,8882.471304
739.081312,153.219100,-666.185348,9178.553681
739.081628,0.000000,-888.247130,9474.636058
739.081943,536.266849,-1036.288319,9770.718434
739.082259,383.047749,370.102971,9548.656652
739.082575,459.657299,962.267725,9252.574275
739.082891,995.924147,148.041188,9104.533087
739.083207,1072.533697,-0.000000,9548.656652
739.083522,383.047749,-0.000000,9992.780217
739.083838,842.705048,-296.082377,9548.656652
739.084154,766.095498,222.061783,9474.636058
739.084470,1302.362347,1406.391290,9992.780217
739.084785,2374.896044,666.185348,9104.533087
739.085101,2068.457845,592.164754,9030.512492
739.085417,1455.581446,1110.308913,9104.533087
739.085733,1378.971896,296.082377,9474.636058
739.086049,1455.581446,-0.000000,9918.759623
739.086364,842.705048,814.226536,10140.821405
739.086680,1225.752797,296.082377,10066.800811
739.086996,1455.581446,-0.000000,9696.697840
739.087312,306.438199,-0.000000,9844.739029
739.087627,383.047749,-296.082377,9992.780217
739.087943,919.314598,222.061783,9696.697840
739.088259,383.047749,1184.329507,9326.594869
739.088575,612.876398,740.205942,9474.636058
739.088891,1532.190996,-222.061783,9918.759623
739.089206,766.095498,-370.102971,9770.718434
739.089522,0.000000,-0.000000,9252.574275
739.089838,153.219100,-666.185348,9992.780217
739.090154,229.828649,-148.041188,10288.862594
739.090469,459.657299,592.164754,9474.636058
739.090785,1072.533697,-148.041188,9474.636058
739.091101,459.657299,-814.226536,9844.739029
739.091417,-306.438199,-296.082377,9696.697840
739.091733,0.000000,-592.164754,10288.862594
739.092048,229.828649,-444.123565,9770.718434
739.092364,0.000000,1480.411884,9252.574275
739.092680,1072.533697,740.205942,9104.533087
739.092995,995.924147,-814.226536,8808.450710
739.093311,383.047749,-444.123565,9400.615463
739.093627,0.000000,-1776.494261,9844.739029
739.093943,229.828649,-1628.453072,9474.636058
739.094258,-306.438199,-148.041188,9696.697840
739.094574,0.000000,-148.041188,9474.636058
739.094890,842.705048,-444.123565,9326.594869
739.095205,-306.438199,-370.102971,9474.636058
739.095521,-612.876398,-370.102971,9178.553681
739.095837,0.000000,-1258.350101,9474.636058
739.096152,-229.828649,-0.000000,8956.491898
739.096468,383.047749,-0.000000,8364.327145
739.096784,919.314598,-888.247130,8734.430116
739.097100,383.047749,-1406.391290,9400.615463
739.097415,-229.828649,-1110.308913,8882.471304
739.097731,76.609550,-1480.411884,8882.471304
739.098047,-229.828649,-1036.288319,9252.574275
739.098362,-536.266849,-296.082377,9474.636058
739.098678,0.000000,-518.144159,9474.636058
739.098994,153.219100,-962.267725,9474.636058
739.099309,-842.705048,-1036.288319,9474.636058
739.099625,-383.047749,-1554.432478,9696.697840
739.099941,-153.219100,-592.164754,9104.533087
739.100257,-306.438199,370.102971,9030.512492
739.100572,229.828649,-0.000000,8734.430116
739.100888,995.924147,-592.164754,8586.388927
739.101204,612.876398,-740.205942,9104.533087
739.101519,229.828649,-1258.350101,9326.594869
739.101835,229.828649,-1332.370696,9474.636058
739.102151,229.828649,-148.041188,9696.697840
739.102466,689.485948,-0.000000,9696.697840
739.102782,1378.971896,-74.020594,9030.512492
739.103098,612.876398,-0.000000,9326.594869
739.103413,306.438199,-370.102971,9178.553681
739.103729,766.095498,-962.267725,9474.636058
739.104045,306.438199,-222.061783,9918.759623
739.104361,153.219100,296.082377,9696.697840
739.104676,1608.800546,-222.061783,9474.636058
739.104992,1225.752797,592.164754,8882.471304
739.105308,306.438199,740.205942,9548.656652
739.105623,536.266849,-222.061783,9326.594869
739.105939,766.095498,-74.020594,9992.780217
739.106255,306.438199,888.247130,9770.718434
739.106570,842.705048,518.144159,9770.718434
739.106886,1532.190996,-74.020594,9918.759623
739.107202,536.266849,148.041188,10066.800811
739.107518,459.657299,296.082377,10140.821405
739.107833,689.485948,-74.020594,9844.739029
739.108149,689.485948,1702.473667,9918.759623
739.108465,536.266849,1480.411884,9252.574275
739.108780,1685.410096,518.144159,9400.615463
739.109096,1225.752797,148.041188,10362.883188
739.109412,0.000000,-222.061783,10066.800811
739.109727,536.266849,-666.185348,10140.821405
739.110043,536.266849,296.082377,10362.883188
739.110359,306.438199,1258.350101,9252.574275
739.110674,1072.533697,222.061783,9992.780217
739.110990,919.314598,-222.061783,9696.697840
739.111306,229.828649,-74.020594,9696.697840
739.111622,229.828649,-666.185348,9918.759623
739.111937,612.876398,-74.020594,9326.594869
739.112253,536.266849,888.247130,9178.553681
739.112569,1072.533697,518.144159,9326.594869
739.112884,1072.533697,74.020594,8586.388927
739.113200,76.609550,-148.041188,9104.533087
739.113516,0.000000,-888.247130,9474.636058
739.113831,229.828649,-1036.288319,9696.697840
739.114147,-306.438199,-296.082377,9474.636058
739.114463,153.219100,-296.082377,9844.739029
739.114779,229.828649,-1036.288319,10140.821405
739.115094,-383.047749,-740.205942,10066.800811
739.115410,-612.876398,-740.205942,9696.697840
739.115726,-306.438199,-370.102971,8882.471304
739.116041,536.266849,888.247130,9326.594869
739.116357,0.000000,740.205942,8956.491898
739.116673,842.705048,-592.164754,8660.409521
739.116988,536.266849,-888.247130,9326.594869
739.117304,76.609550,-1184.329507,9252.574275
739.117620,0.000000,-1924.535449,9474.636058
739.117936,-459.657299,-1406.391290,10066.800811
739.118251,-306.438199,-74.020594,9918.759623
739.118567,459.657299,-74.020594,9030.512492
739.118883,612.876398,-518.144159,9474.636058
739.119198,0.000000,-444.123565,9252.574275
739.119514,153.219100,-1554.432478,9326.594869
739.119830,0.000000,-1110.308913,9104.533087
739.120145,-153.219100,-0.000000,9104.533087
739.120461,383.047749,-74.020594,8882.471304
739.120777,1149.143247,-1628.453072,8808.450710
739.121092,0.000000,-1258.350101,9252.574275
739.121408,-229.828649,-1628.453072,9622.677246
739.121724,229.828649,-1702.473667,9844.739029
739.122040,229.828649,-444.123565,10140.821405
739.122355,919.314598,-0.000000,9770.718434
739.122671,1915.238745,-370.102971,9252.574275
739.122987,1225.752797,-0.000000,9252.574275
739.123302,842.705048,-0.000000,9474.636058
739.123618,1149.143247,-518.144159,8882.471304
739.123934,1225.752797,444.123565,8660.409521
739.124249,1225.752797,1036.288319,9178.553681
739.124565,1762.019645,-370.102971,8882.471304
739.124881,1302.362347,-444.123565,9474.636058
739.125197,0.000000,-296.082377,10066.800811
739.125512,612.876398,-1110.308913,9844.739029
739.125828,766.095498,-74.020594,9696.697840
739.126144,0.000000,962.267725,9770.718434
739.126459,306.438199,444.123565,9622.677246
739.126775,1072.533697,-370.102971,9770.718434
739.127091,306.438199,-0.000000,10066.800811
739.127406,-383.047749,-222.061783,9992.780217
739.127722,0.000000,-296.082377,9696.697840
739.128038,536.266849,962.267725,8956.491898
739.128353,766.095498,1628.453072,8956.491898
739.128669,1608.800546,222.061783,9252.574275
739.128985,919.314598,-444.123565,9622.677246
739.129301,76.609550,-0.000000,9474.636058
739.129616,459.657299,-814.226536,9400.615463
739.129932,689.485948,592.164754,10140.821405
739.130248,459.657299,1184.329507,9696.697840
739.130563,842.705048,592.164754,9622.677246
739.130879,766.095498,-0.000000,10362.883188
739.131195,-306.438199,-0.000000,9622.677246
739.131510,0.000000,-0.000000,9548.656652
739.131826,536.266849,444.123565,9548.656652
739.132142,0.000000,740.205942,9252.574275
739.132458,306.438199,518.144159,9992.780217
739.132773,919.314598,-296.082377,9622.677246
739.133089,0.000000,-74.020594,9770.718434
739.133405,306.438199,-666.185348,9548.656652
739.133720,306.438199,-814.226536,9548.656652
739.134036,229.828649,370.102971,9918.759623
739.134352,536.266849,592.164754,9696.697840
739.134667,1302.362347,-0.000000,9622.677246
739.134983,842.705048,-148.041188,9104.533087
739.135299,383.047749,-74.020594,9030.512492
739.135615,76.609550,-296.082377,9696.697840
739.135930,76.609550,148.041188,9252.574275
739.136246,536.266849,1184.329507,9104.533087
739.136562,842.705048,-148.041188,9030.512492
739.136877,459.657299,-592.164754,8808.450710
739.137193,-383.047749,-1110.308913,9474.636058
739.137509,-612.876398,-2072.576638,10066.800811
739.137824,-306.438199,-1332.370696,10066.800811
739.138140,-919.314598,-74.020594,10288.862594
739.138456,-229.828649,-222.061783,9696.697840
739.138771,0.000000,-1036.288319,10066.800811
739.139087,-306.438199,-370.102971,9548.656652
739.139403,-306.438199,-740.205942,8808.450710
739.139719,153.219100,-740.205942,9178.553681
739.140034,153.219100,-0.000000,9474.636058
739.140350,612.876398,444.123565,8512.368333
739.140666,1378.971896,-222.061783,8364.327145
739.140981,536.266849,-1110.308913,8734.430116
739.141297,76.609550,-1480.411884,9400.615463
739.141613,0.000000,-1554.432478,9696.697840
739.141928,0.000000,-222.061783,9400.615463
739.142244,0.000000,-0.000000,9622.677246
739.142560,842.705048,-888.247130,9474.636058
739.142876,383.047749,-740.205942,9548.656652
739.143191,76.609550,-518.144159,9326.594869
739.143507,229.828649,-1036.288319,9252.574275
739.143823,383.047749,-370.102971,9030.512492
739.144138,383.047749,370.102971,9474.636058
739.144454,919.314598,-148.041188,9104.533087
739.144770,1532.190996,-592.164754,8882.471304
739.145085,153.219100,-444.123565,9030.512492
739.145401,76.609550,-1258.350101,9548.656652
739.145717,919.314598,-962.267725,10214.842000
739.146033,459.657299,814.226536,9400.615463
739.146348,766.095498,592.164754,9770.718434
739.146664,1378.971896,-444.123565,9474.636058
739.146980,689.485948,-0.000000,9622.677246
739.147295,76.609550,-444.123565,9474.636058
739.147611,459.657299,-370.102971,9844.739029
739.147927,766.095498,962.267725,9474.636058
739.148242,766.095498,1554.432478,9030.512492
739.148558,1532.190996,666.185348,8734.430116
739.148874,995.924147,-0.000000,9252.574275
739.149189,76.609550,-296.082377,9548.656652
739.149505,383.047749,-1258.350101,10066.800811
739.149821,76.609550,-666.185348,10436.903782
739.150137,0.000000,592.164754,10214.842000
739.150452,612.876398,-592.164754,10288.862594
739.150768,536.266849,-518.144159,9918.759623
739.151084,-153.219100,370.102971,10214.842000
739.151399,0.000000,-222.061783,9474.636058
739.151715,306.438199,296.082377,9030.512492
739.152031,229.828649,1258.350101,9252.574275
739.152346,1302.362347,666.185348,9326.594869
739.152662,1915.238745,148.041188,8660.409521
739.152978,689.485948,-0.000000,8734.430116
739.153294,766.095498,-814.226536,9326.594869
739.153609,1149.143247,-740.205942,9844.739029
739.153925,536.266849,444.123565,9474.636058
739.154241,766.095498,740.205942,9918.759623
739.154556,1378.971896,-592.164754,9918.759623
739.154872,153.219100,-74.020594,10066.800811
739.155188,-153.219100,-0.000000,9770.718434
739.155503,459.657299,-0.000000,9326.594869
739.155819,612.876398,1036.288319,9326.594869
739.156135,459.657299,1850.514855,8438.347739
739.156450,1378.971896,222.061783,9178.553681
739.156766,1072.533697,-592.164754,9474.636058
739.157082,-306.438199,-518.144159,9474.636058
739.157398,-383.047749,-1628.453072,9622.677246
739.157713,0.000000,-1406.391290,10362.883188
739.158029,-1149.143247,148.041188,9992.780217
739.158345,0.000000,-0.000000,9696.697840
739.158660,459.657299,-518.144159,9770.718434
739.158976,0.000000,-222.061783,9696.697840
739.159292,76.609550,-222.061783,9178.553681
739.159607,536.266849,-0.000000,8364.327145
739.159923,536.266849,592.164754,9252.574275
739.160239,995.924147,888.247130,9104.533087
739.160555,1532.190996,-0.000000,8142.265362
739.160870,383.047749,-0.000000,8586.388927
739.161186,-383.047749,-740.205942,9770.718434
739.161502,0.000000,-1628.453072,9548.656652
739.161817,0.000000,-444.123565,9474.636058
739.162133,-153.219100,296.082377,9622.677246
739.162449,76.609550,-962.267725,10066.800811
739.162764,0.000000,-962.267725,9326.594869
739.163080,-995.924147,-814.226536,9992.780217
739.163396,-459.657299,-592.164754,10140.821405
739.163712,153.219100,296.082377,9400.615463
739.164027,76.609550,1702.473667,8808.450710
739.164343,689.485948,444.123565,8956.491898
739.164659,1378.971896,-814.226536,8808.450710
739.164974,612.876398,-74.020594,9030.512492
739.165290,76.609550,-666.185348,9844.739029
739.165606,919.314598,-444.123565,9992.780217
739.165921,536.266849,1036.288319,9252.574275
739.166237,919.314598,1184.329507,9252.574275
739.166553,1685.410096,-0.000000,9992.780217
739.166868,-229.828649,-222.061783,10214.842000
739.167184,0.000000,-74.020594,9918.759623
739.167500,536.266849,-74.020594,9770.718434
739.167816,689.485948,370.102971,9696.697840
739.168131,919.314598,1406.391290,9104.533087
739.168447,1302.362347,666.185348,9400.615463
739.168763,766.095498,-148.041188,9474.636058
739.169078,229.828649,-740.205942,9844.739029
739.169394,536.266849,-1332.370696,9770.718434
739.169710,536.266849,-592.164754,10214.842000
739.170025,842.705048,-0.000000,10140.821405
739.170341,1762.019645,-444.123565,9622.677246
739.170657,1455.581446,-592.164754,9474.636058
739.170973,766.095498,-74.020594,9918.759623
739.171288,689.485948,-0.000000,9030.512492
739.171604,536.266849,-0.000000,8956.491898
739.171920,689.485948,888.247130,9696.697840
739.172235,842.705048,518.144159,8808.450710
739.172551,1608.800546,-962.267725,9400.615463
739.172867,612.876398,-1332.370696,9326.594869
739.173182,-229.828649,-1258.350101,10066.800811
739.173498,306.438199,-1480.411884,9474.636058
739.173814,0.000000,-148.041188,9622.677246
739.174129,0.000000,518.144159,9696.697840
739.174445,842.705048,-518.144159,10140.821405
739.174761,306.438199,-962.267725,9622.677246
739.175077,-229.828649,-518.144159,9474.636058
739.175392,153.219100,-666.185348,9400.615463
739.175708,383.047749,222.061783,8956.491898
739.176024,612.876398,1110.308913,8882.471304
739.176339,1762.019645,-0.000000,8808.450710
739.176655,1149.143247,-74.020594,8660.409521
739.176971,536.266849,-740.205942,8586.388927
739.177286,0.000000,-1628.453072,9622.677246
739.177602,229.828649,-1332.370696,9992.780217
739.177918,-459.657299,-222.061783,9548.656652
739.178234,-76.609550,-0.000000,9770.718434
739.178549,153.219100,-592.164754,9918.759623
739.178865,-536.266849,-148.041188,9474.636058
739.179181,-459.657299,-592.164754,9104.533087
739.179496,-153.219100,-888.247130,9474.636058
739.179812,0.000000,-74.020594,9474.636058
739.180128,76.609550,-148.041188,8734.430116
739.180443,612.876398,-592.164754,8956.491898
739.180759,306.438199,-814.226536,9622.677246
739.181075,-229.828649,-370.102971,9252.574275
739.181391,76.609550,-740.205942,9104.533087
739.181706,0.000000,-148.041188,9474.636058
739.182022,229.828649,222.061783,9844.739029
739.182338,919.314598,-0.000000,9252.574275
739.182653,995.924147,-592.164754,9400.615463
739.182969,76.609550,-518.144159,9474.636058
739.183285,229.828649,-592.164754,9474.636058
739.183600,459.657299,-74.020594,9474.636058
739.183916,1378.971896,1332.370696,9030.512492
739.184232,1225.752797,1332.370696,8882.471304
739.184547,1378.971896,-0.000000,9326.594869
739.184863,536.266849,-370.102971,9400.615463
739.185179,229.828649,-740.205942,9474.636058
739.185495,383.047749,-740.205942,9400.615463
739.185810,383.047749,1036.288319,9696.697840
739.186126,689.485948,1332.370696,9770.718434
739.186442,1532.190996,222.061783,9770.718434
739.186757,612.876398,296.082377,9770.718434
739.187073,0.000000,-0.000000,10066.800811
739.187389,459.657299,-148.041188,9474.636058
739.187704,766.095498,888.247130,9474.636058
739.188020,612.876398,1480.411884,10066.800811
739.188336,1455.581446,592.164754,9326.594869
739.188652,1455.581446,-0.000000,9400.615463
739.188967,153.219100,-0.000000,9400.615463
739.189283,76.609550,-74.020594,9844.739029
739.189599,612.876398,-370.102971,10140.821405
739.189914,153.219100,518.144159,10140.821405
739.190230,612.876398,-74.020594,10510.924376
739.190546,1149.143247,-592.164754,9844.739029
739.190861,229.828649,-518.144159,10214.842000
739.191177,76.609550,-148.041188,9474.636058
739.191493,766.095498,-444.123565,9474.636058
739.191809,842.705048,518.144159,9252.574275
739.192124,689.485948,888.247130,9326.594869
739.192440,1608.800546,-370.102971,9326.594869
739.192756,766.095498,-1184.329507,9696.697840
739.193071,153.219100,-1406.391290,10140.821405
739.193387,766.095498,-1554.432478,9622.677246
739.193703,383.047749,-370.102971,9474.636058
739.194018,229.828649,222.061783,9548.656652
739.194334,689.485948,-814.226536,9326.594869
739.194650,995.924147,-962.267725,9474.636058
739.194966,0.000000,-888.247130,9770.718434
739.195281,0.000000,-1036.288319,9622.677246
739.195597,229.828649,-518.144159,9030.512492
739.195913,229.828649,444.123565,8734.430116
739.196228,536.266849,-444.123565,8586.388927
739.196544,1072.533697,-1406.391290,8882.471304
739.196860,-306.438199,-1480.411884,8586.388927
739.197176,-536.266849,-2146.597232,9548.656652
739.197491,0.000000,-2146.597232,9400.615463
739.197807,-306.438199,-1110.308913,9918.759623
739.198123,0.000000,-1036.288319,10658.965565
739.198438,153.219100,-1258.350101,9178.553681
739.198754,-536.266849,-592.164754,8882.471304
739.199070,-919.314598,-666.185348,9326.594869
739.199386,-229.828649,-1110.308913,8734.430116
739.199701,0.000000,-0.000000,8512.368333
739.200017,0.000000,-222.061783,8956.491898
739.200333,612.876398,-1480.411884,9326.594869
739.200648,383.047749,-1776.494261,9622.677246
739.200964,-919.314598,-1702.473667,9104.533087
739.201280,-459.657299,-1480.411884,9474.636058
739.201596,0.000000,-148.041188,9622.677246
739.201911,0.000000,962.267725,9030.512492
739.202227,383.047749,296.082377,9474.636058
739.202543,995.924147,-518.144159,9400.615463
739.202858,-153.219100,-148.041188,9178.553681
739.203174,0.000000,-592.164754,9178.553681
739.203490,536.266849,-444.123565,9474.636058
739.203806,383.047749,518.144159,9548.656652
739.204121,766.095498,444.123565,9104.533087
739.204437,1838.629195,148.041188,9030.512492
739.204753,1072.533697,148.041188,8956.491898
739.205068,842.705048,222.061783,9400.615463
739.205384,1072.533697,370.102971,9844.739029
739.205700,842.705048,1480.411884,9400.615463
739.206016,1225.752797,2072.576638,9252.574275
739.206331,1762.019645,740.205942,9622.677246
739.206647,1149.143247,666.185348,9474.636058
739.206963,459.657299,444.123565,9770.718434
739.207278,689.485948,962.267725,9992.780217
739.207594,689.485948,814.226536,10362.883188
739.207910,383.047749,1998.556043,10436.903782
739.208226,1532.190996,1406.391290,9252.574275
739.208541,1225.752797,592.164754,9474.636058
739.208857,229.828649,592.164754,10140.821405
739.209173,229.828649,-0.000000,10140.821405
739.209488,842.705048,148.041188,10066.800811
739.209804,0.000000,1184.329507,10807.006753
739.210120,612.876398,370.102971,10881.027347
739.210436,842.705048,-0.000000,9474.636058
739.210751,-306.438199,-148.041188,10584.944971
739.211067,-306.438199,296.082377,10288.862594
739.211383,919.314598,222.061783,9252.574275
739.211698,766.095498,1110.308913,9178.553681
739.212014,536.266849,1702.473667,9548.656652
739.212330,1762.019645,-370.102971,9178.553681
739.212646,1149.143247,-0.000000,8882.471304
739.212961,0.000000,-370.102971,9696.697840
739.213277,1225.752797,-1258.350101,10436.903782
739.213593,842.705048,444.123565,9400.615463
739.213908,76.609550,888.247130,8882.471304
739.214224,536.266849,-666.185348,10288.862594
739.214540,612.876398,-1110.308913,9844.739029
739.214856,-536.266849,-370.102971,9326.594869
739.215171,0.000000,-148.041188,9992.780217
739.215487,229.828649,148.041188,9326.594869
739.215803,383.047749,962.267725,8956.491898
739.216118,383.047749,888.247130,8808.450710
739.216434,1608.800546,-74.020594,8586.388927
739.216750,689.485948,-0.000000,8364.327145
739.217066,0.000000,-740.205942,8882.471304
739.217381,229.828649,-1702.473667,9622.677246
739.217697,306.438199,-148.041188,9992.780217
739.218013,0.000000,-74.020594,9474.636058
739.218328,153.219100,-962.267725,9474.636058
739.218644,0.000000,-444.123565,9474.636058
739.218960,-306.438199,-518.144159,8956.491898
739.219276,-383.047749,-740.205942,9178.553681
739.219591,229.828649,-74.020594,9178.553681
739.219907,0.000000,-0.000000,8438.347739
739.220223,536.266849,-1332.370696,8956.491898
739.220538,459.657299,-1998.556043,9400.615463
739.220854,-383.047749,-2368.659014,8956.491898
739.221170,-612.876398,-2368.659014,9844.739029
739.221486,229.828649,-1924.535449,9696.697840
739.221801,0.000000,-74.020594,8956.491898
739.222117,842.705048,-1184.329507,9918.759623
739.222433,383.047749,-1332.370696,9474.636058
739.222748,-153.219100,-1332.370696,9474.636058
739.223064,306.438199,-1258.350101,9252.574275
739.223380,919.314598,-1258.350101,9030.512492
739.223696,612.876398,-0.000000,9030.512492
739.224011,995.924147,222.061783,8956.491898
739.224327,1302.362347,-222.061783,8882.471304
739.224643,536.266849,-962.267725,9400.615463
739.224958,0.000000,-1110.308913,9696.697840
739.225274,0.000000,-1332.370696,9918.759623
739.225590,0.000000,-962.267725,9918.759623
739.225906,0.000000,-370.102971,10658.965565
739.226221,689.485948,-962.267725,10066.800811
739.226537,383.047749,-370.102971,9770.718434
739.226853,0.000000,-148.041188,9992.780217
739.227168,-229.828649,-370.102971,9548.656652
739.227484,306.438199,148.041188,9844.739029
739.227800,229.828649,962.267725,9326.594869
739.228116,919.314598,-0.000000,9326.594869
739.228431,1302.362347,-370.102971,9178.553681
739.228747,612.876398,-666.185348,9104.533087
739.229063,383.047749,-1184.329507,9844.739029
739.229378,612.876398,-666.185348,10288.862594
739.229694,919.314598,888.247130,9992.780217
739.230010,842.705048,592.164754,10362.883188
739.230326,1072.533697,296.082377,9474.636058
739.230641,689.485948,-0.000000,9548.656652
739.230957,306.438199,-0.000000,9622.677246
739.231273,842.705048,-740.205942,9770.718434
739.231588,612.876398,518.144159,9918.759623
739.231904,536.266849,1036.288319,9326.594869
739.232220,1685.410096,-0.000000,9326.594869
739.232536,919.314598,296.082377,9326.594869
739.232851,153.219100,296.082377,9178.553681
739.233167,306.438199,-592.164754,9844.739029
739.233483,612.876398,-0.000000,9696.697840
739.233798,766.095498,444.123565,9696.697840
739.234114,1072.533697,-0.000000,9844.739029
739.234430,995.924147,-0.000000,9474.636058
739.234746,0.000000,148.041188,9178.553681
739.235061,306.438199,-222.061783,9992.780217
739.235377,536.266849,444.123565,9030.512492
739.235693,383.047749,1406.391290,8882.471304
739.236008,995.924147,740.205942,9178.553681
739.236324,1225.752797,-296.082377,8734.430116
739.236640,229.828649,-0.000000,8808.450710
739.236956,-306.438199,-1036.288319,9696.697840
739.237271,76.609550,-1036.288319,10066.800811
739.237587,-306.438199,-370.102971,10066.800811
739.237903,-229.828649,-148.041188,9548.656652
739.238218,229.828649,-740.205942,9770.718434
739.238534,-229.828649,-1036.288319,9400.615463
739.238850,-689.485948,-1110.308913,10066.800811
739.239166,-229.828649,-1036.288319,9918.759623
739.239481,0.000000,-444.123565,9326.594869
739.239797,306.438199,1406.391290,8586.388927
739.240113,995.924147,148.041188,8956.491898
739.240428,995.924147,-814.226536,8586.388927
739.240744,229.828649,-1036.288319,8882.471304
739.241060,0.000000,-1554.432478,9696.697840
739.241376,229.828649,-1480.411884,10214.842000
739.241691,153.219100,-0.000000,9770.718434
739.242007,459.657299,-222.061783,9400.615463
739.242323,842.705048,-962.267725,9326.594869
739.242638,-229.828649,-666.185348,9918.759623
739.242954,-229.828649,-1036.288319,9474.636058
739.243270,306.438199,-888.247130,9992.780217
739.243585,536.266849,296.082377,9400.615463
739.243901,1608.800546,1258.350101,8290.306550
739.244217,1455.581446,-296.082377,8512.368333
739.244533,536.266849,-1258.350101,9030.512492
739.244848,153.219100,-1776.494261,9844.739029
739.245164,536.266849,-1480.411884,9844.739029
739.245480,76.609550,-592.164754,9474.636058
739.245795,459.657299,814.226536,9474.636058
739.246111,1072.533697,-518.144159,9622.677246
739.246427,919.314598,-666.185348,9696.697840
739.246743,153.219100,-0.000000,9548.656652
739.247058,306.438199,-518.144159,9326.594869
739.247374,306.438199,296.082377,9622.677246
739.247690,153.219100,1110.308913,9326.594869
739.248005,919.314598,740.205942,8586.388927
739.248321,1378.971896,370.102971,9252.574275
739.248637,1072.533697,370.102971,9252.574275
739.248953,0.000000,-222.061783,9548.656652
739.249268,536.266849,-74.020594,9992.780217
739.249584,0.000000,370.102971,9992.780217
739.249900,153.219100,444.123565,10066.800811
739.250215,766.095498,-0.000000,10362.883188
739.250531,0.000000,222.061783,9696.697840
739.250847,0.000000,814.226536,9770.718434
739.251163,383.047749,518.144159,8734.430116
739.251478,459.657299,1258.350101,9400.615463
739.251794,612.876398,1554.432478,9030.512492
739.252110,1149.143247,518.144159,8364.327145
739.252425,842.705048,518.144159,9104.533087
739.252741,0.000000,444.123565,9474.636058
739.253057,612.876398,-370.102971,9400.615463
739.253373,536.266849,222.061783,9918.759623
739.253688,153.219100,962.267725,9918.759623
739.254004,459.657299,370.102971,9918.759623
739.254320,689.485948,-74.020594,9992.780217
739.254635,0.000000,444.123565,10066.800811
739.254951,-229.828649,-74.020594,10436.903782
739.255267,536.266849,814.226536,9252.574275
739.255583,0.000000,1924.535449,9770.718434
739.255898,766.095498,1258.350101,9326.594869
739.256214,1072.533697,-148.041188,8956.491898
739.256530,612.876398,-0.000000,9474.636058
739.256845,76.609550,-740.205942,10140.821405
739.257161,689.485948,-1184.329507,10066.800811
739.257477,459.657299,222.061783,10066.800811
739.257793,229.828649,518.144159,9844.739029
739.258108,995.924147,-814.226536,9622.677246
739.258424,229.828649,-518.144159,9696.697840
739.258740,-383.047749,-592.164754,9844.739029
739.259055,0.000000,-1332.370696,9918.759623
739.259371,1072.533697,-0.000000,9770.718434
739.259687,612.876398,1036.288319,8956.491898
739.260003,1072.533697,-740.205942,8586.388927
739.260318,995.924147,-1554.432478,9252.574275
739.260634,0.000000,-1628.453072,9326.594869
739.260950,76.609550,-2220.617826,9474.636058
739.261265,0.000000,-1924.535449,9844.739029
739.261581,0.000000,-296.082377,9622.677246
739.261897,766.095498,-888.247130,9548.656652
739.262213,383.047749,-1184.329507,9474.636058
739.262528,229.828649,-1480.411884,9548.656652
739.262844,-153.219100,-1184.329507,9474.636058
739.263160,306.438199,-888.247130,9030.512492
739.263475,153.219100,-0.000000,9030.512492
739.263791,1149.143247,-0.000000,8956.491898
739.264107,1225.752797,-1184.329507,8586.388927
739.264423,459.657299,-222.061783,8438.347739
739.264738,0.000000,-814.226536,8882.471304
739.265054,689.485948,-1776.494261,9474.636058
739.265370,689.485948,-444.123565,9474.636058
739.265685,0.000000,-0.000000,9770.718434
739.266001,919.314598,-666.185348,9770.718434
739.266317,766.095498,-962.267725,9326.594869
739.266633,-306.438199,-74.020594,9252.574275
739.266948,76.609550,-370.102971,9474.636058
739.267264,306.438199,-222.061783,9104.533087
739.267580,153.219100,740.205942,8512.368333
739.267895,689.485948,-0.000000,8956.491898
739.268211,995.924147,-1110.308913,9104.533087
739.268527,0.000000,-666.185348,9622.677246
739.268843,0.000000,-740.205942,9400.615463
739.269158,459.657299,-444.123565,9474.636058
739.269474,383.047749,-0.000000,9474.636058
739.269790,306.438199,296.082377,9474.636058
739.270105,306.438199,-1332.370696,9844.739029
739.270421,-229.828649,-1110.308913,9918.759623
739.270737,-612.876398,-1036.288319,9918.759623
739.271053,0.000000,-1184.329507,10066.800811
739.271368,229.828649,-0.000000,10140.821405
739.271684,0.000000,1110.308913,9548.656652
739.272000,919.314598,592.164754,8882.471304
739.272315,689.485948,-74.020594,9104.533087
739.272631,0.000000,-518.144159,9622.677246
739.272947,612.876398,-1110.308913,10066.800811
739.273263,919.314598,-814.226536,10214.842000
739.273578,76.609550,592.164754,9400.615463
739.273894,1072.533697,-0.000000,9918.759623
739.274210,1302.362347,-370.102971,9622.677246
739.274525,0.000000,-0.000000,9844.739029
739.274841,-153.219100,-296.082377,9918.759623
739.275157,536.266849,-0.000000,10214.842000
739.275473,459.657299,1406.391290,8956.491898
739.275788,689.485948,1110.308913,9326.594869
739.276104,1302.362347,-444.123565,9770.718434
739.276420,689.485948,-370.102971,9400.615463
739.276735,-383.047749,-592.164754,9770.718434
739.277051,0.000000,-1036.288319,10288.862594
739.277367,536.266849,222.061783,10214.842000
739.277683,306.438199,1036.288319,9326.594869
739.277998,766.095498,-370.102971,9548.656652
739.278314,612.876398,-740.205942,10140.821405
739.278630,0.000000,-444.123565,9844.739029
739.278945,153.219100,-814.226536,9178.553681
739.279261,153.219100,148.041188,9326.594869
739.279577,919.314598,1036.288319,9252.574275
739.279893,995.924147,148.041188,8512.368333
739.280208,1302.362347,-814.226536,8734.430116
739.280524,0.000000,-740.205942,9622.677246
739.280840,-229.828649,-1998.556043,9696.697840
739.281155,383.047749,-1110.308913,9548.656652
739.281471,153.219100,148.041188,9400.615463
739.281787,229.828649,-0.000000,8660.409521
739.282103,919.314598,-962.267725,9326.594869
739.282418,229.828649,-518.144159,9252.574275
739.282734,0.000000,-740.205942,9030.512492
739.283050,766.095498,-0.000000,8808.450710
739.283365,689.485948,1776.494261,8660.409521
739.283681,842.705048,1480.411884,8438.347739
739.283997,1915.238745,666.185348,8512.368333
739.284313,1225.752797,296.082377,8512.368333
739.284628,0.000000,222.061783,8956.491898
739.284944,612.876398,-370.102971,9918.759623
739.285260,612.876398,370.102971,9474.636058
739.285575,229.828649,2146.597232,9622.677246
739.285891,842.705048,1332.370696,9918.759623
739.286207,612.876398,888.247130,9622.677246
739.286523,-229.828649,888.247130,9252.574275
739.286838,-306.438199,-222.061783,10140.821405
739.287154,76.609550,666.185348,10140.821405
739.287470,0.000000,2220.617826,10140.821405
739.287785,536.266849,1776.494261,9178.553681
739.288101,766.095498,1036.288319,9474.636058
739.288417,0.000000,814.226536,9992.780217
739.288733,0.000000,-0.000000,9696.697840
739.289048,229.828649,-0.000000,9992.780217
739.289364,76.609550,740.205942,10214.842000
739.289680,306.438199,222.061783,9992.780217
739.289995,689.485948,-888.247130,10658.965565
739.290311,383.047749,-1036.288319,10584.944971
739.290627,-842.705048,-666.185348,9918.759623
739.290943,153.219100,-814.226536,10288.862594
739.291258,76.609550,222.061783,9400.615463
739.291574,842.705048,1036.288319,9548.656652
739.291890,1302.362347,-222.061783,9104.533087
739.292205,919.314598,-1184.329507,9474.636058
739.292521,153.219100,-1184.329507,9770.718434
739.292837,229.828649,-2294.638420,9992.780217
739.293153,153.219100,-1702.473667,10584.944971
739.293468,306.438199,-740.205942,10214.842000
739.293784,1072.533697,-148.041188,9400.615463
739.294100,995.924147,-962.267725,9622.677246
739.294416,0.000000,-1332.370696,10066.800811
739.294731,-306.438199,-666.185348,9992.780217
739.295047,1072.533697,-370.102971,9400.615463
739.295363,842.705048,740.205942,8882.471304
739.295679,1149.143247,962.267725,8512.368333
739.295995,1915.238745,-370.102971,8956.491898
739.296310,995.924147,-1110.308913,8882.471304
739.296626,0.000000,-962.267725,8956.491898
739.296942,689.485948,-1110.308913,9474.636058
739.297258,153.219100,-666.185348,9326.594869
739.297574,0.000000,-0.000000,9474.636058
739.297889,842.705048,-1110.308913,9548.656652
739.298205,76.609550,-1332.370696,9178.553681
739.298521,-995.924147,-1258.350101,9622.677246
739.298837,-612.876398,-1628.453072,9326.594869
739.299153,383.047749,-592.164754,8882.471304
739.299468,-229.828649,592.164754,8438.347739
739.299784,612.876398,-518.144159,8586.388927
739.300100,919.314598,-1702.473667,8660.409521
739.300416,153.219100,-1776.494261,8734.430116
739.300732,-153.219100,-1776.494261,9252.574275
739.301047,229.828649,-1480.411884,9622.677246
739.301363,0.000000,148.041188,8956.491898
739.301679,689.485948,74.020594,8438.347739
739.301995,1455.581446,-888.247130,8882.471304
739.302311,153.219100,-1258.350101,9474.636058
739.302626,-459.657299,-1258.350101,9474.636058
739.302942,76.609550,-1406.391290,9252.574275
739.303258,383.047749,222.061783,9252.574275
739.303574,76.609550,444.123565,9400.615463
739.303890,842.705048,-74.020594,9030.512492
739.304205,383.047749,-296.082377,9030.512492
739.304521,-459.657299,-370.102971,9844.739029
739.304837,76.609550,-888.247130,9844.739029
739.305153,153.219100,-0.000000,9474.636058
739.305469,76.609550,1406.391290,9400.615463
739.305784,459.657299,-0.000000,9918.759623
739.306100,919.314598,-518.144159,9992.780217
739.306416,-306.438199,-0.000000,10140.821405
739.306732,-306.438199,-148.041188,9918.759623
739.307048,536.266849,222.061783,10140.821405
739.307363,306.438199,1702.473667,8956.491898
739.307679,612.876398,1924.535449,9104.533087
739.307995,1225.752797,-0.000000,9918.759623
739.308311,612.876398,-0.000000,9548.656652
739.308627,-229.828649,-0.000000,9844.739029
739.308942,229.828649,-370.102971,10658.965565
739.309258,536.266849,1480.411884,9548.656652
739.309574,459.657299,1554.432478,9696.697840
739.309890,1302.362347,444.123565,10140.821405
739.310206,689.485948,-74.020594,10066.800811
739.310521,-229.828649,-74.020594,10066.800811
739.310837,383.047749,222.061783,10140.821405
739.311153,612.876398,1036.288319,9400.615463
739.311469,766.095498,1998.556043,9770.718434
739.311785,1455.581446,740.205942,9326.594869
739.312100,1608.800546,-0.000000,9326.594869
739.312416,229.828649,-148.041188,9844.739029
739.312732,0.000000,-666.185348,9844.739029
739.313048,383.047749,-666.185348,10362.883188
739.313364,919.314598,-370.102971,10732.986159
739.313679,153.219100,-0.000000,10436.903782
739.313995,612.876398,-148.041188,9918.759623
739.314311,766.095498,-1110.308913,9400.615463
739.314627,0.000000,-666.185348,9696.697840
739.314943,153.219100,-0.000000,9844.739029
739.315258,919.314598,518.144159,8290.306550
739.315574,1378.971896,740.205942,8734.430116
739.315890,689.485948,-740.205942,8808.450710
739.316206,766.095498,-1924.535449,9252.574275
739.316522,612.876398,-1406.391290,8808.450710
739.316837,-229.828649,-1776.494261,9400.615463
739.317153,153.219100,-962.267725,9992.780217
739.317469,-229.828649,-0.000000,8956.491898
739.317785,842.705048,-148.041188,9400.615463
739.318101,383.047749,-1702.473667,9474.636058
739.318416,-612.876398,-1776.494261,8734.430116
739.318732,0.000000,-1628.453072,9548.656652
739.319048,306.438199,-1184.329507,9104.533087
739.319364,153.219100,-0.000000,8142.265362
739.319680,1225.752797,-74.020594,9030.512492
739.319996,1225.752797,-1036.288319,8512.368333
739.320311,229.828649,-296.082377,7624.121203
739.320627,76.609550,-1258.350101,9474.636058
739.320943,689.485948,-1702.473667,9622.677246
739.321259,612.876398,-0.000000,9104.533087
739.321575,995.924147,592.164754,9178.553681
739.321890,919.314598,-592.164754,8734.430116
739.322206,689.485948,-740.205942,9326.594869
739.322522,229.828649,-518.144159,9030.512492
739.322838,76.609550,-814.226536,8808.450710
739.323154,536.266849,-0.000000,9178.553681
739.323469,612.876398,740.205942,9252.574275
739.323785,995.924147,-222.061783,8956.491898
739.324101,919.314598,-814.226536,9104.533087
739.324417,0.000000,-888.247130,9178.553681
739.324733,76.609550,-814.226536,9326.594869
739.325048,689.485948,-74.020594,10214.842000
739.325364,0.000000,666.185348,9400.615463
739.325680,842.705048,444.123565,9770.718434
739.325996,995.924147,-296.082377,10214.842000
739.326312,0.000000,-74.020594,9622.677246
739.326627,0.000000,-74.020594,9844.739029
739.326943,689.485948,-74.020594,9770.718434
739.327259,536.266849,1702.473667,9400.615463
739.327575,306.438199,1702.473667,9696.697840
739.327891,919.314598,148.041188,9770.718434
739.328206,459.657299,-0.000000,9918.759623
739.328522,-229.828649,222.061783,9696.697840
739.328838,153.219100,-74.020594,10214.842000
739.329154,536.266849,666.185348,10362.883188
739.329470,383.047749,1406.391290,9844.739029
739.329785,766.095498,-0.000000,10214.842000
739.330101,766.095498,-518.144159,10362.883188
739.330417,-306.438199,296.082377,9918.759623
739.330733,0.000000,296.082377,9770.718434
739.331049,919.314598,962.267725,10436.903782
739.331364,689.485948,2072.576638,9622.677246
739.331680,1378.971896,1702.473667,8808.450710
739.331996,1455.581446,148.041188,9326.594869
739.332312,536.266849,-370.102971,9252.574275
739.332628,0.000000,-1036.288319,10584.944971
739.332943,612.876398,-666.185348,10584.944971
739.333259,536.266849,740.205942,10214.842000
739.333575,766.095498,1036.288319,9844.739029
739.333891,1072.533697,74.020594,9918.759623
739.334207,536.266849,666.185348,9030.512492
739.334522,76.609550,814.226536,9326.594869
739.334838,689.485948,518.144159,9474.636058
739.335154,842.705048,1628.453072,8586.388927
739.335470,842.705048,1480.411884,9030.512492
739.335786,1072.533697,-296.082377,8734.430116
739.336101,689.485948,-1184.329507,9104.533087
739.336417,0.000000,-1110.308913,9252.574275
739.336733,-153.219100,-1628.453072,9770.718434
739.337049,0.000000,-666.185348,10214.842000
739.337365,153.219100,518.144159,9770.718434
739.337680,153.219100,-0.000000,9622.677246
739.337996,459.657299,-666.185348,9326.594869
739.338312,-229.828649,-592.164754,8956.491898
739.338628,-153.219100,-1110.308913,9178.553681
739.338944,-76.609550,-888.247130,9474.636058
739.339259,306.438199,444.123565,8364.327145
739.339575,766.095498,222.061783,8216.285956
739.339891,1149.143247,-1036.288319,8438.347739
739.340207,229.828649,-1628.453072,8586.388927
739.340523,-459.657299,-1924.535449,9104.533087
739.340838,229.828649,-2220.617826,9622.677246
739.341154,-153.219100,-444.123565,9252.574275
739.341470,76.609550,-148.041188,9474.636058
739.341786,459.657299,-962.267725,9548.656652
739.342102,306.438199,-1110.308913,9178.553681
739.342417,-229.828649,-888.247130,9178.553681
739.342733,0.000000,-1332.370696,9474.636058
739.343049,536.266849,-444.123565,9548.656652
739.343365,459.657299,592.164754,8586.388927
739.343681,1762.019645,222.061783,8586.388927
739.343996,1378.971896,-296.082377,8660.409521
739.344312,766.095498,-296.082377,8734.430116
739.344628,689.485948,-962.267725,9474.636058
739.344944,689.485948,-148.041188,9400.615463
739.345260,689.485948,296.082377,9696.697840
739.345576,842.705048,-0.000000,9622.677246
739.345891,1378.971896,-444.123565,9178.553681
739.346207,153.219100,-740.205942,9548.656652
739.346523,-383.047749,-962.267725,10066.800811
739.346839,0.000000,-1110.308913,10140.821405
739.347155,0.000000,740.205942,9474.636058
739.347470,0.000000,1332.370696,9104.533087
739.347786,612.876398,-0.000000,8808.450710
739.348102,229.828649,-740.205942,9252.574275
739.348418,-995.924147,-1628.453072,10214.842000
739.348734,0.000000,-2146.597232,10436.903782
739.349049,153.219100,-814.226536,10584.944971
739.349365,0.000000,-0.000000,9770.718434
739.349681,383.047749,-666.185348,10288.862594
739.349997,1072.533697,-1776.494261,10140.821405
739.350313,-229.828649,-666.185348,9844.739029
739.350628,-229.828649,-592.164754,9992.780217
739.350944,536.266849,-0.000000,9992.780217
739.351260,995.924147,1332.370696,9030.512492
739.351576,1762.019645,1036.288319,9326.594869
739.351892,1838.629195,-296.082377,8808.450710
739.352207,919.314598,-518.144159,9104.533087
739.352523,766.095498,-1110.308913,10214.842000
739.352839,842.705048,-1702.473667,10140.821405
739.353155,536.266849,-0.000000,10510.924376
739.353471,1072.533697,370.102971,9844.739029
739.353786,995.924147,-296.082377,9992.780217
739.354102,459.657299,-444.123565,9992.780217
739.354418,-153.219100,-222.061783,9918.759623
739.354734,0.000000,-296.082377,10288.862594
739.355050,459.657299,1258.350101,9548.656652
739.355365,459.657299,1850.514855,7994.224174
739.355681,1072.533697,740.205942,8734.430116
739.355997,689.485948,-444.123565,9548.656652
739.356313,153.219100,-888.247130,8290.306550
739.356629,-153.219100,-1776.494261,10584.944971
739.356944,153.219100,-1406.391290,9844.739029
739.357260,153.219100,222.061783,9548.656652
739.357576,612.876398,518.144159,9252.574275
739.357892,919.314598,148.041188,9104.533087
739.358208,-383.047749,444.123565,8956.491898
739.358523,-229.828649,-518.144159,9400.615463
739.358839,76.609550,-592.164754,9252.574275
739.359155,76.609550,814.226536,8586.388927
739.359471,995.924147,-0.000000,8216.285956
739.359787,306.438199,-740.205942,8216.285956
739.360102,0.000000,-962.267725,9326.594869
739.360418,-459.657299,-1480.411884,9474.636058
739.360734,-383.047749,-1184.329507,9844.739029
739.361050,-383.047749,-0.000000,9770.718434
739.361366,-229.828649,370.102971,9252.574275
739.361681,689.485948,-74.020594,9548.656652
739.361997,689.485948,-666.185348,9548.656652
739.362313,0.000000,-444.123565,9326.594869
739.362629,306.438199,-74.020594,9548.656652
739.362945,612.876398,666.185348,8882.471304
739.363260,995.924147,1776.494261,8142.265362
739.363576,1378.971896,1406.391290,7994.224174
739.363892,1149.143247,222.061783,8734.430116
739.364208,536.266849,-148.041188,9622.677246
739.364524,383.047749,-592.164754,9622.677246
739.364839,689.485948,-592.164754,10807.006753
739.365155,306.438199,888.247130,9992.780217
739.365471,842.705048,814.226536,9770.718434
739.365787,1685.410096,518.144159,9992.780217
739.366103,0.000000,666.185348,9252.574275
739.366418,-153.219100,-0.000000,10288.862594
739.366734,76.609550,-222.061783,10658.965565
739.367050,383.047749,518.144159,10584.944971
739.367366,306.438199,1480.411884,9696.697840
739.367682,1149.143247,296.082377,9548.656652
739.367997,536.266849,-74.020594,9622.677246
739.368313,0.000000,222.061783,10362.883188
739.368629,766.095498,-888.247130,10658.965565
739.368945,689.485948,740.205942,9474.636058
739.369261,689.485948,1406.391290,8956.491898
739.369576,1608.800546,-222.061783,10584.944971
739.369892,1532.190996,-0.000000,9844.739029
739.370208,306.438199,-0.000000,9770.718434
739.370524,689.485948,-1628.453072,10214.842000
739.370840,842.705048,-0.000000,9770.718434
739.371156,306.438199,1184.329507,9474.636058
739.371471,1225.752797,-0.000000,9030.512492
739.371787,1532.190996,-518.144159,9770.718434
739.372103,612.876398,-1110.308913,9844.739029
739.372419,383.047749,-740.205942,9622.677246
739.372735,536.266849,-1258.350101,9770.718434
739.373050,459.657299,-666.185348,9770.718434
739.373366,1072.533697,222.061783,9030.512492
739.373682,1149.143247,-518.144159,9178.553681
739.373998,919.314598,-814.226536,9918.759623
739.374314,0.000000,-888.247130,9178.553681
739.374629,1149.143247,-888.247130,9474.636058
739.374945,1072.533697,-0.000000,9030.512492
739.375261,1072.533697,740.205942,8364.327145
739.375577,1685.410096,222.061783,8216.285956
739.375893,1685.410096,-814.226536,9178.553681
739.376208,306.438199,-444.123565,9030.512492
739.376524,153.219100,-1110.308913,9474.636058
739.376840,229.828649,-814.226536,9178.553681
739.377156,0.000000,296.082377,8956.491898
739.377472,0.000000,-222.061783,9252.574275
739.377787,536.266849,-1258.350101,9770.718434
739.378103,-766.095498,-888.247130,9622.677246
739.378419,-766.095498,-888.247130,9474.636058
739.378735,-383.047749,-888.247130,9030.512492
739.379051,-612.876398,444.123565,8882.471304
739.379366,306.438199,222.061783,9178.553681
739.379682,842.705048,-814.226536,8808.450710
739.379998,76.609550,-518.144159,8364.327145
739.380314,-689.485948,-1036.288319,9030.512492
739.380630,0.000000,-1850.514855,9474.636058
739.380945,383.047749,-0.000000,9474.636058
739.381261,-306.438199,444.123565,9104.533087
739.381577,536.266849,-222.061783,9400.615463
739.381893,153.219100,-740.205942,9548.656652
739.382209,-689.485948,-888.247130,9548.656652
739.382524,-229.828649,-888.247130,10214.842000
739.382840,0.000000,-222.061783,9548.656652
739.383156,0.000000,1554.432478,9252.574275
739.383472,459.657299,592.164754,8808.450710
739.383788,1072.533697,-666.185348,9326.594869
739.384103,153.219100,-518.144159,9992.780217
739.384419,-229.828649,-888.247130,10510.924376
739.384735,842.705048,-74.020594,9474.636058
739.385051,612.876398,962.267725,9696.697840
739.385367,1302.362347,1258.350101,9474.636058
739.385682,1302.362347,148.041188,9474.636058
739.385998,842.705048,148.041188,9844.739029
739.386314,-306.438199,-0.000000,9696.697840
739.386630,459.657299,-296.082377,10066.800811
739.386946,766.095498,888.247130,9548.656652
739.387261,383.047749,1036.288319,9548.656652
739.387577,995.924147,296.082377,9844.739029
739.387893,919.314598,-0.000000,9696.697840
739.388209,0.000000,-222.061783,9770.718434
739.388525,536.266849,-666.185348,10288.862594
739.388840,919.314598,-0.000000,10288.862594
739.389156,153.219100,518.144159,9696.697840
739.389472,919.314598,-0.000000,10066.800811
739.389788,1072.533697,-740.205942,10066.800811
739.390104,459.657299,-592.164754,10140.821405
739.390419,0.000000,-0.000000,9622.677246
739.390735,995.924147,-74.020594,9474.636058
739.391051,995.924147,1554.432478,8882.471304
739.391367,1532.190996,1110.308913,8734.430116
739.391683,1608.800546,-74.020594,9696.697840
739.391998,1072.533697,-962.267725,9326.594869
739.392314,306.438199,-1332.370696,9696.697840
739.392630,536.266849,-592.164754,10214.842000
739.392946,842.705048,740.205942,9400.615463
739.393262,766.095498,666.185348,9400.615463
739.393577,919.314598,-74.020594,10066.800811
739.393893,459.657299,-888.247130,9696.697840
739.394209,-459.657299,-962.267725,9178.553681
739.394525,536.266849,-962.267725,9918.759623
739.394841,612.876398,-0.000000,9326.594869
739.395156,459.657299,962.267725,8068.244768
739.395470,842.705048,518.144159,8882.471304
739.395786,842.705048,-814.226536,9252.574275
739.396101,0.000000,-1258.350101,8956.491898
739.396417,-383.047749,-1406.391290,9400.615463
739.396733,-383.047749,-1480.411884,9474.636058
739.397048,76.609550,-222.061783,9474.636058
739.397364,153.219100,-518.144159,9918.759623
739.397680,153.219100,-1258.350101,9474.636058
739.397996,-919.314598,-962.267725,8882.471304
739.398311,-1225.752797,-1406.391290,9474.636058
739.398627,-306.438199,-962.267725,8808.450710
739.398943,76.609550,148.041188,8290.306550
739.399258,76.609550,-0.000000,9178.553681
739.399574,689.485948,-1406.391290,9030.512492
739.399890,0.000000,-1702.473667,9104.533087
739.400205,-919.314598,-1628.453072,9030.512492
739.400521,0.000000,-1258.350101,9474.636058
739.400837,229.828649,-74.020594,9178.553681
739.401152,0.000000,888.247130,9178.553681
739.401468,536.266849,-0.000000,9474.636058
739.401784,689.485948,-740.205942,9992.780217
739.402099,-229.828649,-592.164754,9474.636058
739.402415,0.000000,-444.123565,9178.553681
739.402731,842.705048,444.123565,9104.533087
739.403047,842.705048,1628.453072,9474.636058
739.403362,1455.581446,1332.370696,8956.491898
739.403678,1532.190996,-0.000000,9474.636058
739.403994,1072.533697,-74.020594,9326.594869
739.404309,766.095498,-296.082377,9696.697840
739.404625,919.314598,-444.123565,10214.842000
739.404941,1225.752797,592.164754,10140.821405
739.405256,842.705048,666.185348,10510.924376
739.405572,1455.581446,-74.020594,10140.821405
739.405888,995.924147,370.102971,9474.636058
739.406203,76.609550,592.164754,9104.533087
739.406519,919.314598,-148.041188,9622.677246
739.406835,1225.752797,740.205942,10140.821405
739.407150,842.705048,962.267725,9696.697840
739.407466,1532.190996,296.082377,9326.594869
739.407782,1225.752797,-222.061783,9696.697840
739.408098,689.485948,-296.082377,9622.677246
739.408413,536.266849,-222.061783,9474.636058
739.408729,842.705048,-0.000000,9548.656652
739.409045,536.266849,814.226536,10436.903782
739.409360,689.485948,518.144159,10140.821405
739.409676,536.266849,-222.061783,9844.739029
739.409992,76.609550,-370.102971,9548.656652
739.410307,-536.266849,-518.144159,10066.800811
739.410623,229.828649,296.082377,10140.821405
739.410939,459.657299,1480.411884,9474.636058
739.411254,306.438199,518.144159,9548.656652
739.411570,766.095498,-222.061783,9474.636058
739.411886,536.266849,-1036.288319,9474.636058
739.412201,0.000000,-888.247130,9696.697840
739.412517,153.219100,-888.247130,10288.862594
739.412833,689.485948,-370.102971,9770.718434
739.413149,536.266849,740.205942,10214.842000
739.413464,919.314598,592.164754,9622.677246
739.413780,995.924147,148.041188,9104.533087
739.414096,229.828649,370.102971,8364.327145
739.414411,689.485948,-592.164754,8882.471304
739.414727,1225.752797,222.061783,9252.574275
739.415043,612.876398,1184.329507,8512.368333
739.415358,612.876398,-518.144159,8808.450710
739.415674,459.657299,-1628.453072,9104.533087
739.415990,-612.876398,-1406.391290,9622.677246
739.416305,-995.924147,-1332.370696,9030.512492
739.416621,-842.705048,-1702.473667,9918.759623
739.416937,-919.314598,-592.164754,10362.883188
739.417252,-842.705048,-962.267725,9992.780217
739.417568,-689.485948,-1628.453072,9844.739029
739.417884,-612.876398,-1480.411884,9548.656652
739.418200,-766.095498,-1110.308913,8734.430116
739.418515,76.609550,-592.164754,8808.450710
739.418831,-153.219100,592.164754,8586.388927
739.419147,766.095498,518.144159,8216.285956
739.419462,1532.190996,-370.102971,8512.368333
739.419778,842.705048,-1258.350101,8512.368333
739.420094,0.000000,-1110.308913,9030.512492
739.420409,689.485948,-1554.432478,9178.553681
739.420725,612.876398,-0.000000,9548.656652
739.421041,536.266849,666.185348,9548.656652
739.421356,1225.752797,-0.000000,9400.615463
739.421672,995.924147,-592.164754,9474.636058
739.421988,306.438199,-814.226536,9992.780217
739.422303,0.000000,-592.164754,9474.636058
739.422619,76.609550,-222.061783,9400.615463
739.422935,766.095498,1110.308913,9326.594869
739.423251,1378.971896,814.226536,9030.512492
739.423566,1532.190996,-296.082377,9326.594869
739.423882,536.266849,-518.144159,9400.615463
739.424198,306.438199,-1036.288319,9548.656652
739.424513,995.924147,-666.185348,9770.718434
739.424829,1072.533697,962.267725,10288.862594
739.425145,766.095498,962.267725,10288.862594
739.425460,1072.533697,-0.000000,10214.842000
739.425776,919.314598,-0.000000,9844.739029
739.426092,153.219100,222.061783,9770.718434
739.426407,842.705048,-0.000000,9844.739029
739.426723,1378.971896,1332.370696,9474.636058
739.427039,919.314598,1480.411884,9178.553681
739.427354,2068.457845,888.247130,9326.594869
739.427670,1685.410096,-0.000000,9474.636058
739.427986,229.828649,-222.061783,9400.615463
739.428302,0.000000,-962.267725,10214.842000
739.428617,383.047749,-740.205942,10362.883188
739.428933,0.000000,592.164754,10214.842000
739.429249,459.657299,222.061783,10881.027347
739.429564,383.047749,-592.164754,9844.739029
739.429880,-153.219100,-518.144159,9548.656652
739.430196,-612.876398,-1036.288319,9918.759623
739.430511,536.266849,-666.185348,10140.821405
739.430827,459.657299,962.267725,9030.512492
739.431143,612.876398,1110.308913,8956.491898
739.431458,1302.362347,-444.123565,9622.677246
739.431774,919.314598,-444.123565,8512.368333
739.432090,0.000000,-370.102971,9030.512492
739.432405,76.609550,-1702.473667,10066.800811
739.432721,842.705048,-370.102971,9474.636058
739.433037,459.657299,1110.308913,9030.512492
739.433353,689.485948,-0.000000,9696.697840
739.433668,306.438199,-592.164754,9770.718434
739.433984,-459.657299,-814.226536,9474.636058
739.434300,-995.924147,-666.185348,9696.697840
739.434615,-153.219100,-0.000000,9622.677246
739.434931,0.000000,1406.391290,9030.512492
739.435247,153.219100,666.185348,8512.368333
739.435562,459.657299,-1110.308913,9474.636058
739.435878,-153.219100,-1036.288319,8882.471304
739.436194,-1072.533697,-1332.370696,8660.409521
739.436509,-612.876398,-1184.329507,9918.759623
739.436825,-459.657299,-592.164754,10066.800811
739.437141,0.000000,-0.000000,9474.636058
739.437456,383.047749,-0.000000,8882.471304
739.437772,0.000000,-740.205942,9252.574275
739.438088,-459.657299,-1480.411884,9548.656652
739.438404,-229.828649,-592.164754,8808.450710
739.438719,0.000000,-74.020594,8734.430116
739.439035,153.219100,-0.000000,9178.553681
739.439351,612.876398,-222.061783,8956.491898
739.439666,766.095498,-444.123565,8512.368333
739.439982,-995.924147,-1480.411884,9252.574275
739.440298,-842.705048,-2590.720797,9696.697840
739.440613,0.000000,-1480.411884,10066.800811
739.440929,-229.828649,-0.000000,9918.759623
739.441245,306.438199,-740.205942,9918.759623
739.441560,1455.581446,-740.205942,9326.594869
739.441876,383.047749,-444.123565,9326.594869
739.442192,306.438199,-518.144159,9400.615463
739.442507,1302.362347,-0.000000,9326.594869
739.442823,1608.800546,666.185348,9030.512492
739.443139,1915.238745,592.164754,8882.471304
739.443455,2298.286494,-222.061783,9400.615463
739.443770,1608.800546,222.061783,9030.512492
739.444086,1378.971896,222.061783,8734.430116
739.444402,1225.752797,-0.000000,9548.656652
739.444717,1302.362347,1036.288319,9992.780217
739.445033,919.314598,1332.370696,9696.697840
739.445349,1455.581446,-0.000000,10658.965565
739.445664,995.924147,-74.020594,10066.800811
739.445980,153.219100,-222.061783,9548.656652
739.446296,459.657299,-592.164754,10362.883188
739.446611,766.095498,518.144159,9992.780217
739.446927,689.485948,1628.453072,9622.677246
739.447243,1378.971896,1332.370696,9474.636058
739.447558,1378.971896,148.041188,9178.553681
739.447874,0.000000,-148.041188,9400.615463
739.448190,76.609550,-740.205942,10214.842000
739.448506,306.438199,-592.164754,9992.780217
739.448821,459.657299,370.102971,10288.862594
739.449137,842.705048,-0.000000,10066.800811
739.449453,995.924147,-148.041188,9696.697840
739.449768,0.000000,-222.061783,9696.697840
739.450084,-229.828649,-296.082377,9696.697840
739.450400,842.705048,-74.020594,9474.636058
739.450715,459.657299,1184.329507,9474.636058
739.451031,536.266849,1258.350101,8956.491898
739.451347,995.924147,-296.082377,9030.512492
739.451662,919.314598,-370.102971,8956.491898
739.451978,0.000000,-962.267725,8956.491898
739.452294,0.000000,-888.247130,9992.780217
739.452609,-153.219100,-444.123565,9770.718434
739.452925,-153.219100,148.041188,9622.677246
739.453241,229.828649,-0.000000,10288.862594
739.453557,76.609550,-740.205942,9696.697840
739.453872,-919.314598,-148.041188,9400.615463
739.454188,-689.485948,-740.205942,9696.697840
739.454504,76.609550,-296.082377,9474.636058
739.454819,459.657299,1554.432478,8882.471304
739.455135,842.705048,1184.329507,7994.224174
739.455451,1378.971896,-74.020594,9030.512492
739.455766,459.657299,-444.123565,8438.347739
739.456082,-229.828649,-518.144159,8586.388927
739.456398,0.000000,-1036.288319,10140.821405
739.456713,-76.609550,-222.061783,10584.944971
739.457029,0.000000,222.061783,9548.656652
739.457345,153.219100,-222.061783,9474.636058
739.457660,-383.047749,-518.144159,9400.615463
739.457976,-229.828649,-518.144159,9030.512492
739.458292,-229.828649,-740.205942,9252.574275
739.458608,0.000000,-148.041188,9474.636058
739.458923,306.438199,370.102971,9474.636058
739.459239,919.314598,-666.185348,9326.594869
739.459555,383.047749,-962.267725,8882.471304
739.459870,-536.266849,-962.267725,9252.574275
739.460186,-383.047749,-1776.494261,9696.697840
739.460502,76.609550,-740.205942,9178.553681
739.460817,459.657299,148.041188,9770.718434
739.461133,1072.533697,-740.205942,9992.780217
739.461449,1072.533697,-1036.288319,9548.656652
739.461764,306.438199,-814.226536,9770.718434
739.462080,76.609550,-1406.391290,9696.697840
739.462396,842.705048,-518.144159,9696.697840
739.462711,995.924147,1036.288319,9770.718434
739.463027,1225.752797,814.226536,8956.491898
739.463343,1685.410096,-370.102971,9178.553681
739.463659,1149.143247,-444.123565,8882.471304
739.463974,306.438199,-518.144159,8956.491898
739.464290,995.924147,-1110.308913,10066.800811
739.464606,842.705048,-74.020594,10066.800811
739.464921,766.095498,666.185348,9770.718434
739.465237,1225.752797,-592.164754,9992.780217
739.465553,612.876398,-1036.288319,9844.739029
739.465868,0.000000,-518.144159,9918.759623
739.466184,383.047749,-740.205942,10140.821405
739.466500,1149.143247,444.123565,9474.636058
739.466815,1302.362347,1850.514855,8808.450710
739.467131,1685.410096,1110.308913,9104.533087
739.467447,1532.190996,-222.061783,9030.512492
739.467762,536.266849,-444.123565,8512.368333
739.468078,536.266849,-1036.288319,9252.574275
739.468394,153.219100,-1184.329507,9992.780217
739.468710,536.266849,-0.000000,10066.800811
739.469025,383.047749,148.041188,9474.636058
739.469341,1149.143247,-0.000000,9770.718434
739.469657,0.000000,-1480.411884,9474.636058
739.469972,-383.047749,-740.205942,9326.594869
739.470288,0.000000,-222.061783,9474.636058
739.470604,459.657299,222.061783,9844.739029
739.470919,612.876398,1554.432478,9030.512492
739.471235,1225.752797,370.102971,8808.450710
739.471551,1072.533697,-0.000000,8808.450710
739.471866,306.438199,-740.205942,9252.574275
739.472182,383.047749,-1036.288319,9474.636058
739.472498,842.705048,-222.061783,10066.800811
739.472813,0.000000,1332.370696,9474.636058
739.473129,536.266849,888.247130,9918.759623
739.473445,766.095498,-222.061783,9696.697840
739.473761,-459.657299,-370.102971,9178.553681
739.474076,-229.828649,-444.123565,9696.697840
739.474392,-153.219100,-148.041188,9474.636058
739.474708,153.219100,1110.308913,9622.677246
739.475023,459.657299,592.164754,9252.574275
739.475339,766.095498,-148.041188,9104.533087
739.475655,-229.828649,-592.164754,9326.594869
739.475970,-766.095498,-1480.411884,9474.636058
739.476286,-229.828649,-1184.329507,9548.656652
739.476602,-306.438199,222.061783,10214.842000
739.476917,0.000000,888.247130,9548.656652
739.477233,766.095498,-74.020594,9326.594869
739.477549,153.219100,-444.123565,9326.594869
739.477864,-766.095498,-592.164754,9474.636058
739.478180,-612.876398,-1480.411884,9474.636058
739.478496,153.219100,444.123565,10140.821405
739.478812,76.609550,1258.350101,9104.533087
739.479127,689.485948,222.061783,9030.512492
739.479443,1149.143247,-666.185348,9622.677246
739.479759,-689.485948,-592.164754,8586.388927
739.480074,-612.876398,-1258.350101,9992.780217
739.480390,-306.438199,-1036.288319,10140.821405
739.480706,0.000000,370.102971,9992.780217
739.481021,766.095498,518.144159,9770.718434
739.481337,1302.362347,-0.000000,8734.430116
739.481653,383.047749,-74.020594,9326.594869
739.481968,0.000000,-666.185348,9918.759623
739.482284,612.876398,-666.185348,9474.636058
739.482600,995.924147,518.144159,9474.636058
739.482915,1225.752797,1628.453072,9770.718434
739.483231,1991.848295,444.123565,9252.574275
739.483547,1608.800546,518.144159,9104.533087
739.483863,536.266849,148.041188,9252.574275
739.484178,1149.143247,-444.123565,9474.636058
739.484494,1302.362347,222.061783,9992.780217
739.484810,842.705048,814.226536,9696.697840
739.485125,1378.971896,296.082377,9770.718434
739.485441,1762.019645,-444.123565,9770.718434
739.485757,306.438199,222.061783,9770.718434
739.486072,153.219100,-370.102971,9474.636058
739.486388,766.095498,-74.020594,10140.821405
739.486704,612.876398,888.247130,9252.574275
739.487019,1072.533697,370.102971,9104.533087
739.487335,1455.581446,-592.164754,9622.677246
739.487651,612.876398,-814.226536,9030.512492
739.487966,153.219100,-1184.329507,9770.718434
739.488282,689.485948,-962.267725,9844.739029
739.488598,766.095498,444.123565,9696.697840
739.488914,153.219100,296.082377,9548.656652
739.489229,766.095498,-370.102971,9474.636058
739.489545,76.609550,-962.267725,9548.656652
739.489861,-229.828649,-1554.432478,10140.821405
739.490176,76.609550,-1702.473667,9622.677246
739.490492,612.876398,518.144159,9104.533087
739.490808,459.657299,814.226536,8438.347739
739.491123,995.924147,-0.000000,9326.594869
739.491439,995.924147,-666.185348,9178.553681
739.491755,0.000000,-814.226536,8586.388927
739.492070,76.609550,-1332.370696,9696.697840
739.492386,153.219100,-518.144159,10214.842000
739.492702,383.047749,296.082377,9474.636058
739.493017,229.828649,518.144159,9474.636058
739.493333,612.876398,-666.185348,9326.594869
739.493649,-229.828649,-148.041188,8882.471304
739.493965,-383.047749,-370.102971,8882.471304
739.494280,0.000000,-814.226536,9696.697840
739.494596,383.047749,740.205942,9474.636058
739.494912,536.266849,444.123565,8586.388927
739.495227,842.705048,-74.020594,9030.512492
739.495543,153.219100,-666.185348,9252.574275
739.495859,-612.876398,-1110.308913,9178.553681
739.496174,-383.047749,-962.267725,9770.718434
739.496490,-536.266849,148.041188,9918.759623
739.496806,-459.657299,370.102971,9326.594869
739.497121,306.438199,-592.164754,9474.636058
739.497437,0.000000,-1110.308913,9474.636058
739.497753,-689.485948,-1480.411884,9770.718434
739.498068,-306.438199,-666.185348,9400.615463
739.498384,-229.828649,-0.000000,8882.471304
739.498700,0.000000,888.247130,9326.594869
739.499016,383.047749,-444.123565,9252.574275
739.499331,0.000000,-1480.411884,8956.491898
739.499647,-1072.533697,-1554.432478,9844.739029
739.499963,-689.485948,-2146.597232,10510.924376
739.500278,-229.828649,-1332.370696,9696.697840
739.500594,-229.828649,296.082377,9548.656652
739.500910,536.266849,222.061783,9770.718434
739.501225,995.924147,-148.041188,9104.533087
739.501541,383.047749,148.041188,8586.388927
739.501857,0.000000,-444.123565,9326.594869
739.502172,459.657299,-740.205942,9844.739029
739.502488,842.705048,666.185348,9178.553681
739.502804,766.095498,1110.308913,9178.553681
739.503119,1302.362347,74.020594,9918.759623
739.503435,1302.362347,-222.061783,9474.636058
739.503751,536.266849,518.144159,9178.553681
739.504067,1072.533697,-0.000000,9918.759623
739.504382,842.705048,-0.000000,9918.759623
739.504698,919.314598,962.267725,10214.842000
739.505014,1072.533697,444.123565,10140.821405
739.505329,1378.971896,222.061783,9622.677246
739.505645,383.047749,222.061783,9622.677246
739.505961,383.047749,-148.041188,9474.636058
739.506276,995.924147,222.061783,9844.739029
739.506592,842.705048,1554.432478,9622.677246
739.506908,1608.800546,1036.288319,9252.574275
739.507223,2374.896044,-0.000000,9252.574275
739.507539,1685.410096,-444.123565,9992.780217
739.507855,995.924147,-518.144159,9474.636058
739.508170,1225.752797,-370.102971,9474.636058
739.508486,1072.533697,814.226536,9548.656652
739.508802,842.705048,740.205942,9992.780217
739.509117,1378.971896,-0.000000,9770.718434
739.509433,842.705048,-0.000000,9178.553681
739.509749,-383.047749,-592.164754,9696.697840
739.510065,306.438199,-1258.350101,9622.677246
739.510380,306.438199,-74.020594,9326.594869
739.510696,459.657299,740.205942,9400.615463
739.511012,1149.143247,-518.144159,9844.739029
739.511327,919.314598,-962.267725,9474.636058
739.511643,-153.219100,-888.247130,9030.512492
739.511959,-229.828649,-1258.350101,9770.718434
739.512274,153.219100,-592.164754,9918.759623
739.512590,0.000000,148.041188,9696.697840
739.512906,0.000000,-0.000000,9622.677246
739.513221,689.485948,-296.082377,9696.697840
739.513537,306.438199,-0.000000,8734.430116
739.513853,-383.047749,-592.164754,8882.471304
739.514168,536.266849,-962.267725,9326.594869
739.514484,842.705048,666.185348,8956.491898
739.514800,306.438199,1110.308913,8808.450710
739.515115,995.924147,-666.185348,9844.739029
739.515431,0.000000,-888.247130,8956.491898
739.515747,-612.876398,-740.205942,9030.512492
739.516063,-536.266849,-888.247130,9622.677246
739.516378,-612.876398,-444.123565,9918.759623
739.516694,-612.876398,-222.061783,9770.718434
739.517010,0.000000,-518.144159,9918.759623
739.517325,153.219100,-1110.308913,9918.759623
739.517641,-689.485948,-740.205942,9474.636058
739.517957,-689.485948,-814.226536,9400.615463
739.518272,0.000000,-0.000000,9104.533087
739.518588,76.609550,1036.288319,8882.471304
739.518904,919.314598,592.164754,8734.430116
739.519219,1072.533697,-518.144159,9030.512492
739.519535,-306.438199,-814.226536,9326.594869
739.519851,-229.828649,-1702.473667,9622.677246
739.520166,612.876398,-1924.535449,9992.780217
739.520482,229.828649,-0.000000,10066.800811
739.520798,76.609550,148.041188,9992.780217
739.521114,1225.752797,-222.061783,9104.533087
739.521429,459.657299,444.123565,9474.636058
739.521745,0.000000,-370.102971,9104.533087
739.522061,689.485948,-0.000000,9474.636058
739.522376,842.705048,666.185348,9326.594869
739.522692,766.095498,1110.308913,8956.491898
739.523008,1685.410096,592.164754,9252.574275
739.523323,1455.581446,-0.000000,9178.553681
739.523639,766.095498,-518.144159,9252.574275
739.523955,766.095498,-888.247130,9696.697840
739.524270,1072.533697,-518.144159,10288.862594
739.524586,536.266849,666.185348,9992.780217
739.524902,919.314598,148.041188,10436.903782
739.525217,1225.752797,-222.061783,10214.842000
739.525533,612.876398,-0.000000,9770.718434
739.525849,0.000000,-0.000000,9474.636058
739.526164,689.485948,370.102971,9844.739029
739.526480,1149.143247,1628.453072,9400.615463
739.526796,1378.971896,1036.288319,9252.574275
739.527112,1762.019645,-0.000000,9548.656652
739.527427,1072.533697,-962.267725,9474.636058
739.527743,459.657299,-1332.370696,9770.718434
739.528059,459.657299,-1110.308913,9918.759623
739.528374,383.047749,-370.102971,10066.800811
739.528690,536.266849,666.185348,9844.739029
739.529006,1225.752797,296.082377,9622.677246
739.529321,536.266849,296.082377,9178.553681
739.529637,229.828649,-222.061783,9400.615463
739.529953,76.609550,-740.205942,9474.636058
739.530268,536.266849,444.123565,9548.656652
739.530584,689.485948,1184.329507,8882.471304
739.530900,1532.190996,222.061783,8808.450710
739.531215,1915.238745,-222.061783,8882.471304
739.531531,383.047749,-222.061783,8734.430116
739.531847,0.000000,-1332.370696,9770.718434
739.532163,766.095498,-888.247130,9992.780217
739.532478,612.876398,444.123565,9178.553681
739.532794,1225.752797,518.144159,9918.759623
739.533110,1685.410096,-0.000000,9400.615463
739.533425,153.219100,296.082377,8956.491898
739.533741,-229.828649,-296.082377,9326.594869
739.534057,76.609550,-370.102971,9178.553681
739.534372,153.219100,1110.308913,8882.471304
739.534688,0.000000,1332.370696,8808.450710
739.535004,1302.362347,-0.000000,9030.512492
739.535319,306.438199,-962.267725,9474.636058
739.535635,-766.095498,-666.185348,9548.656652
739.535951,-459.657299,-2294.638420,9474.636058
739.536266,0.000000,-1406.391290,10584.944971
739.536582,-612.876398,444.123565,9696.697840
739.536898,0.000000,-518.144159,9918.759623
739.537213,612.876398,-592.164754,9400.615463
739.537529,-383.047749,-1110.308913,9770.718434
739.537845,-612.876398,-1110.308913,9252.574275
739.538161,306.438199,-370.102971,9030.512492
739.538476,-459.657299,1036.288319,8290.306550
739.538792,459.657299,148.041188,8956.491898
739.539108,76.609550,-814.226536,9104.533087
739.539423,-689.485948,-1036.288319,9178.553681
739.539739,-1378.971896,-1998.556043,10362.883188
739.540055,-995.924147,-2294.638420,10214.842000
739.540370,-1149.143247,-518.144159,9770.718434
739.540686,-842.705048,-1036.288319,10066.800811
739.541002,-536.266849,-1924.535449,10658.965565
739.541317,-995.924147,-1776.494261,10658.965565
739.541633,-1608.800546,-1776.494261,10436.903782
739.541949,-766.095498,-1850.514855,9844.739029
739.542264,-459.657299,-370.102971,9622.677246
739.542580,842.705048,444.123565,9326.594869
739.542896,1685.410096,-370.102971,9622.677246
739.543211,2374.896044,-740.205942,9030.512492
739.543527,1762.019645,-518.144159,8216.285956
739.543843,1532.190996,-1406.391290,8956.491898
739.544159,2834.553343,-666.185348,9474.636058
739.544474,2528.115143,1036.288319,8290.306550
739.544790,2374.896044,888.247130,8956.491898
739.545106,1991.848295,-1258.350101,9622.677246
739.545421,995.924147,-1332.370696,9622.677246
739.545737,229.828649,-1184.329507,9474.636058
739.546053,0.000000,-1554.432478,9696.697840
739.546368,153.219100,-1184.329507,9696.697840
739.546684,0.000000,-1480.411884,9548.656652
739.547000,306.438199,-2072.576638,9400.615463
739.547315,76.609550,-1998.556043,9696.697840
739.547631,-1378.971896,-2664.741391,9696.697840
739.547947,-919.314598,-2738.761985,9844.739029
739.548262,0.000000,-1628.453072,9474.636058
739.548578,-689.485948,-518.144159,9474.636058
739.548894,459.657299,-592.164754,9474.636058
739.549210,536.266849,-1850.514855,9326.594869
739.549525,0.000000,-1628.453072,9400.615463
739.549841,-536.266849,-1924.535449,9252.574275
739.550157,0.000000,-1258.350101,8438.347739
739.550472,-153.219100,666.185348,8290.306550
739.550788,-536.266849,148.041188,8882.471304
739.551104,0.000000,-740.205942,8438.347739
739.551419,-1608.800546,-1258.350101,8512.368333
739.551735,-2528.115143,-2516.700203,9474.636058
739.552051,-2834.553343,-3923.091493,10658.965565
739.552366,-2681.334243,-3923.091493,10955.047942
739.552682,-3524.039291,-2960.823768,11029.068536
739.552998,-3600.648841,-2664.741391,11029.068536
739.553313,-2757.943793,-2738.761985,10510.924376
739.553629,-2834.553343,-2368.659014,9918.759623
739.553945,-2987.772442,-1628.453072,9474.636058
739.554260,-1991.848295,-1258.350101,9326.594869
739.554576,-1149.143247,-740.205942,8734.430116
739.554892,-1225.752797,148.041188,8068.244768
739.555208,-383.047749,222.061783,7254.018232
739.555523,0.000000,-370.102971,6957.935855
739.555839,-306.438199,-1702.473667,7772.162391
739.556155,-919.314598,-2368.659014,9178.553681
739.556470,-1072.533697,-3182.885551,9326.594869
739.556786,-1455.581446,-3256.906145,10214.842000
739.557102,-2298.286494,-3034.844362,11103.089130
739.557417,-3064.381992,-2664.741391,11251.130318
739.557733,-3447.429741,-1628.453072,9844.739029
739.558049,-3447.429741,-888.247130,9844.739029
739.558364,-2681.334243,-1036.288319,9622.677246
739.558680,-2451.505594,-666.185348,9326.594869
739.558996,-2451.505594,-740.205942,8142.265362
739.559311,-2145.067394,-1480.411884,7846.182985
739.559627,-2221.676944,-1998.556043,8512.368333
739.559943,-2528.115143,-2072.576638,8660.409521
739.560259,-2911.162892,-1924.535449,9474.636058
739.560574,-2451.505594,-2368.659014,9474.636058
739.560890,-2451.505594,-3330.926739,9992.780217
739.561206,-2987.772442,-3701.029710,10510.924376
739.561521,-2987.772442,-4145.153275,10584.944971
739.561837,-2911.162892,-4145.153275,10881.027347
739.562153,-2451.505594,-3701.029710,11621.233289
739.562468,-1608.800546,-2146.597232,10732.986159
739.562784,-1455.581446,-74.020594,9696.697840
739.563100,-459.657299,370.102971,8438.347739
739.563415,459.657299,-0.000000,7846.182985
739.563731,766.095498,-370.102971,7254.018232
739.564047,766.095498,-592.164754,7254.018232
739.564362,842.705048,-1184.329507,7476.080014
739.564678,766.095498,-2294.638420,9252.574275
739.564994,536.266849,-2368.659014,9622.677246
739.565309,-766.095498,-2146.597232,9622.677246
739.565625,-1838.629195,-2072.576638,10288.862594
739.565941,-2298.286494,-2442.679609,10362.883188
739.566257,-2451.505594,-2812.782580,10881.027347
739.566572,-2374.896044,-3256.906145,11325.150913
739.566888,-2451.505594,-3182.885551,11399.171507
739.567204,-2221.676944,-2886.803174,11251.130318
739.567519,-2221.676944,-3034.844362,11103.089130
739.567835,-842.705048,-2516.700203,10881.027347
739.568151,-766.095498,-1036.288319,9992.780217
739.568466,0.000000,-0.000000,8734.430116
739.568782,459.657299,296.082377,7994.224174
739.569098,1838.629195,148.041188,7105.977043
739.569413,2451.505594,-296.082377,6735.874072
739.569729,1991.848295,-1554.432478,7254.018232
739.570045,1302.362347,-2664.741391,7846.182985
739.570360,0.000000,-3478.967927,8734.430116
739.570676,-1149.143247,-3552.988522,9844.739029
739.570992,-1991.848295,-2886.803174,10510.924376
739.571307,-2757.943793,-2294.638420,11103.089130
739.571623,-3830.477490,-2442.679609,11177.109724
739.571939,-4213.525239,-2812.782580,10807.006753
739.572255,-3524.039291,-2886.803174,10510.924376
739.572570,-3830.477490,-2664.741391,9918.759623
739.572886,-3140.991542,-2812.782580,9178.553681
739.573202,-2604.724693,-3478.967927,8512.368333
739.573517,-2604.724693,-4071.132681,8660.409521
739.573833,-3524.039291,-4589.276840,9326.594869
739.574149,-2757.943793,-4737.318029,9548.656652
739.574464,-2987.772442,-4663.297435,9474.636058
739.574780,-2911.162892,-3701.029710,10214.842000
739.575096,-2145.067394,-2960.823768,9844.739029
739.575411,-1608.800546,-1702.473667,9474.636058
739.575727,-1455.581446,-1258.350101,8808.450710
739.576043,-1149.143247,-888.247130,8512.368333
739.576358,-1149.143247,-592.164754,8142.265362
739.576674,-689.485948,-444.123565,7698.141797
739.576990,-842.705048,-1258.350101,7550.100608
739.577306,-1455.581446,-1924.535449,8290.306550
739.577621,-1762.019645,-2664.741391,8734.430116
739.577937,-2145.067394,-3775.050304,8734.430116
739.578253,-2911.162892,-4441.235652,9548.656652
739.578568,-3064.381992,-4071.132681,10140.821405
739.578884,-3983.696590,-4071.132681,10807.006753
739.579200,-4366.744339,-3627.009116,11547.212695
739.579515,-4136.915689,-3404.947333,11399.171507
739.579831,-4213.525239,-2590.720797,11103.089130
739.580147,-3983.696590,-1776.494261,10955.047942
739.580462,-2987.772442,-1332.370696,10066.800811
739.580778,-1455.581446,-888.247130,9252.574275
739.581094,-229.828649,-370.102971,8512.368333
739.581409,766.095498,-74.020594,7328.038826
739.581725,1532.190996,-0.000000,6661.853478
739.582041,2068.457845,-222.061783,6217.729913
739.582356,2298.286494,-370.102971,6291.750507
739.582672,1455.581446,-962.267725,7105.977043
739.582988,229.828649,-1850.514855,8142.265362
739.583304,-1455.581446,-3404.947333,9992.780217
739.583619,-2757.943793,-4737.318029,11547.212695
739.583935,-4290.134789,-5477.523971,12657.521608
739.584251,-4903.011187,-5773.606348,13545.768739
739.584566,-5209.449386,-5181.441594,13989.892304
739.584882,-4903.011187,-3997.112087,13323.706956
739.585198,-3753.867940,-2368.659014,12139.377449
739.585513,-2451.505594,-814.226536,10436.903782
739.585829,-995.924147,-74.020594,8882.471304
739.586145,919.314598,370.102971,7550.100608
739.586460,2681.334243,296.082377,6513.812290
739.586776,3830.477490,518.144159,5625.565159
739.587092,3830.477490,222.061783,5477.523971
739.587407,3600.648841,-444.123565,6143.709319
739.587723,2834.553343,-1184.329507,7476.080014
739.588039,1532.190996,-2146.597232,8660.409521
739.588355,-229.828649,-3034.844362,10140.821405
739.588670,-2068.457845,-3034.844362,11621.233289
739.588986,-3064.381992,-2886.803174,12139.377449
739.589302,-3830.477490,-2442.679609,12065.356855
739.589617,-4366.744339,-2072.576638,12065.356855
739.589933,-4673.182538,-1850.514855,11843.295072
739.590249,-4673.182538,-1998.556043,10955.047942
739.590564,-4673.182538,-2886.803174,10140.821405
739.590880,-3677.258390,-2516.700203,9474.636058
739.591196,-2757.943793,-2590.720797,8808.450710
739.591511,-2068.457845,-2220.617826,8364.327145
739.591827,-1378.971896,-1924.535449,7994.224174
739.592143,-995.924147,-1406.391290,8068.244768
739.592458,-1149.143247,-2072.576638,8438.347739
739.592774,-842.705048,-2368.659014,8956.491898
739.593090,-995.924147,-2368.659014,9548.656652
739.593405,-1072.533697,-1998.556043,9622.677246
739.593721,-995.924147,-1406.391290,9548.656652
739.594037,-1608.800546,-1184.329507,9770.718434
739.594353,-1762.019645,-1258.350101,9696.697840
739.594668,-1455.581446,-1776.494261,9770.718434
739.594984,-1455.581446,-2368.659014,9400.615463
739.595300,-1532.190996,-2516.700203,9400.615463
739.595615,-1532.190996,-2960.823768,9400.615463
739.595931,-1302.362347,-3478.967927,8882.471304
739.596247,-1455.581446,-3627.009116,8808.450710
739.596562,-995.924147,-3404.947333,8586.388927
739.596878,-1608.800546,-3552.988522,9104.533087
739.597194,-1991.848295,-3775.050304,9548.656652
739.597509,-2068.457845,-3404.947333,9844.739029
739.597825,-2298.286494,-3034.844362,10140.821405
739.598141,-2068.457845,-2368.659014,9992.780217
739.598456,-1455.581446,-1776.494261,9844.739029
739.598772,-689.485948,-888.247130,9178.553681
739.599088,229.828649,-888.247130,8734.430116
739.599403,612.876398,-814.226536,8438.347739
739.599719,1225.752797,-1036.288319,7920.203579
739.600035,1455.581446,-1110.308913,7698.141797
739.600351,1149.143247,-1332.370696,7698.141797
739.600666,766.095498,-1702.473667,8142.265362
739.600982,0.000000,-2294.638420,9252.574275
739.601298,-919.314598,-2442.679609,9696.697840
739.601613,-1991.848295,-2516.700203,10436.903782
739.601929,-2987.772442,-2072.576638,10658.965565
739.602245,-3447.429741,-1924.535449,11177.109724
739.602560,-2834.553343,-1110.308913,10955.047942
739.602876,-2757.943793,-444.123565,10214.842000
739.603192,-2298.286494,-0.000000,9548.656652
739.603507,-1532.190996,-444.123565,9770.718434
739.603823,-766.095498,-1258.350101,9474.636058
739.604139,-229.828649,-1480.411884,9474.636058
739.604454,76.609550,-1480.411884,8512.368333
739.604770,459.657299,-1332.370696,8734.430116
739.605086,0.000000,-1406.391290,8734.430116
739.605401,-229.828649,-1776.494261,9104.533087
739.605717,-612.876398,-2220.617826,9474.636058
739.606033,-1302.362347,-2368.659014,9548.656652
739.606349,-2068.457845,-2442.679609,10066.800811
739.606664,-2911.162892,-2516.700203,10584.944971
739.606980,-2911.162892,-2590.720797,10807.006753
739.607296,-3753.867940,-2368.659014,11029.068536
739.607611,-4213.525239,-2590.720797,10807.006753
739.607927,-4290.134789,-3330.926739,10584.944971
739.608243,-4290.134789,-3627.009116,10436.903782
739.608558,-3524.039291,-3997.112087,10140.821405
739.608874,-3140.991542,-4219.173869,9992.780217
739.609190,-2528.115143,-3997.112087,9474.636058
739.609505,-2298.286494,-3923.091493,9030.512492
739.609821,-1915.238745,-3627.009116,9178.553681
739.610137,-1762.019645,-4071.132681,9178.553681
739.610452,-1838.629195,-3775.050304,9400.615463
739.610768,-2221.676944,-3552.988522,9252.574275
739.611084,-2221.676944,-3701.029710,9474.636058
739.611399,-2374.896044,-3256.906145,9548.656652
739.611715,-2221.676944,-3404.947333,10214.842000
739.612031,-1991.848295,-2812.782580,9326.594869
739.612347,-2068.457845,-2590.720797,9326.594869
739.612662,-1915.238745,-2664.741391,9178.553681
739.612978,-1532.190996,-2664.741391,8882.471304
739.613294,-459.657299,-2812.782580,8438.347739
739.613609,-766.095498,-2294.638420,7846.182985
739.613925,-842.705048,-2220.617826,7550.100608
739.614241,-536.266849,-2220.617826,7550.100608
739.614556,-306.438199,-2368.659014,7772.162391
739.614872,-1378.971896,-2812.782580,8216.285956
739.615188,-1915.238745,-3256.906145,8660.409521
739.615503,-2528.115143,-3552.988522,9400.615463
739.615819,-3217.601092,-3627.009116,9918.759623
739.616135,-3370.820191,-3552.988522,10288.862594
739.616450,-3217.601092,-3182.885551,10732.986159
739.616766,-3140.991542,-3256.906145,10214.842000
739.617082,-2604.724693,-3552.988522,10658.965565
739.617397,-1991.848295,-2886.803174,10288.862594
739.617713,-1302.362347,-2516.700203,9918.759623
739.618029,-229.828649,-1702.473667,9030.512492
739.618345,536.266849,-888.247130,8142.265362
739.618660,1685.410096,-222.061783,7698.141797
739.618976,2068.457845,592.164754,7031.956449
739.619292,1991.848295,962.267725,6809.894666
739.619607,1762.019645,296.082377,6957.935855
739.619923,1149.143247,-666.185348,7254.018232
739.620239,153.219100,-1258.350101,7994.224174
739.620554,-919.314598,-2220.617826,9252.574275
739.620870,-2374.896044,-3256.906145,11029.068536
739.621186,-2987.772442,-4367.215058,12361.439231
739.621501,-3983.696590,-5107.421000,13471.748144
739.621817,-4443.353888,-5033.400406,13841.851115
739.622133,-4136.915689,-3997.112087,13323.706956
739.622448,-3370.820191,-2516.700203,12583.501014
739.622764,-2145.067394,-962.267725,10658.965565
739.623080,-536.266849,148.041188,9178.553681
739.623395,383.047749,1036.288319,7402.059420
739.623711,1378.971896,1332.370696,6587.832884
739.624027,1455.581446,1258.350101,5699.585753
739.624342,1762.019645,740.205942,6217.729913
739.624658,842.705048,-222.061783,7328.038826
739.624974,0.000000,-2220.617826,9104.533087
739.625290,-1225.752797,-3404.947333,10584.944971
739.625605,-3370.820191,-3775.050304,12139.377449
739.625921,-4519.963438,-4589.276840,12953.603985
739.626237,-4826.401637,-3923.091493,13619.789333
739.626552,-5056.230287,-2146.597232,12879.583391
739.626868,-4826.401637,-1924.535449,11843.295072
739.627184,-4443.353888,-740.205942,11177.109724
739.627499,-3907.087040,-518.144159,9548.656652
739.627815,-2681.334243,-592.164754,8734.430116
739.628131,-1608.800546,-814.226536,8142.265362
739.628446,-919.314598,-2072.576638,7772.162391
739.628762,-1149.143247,-1924.535449,8068.244768
739.629078,-1378.971896,-2146.597232,8068.244768
739.629393,-995.924147,-2072.576638,8142.265362
739.629709,-689.485948,-1110.308913,8512.368333
739.630025,-1762.019645,-1776.494261,8660.409521
739.630340,-2221.676944,-1924.535449,9474.636058
739.630656,-2298.286494,-2368.659014,9918.759623
739.630972,-2528.115143,-3256.906145,10362.883188
739.631288,-2834.553343,-3701.029710,11177.109724
739.631603,-3140.991542,-3701.029710,11029.068536
739.631919,-3447.429741,-3182.885551,10214.842000
739.632235,-2911.162892,-2664.741391,9918.759623
739.632550,-2221.676944,-3034.844362,9918.759623
739.632866,-1302.362347,-2812.782580,8734.430116
739.633182,-1455.581446,-2220.617826,7624.121203
739.633497,-306.438199,-2738.761985,6883.915261
739.633813,306.438199,-3478.967927,7698.141797
739.634129,0.000000,-3552.988522,7698.141797
739.634444,-459.657299,-3627.009116,8438.347739
739.634760,-1225.752797,-3701.029710,9252.574275
739.635076,-1378.971896,-3997.112087,9992.780217
739.635391,-1532.190996,-3182.885551,9918.759623
739.635707,-1915.238745,-1702.473667,9770.718434
739.636023,-1072.533697,-1554.432478,9622.677246
739.636338,-383.047749,-1628.453072,9030.512492
739.636654,306.438199,-1776.494261,8586.388927
739.636970,612.876398,-1258.350101,7920.203579
739.637286,612.876398,-592.164754,7772.162391
739.637601,229.828649,-1406.391290,7624.121203
739.637917,-766.095498,-2072.576638,7624.121203
739.638233,-1149.143247,-2368.659014,8660.409521
739.638548,-1455.581446,-3256.906145,9548.656652
739.638864,-2451.505594,-4145.153275,10436.903782
739.639180,-3907.087040,-4071.132681,10732.986159
739.639495,-3524.039291,-3330.926739,11103.089130
739.639811,-3294.210641,-2072.576638,11029.068536
739.640127,-2528.115143,-592.164754,10658.965565
739.640442,-2145.067394,1332.370696,10140.821405
739.640758,-1149.143247,1110.308913,8882.471304
739.641074,-229.828649,148.041188,8660.409521
739.641389,383.047749,-0.000000,8512.368333
739.641705,766.095498,444.123565,7624.121203
739.642021,1225.752797,-0.000000,7476.080014
739.642336,689.485948,-0.000000,7772.162391
739.642652,536.266849,-888.247130,8512.368333
739.642968,0.000000,-1924.535449,9696.697840
739.643284,-1838.629195,-2812.782580,10214.842000
739.643599,-3140.991542,-2812.782580,11399.171507
739.643915,-3140.991542,-2886.803174,12065.356855
739.644231,-3217.601092,-2072.576638,12583.501014
739.644546,-3217.601092,-222.061783,12583.501014
739.644862,-2681.334243,666.185348,11843.295072
739.645178,-1225.752797,592.164754,10584.944971
739.645493,0.000000,888.247130,9548.656652
739.645809,842.705048,1332.370696,8364.327145
739.646125,2374.896044,1332.370696,7328.038826
739.646440,4060.306139,1036.288319,7179.997637
739.646756,3447.429741,1554.432478,6587.832884
739.647072,3753.867940,740.205942,6809.894666
739.647387,3370.820191,-666.185348,8068.244768
739.647703,1455.581446,-1258.350101,8882.471304
739.648019,0.000000,-1776.494261,10362.883188
739.648334,-842.705048,-2368.659014,10955.047942
739.648650,-2068.457845,-1998.556043,11769.274478
739.648966,-2757.943793,-1332.370696,12731.542202
739.649281,-2681.334243,-1480.411884,12065.356855
739.649597,-3140.991542,-962.267725,12139.377449
739.649913,-3370.820191,-0.000000,11695.253884
739.650229,-1455.581446,518.144159,9918.759623
739.650544,0.000000,666.185348,8364.327145
