#time,accel_x,accel_y,accel_z
688.073007,459.657299,-148.041188,9326.594869
688.073323,306.438199,-148.041188,9474.636058
688.073638,536.266849,-0.000000,9474.636058
688.073954,459.657299,-444.123565,9696.697840
688.074270,536.266849,-148.041188,9474.636058
688.074585,306.438199,-148.041188,9474.636058
688.074901,612.876398,-222.061783,9252.574275
688.075217,536.266849,-370.102971,9548.656652
688.075532,612.876398,-296.082377,9474.636058
688.075848,612.876398,-74.020594,9474.636058
688.076164,229.828649,-444.123565,9400.615463
688.076479,306.438199,-222.061783,9474.636058
688.076795,383.047749,-222.061783,9622.677246
688.077111,766.095498,-370.102971,9474.636058
688.077426,229.828649,-74.020594,9548.656652
688.077742,536.266849,-0.000000,9474.636058
688.078058,612.876398,222.061783,9474.636058
688.078373,612.876398,296.082377,9178.553681
688.078689,459.657299,-222.061783,9326.594869
688.079005,0.000000,-0.000000,9548.656652
688.079321,153.219100,-0.000000,9474.636058
688.079636,229.828649,-148.041188,9548.656652
688.079952,459.657299,-370.102971,9696.697840
688.080268,0.000000,-518.144159,9844.739029
688.080583,153.219100,-370.102971,9844.739029
688.080899,229.828649,-0.000000,9622.677246
688.081215,383.047749,-0.000000,9400.615463
688.081530,612.876398,444.123565,9252.574275
688.081846,459.657299,370.102971,9252.574275
688.082162,536.266849,370.102971,9400.615463
688.082477,689.485948,740.205942,9030.512492
688.082793,459.657299,592.164754,8956.491898
688.083109,459.657299,370.102971,9178.553681
688.083424,689.485948,-0.000000,9474.636058
688.083740,766.095498,148.041188,9548.656652
688.084056,612.876398,222.061783,9622.677246
688.084371,689.485948,370.102971,9622.677246
688.084687,1072.533697,740.205942,9696.697840
688.085003,919.314598,518.144159,9770.718434
688.085319,1532.190996,1036.288319,9548.656652
688.085634,1455.581446,1258.350101,9400.615463
688.085950,1838.629195,1406.391290,8956.491898
688.086266,1991.848295,1628.453072,8808.450710
688.086581,2145.067394,1480.411884,9104.533087
688.086897,2374.896044,1776.494261,9030.512492
688.087213,2451.505594,1776.494261,9104.533087
688.087528,2451.505594,1776.494261,9252.574275
688.087844,2681.334243,1628.453072,9400.615463
688.088160,2604.724693,1924.535449,9548.656652
688.088475,2911.162892,2072.576638,9326.594869
688.088791,2834.553343,2368.659014,9474.636058
688.089107,2834.553343,2368.659014,9548.656652
688.089422,2834.553343,2368.659014,9474.636058
688.089738,2834.553343,2516.700203,9474.636058
688.090054,3294.210641,2886.803174,9326.594869
688.090369,3370.820191,2590.720797,9178.553681
688.090685,3447.429741,2886.803174,9326.594869
688.091001,3677.258390,2516.700203,9400.615463
688.091316,3753.867940,2812.782580,9622.677246
688.091632,3140.991542,2960.823768,9844.739029
688.091948,3064.381992,3034.844362,9622.677246
688.092264,3064.381992,2812.782580,9622.677246
688.092579,3217.601092,2886.803174,9770.718434
688.092895,3064.381992,2960.823768,9770.718434
688.093211,2604.724693,2812.782580,9696.697840
688.093526,2528.115143,2516.700203,9918.759623
688.093842,2681.334243,2368.659014,10066.800811
688.094158,2681.334243,2368.659014,9992.780217
688.094473,2757.943793,1998.556043,10288.862594
688.094789,2528.115143,2368.659014,10362.883188
688.095105,2681.334243,2442.679609,9918.759623
688.095420,2681.334243,2368.659014,10140.821405
688.095736,3064.381992,1850.514855,9992.780217
688.096052,2757.943793,2368.659014,9696.697840
688.096367,2604.724693,2368.659014,9474.636058
688.096683,2681.334243,2072.576638,9474.636058
688.096999,2757.943793,2220.617826,9548.656652
688.097314,2298.286494,2072.576638,9696.697840
688.097630,1915.238745,1628.453072,9474.636058
688.097946,1532.190996,1406.391290,9844.739029
688.098261,1149.143247,1036.288319,10214.842000
688.098577,689.485948,444.123565,10362.883188
688.098893,536.266849,-0.000000,10807.006753
688.099209,459.657299,-592.164754,10955.047942
688.099524,919.314598,-592.164754,10955.047942
688.099840,1149.143247,-592.164754,10732.986159
688.100156,1608.800546,222.061783,10288.862594
688.100471,2451.505594,1036.288319,9622.677246
688.100787,3217.601092,1850.514855,8586.388927
688.101103,3677.258390,2368.659014,7698.141797
688.101418,4136.915689,2738.761985,7105.977043
688.101734,4519.963438,2516.700203,7031.956449
688.102050,4136.915689,2368.659014,7328.038826
688.102365,3983.696590,1702.473667,7254.018232
688.102681,3294.210641,1110.308913,7994.224174
688.102997,2681.334243,592.164754,8586.388927
688.103312,1608.800546,370.102971,9326.594869
688.103628,919.314598,148.041188,9696.697840
688.103944,-229.828649,-148.041188,10066.800811
688.104259,-689.485948,-444.123565,10436.903782
688.104575,-1072.533697,-962.267725,10807.006753
688.104891,-1072.533697,-1258.350101,10881.027347
688.105206,-459.657299,-1258.350101,10955.047942
688.105522,229.828649,-444.123565,10436.903782
688.105838,1149.143247,370.102971,9696.697840
688.106154,2374.896044,1036.288319,9326.594869
688.106469,3370.820191,1776.494261,8364.327145
688.106785,4826.401637,2812.782580,7920.203579
688.107101,6128.763984,3404.947333,7105.977043
688.107416,6205.373534,3997.112087,6587.832884
688.107732,6435.202183,4219.173869,6365.771101
688.108048,6435.202183,3997.112087,6587.832884
688.108363,5515.887586,3923.091493,7254.018232
688.108679,4903.011187,3330.926739,7994.224174
688.108995,3294.210641,1998.556043,9030.512492
688.109310,1762.019645,518.144159,10288.862594
688.109626,153.219100,-592.164754,11621.233289
688.109942,-689.485948,-1184.329507,13175.665768
688.110257,-1608.800546,-1406.391290,13471.748144
688.110573,-1608.800546,-814.226536,13397.727550
688.110889,-919.314598,-0.000000,13027.624579
688.111204,153.219100,962.267725,11547.212695
688.111520,1378.971896,2886.803174,10214.842000
688.111836,2681.334243,3849.070898,8512.368333
688.112151,4596.572988,4441.235652,7328.038826
688.112467,5975.544884,4293.194464,7328.038826
688.112783,7048.078582,4293.194464,7105.977043
688.113099,6665.030833,3478.967927,7624.121203
688.113414,6205.373534,2516.700203,7994.224174
688.113730,5362.668486,1850.514855,9326.594869
688.114046,4366.744339,1776.494261,10510.924376
688.114361,3370.820191,1480.411884,11621.233289
688.114677,2298.286494,1406.391290,12139.377449
688.114993,1378.971896,1776.494261,11991.336260
688.115308,766.095498,2738.761985,11251.130318
688.115624,766.095498,2812.782580,10955.047942
688.115940,1149.143247,2960.823768,10140.821405
688.116255,1608.800546,2368.659014,10140.821405
688.116571,1608.800546,1554.432478,9252.574275
688.116887,1608.800546,962.267725,9178.553681
688.117202,2298.286494,740.205942,9622.677246
688.117518,2374.896044,1036.288319,9030.512492
688.117834,2221.676944,1554.432478,9178.553681
688.118149,1532.190996,1406.391290,9622.677246
688.118465,1149.143247,1036.288319,9844.739029
688.118781,459.657299,1036.288319,9770.718434
688.119096,1378.971896,814.226536,9770.718434
688.119412,1455.581446,296.082377,9918.759623
688.119728,1072.533697,444.123565,10288.862594
688.120044,842.705048,962.267725,10214.842000
688.120359,1149.143247,1480.411884,9474.636058
688.120675,1685.410096,1332.370696,9400.615463
688.120991,1532.190996,1480.411884,8734.430116
688.121306,919.314598,1998.556043,7846.182985
688.121622,1225.752797,1776.494261,7402.059420
688.121938,1455.581446,962.267725,7031.956449
688.122253,1608.800546,-0.000000,7624.121203
688.122569,536.266849,-1406.391290,8882.471304
688.122885,0.000000,-2442.679609,9844.739029
688.123200,-1608.800546,-3330.926739,10881.027347
688.123516,-1685.410096,-3182.885551,11621.233289
688.123832,-1991.848295,-2368.659014,12287.418637
688.124147,-2221.676944,-666.185348,11473.192101
688.124463,-1608.800546,814.226536,9622.677246
688.124779,-383.047749,1184.329507,8364.327145
688.125094,995.924147,370.102971,8438.347739
688.125410,1991.848295,-0.000000,8290.306550
688.125726,2604.724693,-222.061783,7624.121203
688.126041,3294.210641,-1036.288319,7476.080014
688.126357,3140.991542,-1184.329507,7920.203579
688.126673,3217.601092,-740.205942,8512.368333
688.126989,2451.505594,148.041188,8808.450710
688.127304,1685.410096,370.102971,8808.450710
688.127620,1915.238745,-222.061783,8808.450710
688.127936,1225.752797,-148.041188,8660.409521
688.128251,383.047749,-222.061783,9622.677246
688.128567,-459.657299,-222.061783,9622.677246
688.128883,-842.705048,-444.123565,10436.903782
688.129198,-306.438199,-1332.370696,10881.027347
688.129514,-1608.800546,-1036.288319,11177.109724
688.129830,-2221.676944,-444.123565,10584.944971
688.130145,-2221.676944,-666.185348,9918.759623
688.130461,-919.314598,-1406.391290,9770.718434
688.130777,383.047749,-1554.432478,9252.574275
688.131092,306.438199,-666.185348,9326.594869
688.131408,153.219100,-148.041188,9548.656652
688.131723,383.047749,-1332.370696,9252.574275
688.132039,1225.752797,-1036.288319,9992.780217
688.132355,689.485948,296.082377,9844.739029
688.132670,-383.047749,962.267725,9992.780217
688.132986,-383.047749,1332.370696,10066.800811
688.133301,229.828649,444.123565,9622.677246
688.133617,842.705048,-222.061783,9400.615463
688.133933,536.266849,296.082377,9178.553681
688.134248,306.438199,222.061783,9400.615463
688.134564,919.314598,-518.144159,9992.780217
688.134880,1149.143247,-518.144159,9844.739029
688.135195,919.314598,962.267725,9178.553681
688.135511,0.000000,1258.350101,10140.821405
688.135826,459.657299,-0.000000,9844.739029
688.136142,612.876398,-1258.350101,9844.739029
688.136458,536.266849,-2072.576638,10066.800811
688.136773,229.828649,-1776.494261,10288.862594
688.137089,153.219100,-1110.308913,10658.965565
688.137404,536.266849,-740.205942,10807.006753
688.137720,536.266849,296.082377,9770.718434
688.138036,612.876398,2146.597232,9474.636058
688.138351,1072.533697,3478.967927,8956.491898
688.138667,2451.505594,3108.864956,8068.244768
688.138983,3064.381992,1998.556043,7402.059420
688.139298,2911.162892,1184.329507,7402.059420
688.139614,2681.334243,444.123565,7920.203579
688.139929,2451.505594,-0.000000,8734.430116
688.140245,1838.629195,-148.041188,9030.512492
688.140561,995.924147,-0.000000,9326.594869
688.140876,-536.266849,592.164754,9400.615463
688.141192,-1532.190996,592.164754,10288.862594
688.141507,-1608.800546,-0.000000,10584.944971
688.141823,-1838.629195,-666.185348,10288.862594
688.142139,-2451.505594,-1332.370696,10732.986159
688.142454,-2374.896044,-1036.288319,10881.027347
688.142770,-2145.067394,-1184.329507,10807.006753
688.143086,-842.705048,-740.205942,10584.944971
688.143401,-536.266849,222.061783,9696.697840
688.143717,-229.828649,1850.514855,8734.430116
688.144032,766.095498,1998.556043,8364.327145
688.144348,1915.238745,1628.453072,7698.141797
688.144664,2451.505594,1036.288319,7402.059420
688.144979,2298.286494,444.123565,7994.224174
688.145295,2145.067394,-0.000000,8882.471304
688.145610,1915.238745,-666.185348,9474.636058
688.145926,1149.143247,-296.082377,9104.533087
688.146242,-306.438199,296.082377,9104.533087
688.146557,-1378.971896,740.205942,10140.821405
688.146873,-1455.581446,-74.020594,10584.944971
688.147188,-1838.629195,-1184.329507,10584.944971
688.147504,-2221.676944,-1850.514855,10807.006753
688.147820,-2604.724693,-2442.679609,11251.130318
688.148135,-1608.800546,-2590.720797,11473.192101
688.148451,-153.219100,-2368.659014,10955.047942
688.148767,0.000000,-888.247130,9696.697840
688.149082,612.876398,592.164754,8956.491898
688.149398,1762.019645,1332.370696,8142.265362
688.149713,2911.162892,740.205942,7772.162391
688.150029,3217.601092,296.082377,7476.080014
688.150345,2757.943793,370.102971,7772.162391
688.150660,2298.286494,222.061783,8438.347739
688.150976,2451.505594,-444.123565,9178.553681
688.151291,1608.800546,-592.164754,9696.697840
688.151607,459.657299,-0.000000,9622.677246
688.151923,-612.876398,-0.000000,9918.759623
688.152238,-459.657299,-1184.329507,10362.883188
688.152554,-153.219100,-1406.391290,10658.965565
688.152870,-536.266849,-1406.391290,10436.903782
688.153185,-995.924147,-1850.514855,10584.944971
688.153501,-689.485948,-1850.514855,10881.027347
688.153816,536.266849,-2146.597232,10658.965565
688.154132,306.438199,-518.144159,9252.574275
688.154448,0.000000,1184.329507,8364.327145
688.154763,689.485948,814.226536,8290.306550
688.155079,1762.019645,296.082377,8734.430116
688.155394,2221.676944,-370.102971,8734.430116
688.155710,1685.410096,-296.082377,8216.285956
688.156026,1072.533697,-592.164754,9030.512492
688.156341,995.924147,-888.247130,9770.718434
688.156657,919.314598,-1110.308913,9844.739029
688.156973,306.438199,-222.061783,9548.656652
688.157288,-383.047749,888.247130,9548.656652
688.157604,0.000000,296.082377,9918.759623
688.157919,306.438199,-740.205942,9622.677246
688.158235,306.438199,-1480.411884,9326.594869
688.158551,0.000000,-1332.370696,9548.656652
688.158866,76.609550,-1702.473667,9696.697840
688.159182,459.657299,-1998.556043,10066.800811
688.159497,612.876398,-1184.329507,10140.821405
688.159813,0.000000,296.082377,8808.450710
688.160129,0.000000,1776.494261,8660.409521
688.160444,459.657299,518.144159,8438.347739
688.160760,1225.752797,-0.000000,8512.368333
688.161075,1072.533697,296.082377,8956.491898
688.161391,612.876398,-444.123565,9104.533087
688.161707,766.095498,-592.164754,9770.718434
688.162022,1455.581446,-962.267725,9770.718434
688.162338,995.924147,-222.061783,9030.512492
688.162654,383.047749,1406.391290,9030.512492
688.162969,459.657299,962.267725,9400.615463
688.163285,612.876398,518.144159,9178.553681
688.163600,689.485948,296.082377,8734.430116
688.163916,0.000000,-222.061783,9400.615463
688.164232,-306.438199,-888.247130,10066.800811
688.164547,-229.828649,-1554.432478,10510.924376
688.164863,-229.828649,-1184.329507,10584.944971
688.165178,-612.876398,148.041188,10066.800811
688.165494,-612.876398,1628.453072,9252.574275
688.165810,76.609550,1184.329507,9104.533087
688.166125,766.095498,518.144159,9104.533087
688.166441,612.876398,444.123565,9326.594869
688.166757,536.266849,444.123565,8956.491898
688.167072,459.657299,-370.102971,9474.636058
688.167388,919.314598,-888.247130,10066.800811
688.167703,842.705048,-222.061783,9696.697840
688.168019,153.219100,1036.288319,9104.533087
688.168335,0.000000,1184.329507,9548.656652
688.168650,383.047749,-0.000000,9474.636058
688.168966,306.438199,-222.061783,9548.656652
688.169281,-153.219100,-592.164754,9770.718434
688.169597,-689.485948,-1036.288319,10584.944971
688.169913,-995.924147,-1554.432478,11251.130318
688.170228,-229.828649,-1184.329507,10881.027347
688.170544,-536.266849,222.061783,10066.800811
688.170860,-842.705048,1184.329507,9474.636058
688.171175,0.000000,1036.288319,9400.615463
688.171491,995.924147,148.041188,9030.512492
688.171806,2068.457845,-0.000000,8660.409521
688.172122,1915.238745,296.082377,8068.244768
688.172438,1608.800546,-74.020594,8734.430116
688.172753,1991.848295,-1110.308913,9844.739029
688.173069,1915.238745,-888.247130,9474.636058
688.173384,995.924147,222.061783,9252.574275
688.173700,76.609550,962.267725,8882.471304
688.174016,306.438199,148.041188,9474.636058
688.174331,842.705048,-444.123565,9992.780217
688.174647,153.219100,-888.247130,10140.821405
688.174962,153.219100,-1184.329507,10140.821405
688.175278,0.000000,-1406.391290,10658.965565
688.175594,689.485948,-1776.494261,10732.986159
688.175909,766.095498,-518.144159,9918.759623
688.176225,612.876398,1258.350101,8956.491898
688.176541,1608.800546,1406.391290,8364.327145
688.176856,2451.505594,1258.350101,7994.224174
688.177172,2757.943793,444.123565,7624.121203
688.177487,2451.505594,666.185348,7624.121203
688.177803,2221.676944,-0.000000,8364.327145
688.178119,1838.629195,-888.247130,9474.636058
688.178434,1685.410096,-1036.288319,9474.636058
688.178750,306.438199,-444.123565,9548.656652
688.179065,-383.047749,-0.000000,9770.718434
688.179381,-459.657299,-74.020594,9770.718434
688.179697,-536.266849,-518.144159,9992.780217
688.180012,-766.095498,-1258.350101,9992.780217
688.180328,-1378.971896,-1554.432478,9918.759623
688.180644,-1378.971896,-1554.432478,10362.883188
688.180959,-766.095498,-1776.494261,10658.965565
688.181275,-306.438199,-1258.350101,9696.697840
688.181590,-383.047749,888.247130,9030.512492
688.181906,153.219100,1184.329507,8512.368333
688.182222,1225.752797,1110.308913,8068.244768
688.182537,1685.410096,518.144159,7550.100608
688.182853,1455.581446,666.185348,8068.244768
688.183168,1378.971896,-222.061783,8512.368333
688.183484,689.485948,-370.102971,9400.615463
688.183800,689.485948,-1036.288319,9770.718434
688.184115,0.000000,-666.185348,10140.821405
688.184431,-842.705048,-0.000000,9548.656652
688.184747,-1149.143247,-0.000000,10214.842000
688.185062,-689.485948,-888.247130,10214.842000
688.185378,-612.876398,-1628.453072,10214.842000
688.185693,-1072.533697,-1406.391290,10214.842000
688.186009,-842.705048,-1110.308913,10140.821405
688.186325,-229.828649,-1406.391290,10362.883188
688.186640,383.047749,-962.267725,10214.842000
688.186956,153.219100,296.082377,9104.533087
688.187271,0.000000,1258.350101,9030.512492
688.187587,995.924147,962.267725,8882.471304
688.187903,1685.410096,444.123565,8216.285956
688.188218,1838.629195,296.082377,8142.265362
688.188534,1455.581446,-74.020594,8956.491898
688.188849,1225.752797,-666.185348,9918.759623
688.189165,919.314598,-1184.329507,10066.800811
688.189481,383.047749,-370.102971,10140.821405
688.189796,-459.657299,222.061783,10140.821405
688.190112,-536.266849,-0.000000,10214.842000
688.190428,-459.657299,-518.144159,10362.883188
688.190743,0.000000,-1110.308913,10288.862594
688.191059,-229.828649,-1184.329507,9992.780217
688.191374,-383.047749,-1036.288319,9918.759623
688.191690,0.000000,-1036.288319,9918.759623
688.192006,842.705048,-1036.288319,9918.759623
688.192321,612.876398,-222.061783,9400.615463
688.192637,229.828649,1628.453072,8438.347739
688.192952,689.485948,1480.411884,8586.388927
688.193268,1838.629195,296.082377,7994.224174
688.193584,2145.067394,-74.020594,8290.306550
688.193899,1532.190996,-74.020594,8142.265362
688.194215,1072.533697,-740.205942,9400.615463
688.194531,995.924147,-1258.350101,9622.677246
688.194846,612.876398,-592.164754,9622.677246
688.195162,612.876398,370.102971,9548.656652
688.195477,-995.924147,222.061783,9474.636058
688.195793,-536.266849,-148.041188,10214.842000
688.196109,-229.828649,-814.226536,9474.636058
688.196424,-383.047749,-1554.432478,9844.739029
688.196740,-306.438199,-1332.370696,9844.739029
688.197055,-306.438199,-1332.370696,9992.780217
688.197371,306.438199,-1258.350101,9918.759623
688.197687,383.047749,-148.041188,9252.574275
688.198002,229.828649,1184.329507,8586.388927
688.198318,1608.800546,1480.411884,8438.347739
688.198634,1838.629195,962.267725,8438.347739
688.198949,1991.848295,370.102971,7994.224174
688.199265,1762.019645,370.102971,7772.162391
688.199580,1302.362347,-74.020594,8882.471304
688.199896,1149.143247,-370.102971,9844.739029
688.200212,842.705048,-518.144159,9770.718434
688.200527,0.000000,-0.000000,9918.759623
688.200843,-842.705048,-0.000000,10214.842000
688.201158,-1072.533697,-148.041188,10288.862594
688.201474,0.000000,-222.061783,9918.759623
688.201790,0.000000,-888.247130,10436.903782
688.202105,-536.266849,-962.267725,10140.821405
688.202421,-383.047749,-1110.308913,10658.965565
688.202736,-459.657299,-888.247130,10881.027347
688.203052,0.000000,-0.000000,9992.780217
688.203368,76.609550,1850.514855,9030.512492
688.203683,459.657299,2442.679609,8512.368333
688.203999,1685.410096,1332.370696,8586.388927
688.204315,2068.457845,888.247130,8734.430116
688.204630,2221.676944,592.164754,8512.368333
688.204946,1685.410096,-0.000000,9252.574275
688.205261,1302.362347,-740.205942,9918.759623
688.205577,995.924147,-592.164754,9770.718434
688.205893,76.609550,222.061783,10362.883188
688.206208,-459.657299,444.123565,10436.903782
688.206524,-842.705048,296.082377,10140.821405
688.206839,-459.657299,-296.082377,9844.739029
688.207155,-536.266849,-1406.391290,10140.821405
688.207471,-1225.752797,-1110.308913,10807.006753
688.207786,0.000000,-1184.329507,10436.903782
688.208102,0.000000,-1036.288319,10658.965565
688.208418,306.438199,-296.082377,10066.800811
688.208733,536.266849,888.247130,8956.491898
688.209049,995.924147,1998.556043,8438.347739
688.209364,1915.238745,1554.432478,8142.265362
688.209680,2528.115143,1406.391290,7772.162391
688.209996,2681.334243,592.164754,8068.244768
688.210311,2145.067394,370.102971,8512.368333
688.210627,2145.067394,-740.205942,9178.553681
688.210942,1991.848295,-1110.308913,9696.697840
688.211258,1149.143247,-518.144159,9918.759623
688.211574,76.609550,222.061783,9770.718434
688.211889,-842.705048,444.123565,9844.739029
688.212205,-153.219100,-370.102971,9918.759623
688.212520,0.000000,-1258.350101,9770.718434
688.212836,-459.657299,-1184.329507,9992.780217
688.213152,-689.485948,-1702.473667,10436.903782
688.213467,-459.657299,-2516.700203,10732.986159
688.213783,0.000000,-1702.473667,10436.903782
688.214099,76.609550,74.020594,9326.594869
688.214414,536.266849,1110.308913,8734.430116
688.214730,766.095498,1332.370696,7994.224174
688.215045,2298.286494,814.226536,7994.224174
688.215361,2451.505594,-0.000000,7920.203579
688.215677,1762.019645,-0.000000,8290.306550
688.215992,1532.190996,-592.164754,9178.553681
688.216308,1608.800546,-1332.370696,9622.677246
688.216623,1302.362347,-814.226536,9622.677246
688.216939,-229.828649,740.205942,9252.574275
688.217255,-383.047749,666.185348,9474.636058
688.217570,-536.266849,-518.144159,9474.636058
688.217886,-612.876398,-1702.473667,9770.718434
688.218202,-919.314598,-2220.617826,10436.903782
688.218517,-1685.410096,-1998.556043,10658.965565
688.218833,-919.314598,-2368.659014,10881.027347
688.219148,-229.828649,-1702.473667,10807.006753
688.219464,-383.047749,-148.041188,9178.553681
688.219780,0.000000,1258.350101,8586.388927
688.220095,689.485948,1258.350101,8290.306550
688.220411,1302.362347,296.082377,8216.285956
688.220726,1915.238745,-0.000000,8142.265362
688.221042,1762.019645,-74.020594,8438.347739
688.221358,1378.971896,-148.041188,8882.471304
688.221673,1455.581446,-740.205942,9548.656652
688.221989,1072.533697,-222.061783,9696.697840
688.222305,306.438199,444.123565,9622.677246
688.222620,-536.266849,740.205942,9474.636058
688.222936,-612.876398,-148.041188,9770.718434
688.223251,-459.657299,-1406.391290,10288.862594
688.223567,-766.095498,-1998.556043,10658.965565
688.223883,-1072.533697,-1998.556043,10807.006753
688.224198,-1685.410096,-1998.556043,10955.047942
688.224514,-842.705048,-1258.350101,10955.047942
688.224829,-459.657299,-148.041188,9992.780217
688.225145,-383.047749,1850.514855,9030.512492
688.225461,459.657299,1628.453072,8956.491898
688.225776,1378.971896,740.205942,8438.347739
688.226092,2221.676944,222.061783,8586.388927
688.226407,2145.067394,-0.000000,8512.368333
688.226723,1685.410096,148.041188,8734.430116
688.227039,1608.800546,-0.000000,8956.491898
688.227354,1608.800546,-370.102971,9474.636058
688.227670,1072.533697,444.123565,9474.636058
688.227986,0.000000,1110.308913,9474.636058
688.228301,-306.438199,148.041188,9918.759623
688.228617,0.000000,-1184.329507,10436.903782
688.228932,-383.047749,-1554.432478,10510.924376
688.229248,-919.314598,-1184.329507,10362.883188
688.229564,-919.314598,-1036.288319,10362.883188
688.229879,-995.924147,-1702.473667,10658.965565
688.230195,0.000000,-592.164754,9992.780217
688.230510,76.609550,814.226536,8882.471304
688.230826,612.876398,1406.391290,8586.388927
688.231142,1455.581446,1110.308913,7994.224174
688.231457,2604.724693,592.164754,7846.182985
688.231773,2681.334243,518.144159,7772.162391
688.232089,2451.505594,592.164754,7698.141797
688.232405,1991.848295,444.123565,8808.450710
688.232721,1915.238745,-148.041188,8956.491898
688.233036,995.924147,-148.041188,9104.533087
688.233352,76.609550,444.123565,9400.615463
688.233668,0.000000,444.123565,10140.821405
688.233984,-459.657299,-666.185348,10066.800811
688.234299,-459.657299,-1184.329507,9918.759623
688.234615,-766.095498,-1036.288319,9770.718434
688.234931,-1149.143247,-1110.308913,10288.862594
688.235247,-459.657299,-1406.391290,10436.903782
688.235563,-153.219100,-0.000000,10140.821405
688.235878,0.000000,888.247130,9178.553681
688.236194,1149.143247,1110.308913,8882.471304
688.236510,1455.581446,1258.350101,8808.450710
688.236826,2298.286494,888.247130,8290.306550
688.237141,2221.676944,740.205942,7994.224174
688.237457,1991.848295,592.164754,8068.244768
688.237773,1455.581446,-0.000000,9104.533087
688.238089,1608.800546,-370.102971,9770.718434
688.238405,842.705048,-444.123565,10436.903782
688.238720,-229.828649,296.082377,10066.800811
688.239036,-995.924147,-74.020594,10288.862594
688.239352,-689.485948,-888.247130,10807.006753
688.239668,-229.828649,-1406.391290,10658.965565
688.239983,-919.314598,-1406.391290,10140.821405
688.240299,-1225.752797,-1628.453072,10732.986159
688.240615,-689.485948,-2442.679609,10881.027347
688.240931,-229.828649,-1628.453072,10584.944971
688.241246,0.000000,-0.000000,9474.636058
688.241562,76.609550,1110.308913,8734.430116
688.241878,1149.143247,814.226536,8660.409521
688.242194,2221.676944,-0.000000,9178.553681
688.242510,2221.676944,-0.000000,8512.368333
688.242825,2068.457845,-0.000000,8512.368333
688.243141,2145.067394,-444.123565,9178.553681
688.243457,1838.629195,-592.164754,9548.656652
688.243773,1685.410096,-148.041188,9474.636058
688.244088,383.047749,1036.288319,9474.636058
688.244404,-383.047749,666.185348,9770.718434
688.244720,-229.828649,-0.000000,9918.759623
688.245036,-229.828649,-1184.329507,9696.697840
688.245352,-1072.533697,-1480.411884,10362.883188
688.245667,-1302.362347,-1332.370696,10436.903782
688.245983,-689.485948,-1332.370696,10955.047942
688.246299,-306.438199,-1554.432478,10807.006753
688.246615,-536.266849,-222.061783,9844.739029
688.246930,0.000000,1036.288319,9104.533087
688.247246,153.219100,1554.432478,8438.347739
688.247562,995.924147,1184.329507,8142.265362
688.247878,1685.410096,148.041188,8290.306550
688.248194,1838.629195,518.144159,7698.141797
688.248509,612.876398,-148.041188,8438.347739
688.248825,1532.190996,-1184.329507,9548.656652
688.249141,1455.581446,-888.247130,9474.636058
688.249457,383.047749,-0.000000,9030.512492
688.249772,-306.438199,666.185348,9770.718434
688.250088,-536.266849,-296.082377,9844.739029
688.250404,-536.266849,-888.247130,9696.697840
688.250720,-536.266849,-1554.432478,9992.780217
688.251035,-1149.143247,-2220.617826,9992.780217
688.251351,-1455.581446,-2368.659014,10732.986159
688.251667,-536.266849,-2072.576638,10362.883188
688.251983,0.000000,-1036.288319,9696.697840
688.252299,0.000000,740.205942,8956.491898
688.252614,0.000000,1406.391290,8290.306550
688.252930,1072.533697,1184.329507,8364.327145
688.253246,1608.800546,518.144159,7772.162391
688.253562,1608.800546,296.082377,7772.162391
688.253877,1149.143247,-0.000000,8438.347739
688.254193,1532.190996,-814.226536,9474.636058
688.254509,1608.800546,-592.164754,9474.636058
688.254825,612.876398,444.123565,9696.697840
688.255141,0.000000,666.185348,9252.574275
688.255456,-536.266849,370.102971,9844.739029
688.255772,-306.438199,-148.041188,10140.821405
688.256088,-153.219100,-666.185348,9696.697840
688.256404,-612.876398,-814.226536,10066.800811
688.256719,-919.314598,-1036.288319,10584.944971
688.257035,-153.219100,-888.247130,10436.903782
688.257351,0.000000,-370.102971,10436.903782
688.257667,0.000000,1036.288319,9548.656652
688.257983,383.047749,1702.473667,9030.512492
688.258298,1608.800546,1702.473667,8882.471304
688.258614,2298.286494,1554.432478,8808.450710
688.258930,2528.115143,1110.308913,8364.327145
688.259246,2068.457845,814.226536,8512.368333
688.259561,2221.676944,518.144159,9178.553681
688.259877,2145.067394,-148.041188,9844.739029
688.260193,1838.629195,-74.020594,10066.800811
688.260509,383.047749,740.205942,9918.759623
688.260825,0.000000,888.247130,10140.821405
688.261140,0.000000,-148.041188,10510.924376
688.261456,76.609550,-666.185348,10436.903782
688.261772,0.000000,-888.247130,10732.986159
688.262088,-689.485948,-1184.329507,11103.089130
688.262403,0.000000,-1184.329507,11399.171507
688.262719,459.657299,-1036.288319,10807.006753
688.263035,229.828649,592.164754,9252.574275
688.263351,536.266849,1850.514855,8956.491898
688.263666,1532.190996,1480.411884,8364.327145
688.263982,2298.286494,888.247130,8512.368333
688.264298,2451.505594,666.185348,8068.244768
688.264614,1685.410096,-0.000000,8364.327145
688.264930,2145.067394,-74.020594,8660.409521
688.265245,1762.019645,-814.226536,9770.718434
688.265561,1149.143247,-1110.308913,9548.656652
688.265877,76.609550,-0.000000,9622.677246
688.266193,-766.095498,444.123565,9844.739029
688.266508,-536.266849,-370.102971,9770.718434
688.266824,-383.047749,-1332.370696,9548.656652
688.267140,-766.095498,-1628.453072,9844.739029
688.267456,-1149.143247,-1702.473667,10436.903782
688.267772,-995.924147,-2294.638420,10658.965565
688.268087,-842.705048,-1924.535449,10288.862594
688.268403,-612.876398,-666.185348,9474.636058
688.268719,-76.609550,666.185348,8882.471304
688.269035,536.266849,888.247130,8512.368333
688.269350,1455.581446,222.061783,7698.141797
688.269666,1378.971896,-74.020594,8142.265362
688.269982,1685.410096,-296.082377,8734.430116
688.270298,1455.581446,-592.164754,8882.471304
688.270614,1608.800546,-1036.288319,9178.553681
688.270929,1302.362347,-1258.350101,9252.574275
688.271245,459.657299,-74.020594,9474.636058
688.271561,0.000000,370.102971,9104.533087
688.271877,-229.828649,-222.061783,9622.677246
688.272192,-229.828649,-1628.453072,9844.739029
688.272508,-153.219100,-2294.638420,9992.780217
688.272824,-919.314598,-1850.514855,10066.800811
688.273140,-919.314598,-1998.556043,10658.965565
688.273455,-536.266849,-1628.453072,10066.800811
688.273771,-153.219100,-296.082377,9696.697840
688.274087,-383.047749,814.226536,8512.368333
688.274403,0.000000,1036.288319,8882.471304
688.274719,842.705048,-0.000000,8734.430116
688.275034,1838.629195,-592.164754,8438.347739
688.275350,1608.800546,-148.041188,8290.306550
688.275666,1225.752797,-0.000000,9252.574275
688.275982,1455.581446,-592.164754,9622.677246
688.276297,1149.143247,-814.226536,9474.636058
688.276613,153.219100,-0.000000,9548.656652
688.276929,-76.609550,518.144159,9696.697840
688.277245,-383.047749,-0.000000,10288.862594
688.277561,0.000000,-740.205942,10214.842000
688.277876,0.000000,-1036.288319,9992.780217
688.278192,-459.657299,-1036.288319,10140.821405
688.278508,-612.876398,-1036.288319,10288.862594
688.278824,0.000000,-1036.288319,10510.924376
688.279139,153.219100,-370.102971,9770.718434
688.279455,0.000000,1480.411884,8956.491898
688.279771,459.657299,1998.556043,8512.368333
688.280087,1378.971896,1406.391290,9400.615463
688.280403,1838.629195,444.123565,8660.409521
688.280718,1762.019645,592.164754,8364.327145
688.281034,1455.581446,222.061783,8142.265362
688.281350,919.314598,-444.123565,9548.656652
688.281666,1225.752797,-222.061783,10436.903782
688.281981,536.266849,-0.000000,10066.800811
688.282297,-383.047749,518.144159,10066.800811
688.282613,-766.095498,518.144159,10214.842000
688.282929,-153.219100,-296.082377,9918.759623
688.283244,0.000000,-1258.350101,10066.800811
688.283560,0.000000,-814.226536,10140.821405
688.283876,-153.219100,-888.247130,10362.883188
688.284192,76.609550,-1036.288319,10510.924376
688.284508,612.876398,-222.061783,10140.821405
688.284823,536.266849,814.226536,9252.574275
688.285139,842.705048,1924.535449,8438.347739
688.285455,1455.581446,1554.432478,8512.368333
688.285771,1991.848295,814.226536,8586.388927
688.286086,2221.676944,296.082377,8290.306550
688.286402,1991.848295,-74.020594,8290.306550
688.286718,1532.190996,222.061783,9252.574275
688.287034,1378.971896,-0.000000,9770.718434
688.287350,919.314598,-0.000000,9844.739029
688.287665,0.000000,1110.308913,9844.739029
688.287981,-766.095498,962.267725,9770.718434
688.288297,-153.219100,-0.000000,9918.759623
688.288613,0.000000,-518.144159,9696.697840
688.288928,-919.314598,-962.267725,9548.656652
688.289244,-766.095498,-592.164754,10066.800811
688.289560,0.000000,-1702.473667,10436.903782
688.289876,-459.657299,-222.061783,10140.821405
688.290192,-459.657299,888.247130,8808.450710
688.290507,229.828649,888.247130,9104.533087
688.290823,459.657299,1702.473667,8734.430116
688.291139,842.705048,888.247130,8068.244768
688.291455,2145.067394,370.102971,8364.327145
688.291770,1685.410096,-0.000000,8512.368333
688.292086,1149.143247,-0.000000,8808.450710
688.292402,1991.848295,-888.247130,9474.636058
688.292718,1072.533697,-444.123565,9474.636058
688.293033,153.219100,370.102971,9992.780217
688.293349,-383.047749,518.144159,9696.697840
688.293665,-306.438199,-74.020594,9844.739029
688.293981,-306.438199,-740.205942,10214.842000
688.294297,-153.219100,-1332.370696,9992.780217
688.294612,-612.876398,-1628.453072,10214.842000
688.294928,-766.095498,-1850.514855,11029.068536
688.295244,76.609550,-1702.473667,9918.759623
688.295560,0.000000,-666.185348,9992.780217
688.295875,0.000000,296.082377,9178.553681
688.296191,306.438199,1036.288319,8882.471304
688.296507,1149.143247,518.144159,8364.327145
688.296823,1762.019645,-444.123565,8512.368333
688.297139,1302.362347,-444.123565,8290.306550
688.297454,995.924147,-888.247130,8660.409521
688.297770,1302.362347,-1628.453072,9696.697840
688.298086,919.314598,-2368.659014,9770.718434
688.298402,383.047749,-888.247130,9844.739029
688.298717,-229.828649,-296.082377,9548.656652
688.299033,-842.705048,-592.164754,9770.718434
688.299349,-459.657299,-1406.391290,9992.780217
688.299665,-766.095498,-1998.556043,10362.883188
688.299981,-995.924147,-1924.535449,10214.842000
688.300296,-689.485948,-1776.494261,10510.924376
688.300612,0.000000,-1628.453072,10214.842000
688.300928,306.438199,-888.247130,9474.636058
688.301244,0.000000,666.185348,8956.491898
688.301559,459.657299,1554.432478,8364.327145
688.301875,1225.752797,814.226536,8290.306550
688.302191,1991.848295,370.102971,7994.224174
688.302507,2145.067394,-74.020594,8364.327145
688.302823,1225.752797,-148.041188,8438.347739
688.303138,1762.019645,-888.247130,9474.636058
688.303454,1378.971896,-814.226536,9696.697840
688.303770,689.485948,-296.082377,9622.677246
688.304086,0.000000,592.164754,9548.656652
688.304401,-229.828649,-0.000000,9252.574275
688.304717,-229.828649,-518.144159,9474.636058
688.305033,0.000000,-1036.288319,9992.780217
688.305349,-612.876398,-1480.411884,9918.759623
688.305664,-766.095498,-1184.329507,10140.821405
688.305980,-689.485948,-1628.453072,10288.862594
688.306296,0.000000,-962.267725,9992.780217
688.306612,0.000000,222.061783,8956.491898
688.306928,0.000000,1184.329507,8586.388927
688.307243,919.314598,1110.308913,8142.265362
688.307559,1455.581446,592.164754,7994.224174
688.307875,1762.019645,370.102971,7920.203579
688.308191,1532.190996,296.082377,8364.327145
688.308506,1455.581446,-518.144159,9252.574275
688.308822,1302.362347,-370.102971,9548.656652
688.309138,612.876398,-518.144159,9918.759623
688.309454,-229.828649,222.061783,9770.718434
688.309770,-612.876398,740.205942,10214.842000
688.310085,-306.438199,-74.020594,10140.821405
688.310401,-153.219100,-666.185348,9918.759623
688.310717,-536.266849,-666.185348,10510.924376
688.311033,-689.485948,-592.164754,10510.924376
688.311348,-383.047749,-666.185348,10362.883188
688.311664,153.219100,-148.041188,10510.924376
688.311980,229.828649,1184.329507,9622.677246
688.312296,383.047749,1998.556043,8512.368333
688.312612,1149.143247,2368.659014,8068.244768
688.312927,2298.286494,1480.411884,8512.368333
688.313243,2451.505594,1036.288319,8290.306550
688.313559,2374.896044,1184.329507,8290.306550
688.313875,1608.800546,-0.000000,8660.409521
688.314190,1838.629195,-148.041188,9918.759623
688.314506,1608.800546,-222.061783,10140.821405
688.314822,383.047749,888.247130,10066.800811
688.315138,-306.438199,1110.308913,10066.800811
688.315453,-536.266849,370.102971,10510.924376
688.315769,-459.657299,-518.144159,9992.780217
688.316085,-306.438199,-814.226536,10436.903782
688.316401,-1072.533697,-666.185348,10807.006753
688.316717,-229.828649,-1184.329507,10436.903782
688.317032,0.000000,-962.267725,10510.924376
688.317348,0.000000,370.102971,9696.697840
688.317664,0.000000,1850.514855,9104.533087
688.317980,766.095498,2294.638420,8364.327145
688.318295,1762.019645,1702.473667,8734.430116
688.318611,2298.286494,962.267725,8142.265362
688.318927,1915.238745,962.267725,8290.306550
688.319243,1685.410096,222.061783,8660.409521
688.319559,1532.190996,-370.102971,9770.718434
688.319874,1302.362347,-740.205942,9622.677246
688.320190,459.657299,-222.061783,9844.739029
688.320506,-689.485948,518.144159,9992.780217
688.320822,-919.314598,-296.082377,10510.924376
688.321137,-536.266849,-1110.308913,9992.780217
688.321453,-612.876398,-1332.370696,10362.883188
688.321769,-1532.190996,-1332.370696,10732.986159
688.322085,-1072.533697,-1628.453072,10658.965565
688.322401,-612.876398,-1702.473667,10510.924376
688.322716,0.000000,-740.205942,9696.697840
688.323032,536.266849,-0.000000,9104.533087
688.323348,612.876398,740.205942,8512.368333
688.323664,1455.581446,592.164754,8142.265362
688.323979,1991.848295,-518.144159,7846.182985
688.324295,2757.943793,-222.061783,7920.203579
688.324611,1838.629195,-444.123565,8364.327145
688.324927,1685.410096,-1480.411884,9400.615463
688.325242,1455.581446,-1924.535449,9696.697840
688.325558,842.705048,-1184.329507,9770.718434
688.325874,0.000000,-222.061783,9400.615463
688.326190,-536.266849,-592.164754,9770.718434
688.326506,-306.438199,-1406.391290,9992.780217
688.326821,-612.876398,-2368.659014,10066.800811
688.327137,-689.485948,-2220.617826,10362.883188
688.327453,-1072.533697,-2368.659014,10658.965565
688.327769,-459.657299,-2072.576638,9918.759623
688.328084,-612.876398,-1258.350101,9696.697840
688.328400,0.000000,-0.000000,9104.533087
688.328716,0.000000,888.247130,8808.450710
688.329032,1762.019645,592.164754,8290.306550
688.329348,2221.676944,296.082377,7846.182985
688.329663,2145.067394,-74.020594,7846.182985
688.329979,1685.410096,-666.185348,8290.306550
688.330295,1608.800546,-814.226536,9178.553681
688.330611,1072.533697,-962.267725,9696.697840
688.330926,459.657299,-148.041188,9474.636058
688.331242,-612.876398,444.123565,9622.677246
688.331558,-919.314598,-0.000000,9696.697840
688.331874,-536.266849,-740.205942,10214.842000
688.332190,-459.657299,-1258.350101,10214.842000
688.332508,-919.314598,-2072.576638,10214.842000
688.332824,-1302.362347,-1702.473667,10955.047942
688.333140,-919.314598,-1628.453072,10510.924376
688.333455,-383.047749,-814.226536,10288.862594
688.333771,-612.876398,740.205942,9474.636058
688.334087,-306.438199,1998.556043,8438.347739
688.334402,612.876398,2220.617826,8512.368333
688.334718,1762.019645,962.267725,8068.244768
688.335034,1762.019645,592.164754,7994.224174
688.335349,1532.190996,222.061783,8586.388927
688.335665,1149.143247,-296.082377,9474.636058
688.335981,1608.800546,-592.164754,9696.697840
688.336296,842.705048,-0.000000,10066.800811
688.336612,0.000000,1110.308913,9474.636058
688.336928,-383.047749,1110.308913,9918.759623
688.337243,-612.876398,296.082377,10436.903782
688.337559,0.000000,-518.144159,10066.800811
688.337875,-612.876398,-888.247130,10362.883188
688.338191,-766.095498,-1184.329507,10584.944971
688.338506,-459.657299,-888.247130,10881.027347
688.338822,-153.219100,-592.164754,10584.944971
688.339138,-153.219100,592.164754,9622.677246
688.339453,-306.438199,2220.617826,8808.450710
688.339769,536.266849,1702.473667,9252.574275
688.340085,1532.190996,1184.329507,8734.430116
688.340400,2068.457845,1184.329507,8142.265362
688.340716,1762.019645,888.247130,8512.368333
688.341032,1455.581446,444.123565,9030.512492
688.341347,1762.019645,-222.061783,9992.780217
688.341663,1455.581446,222.061783,9622.677246
688.341979,689.485948,1036.288319,9474.636058
688.342294,0.000000,1184.329507,9474.636058
688.342610,153.219100,444.123565,10510.924376
688.342926,612.876398,-592.164754,9992.780217
688.343241,0.000000,-740.205942,10140.821405
688.343557,-383.047749,-666.185348,10066.800811
688.343873,-306.438199,-666.185348,10140.821405
688.344188,0.000000,-888.247130,10214.842000
688.344504,383.047749,-74.020594,10066.800811
688.344820,76.609550,1258.350101,9030.512492
688.345135,612.876398,1406.391290,8586.388927
688.345451,1838.629195,1406.391290,8142.265362
688.345767,1991.848295,592.164754,8290.306550
688.346083,1915.238745,370.102971,8142.265362
688.346398,1838.629195,-148.041188,8660.409521
688.346714,1685.410096,-814.226536,9696.697840
688.347030,1378.971896,-740.205942,9474.636058
688.347345,612.876398,-444.123565,9252.574275
688.347661,0.000000,148.041188,9770.718434
688.347977,0.000000,-518.144159,10066.800811
688.348292,76.609550,-1110.308913,9844.739029
688.348608,-459.657299,-1702.473667,9622.677246
688.348924,-459.657299,-1924.535449,10066.800811
688.349239,-612.876398,-2368.659014,10362.883188
688.349555,0.000000,-2294.638420,10658.965565
688.349871,0.000000,-1110.308913,9844.739029
688.350186,-459.657299,148.041188,9030.512492
688.350502,153.219100,1036.288319,8438.347739
688.350818,995.924147,296.082377,7994.224174
688.351133,1455.581446,-518.144159,8290.306550
688.351449,1685.410096,-740.205942,8290.306550
688.351765,1302.362347,-1480.411884,8808.450710
688.352080,1302.362347,-1998.556043,9918.759623
688.352396,1149.143247,-1554.432478,9696.697840
688.352712,612.876398,-592.164754,9474.636058
688.353027,0.000000,-0.000000,9400.615463
688.353343,-536.266849,-296.082377,9474.636058
688.353659,-306.438199,-1036.288319,9844.739029
688.353974,-536.266849,-1776.494261,10066.800811
688.354290,-919.314598,-2368.659014,9844.739029
688.354606,-919.314598,-2294.638420,10807.006753
688.354922,-842.705048,-2442.679609,10658.965565
688.355237,-842.705048,-1332.370696,10066.800811
688.355553,-842.705048,296.082377,9252.574275
688.355869,-306.438199,962.267725,8438.347739
688.356184,229.828649,814.226536,8438.347739
688.356500,766.095498,-0.000000,8660.409521
688.356816,1378.971896,-0.000000,8216.285956
688.357131,1302.362347,-0.000000,8290.306550
688.357447,1378.971896,-740.205942,9548.656652
688.357763,1378.971896,-666.185348,9400.615463
688.358078,919.314598,-0.000000,9622.677246
688.358394,0.000000,444.123565,9400.615463
688.358710,-459.657299,518.144159,9696.697840
688.359025,-153.219100,-370.102971,10140.821405
688.359341,0.000000,-666.185348,10140.821405
688.359657,-306.438199,-1036.288319,9918.759623
688.359972,-1149.143247,-962.267725,10658.965565
688.360288,-919.314598,-888.247130,10584.944971
688.360604,0.000000,-666.185348,10362.883188
688.360919,153.219100,444.123565,9326.594869
688.361235,0.000000,1628.453072,8956.491898
688.361551,995.924147,1480.411884,8956.491898
688.361866,2068.457845,814.226536,8142.265362
688.362182,2298.286494,666.185348,8068.244768
688.362498,2451.505594,518.144159,8586.388927
688.362813,2068.457845,518.144159,8808.450710
688.363129,1915.238745,222.061783,9252.574275
688.363445,1532.190996,148.041188,9770.718434
688.363761,612.876398,592.164754,9770.718434
688.364076,0.000000,444.123565,9992.780217
688.364392,76.609550,-0.000000,10214.842000
688.364708,306.438199,-814.226536,10140.821405
688.365023,306.438199,-740.205942,10362.883188
688.365339,-383.047749,-518.144159,10436.903782
688.365655,-689.485948,-814.226536,10510.924376
688.365970,229.828649,-666.185348,10288.862594
688.366286,153.219100,666.185348,9844.739029
688.366602,76.609550,2146.597232,9178.553681
688.366917,842.705048,2072.576638,8734.430116
688.367233,1838.629195,1480.411884,8438.347739
688.367549,2298.286494,1184.329507,8216.285956
688.367864,2221.676944,814.226536,8290.306550
688.368180,1608.800546,740.205942,8438.347739
688.368496,1685.410096,-0.000000,9548.656652
688.368811,1915.238745,-74.020594,9992.780217
688.369127,689.485948,518.144159,9918.759623
688.369443,-153.219100,1184.329507,9844.739029
688.369758,-459.657299,888.247130,9992.780217
688.370074,0.000000,-74.020594,9770.718434
688.370390,0.000000,-962.267725,10436.903782
688.370705,-919.314598,-1184.329507,10510.924376
688.371021,-1072.533697,-1554.432478,10362.883188
688.371337,-536.266849,-1480.411884,10584.944971
688.371652,-612.876398,-888.247130,9992.780217
688.371968,-459.657299,740.205942,9252.574275
688.372284,229.828649,1480.411884,9178.553681
688.372600,689.485948,888.247130,8660.409521
688.372915,1455.581446,444.123565,8068.244768
688.373231,1608.800546,296.082377,7846.182985
688.373547,1608.800546,-148.041188,8290.306550
688.373862,1455.581446,-444.123565,9252.574275
688.374178,1378.971896,-1184.329507,9326.594869
688.374494,459.657299,-888.247130,9918.759623
688.374809,-536.266849,-222.061783,9696.697840
688.375125,-612.876398,-74.020594,9770.718434
688.375441,-995.924147,-1554.432478,10140.821405
688.375756,-766.095498,-1924.535449,10362.883188
688.376072,-1149.143247,-1924.535449,10362.883188
688.376388,-919.314598,-1628.453072,10510.924376
688.376703,-766.095498,-1850.514855,10436.903782
688.377019,-459.657299,-1258.350101,10066.800811
688.377335,-229.828649,-148.041188,9474.636058
688.377650,-383.047749,592.164754,8734.430116
688.377966,459.657299,740.205942,8364.327145
688.378282,1455.581446,-296.082377,8068.244768
688.378597,1685.410096,-370.102971,7994.224174
688.378913,1378.971896,-888.247130,8364.327145
688.379229,1378.971896,-1110.308913,9104.533087
688.379544,1225.752797,-1554.432478,9696.697840
688.379860,995.924147,-888.247130,9474.636058
688.380176,229.828649,-148.041188,9400.615463
688.380491,0.000000,-0.000000,9474.636058
688.380807,-383.047749,-814.226536,9548.656652
688.381123,0.000000,-1628.453072,9548.656652
688.381439,-306.438199,-1702.473667,10214.842000
688.381754,-766.095498,-1850.514855,10140.821405
688.382070,-536.266849,-1998.556043,10510.924376
688.382386,153.219100,-1554.432478,9844.739029
688.382701,-229.828649,-296.082377,9252.574275
688.383017,0.000000,518.144159,8586.388927
688.383333,766.095498,592.164754,8660.409521
688.383648,1532.190996,-0.000000,8290.306550
688.383964,2374.896044,-0.000000,8216.285956
688.384280,1455.581446,-0.000000,8364.327145
688.384595,1378.971896,-444.123565,9252.574275
688.384911,1532.190996,-1036.288319,9548.656652
688.385227,1378.971896,-296.082377,9474.636058
688.385542,459.657299,296.082377,9474.636058
688.385858,0.000000,370.102971,9696.697840
688.386174,229.828649,-222.061783,9992.780217
688.386489,383.047749,-666.185348,9622.677246
688.386805,-459.657299,-1184.329507,10066.800811
688.387121,-459.657299,-592.164754,10214.842000
688.387436,-995.924147,-1110.308913,10362.883188
688.387752,-612.876398,-666.185348,10436.903782
688.388068,-306.438199,222.061783,9696.697840
688.388383,-459.657299,1332.370696,9030.512492
688.388699,0.000000,1480.411884,9178.553681
688.389015,995.924147,666.185348,8808.450710
688.389330,1302.362347,518.144159,8438.347739
688.389646,1685.410096,518.144159,8512.368333
688.389962,1455.581446,296.082377,9030.512492
688.390278,1302.362347,-0.000000,9622.677246
688.390593,995.924147,444.123565,9696.697840
688.390909,842.705048,1406.391290,9474.636058
688.391225,0.000000,1850.514855,9548.656652
688.391540,76.609550,1036.288319,10066.800811
688.391856,459.657299,-0.000000,9696.697840
688.392172,0.000000,-296.082377,10140.821405
688.392487,-459.657299,-444.123565,10362.883188
688.392803,-459.657299,-888.247130,10807.006753
688.393119,0.000000,-592.164754,10807.006753
688.393434,0.000000,740.205942,10066.800811
688.393750,-536.266849,1850.514855,9696.697840
688.394066,689.485948,1998.556043,9326.594869
688.394381,995.924147,1406.391290,9178.553681
688.394697,1455.581446,592.164754,8956.491898
688.395013,1532.190996,814.226536,8734.430116
688.395328,1685.410096,592.164754,8586.388927
688.395644,1378.971896,-148.041188,9474.636058
688.395960,1762.019645,-0.000000,9770.718434
688.396275,1149.143247,370.102971,9992.780217
688.396591,459.657299,1036.288319,9178.553681
688.396907,383.047749,518.144159,9918.759623
688.397222,459.657299,-666.185348,10066.800811
688.397538,995.924147,-370.102971,9622.677246
688.397854,0.000000,-518.144159,9696.697840
688.398170,0.000000,-962.267725,10214.842000
688.398485,0.000000,-1184.329507,10362.883188
688.398801,306.438199,-740.205942,10584.944971
688.399117,0.000000,666.185348,8808.450710
688.399432,-153.219100,1406.391290,8660.409521
688.399748,689.485948,666.185348,8882.471304
688.400064,1532.190996,-518.144159,8512.368333
688.400379,1378.971896,-518.144159,8882.471304
688.400695,1225.752797,-444.123565,8660.409521
688.401011,1378.971896,-962.267725,9622.677246
688.401326,1072.533697,-1258.350101,9252.574275
688.401642,1072.533697,-222.061783,9548.656652
688.401958,153.219100,-0.000000,9474.636058
688.402273,0.000000,-0.000000,9548.656652
688.402589,536.266849,-740.205942,9696.697840
688.402905,76.609550,-1554.432478,9474.636058
688.403220,0.000000,-1776.494261,9696.697840
688.403536,-306.438199,-1628.453072,10140.821405
688.403852,0.000000,-1924.535449,10066.800811
688.404167,0.000000,-1702.473667,10436.903782
688.404483,-383.047749,-518.144159,9474.636058
688.404799,-229.828649,-74.020594,9178.553681
688.405114,306.438199,-370.102971,9252.574275
688.405430,842.705048,-740.205942,8956.491898
688.405746,1378.971896,-962.267725,8512.368333
688.406061,1149.143247,-1036.288319,8364.327145
688.406377,1149.143247,-1924.535449,9326.594869
688.406693,1072.533697,-1776.494261,9548.656652
688.407009,689.485948,-1480.411884,9474.636058
688.407324,76.609550,-296.082377,9474.636058
688.407640,-306.438199,-296.082377,9622.677246
688.407956,689.485948,-1332.370696,9252.574275
688.408271,0.000000,-1628.453072,9252.574275
688.408587,0.000000,-1924.535449,9696.697840
688.408903,-459.657299,-1850.514855,9622.677246
688.409218,-612.876398,-2368.659014,10066.800811
688.409534,-229.828649,-1628.453072,10510.924376
688.409850,-229.828649,-740.205942,9474.636058
688.410165,-383.047749,1110.308913,8882.471304
688.410481,0.000000,962.267725,8882.471304
688.410797,689.485948,-222.061783,8438.347739
688.411112,1072.533697,-222.061783,8660.409521
688.411428,919.314598,-296.082377,8438.347739
688.411744,536.266849,-518.144159,9104.533087
688.412059,1149.143247,-518.144159,9326.594869
688.412375,1149.143247,-518.144159,10140.821405
688.412691,229.828649,962.267725,9400.615463
688.413006,0.000000,1776.494261,9104.533087
688.413322,0.000000,740.205942,9770.718434
688.413638,306.438199,296.082377,9548.656652
688.413953,0.000000,-592.164754,9548.656652
688.414269,-229.828649,-296.082377,10436.903782
688.414585,0.000000,-814.226536,10362.883188
688.414900,0.000000,-814.226536,10732.986159
688.415216,229.828649,444.123565,9992.780217
688.415532,-229.828649,2072.576638,9104.533087
688.415848,153.219100,2738.761985,9252.574275
688.416163,1225.752797,1998.556043,8808.450710
688.416479,1762.019645,1110.308913,8364.327145
688.416795,1838.629195,1332.370696,8586.388927
688.417110,1762.019645,444.123565,8956.491898
688.417426,1532.190996,-518.144159,9770.718434
688.417742,1608.800546,-296.082377,10214.842000
688.418057,919.314598,740.205942,9696.697840
688.418373,306.438199,1628.453072,9992.780217
688.418689,-153.219100,666.185348,10066.800811
688.419004,536.266849,74.020594,10214.842000
688.419320,459.657299,-296.082377,10140.821405
688.419636,76.609550,-740.205942,10140.821405
688.419951,229.828649,-962.267725,10658.965565
688.420267,306.438199,-1332.370696,11029.068536
688.420583,383.047749,-0.000000,10436.903782
688.420898,306.438199,1850.514855,8882.471304
688.421214,229.828649,2738.761985,8734.430116
688.421530,842.705048,1850.514855,8808.450710
688.421845,1685.410096,740.205942,8734.430116
688.422161,1838.629195,592.164754,8586.388927
688.422477,1149.143247,-74.020594,9400.615463
688.422792,1072.533697,-592.164754,10066.800811
688.423108,1685.410096,-740.205942,10066.800811
688.423424,536.266849,148.041188,9548.656652
688.423739,306.438199,1110.308913,9844.739029
688.424055,0.000000,1184.329507,9770.718434
688.424371,0.000000,222.061783,9474.636058
688.424687,76.609550,-370.102971,9696.697840
688.425002,-383.047749,-666.185348,10066.800811
688.425318,-459.657299,-1110.308913,10214.842000
688.425634,-306.438199,-1480.411884,9992.780217
688.425949,-153.219100,-1258.350101,10584.944971
688.426265,0.000000,-74.020594,9400.615463
688.426581,-612.876398,740.205942,8512.368333
688.426896,153.219100,444.123565,8290.306550
688.427212,842.705048,-0.000000,8808.450710
688.427528,1225.752797,-0.000000,8364.327145
688.427843,919.314598,-148.041188,7994.224174
688.428159,766.095498,-1332.370696,9400.615463
688.428475,1149.143247,-1702.473667,9770.718434
688.428790,612.876398,-1184.329507,9400.615463
688.429106,-306.438199,-0.000000,9696.697840
688.429422,-689.485948,-0.000000,9696.697840
688.429737,-306.438199,-518.144159,9548.656652
688.430053,0.000000,-1258.350101,9400.615463
688.430369,-383.047749,-1406.391290,9548.656652
688.430685,-536.266849,-1776.494261,10140.821405
688.431000,-383.047749,-1924.535449,9770.718434
688.431316,0.000000,-1332.370696,9992.780217
688.431632,0.000000,-0.000000,8882.471304
688.431948,0.000000,740.205942,8290.306550
688.432264,612.876398,740.205942,7994.224174
688.432579,1302.362347,-518.144159,8290.306550
688.432895,1302.362347,-1036.288319,8882.471304
688.433211,995.924147,-888.247130,8586.388927
688.433527,536.266849,-1554.432478,9400.615463
688.433842,766.095498,-1702.473667,10436.903782
688.434158,612.876398,-1110.308913,9992.780217
688.434474,0.000000,148.041188,9696.697840
688.434790,-459.657299,592.164754,9622.677246
688.435106,-229.828649,-0.000000,9622.677246
688.435421,0.000000,-962.267725,9622.677246
688.435737,153.219100,-1036.288319,10066.800811
688.436053,0.000000,-1184.329507,9696.697840
688.436369,153.219100,-1406.391290,10214.842000
688.436684,689.485948,-1628.453072,10362.883188
688.437000,536.266849,-74.020594,9548.656652
688.437316,0.000000,1184.329507,9474.636058
688.437632,689.485948,1332.370696,8882.471304
688.437948,1608.800546,666.185348,8734.430116
688.438263,1915.238745,-0.000000,8808.450710
688.438579,1685.410096,222.061783,8660.409521
688.438895,1072.533697,-518.144159,9252.574275
688.439211,1149.143247,-962.267725,9844.739029
688.439526,536.266849,-962.267725,10288.862594
688.439842,0.000000,-444.123565,10066.800811
688.440158,-612.876398,296.082377,10066.800811
688.440474,-766.095498,-74.020594,10214.842000
688.440790,229.828649,-814.226536,10140.821405
688.441105,76.609550,-1036.288319,9844.739029
688.441421,0.000000,-740.205942,9770.718434
688.441737,-229.828649,-1184.329507,9992.780217
688.442053,229.828649,-1036.288319,10214.842000
688.442368,306.438199,-74.020594,9770.718434
688.442684,153.219100,1036.288319,9252.574275
688.443000,689.485948,1850.514855,8734.430116
688.443316,1225.752797,1258.350101,8586.388927
688.443632,1685.410096,592.164754,8290.306550
688.443947,1608.800546,740.205942,7994.224174
688.444263,1378.971896,222.061783,8882.471304
688.444579,1532.190996,-518.144159,9474.636058
688.444895,1149.143247,-518.144159,9844.739029
688.445210,459.657299,-0.000000,9548.656652
688.445526,-306.438199,740.205942,9622.677246
688.445842,-766.095498,592.164754,9844.739029
688.446158,-459.657299,-740.205942,9770.718434
688.446474,-153.219100,-1110.308913,9696.697840
688.446789,-766.095498,-740.205942,9770.718434
688.447105,-612.876398,-1036.288319,9992.780217
688.447421,-306.438199,-1184.329507,10510.924376
688.447737,383.047749,-518.144159,10140.821405
688.448052,536.266849,1406.391290,9030.512492
688.448368,536.266849,2220.617826,8512.368333
688.448684,1455.581446,1554.432478,8216.285956
688.449000,2528.115143,592.164754,8142.265362
688.449316,2451.505594,592.164754,7846.182985
688.449631,1532.190996,518.144159,8142.265362
688.449947,1838.629195,296.082377,9178.553681
688.450263,1838.629195,-740.205942,9696.697840
688.450579,1302.362347,-148.041188,9696.697840
688.450895,-612.876398,740.205942,9918.759623
688.451210,-766.095498,-0.000000,10214.842000
688.451526,-459.657299,-370.102971,10362.883188
688.451842,-306.438199,-814.226536,10214.842000
688.452158,-383.047749,-888.247130,10214.842000
688.452473,-459.657299,-1110.308913,10732.986159
688.452789,-459.657299,-1258.350101,10955.047942
688.453105,459.657299,-740.205942,10510.924376
688.453421,-76.609550,1036.288319,8956.491898
688.453737,153.219100,2442.679609,8216.285956
688.454052,1455.581446,1998.556043,8586.388927
688.454368,2374.896044,962.267725,8438.347739
688.454684,2451.505594,888.247130,8216.285956
688.455000,2068.457845,444.123565,8142.265362
688.455315,1532.190996,-444.123565,9104.533087
688.455631,1302.362347,-1406.391290,10288.862594
688.455947,383.047749,-1110.308913,10584.944971
688.456263,-306.438199,222.061783,10140.821405
688.456579,-1072.533697,296.082377,10436.903782
688.456894,-919.314598,-518.144159,10732.986159
688.457210,-689.485948,-1554.432478,10362.883188
688.457526,-842.705048,-1110.308913,10362.883188
688.457842,-1072.533697,-1406.391290,10510.924376
688.458157,-383.047749,-2072.576638,10288.862594
688.458473,306.438199,-1924.535449,10510.924376
688.458789,689.485948,-296.082377,9696.697840
688.459105,459.657299,962.267725,8660.409521
688.459421,1149.143247,666.185348,8290.306550
688.459736,2145.067394,-0.000000,7772.162391
688.460052,2374.896044,-370.102971,8438.347739
688.460368,2068.457845,-444.123565,8512.368333
688.460684,1685.410096,-1110.308913,8882.471304
688.460999,1838.629195,-2072.576638,9992.780217
688.461315,1149.143247,-1332.370696,9918.759623
688.461631,306.438199,-222.061783,9178.553681
688.461947,-689.485948,-296.082377,9844.739029
688.462263,-536.266849,-1110.308913,9992.780217
688.462578,-153.219100,-2368.659014,10362.883188
688.462894,-689.485948,-2146.597232,9844.739029
688.463210,-995.924147,-2294.638420,9696.697840
688.463526,-995.924147,-2368.659014,10214.842000
688.463841,-306.438199,-2072.576638,9844.739029
688.464157,-153.219100,-888.247130,9326.594869
688.464473,-383.047749,296.082377,8438.347739
688.464789,229.828649,592.164754,8216.285956
688.465105,1225.752797,-0.000000,7624.121203
688.465420,1685.410096,-666.185348,7550.100608
688.465736,1685.410096,-222.061783,7772.162391
688.466052,1455.581446,-592.164754,8068.244768
688.466368,1302.362347,-518.144159,8882.471304
688.466683,1455.581446,-444.123565,9474.636058
688.466999,229.828649,370.102971,8956.491898
688.467315,-306.438199,814.226536,8734.430116
688.467631,-689.485948,-0.000000,9474.636058
688.467947,-612.876398,-592.164754,9770.718434
688.468262,-459.657299,-962.267725,9918.759623
688.468578,-919.314598,-1406.391290,10362.883188
688.468894,-995.924147,-1184.329507,10066.800811
688.469210,-919.314598,-1184.329507,10807.006753
688.469525,-383.047749,-370.102971,10436.903782
688.469841,-689.485948,1628.453072,9326.594869
688.470157,0.000000,2294.638420,9252.574275
688.470473,1225.752797,1628.453072,8882.471304
688.470789,2298.286494,1480.411884,8438.347739
688.471104,2374.896044,1036.288319,8290.306550
688.471420,1915.238745,592.164754,8364.327145
688.471736,1915.238745,-222.061783,9696.697840
688.472052,1762.019645,-148.041188,10214.842000
688.472368,1149.143247,592.164754,10214.842000
688.472683,229.828649,1258.350101,9918.759623
688.472999,-383.047749,962.267725,10288.862594
688.473315,0.000000,-0.000000,9992.780217
688.473631,383.047749,-444.123565,10288.862594
688.473946,-612.876398,-740.205942,10510.924376
688.474262,-919.314598,-740.205942,10732.986159
688.474578,-459.657299,-1554.432478,10881.027347
688.474894,0.000000,-814.226536,10510.924376
688.475210,-306.438199,740.205942,9696.697840
688.475525,-459.657299,1628.453072,9178.553681
688.475841,842.705048,1110.308913,9252.574275
688.476157,1762.019645,148.041188,8808.450710
688.476473,1838.629195,444.123565,9030.512492
688.476788,1608.800546,888.247130,8216.285956
688.477104,1685.410096,592.164754,9326.594869
688.477420,2298.286494,592.164754,9178.553681
688.477736,1762.019645,1184.329507,9030.512492
688.478052,919.314598,1776.494261,9474.636058
688.478367,76.609550,1554.432478,9992.780217
688.478683,-153.219100,592.164754,10066.800811
688.478999,0.000000,-296.082377,10066.800811
688.479315,76.609550,-222.061783,10214.842000
688.479630,-689.485948,-0.000000,10510.924376
688.479946,-536.266849,-296.082377,10362.883188
688.480262,-459.657299,444.123565,10140.821405
688.480578,-459.657299,1184.329507,9548.656652
688.480894,76.609550,2812.782580,8808.450710
688.481209,153.219100,2146.597232,8290.306550
688.481525,1225.752797,1406.391290,8438.347739
688.481841,1915.238745,222.061783,8586.388927
688.482157,1991.848295,148.041188,8068.244768
688.482472,2145.067394,-592.164754,8956.491898
688.482788,1302.362347,-814.226536,9474.636058
688.483104,842.705048,-370.102971,9548.656652
688.483420,612.876398,666.185348,9474.636058
688.483736,153.219100,1036.288319,9178.553681
688.484051,153.219100,-370.102971,9622.677246
688.484367,459.657299,-962.267725,9622.677246
688.484683,153.219100,-1554.432478,9400.615463
688.484999,-229.828649,-2146.597232,9844.739029
688.485314,-383.047749,-2516.700203,9992.780217
688.485630,0.000000,-2294.638420,10510.924376
688.485946,0.000000,-1406.391290,10066.800811
688.486262,0.000000,370.102971,9030.512492
688.486578,0.000000,666.185348,8956.491898
688.486893,1455.581446,222.061783,8290.306550
688.487209,1608.800546,-444.123565,8586.388927
688.487525,1378.971896,-592.164754,8068.244768
688.487841,1532.190996,-1036.288319,8734.430116
688.488156,1455.581446,-1406.391290,9326.594869
688.488472,1149.143247,-1258.350101,9474.636058
688.488788,0.000000,-740.205942,9548.656652
688.489104,-612.876398,-0.000000,9918.759623
688.489420,-383.047749,-444.123565,10214.842000
688.489735,-153.219100,-1110.308913,10214.842000
688.490051,-689.485948,-1628.453072,9918.759623
688.490367,-306.438199,-1332.370696,9918.759623
688.490683,-536.266849,-1406.391290,10362.883188
688.490998,306.438199,-1480.411884,10436.903782
688.491314,153.219100,-592.164754,9844.739029
688.491630,0.000000,888.247130,9622.677246
688.491946,536.266849,1702.473667,9030.512492
688.492262,1302.362347,666.185348,8438.347739
688.492577,1532.190996,296.082377,8660.409521
688.492893,1762.019645,-0.000000,8808.450710
688.493209,1608.800546,-74.020594,8882.471304
688.493525,1608.800546,-814.226536,9400.615463
688.493840,1608.800546,-962.267725,10066.800811
688.494156,766.095498,-74.020594,9992.780217
688.494472,153.219100,518.144159,10066.800811
688.494788,76.609550,-518.144159,10214.842000
688.495104,-76.609550,-962.267725,9696.697840
688.495419,0.000000,-1628.453072,9622.677246
688.495735,-459.657299,-1924.535449,10140.821405
688.496051,-919.314598,-2072.576638,10658.965565
688.496367,-383.047749,-2368.659014,10658.965565
688.496683,-612.876398,-1480.411884,10214.842000
688.496998,-536.266849,-0.000000,9178.553681
688.497314,-229.828649,888.247130,8216.285956
688.497630,383.047749,444.123565,8216.285956
688.497946,1455.581446,-148.041188,8586.388927
688.498261,1762.019645,-148.041188,8068.244768
688.498577,1149.143247,-518.144159,7846.182985
688.498893,1149.143247,-1184.329507,8956.491898
688.499209,919.314598,-2072.576638,9844.739029
688.499525,459.657299,-1036.288319,9400.615463
688.499840,-536.266849,296.082377,9326.594869
688.500156,-919.314598,444.123565,9844.739029
688.500472,-612.876398,-296.082377,9696.697840
688.500788,-383.047749,-666.185348,9548.656652
688.501103,-995.924147,-1184.329507,9844.739029
688.501419,-689.485948,-666.185348,9992.780217
688.501735,-459.657299,-1184.329507,10436.903782
688.502051,76.609550,-888.247130,10288.862594
688.502367,-306.438199,888.247130,9326.594869
688.502682,0.000000,2220.617826,8882.471304
688.502998,612.876398,2072.576638,8216.285956
688.503314,1762.019645,1406.391290,8364.327145
688.503630,2604.724693,962.267725,8216.285956
688.503945,2451.505594,1332.370696,7920.203579
688.504261,2298.286494,666.185348,8882.471304
688.504577,1991.848295,-0.000000,9474.636058
688.504893,1685.410096,222.061783,9548.656652
688.505209,842.705048,1702.473667,9696.697840
688.505524,153.219100,1554.432478,9918.759623
688.505840,0.000000,740.205942,10214.842000
688.506156,76.609550,-222.061783,10436.903782
688.506472,-306.438199,-444.123565,10955.047942
688.506787,-689.485948,-740.205942,10658.965565
688.507103,-229.828649,-1036.288319,10807.006753
688.507419,229.828649,-814.226536,10807.006753
688.507735,612.876398,444.123565,10066.800811
688.508051,766.095498,1998.556043,9104.533087
688.508366,919.314598,1850.514855,8734.430116
688.508682,2145.067394,1184.329507,8882.471304
688.508998,2145.067394,1036.288319,8216.285956
688.509314,2145.067394,1110.308913,8290.306550
688.509629,2145.067394,444.123565,8882.471304
688.509945,2145.067394,-518.144159,9844.739029
688.510261,1378.971896,-592.164754,9918.759623
688.510577,612.876398,148.041188,9844.739029
688.510893,-229.828649,222.061783,10436.903782
688.511208,-229.828649,-148.041188,10436.903782
688.511524,-459.657299,-1406.391290,10436.903782
688.511840,-459.657299,-1406.391290,10732.986159
688.512156,-1072.533697,-1554.432478,10584.944971
688.512471,-995.924147,-1480.411884,10436.903782
688.512787,-766.095498,-1776.494261,10510.924376
688.513103,0.000000,-1110.308913,9770.718434
688.513419,-229.828649,592.164754,9104.533087
688.513735,306.438199,1036.288319,8364.327145
688.514050,1225.752797,296.082377,9030.512492
688.514366,2221.676944,-370.102971,8512.368333
688.514682,1991.848295,296.082377,7920.203579
688.514998,1762.019645,-370.102971,8068.244768
688.515313,1532.190996,-1110.308913,9252.574275
688.515629,1838.629195,-1184.329507,9844.739029
688.515945,612.876398,-518.144159,9474.636058
688.516261,0.000000,-0.000000,9474.636058
688.516577,-459.657299,-592.164754,9770.718434
688.516892,-229.828649,-1406.391290,9622.677246
688.517208,-383.047749,-2294.638420,10362.883188
688.517524,-459.657299,-2220.617826,10288.862594
688.517840,-1072.533697,-1776.494261,10066.800811
688.518156,-842.705048,-2146.597232,10288.862594
688.518471,-229.828649,-1554.432478,9474.636058
688.518787,-689.485948,-370.102971,8734.430116
688.519103,-153.219100,666.185348,8808.450710
688.519419,689.485948,-0.000000,8364.327145
688.519734,1685.410096,-296.082377,8216.285956
688.520050,1915.238745,-518.144159,7920.203579
688.520366,1915.238745,-1110.308913,7994.224174
688.520682,1608.800546,-1480.411884,8734.430116
688.520998,1378.971896,-1776.494261,9400.615463
688.521313,766.095498,-740.205942,9474.636058
688.521629,0.000000,-148.041188,9622.677246
688.521945,-306.438199,-814.226536,9622.677246
688.522261,-383.047749,-1184.329507,9696.697840
688.522576,-536.266849,-2220.617826,9770.718434
688.522892,-995.924147,-2368.659014,9918.759623
688.523208,-1225.752797,-2516.700203,10436.903782
688.523524,-919.314598,-2516.700203,10658.965565
688.523840,-919.314598,-1554.432478,10362.883188
688.524155,-1072.533697,-444.123565,9474.636058
688.524471,-612.876398,666.185348,8882.471304
688.524787,76.609550,666.185348,8512.368333
688.525103,1225.752797,-222.061783,8956.491898
688.525418,1762.019645,-74.020594,8142.265362
688.525734,1532.190996,-0.000000,8290.306550
688.526050,1378.971896,-296.082377,8734.430116
688.526366,1378.971896,-888.247130,9252.574275
688.526682,1838.629195,-296.082377,9474.636058
688.526997,306.438199,1036.288319,9622.677246
688.527313,0.000000,1258.350101,9548.656652
688.527629,-229.828649,444.123565,10140.821405
688.527945,0.000000,-74.020594,9992.780217
688.528260,76.609550,-0.000000,10140.821405
688.528576,-153.219100,370.102971,10214.842000
688.528892,0.000000,148.041188,10658.965565
688.529208,229.828649,740.205942,10288.862594
688.529524,306.438199,1850.514855,9400.615463
688.529839,842.705048,2664.741391,9030.512492
688.530155,995.924147,2886.803174,8882.471304
688.530471,1915.238745,1998.556043,8512.368333
688.530787,2374.896044,1406.391290,9030.512492
688.531102,2451.505594,1702.473667,8734.430116
688.531418,2145.067394,1628.453072,9104.533087
688.531734,2374.896044,1480.411884,9474.636058
688.532050,2298.286494,1850.514855,9622.677246
688.532366,842.705048,2812.782580,9770.718434
688.532681,536.266849,2590.720797,9548.656652
688.532997,306.438199,1480.411884,10140.821405
688.533313,229.828649,-0.000000,10807.006753
688.533629,229.828649,-296.082377,10584.944971
688.533944,-306.438199,-296.082377,10584.944971
688.534260,-383.047749,-518.144159,11103.089130
688.534576,-229.828649,-0.000000,10584.944971
688.534892,383.047749,1332.370696,9844.739029
688.535208,0.000000,2146.597232,8956.491898
688.535523,76.609550,2368.659014,8660.409521
688.535839,766.095498,962.267725,8290.306550
688.536155,1532.190996,222.061783,8586.388927
688.536471,1532.190996,-222.061783,8364.327145
688.536786,995.924147,-296.082377,9030.512492
688.537102,766.095498,-888.247130,9548.656652
688.537418,995.924147,-740.205942,9918.759623
688.537734,229.828649,-0.000000,10140.821405
688.538049,-229.828649,888.247130,9918.759623
688.538365,-536.266849,444.123565,10214.842000
688.538681,-459.657299,-666.185348,10066.800811
688.538997,-229.828649,-592.164754,10066.800811
688.539313,-842.705048,-1110.308913,10214.842000
688.539628,-995.924147,-1480.411884,10214.842000
688.539944,-306.438199,-1776.494261,10214.842000
688.540260,0.000000,-1258.350101,10066.800811
688.540576,-229.828649,222.061783,9622.677246
688.540891,-153.219100,444.123565,8956.491898
688.541207,612.876398,740.205942,8586.388927
688.541523,1762.019645,-296.082377,8586.388927
688.541839,1762.019645,-148.041188,8142.265362
688.542155,1455.581446,-0.000000,8290.306550
688.542470,1455.581446,-1258.350101,9104.533087
688.542786,1608.800546,-888.247130,9178.553681
688.543102,612.876398,-1036.288319,8956.491898
688.543418,306.438199,-592.164754,9474.636058
688.543733,-229.828649,-1110.308913,9474.636058
688.544049,-383.047749,-2368.659014,9918.759623
688.544365,0.000000,-2664.741391,10140.821405
688.544681,-306.438199,-2590.720797,9474.636058
688.544996,-612.876398,-2368.659014,9844.739029
688.545312,306.438199,-2368.659014,9992.780217
688.545628,229.828649,-1702.473667,9326.594869
688.545944,0.000000,-296.082377,9178.553681
688.546260,0.000000,-0.000000,8216.285956
688.546575,842.705048,-296.082377,7920.203579
688.546891,1532.190996,-962.267725,8142.265362
688.547207,1685.410096,-1480.411884,8068.244768
688.547523,1149.143247,-1628.453072,8364.327145
688.547838,995.924147,-2072.576638,9326.594869
688.548154,689.485948,-2442.679609,9844.739029
688.548470,0.000000,-2072.576638,10140.821405
688.548786,-689.485948,-740.205942,9918.759623
688.549102,-1225.752797,-1184.329507,9992.780217
688.549417,-919.314598,-1702.473667,10140.821405
688.549733,-383.047749,-1998.556043,9844.739029
688.550049,-842.705048,-2072.576638,10066.800811
688.550365,-1149.143247,-2442.679609,10362.883188
688.550680,-612.876398,-2294.638420,10214.842000
688.550996,-459.657299,-1776.494261,9844.739029
688.551312,0.000000,-148.041188,9252.574275
688.551628,0.000000,740.205942,8882.471304
688.551943,612.876398,1036.288319,8290.306550
688.552259,1685.410096,518.144159,8512.368333
688.552575,1838.629195,148.041188,8290.306550
688.552891,1378.971896,-0.000000,8586.388927
688.553207,1378.971896,-740.205942,9178.553681
688.553522,1378.971896,-814.226536,9548.656652
688.553838,612.876398,-370.102971,9992.780217
688.554154,0.000000,518.144159,9992.780217
688.554470,-766.095498,740.205942,10066.800811
688.554785,-536.266849,-0.000000,10288.862594
688.555101,229.828649,-296.082377,10362.883188
688.555417,0.000000,-222.061783,9992.780217
688.555733,153.219100,370.102971,9622.677246
688.556049,153.219100,-0.000000,10066.800811
688.556364,1072.533697,222.061783,9918.759623
688.556680,1149.143247,1628.453072,9252.574275
688.556996,612.876398,2664.741391,8586.388927
688.557312,1072.533697,2812.782580,8586.388927
688.557627,2221.676944,1998.556043,8364.327145
688.557943,2298.286494,1480.411884,8290.306550
688.558259,2145.067394,1480.411884,8808.450710
688.558575,1608.800546,888.247130,9030.512492
688.558890,1685.410096,592.164754,9844.739029
688.559206,1455.581446,148.041188,10436.903782
688.559522,766.095498,1332.370696,9992.780217
688.559838,76.609550,1406.391290,9918.759623
688.560154,-459.657299,1184.329507,10214.842000
688.560469,0.000000,370.102971,10066.800811
688.560785,0.000000,-444.123565,10140.821405
688.561101,-689.485948,-222.061783,10362.883188
688.561417,-383.047749,-518.144159,10881.027347
688.561732,-536.266849,-444.123565,11029.068536
688.562048,0.000000,740.205942,10214.842000
688.562364,0.000000,2220.617826,8882.471304
688.562680,383.047749,2220.617826,8660.409521
688.562996,1455.581446,1776.494261,8956.491898
688.563311,1915.238745,1184.329507,8660.409521
688.563627,1762.019645,962.267725,8290.306550
688.563943,1455.581446,740.205942,8586.388927
688.564259,1685.410096,-296.082377,9696.697840
688.564574,1378.971896,-518.144159,10214.842000
688.564890,153.219100,-0.000000,9992.780217
688.565206,-842.705048,814.226536,9770.718434
688.565522,-536.266849,296.082377,10436.903782
688.565837,-383.047749,-666.185348,10436.903782
688.566153,-383.047749,-1110.308913,10214.842000
688.566469,-612.876398,-1184.329507,10288.862594
688.566785,-995.924147,-1702.473667,10066.800811
688.567101,-306.438199,-1628.453072,10436.903782
688.567416,383.047749,-1036.288319,10140.821405
688.567732,76.609550,148.041188,8734.430116
688.568048,689.485948,1332.370696,8290.306550
688.568364,1072.533697,370.102971,8438.347739
688.568679,2145.067394,-592.164754,8512.368333
688.568995,2757.943793,-1110.308913,8512.368333
688.569311,1762.019645,-814.226536,7846.182985
688.569627,1302.362347,-1480.411884,9326.594869
688.569943,1302.362347,-2368.659014,9918.759623
688.570258,612.876398,-1628.453072,9548.656652
688.570574,-383.047749,-1036.288319,9918.759623
688.570890,-689.485948,-1554.432478,10066.800811
688.571206,-766.095498,-2368.659014,10214.842000
688.571521,-766.095498,-2886.803174,10214.842000
688.571837,-689.485948,-3256.906145,9992.780217
688.572153,-995.924147,-3256.906145,10214.842000
688.572469,-536.266849,-2960.823768,9992.780217
688.572784,0.000000,-2368.659014,9622.677246
688.573100,76.609550,-1036.288319,8882.471304
688.573416,153.219100,-296.082377,8068.244768
688.573732,306.438199,-370.102971,7698.141797
688.574048,1302.362347,-1776.494261,8364.327145
688.574363,1685.410096,-1776.494261,8364.327145
688.574679,1072.533697,-1924.535449,8290.306550
688.574995,842.705048,-2146.597232,8808.450710
688.575311,612.876398,-1924.535449,9548.656652
688.575626,153.219100,-1850.514855,9252.574275
688.575942,-612.876398,-444.123565,9252.574275
688.576258,-1302.362347,-592.164754,9548.656652
688.576574,-1149.143247,-1184.329507,9770.718434
688.576890,-766.095498,-1998.556043,9548.656652
688.577205,-919.314598,-1850.514855,9622.677246
688.577521,-842.705048,-1850.514855,9770.718434
688.577837,-842.705048,-1480.411884,9770.718434
688.578153,0.000000,-1184.329507,9696.697840
688.578468,153.219100,518.144159,9252.574275
688.578784,229.828649,1776.494261,8068.244768
688.579100,842.705048,1702.473667,8364.327145
688.579416,1915.238745,1258.350101,8216.285956
688.579732,2374.896044,814.226536,8142.265362
688.580047,2068.457845,1554.432478,7994.224174
688.580363,2068.457845,1702.473667,8142.265362
688.580679,1608.800546,296.082377,9400.615463
688.580995,1225.752797,592.164754,10214.842000
688.581310,229.828649,1554.432478,9770.718434
688.581626,-612.876398,1924.535449,10140.821405
688.581942,-995.924147,1480.411884,10584.944971
688.582258,-229.828649,-0.000000,10732.986159
688.582573,76.609550,296.082377,10584.944971
688.582889,-383.047749,740.205942,10658.965565
688.583205,-689.485948,518.144159,10955.047942
688.583521,153.219100,1184.329507,10955.047942
688.583837,919.314598,1998.556043,10066.800811
688.584152,383.047749,3478.967927,9474.636058
688.584468,612.876398,3849.070898,9104.533087
688.584784,1762.019645,2590.720797,9104.533087
688.585100,2374.896044,1924.535449,9178.553681
688.585415,2298.286494,1998.556043,9030.512492
688.585731,2145.067394,1850.514855,9030.512492
688.586047,1915.238745,1184.329507,9918.759623
688.586363,1838.629195,444.123565,10658.965565
688.586679,1608.800546,1184.329507,10436.903782
688.586994,229.828649,2664.741391,10140.821405
688.587310,-383.047749,1924.535449,10140.821405
688.587626,-153.219100,592.164754,10288.862594
688.587942,0.000000,-444.123565,10881.027347
688.588257,-766.095498,-444.123565,10732.986159
688.588573,-1302.362347,-814.226536,11325.150913
688.588889,-306.438199,-888.247130,11029.068536
688.589205,-306.438199,-370.102971,10362.883188
688.589520,-229.828649,1406.391290,9474.636058
688.589836,-153.219100,1850.514855,9252.574275
688.590152,995.924147,1924.535449,8660.409521
688.590468,1608.800546,1184.329507,8290.306550
688.590784,1991.848295,814.226536,8068.244768
688.591099,1685.410096,518.144159,8216.285956
688.591415,1838.629195,-444.123565,8734.430116
688.591731,1991.848295,-1184.329507,9474.636058
688.592047,1378.971896,-962.267725,9474.636058
688.592362,229.828649,-370.102971,9622.677246
688.592678,-383.047749,-74.020594,9918.759623
688.592994,-459.657299,-592.164754,9400.615463
688.593310,-153.219100,-2294.638420,9918.759623
688.593626,-612.876398,-2072.576638,10214.842000
688.593941,-536.266849,-1924.535449,9844.739029
688.594257,-153.219100,-2072.576638,9474.636058
688.594573,76.609550,-2072.576638,9474.636058
688.594889,-229.828649,-1258.350101,8956.491898
688.595204,383.047749,-296.082377,8438.347739
688.595520,919.314598,-222.061783,7846.182985
688.595836,1378.971896,-1110.308913,7846.182985
688.596152,1838.629195,-1332.370696,7772.162391
688.596467,1455.581446,-1776.494261,7772.162391
688.596783,1608.800546,-2220.617826,8512.368333
688.597099,1608.800546,-2516.700203,9104.533087
688.597415,919.314598,-2072.576638,8956.491898
688.597731,306.438199,-1702.473667,9326.594869
688.598046,-536.266849,-888.247130,9252.574275
688.598362,-383.047749,-1924.535449,9252.574275
688.598678,-612.876398,-2590.720797,9622.677246
688.598994,-689.485948,-2738.761985,10214.842000
688.599309,-1378.971896,-2812.782580,9622.677246
688.599625,-689.485948,-2590.720797,9844.739029
688.599941,-383.047749,-2368.659014,9918.759623
688.600257,-229.828649,-888.247130,9400.615463
688.600573,0.000000,888.247130,8512.368333
688.600888,1072.533697,1110.308913,7994.224174
688.601204,1225.752797,666.185348,8290.306550
688.601520,1608.800546,222.061783,8290.306550
688.601836,1608.800546,-0.000000,8364.327145
688.602151,1378.971896,-814.226536,9030.512492
688.602467,995.924147,-1554.432478,9918.759623
688.602783,612.876398,-1110.308913,10584.944971
688.603099,0.000000,-0.000000,10362.883188
688.603414,-536.266849,666.185348,10214.842000
688.603730,-689.485948,296.082377,10214.842000
688.604046,-383.047749,-148.041188,10288.862594
688.604362,-306.438199,-814.226536,10510.924376
688.604678,-459.657299,-962.267725,10362.883188
688.604993,-536.266849,-1406.391290,10732.986159
688.605309,-383.047749,-1110.308913,10881.027347
688.605625,-229.828649,-296.082377,10066.800811
688.605941,0.000000,1110.308913,9326.594869
688.606256,536.266849,1406.391290,8808.450710
688.606572,1455.581446,962.267725,8660.409521
688.606888,1915.238745,-0.000000,8586.388927
688.607204,2068.457845,-0.000000,8438.347739
688.607520,1608.800546,-74.020594,9178.553681
688.607835,1532.190996,-666.185348,9696.697840
688.608151,1532.190996,-666.185348,9844.739029
688.608467,766.095498,444.123565,9992.780217
688.608783,-306.438199,814.226536,10140.821405
688.609098,-383.047749,74.020594,10436.903782
688.609414,-229.828649,-740.205942,9770.718434
688.609730,-383.047749,-740.205942,10362.883188
688.610046,-612.876398,-814.226536,10362.883188
688.610361,-612.876398,-666.185348,10288.862594
688.610677,-536.266849,-444.123565,10362.883188
688.610993,306.438199,518.144159,9844.739029
688.611309,0.000000,1702.473667,9104.533087
688.611625,153.219100,2516.700203,8734.430116
688.611940,1225.752797,2442.679609,8364.327145
688.612256,1991.848295,1850.514855,7772.162391
688.612572,2221.676944,1998.556043,7994.224174
688.612888,1991.848295,1406.391290,8290.306550
688.613203,1991.848295,592.164754,9400.615463
688.613519,1532.190996,148.041188,9474.636058
688.613835,766.095498,740.205942,9548.656652
688.614151,229.828649,1702.473667,9474.636058
688.614467,76.609550,1480.411884,9696.697840
688.614782,229.828649,814.226536,10140.821405
688.615098,76.609550,-0.000000,9770.718434
688.615414,-689.485948,-222.061783,9622.677246
688.615730,-536.266849,-148.041188,9696.697840
688.616045,-459.657299,-814.226536,10214.842000
688.616361,-153.219100,-592.164754,10066.800811
688.616677,0.000000,370.102971,9474.636058
688.616993,76.609550,1628.453072,8734.430116
688.617308,995.924147,1332.370696,8438.347739
688.617624,1838.629195,444.123565,8364.327145
688.617940,1991.848295,296.082377,8216.285956
688.618256,2145.067394,-0.000000,8142.265362
688.618572,1838.629195,-518.144159,8882.471304
688.618887,1762.019645,-814.226536,9770.718434
688.619203,1149.143247,-370.102971,9400.615463
688.619519,459.657299,-0.000000,9252.574275
688.619835,0.000000,-0.000000,9770.718434
688.620150,0.000000,-1110.308913,10362.883188
688.620466,76.609550,-1998.556043,10362.883188
688.620782,-383.047749,-1554.432478,10658.965565
688.621098,-383.047749,-1628.453072,10140.821405
688.621414,-766.095498,-2220.617826,10584.944971
688.621729,-229.828649,-1850.514855,10881.027347
688.622045,-383.047749,-444.123565,9992.780217
688.622361,0.000000,740.205942,8882.471304
688.622677,306.438199,518.144159,8882.471304
688.622992,1378.971896,-444.123565,8956.491898
688.623308,2221.676944,-888.247130,8142.265362
688.623624,1685.410096,-518.144159,8068.244768
688.623940,1455.581446,-1110.308913,9178.553681
688.624255,1302.362347,-1702.473667,9918.759623
688.624571,1072.533697,-1628.453072,9696.697840
688.624887,306.438199,-888.247130,9400.615463
688.625203,-383.047749,-148.041188,10140.821405
688.625519,-766.095498,-1110.308913,9844.739029
688.625834,-306.438199,-1702.473667,9992.780217
688.626150,-689.485948,-2294.638420,10140.821405
688.626466,-1072.533697,-1924.535449,10510.924376
688.626782,-1072.533697,-2368.659014,10362.883188
688.627097,-1149.143247,-2368.659014,10214.842000
688.627413,-842.705048,-1332.370696,9992.780217
688.627729,-536.266849,148.041188,9252.574275
688.628045,153.219100,-0.000000,8290.306550
688.628361,842.705048,-74.020594,8142.265362
688.628676,1608.800546,-222.061783,8142.265362
688.628992,1378.971896,-296.082377,7698.141797
688.629308,1149.143247,-814.226536,8586.388927
688.629624,1455.581446,-2072.576638,9400.615463
688.629939,1149.143247,-1628.453072,9474.636058
688.630255,306.438199,-444.123565,9252.574275
688.630571,-306.438199,-74.020594,9400.615463
688.630887,0.000000,-592.164754,9474.636058
688.631202,153.219100,-1036.288319,9770.718434
688.631518,0.000000,-1406.391290,9474.636058
688.631834,-612.876398,-1628.453072,9696.697840
688.632150,-689.485948,-1924.535449,9992.780217
688.632466,-383.047749,-1850.514855,10214.842000
688.632781,0.000000,-962.267725,9696.697840
688.633097,-459.657299,814.226536,8660.409521
688.633413,153.219100,1480.411884,8216.285956
688.633728,1072.533697,1110.308913,8068.244768
688.634044,1455.581446,444.123565,8142.265362
688.634360,1991.848295,370.102971,8068.244768
688.634676,1685.410096,-0.000000,8586.388927
688.634991,1608.800546,-296.082377,8956.491898
688.635307,1685.410096,-74.020594,9474.636058
688.635623,1378.971896,814.226536,9474.636058
688.635939,383.047749,1776.494261,9400.615463
688.636254,76.609550,1332.370696,9474.636058
688.636570,153.219100,814.226536,9548.656652
688.636886,229.828649,148.041188,9918.759623
688.637202,-689.485948,-222.061783,10214.842000
688.637517,-383.047749,-74.020594,10732.986159
688.637833,0.000000,-0.000000,10955.047942
688.638149,0.000000,518.144159,10362.883188
688.638464,0.000000,2368.659014,9474.636058
688.638780,383.047749,2812.782580,9252.574275
688.639096,1072.533697,2590.720797,9030.512492
688.639412,1838.629195,2220.617826,8882.471304
688.639727,2145.067394,1924.535449,8660.409521
688.640043,1762.019645,1702.473667,9030.512492
688.640359,2451.505594,962.267725,9548.656652
688.640675,2068.457845,814.226536,10066.800811
688.640990,1455.581446,1332.370696,10214.842000
688.641306,766.095498,2368.659014,9992.780217
688.641622,76.609550,2368.659014,10140.821405
688.641937,-153.219100,1258.350101,9992.780217
688.642253,306.438199,518.144159,10436.903782
688.642569,0.000000,592.164754,10807.006753
688.642885,-459.657299,-222.061783,11029.068536
688.643200,-306.438199,-592.164754,11029.068536
688.643516,0.000000,-296.082377,10955.047942
688.643832,-383.047749,962.267725,9622.677246
688.644148,-612.876398,1776.494261,9548.656652
688.644463,459.657299,1850.514855,9400.615463
688.644779,1225.752797,962.267725,8808.450710
688.645095,1991.848295,370.102971,9178.553681
688.645411,1225.752797,370.102971,8438.347739
688.645726,1072.533697,-518.144159,9252.574275
688.646042,1608.800546,-1036.288319,9918.759623
688.646358,1455.581446,-518.144159,9622.677246
688.646673,766.095498,296.082377,9474.636058
688.646989,-383.047749,74.020594,9622.677246
688.647305,-153.219100,-962.267725,9770.718434
688.647621,-153.219100,-2146.597232,10140.821405
688.647936,-536.266849,-1998.556043,9696.697840
688.648252,-842.705048,-2220.617826,9844.739029
688.648568,-612.876398,-2516.700203,9992.780217
688.648884,-612.876398,-2368.659014,9622.677246
688.649199,-383.047749,-1184.329507,9622.677246
688.649515,-919.314598,-0.000000,8808.450710
688.649831,612.876398,-296.082377,8142.265362
688.650147,612.876398,-1184.329507,8142.265362
688.650462,1225.752797,-1184.329507,7698.141797
688.650778,1378.971896,-1480.411884,7624.121203
688.651094,1225.752797,-1924.535449,8734.430116
688.651409,1225.752797,-2220.617826,9178.553681
688.651725,1149.143247,-2072.576638,9178.553681
688.652041,459.657299,-370.102971,9030.512492
688.652357,153.219100,-296.082377,8882.471304
688.652672,383.047749,-1036.288319,9030.512492
688.652988,383.047749,-1776.494261,9252.574275
688.653304,-229.828649,-2738.761985,9474.636058
688.653620,-306.438199,-2368.659014,9992.780217
688.653935,-689.485948,-2368.659014,9992.780217
688.654251,-76.609550,-2442.679609,10066.800811
688.654567,-153.219100,-1184.329507,9622.677246
688.654882,-459.657299,148.041188,9104.533087
688.655198,0.000000,444.123565,8882.471304
688.655514,1225.752797,-74.020594,8734.430116
688.655830,1762.019645,-962.267725,8586.388927
688.656145,1608.800546,-370.102971,8216.285956
688.656461,1455.581446,-666.185348,8512.368333
688.656777,1532.190996,-1110.308913,8956.491898
688.657093,1991.848295,-1776.494261,9992.780217
688.657408,766.095498,-296.082377,9622.677246
688.657724,-153.219100,666.185348,9696.697840
688.658040,-153.219100,-444.123565,9844.739029
688.658356,229.828649,-444.123565,10362.883188
688.658671,229.828649,-1036.288319,9548.656652
688.658987,0.000000,-1110.308913,9844.739029
688.659303,0.000000,-888.247130,10362.883188
688.659618,-689.485948,-1480.411884,10658.965565
688.659934,0.000000,-592.164754,10288.862594
688.660250,-229.828649,370.102971,9326.594869
688.660566,-383.047749,1258.350101,9548.656652
688.660881,229.828649,666.185348,9622.677246
688.661197,995.924147,-0.000000,9252.574275
688.661513,1532.190996,592.164754,8808.450710
688.661829,842.705048,444.123565,9104.533087
688.662144,1608.800546,-0.000000,9104.533087
688.662460,1225.752797,-296.082377,10140.821405
688.662776,995.924147,-0.000000,9770.718434
688.663092,76.609550,1184.329507,10214.842000
688.663407,0.000000,962.267725,9992.780217
688.663723,0.000000,-0.000000,9696.697840
688.664039,153.219100,-148.041188,10066.800811
688.664354,0.000000,-148.041188,10510.924376
688.664670,0.000000,-0.000000,10362.883188
688.664986,-612.876398,-222.061783,10732.986159
688.665302,459.657299,518.144159,9918.759623
688.665617,153.219100,1776.494261,9326.594869
688.665933,0.000000,2368.659014,9326.594869
688.666249,689.485948,1924.535449,9104.533087
688.666565,1302.362347,1258.350101,9178.553681
688.666880,1915.238745,1332.370696,8586.388927
688.667196,1762.019645,1776.494261,8512.368333
688.667512,1608.800546,1110.308913,8956.491898
688.667827,1838.629195,888.247130,9474.636058
688.668143,1378.971896,1406.391290,9548.656652
688.668459,766.095498,2220.617826,9400.615463
688.668775,689.485948,1924.535449,9400.615463
688.669090,0.000000,740.205942,9770.718434
688.669406,612.876398,-74.020594,9770.718434
688.669722,229.828649,-74.020594,9696.697840
688.670038,-383.047749,222.061783,10066.800811
688.670353,-153.219100,-296.082377,9844.739029
688.670669,0.000000,-370.102971,10066.800811
688.670985,-383.047749,1110.308913,9992.780217
688.671301,-536.266849,1628.453072,8956.491898
688.671616,0.000000,1184.329507,9326.594869
688.671932,689.485948,296.082377,8660.409521
688.672248,1455.581446,-444.123565,8586.388927
688.672563,1378.971896,-222.061783,8512.368333
688.672879,1225.752797,-444.123565,9400.615463
688.673195,1149.143247,-1110.308913,9844.739029
688.673511,1072.533697,-962.267725,9844.739029
688.673826,383.047749,-0.000000,9474.636058
688.674142,-229.828649,444.123565,9622.677246
688.674458,-153.219100,-222.061783,9622.677246
688.674774,536.266849,-1258.350101,9548.656652
688.675089,153.219100,-1480.411884,9622.677246
688.675405,-459.657299,-2368.659014,9474.636058
688.675721,-459.657299,-2368.659014,10362.883188
688.676037,76.609550,-2590.720797,10732.986159
688.676352,-153.219100,-1702.473667,9992.780217
688.676668,-536.266849,-222.061783,9104.533087
688.676984,-306.438199,-222.061783,9178.553681
688.677299,689.485948,-444.123565,9104.533087
688.677615,1302.362347,-962.267725,8512.368333
688.677931,995.924147,-1480.411884,8216.285956
688.678247,919.314598,-2072.576638,9104.533087
688.678562,995.924147,-2516.700203,9844.739029
688.678878,1149.143247,-2516.700203,9770.718434
688.679194,459.657299,-1036.288319,9622.677246
688.679510,0.000000,-148.041188,9548.656652
688.679825,383.047749,-888.247130,9844.739029
688.680141,459.657299,-1702.473667,9178.553681
688.680457,153.219100,-1924.535449,9548.656652
688.680772,76.609550,-1850.514855,9696.697840
688.681088,229.828649,-1998.556043,9548.656652
688.681404,383.047749,-1998.556043,9696.697840
688.681720,612.876398,-888.247130,9474.636058
688.682035,0.000000,148.041188,8734.430116
688.682351,153.219100,518.144159,8882.471304
688.682667,536.266849,-222.061783,8734.430116
688.682983,612.876398,-1184.329507,8734.430116
688.683298,1072.533697,-814.226536,8956.491898
688.683614,919.314598,-666.185348,8882.471304
688.683930,995.924147,-962.267725,9252.574275
688.684246,842.705048,-962.267725,9844.739029
688.684561,612.876398,-296.082377,9326.594869
688.684877,-459.657299,-74.020594,9326.594869
688.685193,-76.609550,-0.000000,9400.615463
688.685508,0.000000,-888.247130,9474.636058
688.685824,0.000000,-1406.391290,9844.739029
688.686140,-306.438199,-1480.411884,9992.780217
688.686456,-459.657299,-1258.350101,9548.656652
688.686771,-383.047749,-1184.329507,9622.677246
688.687087,-459.657299,-518.144159,9770.718434
688.687403,-612.876398,740.205942,9326.594869
688.687719,-229.828649,2072.576638,9252.574275
688.688034,689.485948,814.226536,8512.368333
688.688350,689.485948,-0.000000,8068.244768
688.688666,1149.143247,-0.000000,8734.430116
688.688982,612.876398,-0.000000,8808.450710
688.689297,995.924147,-0.000000,9252.574275
688.689613,919.314598,-370.102971,9548.656652
688.689929,76.609550,222.061783,9622.677246
688.690244,-383.047749,1110.308913,9548.656652
688.690560,-383.047749,962.267725,9844.739029
688.690876,0.000000,296.082377,10214.842000
688.691192,536.266849,148.041188,9844.739029
688.691507,612.876398,518.144159,9548.656652
688.691823,153.219100,962.267725,9770.718434
688.692139,459.657299,444.123565,10288.862594
688.692455,1302.362347,1110.308913,9992.780217
688.692770,766.095498,2368.659014,9178.553681
688.693086,689.485948,3627.009116,9104.533087
688.693402,1225.752797,2960.823768,8586.388927
688.693717,2451.505594,2294.638420,8660.409521
688.694033,2068.457845,1850.514855,8734.430116
688.694349,1685.410096,1998.556043,9178.553681
688.694665,1455.581446,1554.432478,9474.636058
688.694980,1532.190996,1110.308913,10140.821405
688.695296,1378.971896,1184.329507,10807.006753
688.695612,689.485948,2220.617826,10140.821405
688.695928,0.000000,2368.659014,9918.759623
688.696243,76.609550,1258.350101,10510.924376
688.696559,153.219100,592.164754,10066.800811
688.696875,383.047749,518.144159,10584.944971
688.697191,-306.438199,666.185348,9992.780217
688.697506,0.000000,370.102971,10436.903782
688.697822,459.657299,518.144159,10288.862594
688.698138,229.828649,1258.350101,9622.677246
688.698453,306.438199,1480.411884,9178.553681
688.698769,612.876398,962.267725,9770.718434
688.699085,1225.752797,148.041188,9400.615463
688.699401,1608.800546,-0.000000,8956.491898
688.699716,1302.362347,-74.020594,8808.450710
688.700032,1302.362347,-814.226536,9326.594869
688.700348,995.924147,-1110.308913,10140.821405
688.700664,766.095498,-814.226536,9918.759623
688.700979,0.000000,-444.123565,9918.759623
688.701295,-919.314598,-222.061783,9918.759623
688.701611,-1072.533697,-1628.453072,10066.800811
688.701927,-229.828649,-2368.659014,10288.862594
688.702242,76.609550,-2738.761985,10140.821405
688.702558,-536.266849,-2220.617826,9696.697840
688.702874,-306.438199,-2220.617826,9696.697840
688.703189,153.219100,-2590.720797,9548.656652
688.703505,459.657299,-1480.411884,9400.615463
688.703821,459.657299,-592.164754,8438.347739
688.704137,306.438199,-0.000000,8438.347739
688.704452,1455.581446,-1036.288319,8142.265362
688.704768,1762.019645,-1702.473667,8438.347739
688.705084,1685.410096,-1628.453072,8216.285956
688.705400,1455.581446,-1998.556043,8364.327145
688.705715,1149.143247,-2294.638420,9104.533087
688.706031,766.095498,-2516.700203,9770.718434
688.706347,0.000000,-1406.391290,9030.512492
688.706662,-612.876398,-962.267725,9326.594869
688.706978,-383.047749,-1184.329507,9474.636058
688.707294,-306.438199,-1998.556043,9474.636058
688.707610,0.000000,-2738.761985,9844.739029
688.707925,-766.095498,-2368.659014,9104.533087
688.708241,0.000000,-2146.597232,9400.615463
688.708557,76.609550,-1998.556043,8882.471304
688.708873,0.000000,-1184.329507,8956.491898
688.709188,-306.438199,370.102971,9030.512492
688.709504,0.000000,296.082377,8216.285956
688.709820,766.095498,-74.020594,8512.368333
688.710136,919.314598,-740.205942,8438.347739
688.710451,1072.533697,-740.205942,8438.347739
688.710767,842.705048,-592.164754,8512.368333
688.711083,689.485948,-666.185348,8882.471304
688.711398,1149.143247,-1036.288319,9548.656652
688.711714,306.438199,-0.000000,9474.636058
688.712030,-383.047749,-0.000000,9622.677246
688.712346,-536.266849,-0.000000,9474.636058
688.712661,-612.876398,-740.205942,9918.759623
688.712977,-612.876398,-1036.288319,9992.780217
688.713293,-689.485948,-1036.288319,9992.780217
688.713609,-689.485948,-1036.288319,9696.697840
688.713924,-459.657299,-1258.350101,10658.965565
688.714240,-153.219100,-814.226536,10510.924376
688.714556,-153.219100,666.185348,9548.656652
688.714872,0.000000,1480.411884,9548.656652
688.715187,459.657299,1406.391290,9622.677246
688.715503,1455.581446,666.185348,9030.512492
688.715819,1838.629195,1036.288319,8734.430116
688.716134,2068.457845,814.226536,8882.471304
688.716450,1685.410096,-0.000000,9548.656652
688.716766,1685.410096,-0.000000,10214.842000
688.717082,1302.362347,518.144159,9992.780217
688.717397,383.047749,1628.453072,10140.821405
688.717713,76.609550,1998.556043,10140.821405
688.718029,612.876398,1036.288319,10140.821405
688.718345,689.485948,592.164754,10288.862594
688.718660,536.266849,-0.000000,10510.924376
688.718976,153.219100,-0.000000,10510.924376
688.719292,459.657299,-0.000000,10658.965565
688.719607,536.266849,-0.000000,10955.047942
688.719923,383.047749,1850.514855,10066.800811
688.720239,383.047749,3182.885551,9696.697840
688.720555,919.314598,2590.720797,9326.594869
688.720870,1685.410096,1554.432478,9326.594869
688.721186,2068.457845,1258.350101,9178.553681
688.721502,2145.067394,1702.473667,8290.306550
688.721818,2145.067394,1258.350101,9178.553681
688.722133,2374.896044,518.144159,9400.615463
688.722449,1991.848295,-0.000000,9548.656652
688.722765,1455.581446,888.247130,9770.718434
688.723081,76.609550,1924.535449,9548.656652
688.723396,0.000000,1184.329507,9696.697840
688.723712,459.657299,-74.020594,10066.800811
688.724028,0.000000,-814.226536,9918.759623
688.724343,-153.219100,-962.267725,9992.780217
688.724659,-383.047749,-1110.308913,10362.883188
688.724975,-383.047749,-1628.453072,10214.842000
688.725291,-383.047749,-296.082377,10066.800811
688.725606,-459.657299,666.185348,9252.574275
688.725922,-459.657299,888.247130,8438.347739
688.726238,306.438199,296.082377,8734.430116
688.726554,689.485948,-740.205942,7920.203579
688.726869,1072.533697,-962.267725,8364.327145
688.727185,612.876398,-1628.453072,8734.430116
688.727501,995.924147,-2368.659014,9178.553681
688.727817,919.314598,-2294.638420,9696.697840
688.728132,229.828649,-1184.329507,9252.574275
688.728448,-306.438199,-296.082377,9030.512492
688.728764,-306.438199,-370.102971,9844.739029
688.729079,0.000000,-1332.370696,9030.512492
688.729395,0.000000,-1776.494261,9400.615463
688.729711,-612.876398,-2368.659014,9252.574275
688.730027,-536.266849,-2664.741391,9696.697840
688.730342,-383.047749,-2886.803174,9696.697840
688.730658,-383.047749,-1776.494261,9696.697840
688.730974,-383.047749,-444.123565,9030.512492
688.731290,-383.047749,-0.000000,8364.327145
688.731605,612.876398,-518.144159,8290.306550
688.731921,1072.533697,-1184.329507,8512.368333
688.732237,1149.143247,-1036.288319,8586.388927
688.732552,766.095498,-1480.411884,8882.471304
688.732868,919.314598,-1924.535449,9696.697840
688.733184,1149.143247,-1998.556043,9844.739029
688.733500,689.485948,-592.164754,9400.615463
688.733815,0.000000,-148.041188,9844.739029
688.734131,0.000000,-666.185348,10140.821405
688.734447,76.609550,-1258.350101,9770.718434
688.734763,766.095498,-1554.432478,9844.739029
688.735078,306.438199,-1554.432478,9696.697840
688.735394,0.000000,-1258.350101,9918.759623
688.735710,306.438199,-1332.370696,10288.862594
688.736026,459.657299,-814.226536,9844.739029
688.736341,536.266849,370.102971,9030.512492
688.736657,0.000000,1332.370696,8438.347739
688.736973,766.095498,740.205942,8512.368333
688.737288,1302.362347,-370.102971,8882.471304
688.737604,1532.190996,-444.123565,8586.388927
688.737920,459.657299,-666.185348,9030.512492
688.738236,766.095498,-1184.329507,10066.800811
688.738551,689.485948,-1702.473667,10140.821405
688.738867,229.828649,-444.123565,10436.903782
688.739183,-459.657299,740.205942,10140.821405
688.739499,-1378.971896,814.226536,9770.718434
688.739814,-766.095498,222.061783,10140.821405
688.740130,0.000000,-444.123565,9992.780217
688.740446,0.000000,-592.164754,9918.759623
688.740761,-383.047749,-592.164754,9696.697840
688.741077,-689.485948,-814.226536,10066.800811
688.741393,76.609550,-0.000000,10436.903782
688.741709,0.000000,888.247130,9252.574275
688.742024,0.000000,2368.659014,8808.450710
688.742340,612.876398,2220.617826,8808.450710
688.742656,1149.143247,1332.370696,8734.430116
688.742972,1838.629195,888.247130,8586.388927
688.743287,1532.190996,1036.288319,8956.491898
688.743603,1608.800546,592.164754,9030.512492
688.743919,1838.629195,-148.041188,9770.718434
688.744235,1685.410096,370.102971,9474.636058
688.744550,612.876398,1406.391290,9474.636058
688.744866,76.609550,1850.514855,9400.615463
688.745182,383.047749,1628.453072,9844.739029
688.745497,919.314598,222.061783,9696.697840
688.745813,842.705048,222.061783,9548.656652
688.746129,536.266849,962.267725,9770.718434
688.746445,306.438199,-0.000000,9770.718434
688.746760,766.095498,-0.000000,9992.780217
688.747076,383.047749,1258.350101,9844.739029
688.747392,0.000000,2146.597232,8734.430116
688.747708,383.047749,2220.617826,9030.512492
688.748023,1149.143247,962.267725,8586.388927
688.748339,1149.143247,888.247130,8882.471304
688.748655,1685.410096,518.144159,9104.533087
688.748970,1072.533697,518.144159,8956.491898
688.749286,1532.190996,-0.000000,9548.656652
688.749602,1455.581446,-0.000000,9622.677246
688.749918,689.485948,1184.329507,9844.739029
688.750233,-229.828649,1554.432478,9844.739029
688.750549,-306.438199,444.123565,9622.677246
688.750865,229.828649,-666.185348,10066.800811
688.751181,0.000000,-962.267725,10288.862594
688.751496,-766.095498,-666.185348,10214.842000
688.751812,-612.876398,-1184.329507,10288.862594
688.752128,-383.047749,-1110.308913,10436.903782
688.752444,-306.438199,296.082377,9696.697840
688.752759,-536.266849,1184.329507,9104.533087
688.753075,-306.438199,962.267725,9326.594869
688.753391,536.266849,148.041188,9104.533087
688.753706,1225.752797,-888.247130,9252.574275
688.754022,1378.971896,-1036.288319,9252.574275
688.754338,1225.752797,-666.185348,9474.636058
688.754654,1072.533697,-1258.350101,9252.574275
688.754969,1225.752797,-1480.411884,9844.739029
688.755285,612.876398,-518.144159,10066.800811
688.755601,153.219100,148.041188,9622.677246
688.755917,306.438199,-0.000000,9326.594869
688.756232,459.657299,-1480.411884,9622.677246
688.756548,153.219100,-2072.576638,9844.739029
688.756864,76.609550,-1998.556043,9844.739029
688.757180,76.609550,-2072.576638,9844.739029
688.757495,306.438199,-2368.659014,10288.862594
688.757811,0.000000,-1776.494261,9770.718434
688.758127,0.000000,-592.164754,9400.615463
688.758442,0.000000,370.102971,8808.450710
688.758758,842.705048,-0.000000,8364.327145
688.759074,1915.238745,-740.205942,8216.285956
688.759390,1838.629195,-1406.391290,8512.368333
688.759705,1608.800546,-1628.453072,8808.450710
688.760021,1455.581446,-2072.576638,9400.615463
688.760337,1225.752797,-1998.556043,9474.636058
688.760653,689.485948,-1480.411884,9696.697840
688.760968,0.000000,-592.164754,9474.636058
688.761284,-306.438199,-444.123565,9548.656652
688.761600,-383.047749,-1110.308913,9548.656652
688.761915,-229.828649,-1998.556043,9696.697840
688.762231,-459.657299,-1702.473667,9770.718434
688.762547,-919.314598,-2072.576638,9770.718434
688.762863,-612.876398,-2220.617826,10066.800811
688.763178,-229.828649,-1628.453072,10214.842000
688.763494,0.000000,-296.082377,9326.594869
688.763810,76.609550,518.144159,8438.347739
688.764126,383.047749,740.205942,8068.244768
688.764441,995.924147,-0.000000,8438.347739
688.764757,1302.362347,-370.102971,8808.450710
688.765073,919.314598,-222.061783,8512.368333
688.765389,689.485948,-518.144159,8956.491898
688.765704,1149.143247,-518.144159,9548.656652
688.766020,612.876398,148.041188,9400.615463
688.766336,0.000000,1036.288319,9400.615463
688.766651,-153.219100,666.185348,9474.636058
688.766967,0.000000,-0.000000,9696.697840
688.767283,-229.828649,-222.061783,9844.739029
688.767599,-229.828649,-592.164754,9770.718434
688.767914,-919.314598,-888.247130,10362.883188
688.768230,-842.705048,-962.267725,10658.965565
688.768546,-536.266849,-518.144159,10807.006753
688.768862,-536.266849,1036.288319,9844.739029
688.769177,-153.219100,2516.700203,8956.491898
688.769493,612.876398,2220.617826,8586.388927
688.769809,1455.581446,1480.411884,8142.265362
688.770124,1838.629195,814.226536,8808.450710
688.770440,1762.019645,740.205942,8586.388927
688.770756,1302.362347,222.061783,9030.512492
688.771072,1455.581446,-222.061783,9992.780217
688.771387,1608.800546,-74.020594,10140.821405
688.771703,536.266849,1480.411884,9844.739029
688.772019,0.000000,1850.514855,9696.697840
688.772335,153.219100,1036.288319,9844.739029
688.772650,612.876398,-222.061783,10140.821405
688.772966,689.485948,-370.102971,10436.903782
688.773282,-229.828649,-592.164754,10288.862594
688.773598,0.000000,-444.123565,10732.986159
688.773913,0.000000,-740.205942,10881.027347
688.774229,0.000000,592.164754,10214.842000
688.774545,0.000000,2072.576638,9474.636058
688.774860,-153.219100,2368.659014,9104.533087
688.775176,1072.533697,1110.308913,9104.533087
688.775492,2145.067394,370.102971,9326.594869
688.775808,2145.067394,666.185348,8512.368333
688.776123,2068.457845,296.082377,8512.368333
688.776439,2374.896044,-0.000000,9844.739029
688.776755,1915.238745,-296.082377,9474.636058
688.777071,995.924147,888.247130,9770.718434
688.777386,76.609550,1406.391290,9696.697840
688.777702,153.219100,370.102971,10288.862594
688.778018,0.000000,-370.102971,10140.821405
688.778333,76.609550,-740.205942,9918.759623
688.778649,0.000000,-814.226536,9622.677246
688.778965,-383.047749,-1258.350101,10214.842000
688.779281,-383.047749,-1480.411884,10362.883188
688.779596,-612.876398,-814.226536,9918.759623
688.779912,-689.485948,666.185348,9326.594869
688.780228,-383.047749,1332.370696,8586.388927
688.780544,229.828649,444.123565,8660.409521
688.780859,1225.752797,-296.082377,8956.491898
688.781175,1455.581446,-296.082377,8660.409521
688.781491,1225.752797,-444.123565,8438.347739
688.781807,1378.971896,-1332.370696,8808.450710
688.782122,1378.971896,-1998.556043,9474.636058
688.782438,536.266849,-1110.308913,9696.697840
688.782754,0.000000,-296.082377,9918.759623
688.783069,0.000000,-370.102971,9918.759623
688.783385,153.219100,-1036.288319,9770.718434
688.783701,766.095498,-1258.350101,9474.636058
688.784017,0.000000,-1480.411884,9178.553681
688.784332,0.000000,-1554.432478,9400.615463
688.784648,306.438199,-1924.535449,9622.677246
688.784964,306.438199,-1480.411884,9474.636058
688.785280,536.266849,-888.247130,8956.491898
688.785595,0.000000,-74.020594,8586.388927
688.785911,842.705048,-0.000000,8438.347739
688.786227,1072.533697,-1184.329507,8660.409521
688.786542,1302.362347,-1406.391290,8512.368333
688.786858,1072.533697,-1406.391290,8586.388927
688.787174,612.876398,-1702.473667,9252.574275
688.787490,1072.533697,-2220.617826,9770.718434
688.787805,459.657299,-1036.288319,9770.718434
688.788121,383.047749,-370.102971,9696.697840
688.788437,-383.047749,-148.041188,9770.718434
688.788753,-306.438199,-444.123565,9844.739029
688.789068,76.609550,-1406.391290,9622.677246
688.789384,76.609550,-1036.288319,9622.677246
688.789700,-76.609550,-814.226536,9474.636058
688.790016,229.828649,-1184.329507,9770.718434
688.790331,459.657299,-814.226536,9696.697840
688.790647,0.000000,370.102971,9696.697840
688.790963,76.609550,1554.432478,8956.491898
688.791278,766.095498,1776.494261,8660.409521
688.791594,766.095498,1110.308913,8734.430116
688.791910,1302.362347,518.144159,8808.450710
688.792226,995.924147,-0.000000,9252.574275
688.792541,383.047749,-814.226536,9992.780217
688.792857,766.095498,-962.267725,10362.883188
688.793173,612.876398,-370.102971,10362.883188
688.793489,0.000000,814.226536,9696.697840
688.793804,-459.657299,1110.308913,10066.800811
688.794120,-306.438199,814.226536,9844.739029
688.794436,0.000000,-0.000000,9770.718434
688.794751,-76.609550,-0.000000,9992.780217
688.795067,-76.609550,-148.041188,9770.718434
688.795383,0.000000,-814.226536,10214.842000
688.795699,153.219100,-740.205942,10140.821405
688.796014,0.000000,148.041188,9844.739029
688.796330,-306.438199,1702.473667,9252.574275
688.796646,229.828649,1776.494261,8882.471304
688.796962,919.314598,1110.308913,8512.368333
688.797277,1685.410096,222.061783,8660.409521
688.797593,1302.362347,222.061783,8216.285956
688.797909,1225.752797,-296.082377,9178.553681
688.798225,1072.533697,-962.267725,10362.883188
688.798540,1378.971896,-1036.288319,10066.800811
688.798856,229.828649,-0.000000,9548.656652
688.799172,0.000000,962.267725,9474.636058
688.799487,0.000000,814.226536,9918.759623
688.799803,229.828649,-0.000000,9992.780217
688.800119,0.000000,-666.185348,9696.697840
688.800435,-153.219100,-518.144159,9918.759623
688.800750,-229.828649,-888.247130,9992.780217
688.801066,383.047749,-592.164754,10214.842000
688.801382,536.266849,370.102971,9548.656652
688.801698,-383.047749,1850.514855,8956.491898
688.802013,459.657299,1998.556043,8512.368333
688.802329,1149.143247,1036.288319,8438.347739
688.802645,1685.410096,370.102971,8734.430116
688.802960,1838.629195,296.082377,8660.409521
688.803276,1608.800546,-148.041188,8660.409521
688.803592,1532.190996,-962.267725,9770.718434
688.803908,1072.533697,-814.226536,9844.739029
688.804223,536.266849,-0.000000,9770.718434
688.804539,0.000000,962.267725,9844.739029
688.804855,-306.438199,370.102971,9696.697840
688.805171,229.828649,-0.000000,9696.697840
688.805486,306.438199,-888.247130,9696.697840
688.805802,0.000000,-888.247130,9770.718434
688.806118,459.657299,-1036.288319,9918.759623
688.806434,-76.609550,-962.267725,10362.883188
688.806749,229.828649,-296.082377,9844.739029
688.807065,229.828649,740.205942,9474.636058
688.807381,612.876398,1850.514855,8586.388927
688.807696,995.924147,1110.308913,8068.244768
688.808012,1149.143247,-296.082377,8660.409521
688.808328,1685.410096,-666.185348,8660.409521
688.808644,1149.143247,-962.267725,8956.491898
688.808959,1302.362347,-1702.473667,9326.594869
688.809275,1685.410096,-1702.473667,10510.924376
688.809591,766.095498,-740.205942,9992.780217
688.809907,0.000000,296.082377,9918.759623
688.810222,-383.047749,148.041188,10362.883188
688.810538,-229.828649,-518.144159,9696.697840
688.810854,153.219100,-1036.288319,9622.677246
688.811170,76.609550,-1480.411884,9696.697840
688.811485,-383.047749,-1924.535449,9918.759623
688.811801,0.000000,-2294.638420,10288.862594
688.812117,153.219100,-1850.514855,10288.862594
688.812432,0.000000,-962.267725,9400.615463
688.812748,0.000000,1332.370696,8512.368333
688.813064,689.485948,962.267725,8290.306550
688.813380,1532.190996,-0.000000,8734.430116
688.813695,1915.238745,-296.082377,8660.409521
688.814011,1225.752797,-370.102971,8660.409521
688.814327,1149.143247,-814.226536,9178.553681
688.814643,842.705048,-1850.514855,9770.718434
688.814958,536.266849,-666.185348,9770.718434
688.815274,-383.047749,666.185348,9326.594869
688.815590,-766.095498,296.082377,10066.800811
688.815905,-842.705048,-148.041188,10214.842000
688.816221,-766.095498,-1184.329507,9696.697840
688.816537,-842.705048,-1258.350101,10066.800811
688.816853,-1225.752797,-1258.350101,10362.883188
688.817168,-383.047749,-1702.473667,10288.862594
688.817484,-306.438199,-962.267725,10140.821405
688.817800,-766.095498,296.082377,9548.656652
688.818116,-229.828649,1554.432478,8734.430116
688.818431,383.047749,1850.514855,8216.285956
688.818747,1072.533697,222.061783,8364.327145
688.819063,1532.190996,-0.000000,8882.471304
688.819379,1455.581446,222.061783,8808.450710
688.819694,1225.752797,-296.082377,8808.450710
688.820010,1302.362347,-666.185348,9696.697840
688.820326,1072.533697,-592.164754,9548.656652
688.820641,76.609550,666.185348,9400.615463
688.820957,-229.828649,666.185348,9474.636058
688.821273,0.000000,-296.082377,10140.821405
688.821589,-306.438199,-1184.329507,10066.800811
688.821904,-153.219100,-1184.329507,9992.780217
688.822220,-612.876398,-1332.370696,9844.739029
688.822536,-766.095498,-1554.432478,10362.883188
688.822852,-153.219100,-1406.391290,10510.924376
688.823167,-153.219100,-0.000000,9918.759623
688.823483,0.000000,1258.350101,9030.512492
688.823799,306.438199,1406.391290,8956.491898
688.824114,1302.362347,1110.308913,8290.306550
688.824430,1991.848295,148.041188,8068.244768
688.824746,2451.505594,-0.000000,7994.224174
688.825062,1838.629195,-370.102971,8882.471304
688.825377,1838.629195,-888.247130,9770.718434
688.825693,1608.800546,-962.267725,9918.759623
688.826009,1302.362347,148.041188,9844.739029
688.826325,153.219100,666.185348,9992.780217
688.826640,0.000000,592.164754,9992.780217
688.826956,459.657299,-444.123565,10140.821405
688.827272,536.266849,-518.144159,10140.821405
688.827588,76.609550,-444.123565,9770.718434
688.827903,0.000000,-518.144159,9696.697840
688.828219,383.047749,-814.226536,10066.800811
688.828535,536.266849,-0.000000,9918.759623
688.828850,306.438199,1628.453072,9030.512492
688.829166,459.657299,1702.473667,8438.347739
688.829482,1149.143247,1480.411884,8808.450710
688.829798,1685.410096,370.102971,9178.553681
688.830113,1685.410096,-0.000000,8586.388927
688.830429,1149.143247,-296.082377,8882.471304
688.830745,1685.410096,-1184.329507,9844.739029
688.831061,1532.190996,-1184.329507,10066.800811
688.831376,919.314598,-0.000000,9918.759623
688.831692,-153.219100,1184.329507,9918.759623
688.832008,-306.438199,518.144159,9992.780217
688.832323,0.000000,-0.000000,9844.739029
688.832639,-229.828649,-370.102971,10066.800811
688.832955,153.219100,-592.164754,9696.697840
688.833271,-689.485948,-666.185348,9696.697840
688.833586,0.000000,-1110.308913,10214.842000
688.833902,306.438199,-814.226536,9770.718434
688.834218,76.609550,296.082377,9474.636058
688.834534,0.000000,1554.432478,8808.450710
688.834849,536.266849,1036.288319,8512.368333
688.835165,1532.190996,-0.000000,8660.409521
688.835481,842.705048,-148.041188,8808.450710
688.835797,459.657299,-296.082377,9030.512492
688.836113,842.705048,-1332.370696,9918.759623
688.836428,459.657299,-1924.535449,9992.780217
688.836744,153.219100,-740.205942,9918.759623
688.837060,-459.657299,-222.061783,9696.697840
688.837376,-536.266849,-148.041188,9992.780217
688.837691,0.000000,-814.226536,9918.759623
688.838007,76.609550,-1332.370696,9844.739029
688.838323,0.000000,-1184.329507,9474.636058
688.838639,-153.219100,-1258.350101,9844.739029
688.838954,459.657299,-1628.453072,9622.677246
688.839270,689.485948,-1184.329507,9696.697840
688.839586,153.219100,148.041188,9104.533087
688.839902,229.828649,1110.308913,8586.388927
688.840218,536.266849,814.226536,8290.306550
688.840533,995.924147,-0.000000,8586.388927
688.840849,1608.800546,-518.144159,8734.430116
688.841165,1072.533697,-1184.329507,8586.388927
688.841481,689.485948,-1628.453072,9326.594869
688.841796,766.095498,-1998.556043,10140.821405
688.842112,536.266849,-1332.370696,10214.842000
688.842428,0.000000,-0.000000,9622.677246
688.842744,-612.876398,370.102971,9770.718434
688.843060,-383.047749,-0.000000,9548.656652
688.843375,0.000000,-888.247130,9474.636058
688.843691,0.000000,-1258.350101,9770.718434
688.844007,0.000000,-1480.411884,9622.677246
688.844323,153.219100,-1406.391290,9770.718434
688.844638,383.047749,-1110.308913,9992.780217
688.844954,229.828649,-0.000000,9178.553681
688.845270,459.657299,1702.473667,8956.491898
688.845586,306.438199,1924.535449,8586.388927
688.845902,1378.971896,740.205942,8512.368333
688.846217,1762.019645,-0.000000,8586.388927
688.846533,1685.410096,-222.061783,8882.471304
688.846849,1302.362347,-888.247130,9474.636058
688.847165,995.924147,-1258.350101,9918.759623
688.847480,995.924147,-888.247130,10288.862594
688.847796,153.219100,592.164754,9548.656652
688.848112,-766.095498,814.226536,10066.800811
688.848428,-842.705048,296.082377,10140.821405
688.848744,-612.876398,-814.226536,10288.862594
688.849059,-153.219100,-1184.329507,10214.842000
688.849375,-842.705048,-1110.308913,9992.780217
688.849691,-612.876398,-1258.350101,10362.883188
688.850007,-229.828649,-1554.432478,9992.780217
688.850322,0.000000,-370.102971,9992.780217
688.850638,76.609550,1110.308913,9178.553681
688.850954,229.828649,2072.576638,8364.327145
688.851270,1225.752797,1110.308913,8216.285956
688.851585,2221.676944,518.144159,8882.471304
688.851901,1991.848295,666.185348,8808.450710
688.852217,1685.410096,-0.000000,7920.203579
688.852533,1378.971896,-296.082377,9104.533087
688.852849,1302.362347,-962.267725,9696.697840
688.853164,612.876398,-0.000000,9770.718434
688.853480,-229.828649,1036.288319,9992.780217
688.853796,-612.876398,296.082377,10214.842000
688.854112,-229.828649,-296.082377,10214.842000
688.854427,-459.657299,-888.247130,9992.780217
688.854743,-459.657299,-592.164754,10288.862594
688.855059,-536.266849,-666.185348,10214.842000
688.855375,-229.828649,-740.205942,9992.780217
688.855691,229.828649,-370.102971,10140.821405
688.856006,536.266849,888.247130,9104.533087
688.856322,842.705048,2072.576638,8808.450710
688.856638,1378.971896,1850.514855,8364.327145
688.856954,2451.505594,814.226536,7994.224174
688.857269,2604.724693,1036.288319,8142.265362
688.857585,2451.505594,666.185348,7772.162391
688.857901,2451.505594,-74.020594,8808.450710
688.858217,2145.067394,-740.205942,9474.636058
688.858533,1072.533697,370.102971,9548.656652
688.858848,306.438199,962.267725,9548.656652
688.859164,-536.266849,814.226536,9992.780217
688.859480,-766.095498,74.020594,10288.862594
688.859796,-306.438199,-666.185348,9696.697840
688.860111,-612.876398,-814.226536,10510.924376
688.860427,-995.924147,-1258.350101,10510.924376
688.860743,-995.924147,-1184.329507,10362.883188
688.861059,-536.266849,-888.247130,10584.944971
688.861375,-459.657299,444.123565,9992.780217
688.861690,0.000000,1924.535449,9030.512492
688.862006,689.485948,1628.453072,8586.388927
688.862322,1762.019645,592.164754,8734.430116
688.862638,2068.457845,666.185348,8512.368333
688.862953,1991.848295,296.082377,8216.285956
688.863269,2145.067394,-296.082377,8882.471304
688.863585,1838.629195,-1110.308913,9548.656652
688.863901,919.314598,-1332.370696,9992.780217
688.864216,689.485948,296.082377,9696.697840
688.864532,-306.438199,370.102971,10066.800811
688.864848,-383.047749,-296.082377,10362.883188
688.865164,-229.828649,-1332.370696,9844.739029
688.865480,-383.047749,-1776.494261,10362.883188
688.865795,-689.485948,-1924.535449,10214.842000
688.866111,-842.705048,-1924.535449,10288.862594
688.866427,-153.219100,-1998.556043,10362.883188
688.866743,76.609550,-1036.288319,9696.697840
688.867058,-229.828649,888.247130,8882.471304
688.867374,76.609550,592.164754,8216.285956
688.867690,1225.752797,-74.020594,8882.471304
688.868006,1915.238745,-1110.308913,8882.471304
688.868322,1302.362347,-518.144159,8290.306550
688.868637,1225.752797,-962.267725,8882.471304
688.868953,1532.190996,-1554.432478,9474.636058
688.869269,1455.581446,-962.267725,9474.636058
688.869585,306.438199,-370.102971,9252.574275
688.869900,-306.438199,518.144159,9770.718434
688.870216,-689.485948,-0.000000,9770.718434
688.870532,-459.657299,-740.205942,9770.718434
688.870848,-536.266849,-1480.411884,10140.821405
688.871164,-842.705048,-1998.556043,9992.780217
688.871479,-689.485948,-1850.514855,9770.718434
688.871795,-536.266849,-1628.453072,10584.944971
688.872111,-689.485948,-740.205942,9770.718434
688.872427,-383.047749,814.226536,9474.636058
688.872742,0.000000,1406.391290,8882.471304
688.873058,536.266849,666.185348,8660.409521
688.873374,1762.019645,-74.020594,8438.347739
688.873690,1532.190996,-370.102971,8068.244768
688.874005,1072.533697,-296.082377,8808.450710
688.874321,919.314598,-1036.288319,9252.574275
688.874637,919.314598,-888.247130,9844.739029
688.874953,536.266849,-0.000000,9548.656652
688.875269,-383.047749,148.041188,9474.636058
688.875584,-536.266849,-74.020594,9696.697840
688.875900,-306.438199,-1110.308913,10066.800811
688.876216,0.000000,-1702.473667,9844.739029
688.876532,-229.828649,-1480.411884,9696.697840
688.876847,-919.314598,-1332.370696,10066.800811
688.877163,-536.266849,-1406.391290,10288.862594
688.877479,-153.219100,-740.205942,9622.677246
688.877795,-383.047749,814.226536,8808.450710
688.878111,0.000000,1480.411884,8956.491898
688.878426,766.095498,740.205942,8586.388927
688.878742,1378.971896,-0.000000,8586.388927
688.879058,1685.410096,-296.082377,8438.347739
688.879374,1225.752797,-74.020594,8956.491898
688.879689,1378.971896,-296.082377,9474.636058
688.880005,1455.581446,-0.000000,9696.697840
688.880321,1072.533697,370.102971,9696.697840
688.880637,383.047749,1332.370696,9992.780217
688.880953,229.828649,740.205942,9770.718434
688.881268,0.000000,-222.061783,10140.821405
688.881584,76.609550,-962.267725,10436.903782
688.881900,-153.219100,-814.226536,10140.821405
688.882216,-153.219100,-296.082377,10066.800811
688.882531,153.219100,-148.041188,10140.821405
688.882847,229.828649,666.185348,10214.842000
688.883163,536.266849,1702.473667,9104.533087
688.883479,383.047749,1924.535449,8808.450710
688.883795,842.705048,1406.391290,9326.594869
688.884110,2145.067394,740.205942,8660.409521
688.884426,2451.505594,444.123565,8808.450710
688.884742,2145.067394,518.144159,8956.491898
688.885058,2451.505594,-0.000000,9252.574275
688.885373,2221.676944,-0.000000,9696.697840
688.885689,1532.190996,666.185348,9548.656652
688.886005,536.266849,1258.350101,9770.718434
688.886321,76.609550,1258.350101,9918.759623
688.886636,306.438199,222.061783,9992.780217
688.886952,153.219100,-666.185348,9992.780217
