#time,accel_x,accel_y,accel_z
1091.899174,536.266849,-296.082377,9474.636058
1091.899490,306.438199,-222.061783,9326.594869
1091.899806,536.266849,-148.041188,9548.656652
1091.900121,459.657299,-148.041188,9474.636058
1091.900437,766.095498,-222.061783,9252.574275
1091.900753,229.828649,-222.061783,9474.636058
1091.901069,536.266849,-0.000000,9622.677246
1091.901385,306.438199,-296.082377,9326.594869
1091.901701,536.266849,-296.082377,9474.636058
1091.902016,766.095498,-148.041188,9696.697840
1091.902332,383.047749,-222.061783,9770.718434
1091.902648,689.485948,-0.000000,9474.636058
1091.902964,459.657299,-0.000000,9474.636058
1091.903280,612.876398,-222.061783,9474.636058
1091.903595,153.219100,-148.041188,9252.574275
1091.903911,459.657299,-148.041188,9474.636058
1091.904227,383.047749,-0.000000,9548.656652
1091.904543,536.266849,-74.020594,9548.656652
1091.904859,919.314598,-0.000000,9548.656652
1091.905175,229.828649,-0.000000,9548.656652
1091.905490,383.047749,296.082377,9178.553681
1091.905806,536.266849,370.102971,9474.636058
1091.906122,459.657299,444.123565,9474.636058
1091.906438,459.657299,444.123565,9104.533087
1091.906754,612.876398,444.123565,9252.574275
1091.907070,383.047749,-0.000000,9104.533087
1091.907385,612.876398,-148.041188,9474.636058
1091.907701,612.876398,-0.000000,9474.636058
1091.908017,842.705048,370.102971,9400.615463
1091.908333,459.657299,666.185348,9178.553681
1091.908649,459.657299,518.144159,9474.636058
1091.908964,306.438199,666.185348,9474.636058
1091.909280,383.047749,888.247130,9326.594869
1091.909596,229.828649,962.267725,9400.615463
1091.909912,229.828649,296.082377,9178.553681
1091.910228,383.047749,592.164754,9400.615463
1091.910544,0.000000,814.226536,9178.553681
1091.910859,0.000000,814.226536,9178.553681
1091.911175,-459.657299,814.226536,9326.594869
1091.911491,-306.438199,666.185348,9326.594869
1091.911807,0.000000,1184.329507,9474.636058
1091.912123,-766.095498,1110.308913,9252.574275
1091.912438,-842.705048,1406.391290,9326.594869
1091.912754,-1072.533697,1480.411884,9178.553681
1091.913070,-1302.362347,1406.391290,9178.553681
1091.913386,-1455.581446,1406.391290,9474.636058
1091.913702,-1608.800546,1406.391290,9622.677246
1091.914018,-1838.629195,1554.432478,10066.800811
1091.914333,-1915.238745,1258.350101,9696.697840
1091.914649,-1762.019645,1406.391290,10066.800811
1091.914965,-2145.067394,1406.391290,9844.739029
1091.915281,-2068.457845,1554.432478,9696.697840
1091.915597,-1915.238745,1850.514855,9474.636058
1091.915913,-1915.238745,1850.514855,9474.636058
1091.916228,-1915.238745,1850.514855,9178.553681
1091.916544,-1302.362347,1850.514855,9474.636058
1091.916860,-1532.190996,1850.514855,9326.594869
1091.917176,-1378.971896,1702.473667,9548.656652
1091.917492,-1225.752797,1628.453072,9548.656652
1091.917807,-919.314598,2294.638420,9844.739029
1091.918123,-1149.143247,2072.576638,9622.677246
1091.918439,-995.924147,2072.576638,9474.636058
1091.918755,-1225.752797,2146.597232,9326.594869
1091.919071,-919.314598,2442.679609,9326.594869
1091.919387,-1149.143247,2368.659014,9474.636058
1091.919702,-1378.971896,2368.659014,9104.533087
1091.920018,-1608.800546,2072.576638,9474.636058
1091.920334,-1915.238745,1554.432478,9400.615463
1091.920650,-2374.896044,1406.391290,9770.718434
1091.920966,-2068.457845,740.205942,9548.656652
1091.921282,-1915.238745,1110.308913,9696.697840
1091.921597,-2145.067394,1258.350101,9770.718434
1091.921913,-2221.676944,1184.329507,9918.759623
1091.922229,-1608.800546,1184.329507,9548.656652
1091.922545,-1991.848295,1332.370696,9918.759623
1091.922861,-1915.238745,1480.411884,9770.718434
1091.923176,-1915.238745,1480.411884,9548.656652
1091.923492,-1762.019645,1480.411884,9474.636058
1091.923808,-1685.410096,1628.453072,9252.574275
1091.924124,-1991.848295,1776.494261,9400.615463
1091.924440,-1991.848295,1850.514855,9104.533087
1091.924756,-1915.238745,2368.659014,9030.512492
1091.925071,-2145.067394,2294.638420,8956.491898
1091.925387,-1838.629195,1850.514855,9030.512492
1091.925703,-2528.115143,1702.473667,9400.615463
1091.926019,-2834.553343,1258.350101,9474.636058
1091.926335,-2757.943793,888.247130,9844.739029
1091.926650,-2604.724693,370.102971,9992.780217
1091.926966,-2068.457845,148.041188,10362.883188
1091.927282,-2298.286494,-0.000000,10140.821405
1091.927598,-1838.629195,296.082377,10288.862594
1091.927914,-1302.362347,814.226536,9844.739029
1091.928230,-766.095498,1702.473667,9178.553681
1091.928545,0.000000,2146.597232,8882.471304
1091.928861,229.828649,2886.803174,8364.327145
1091.929177,306.438199,3256.906145,8068.244768
1091.929493,383.047749,3182.885551,7994.224174
1091.929809,0.000000,3256.906145,7846.182985
1091.930125,-306.438199,2812.782580,8364.327145
1091.930440,-1302.362347,2590.720797,8216.285956
1091.930756,-1838.629195,2294.638420,8808.450710
1091.931072,-2604.724693,1554.432478,9696.697840
1091.931388,-3294.210641,1406.391290,10066.800811
1091.931704,-3983.696590,888.247130,10362.883188
1091.932019,-4060.306139,518.144159,10881.027347
1091.932335,-3907.087040,370.102971,11103.089130
1091.932651,-3524.039291,222.061783,11177.109724
1091.932967,-2681.334243,222.061783,10955.047942
1091.933283,-1838.629195,1036.288319,10658.965565
1091.933599,-229.828649,962.267725,9474.636058
1091.933914,383.047749,2294.638420,8734.430116
1091.934230,689.485948,2590.720797,8068.244768
1091.934546,1455.581446,3552.988522,7920.203579
1091.934862,1225.752797,4441.235652,7698.141797
1091.935178,995.924147,4663.297435,7254.018232
1091.935494,153.219100,4885.359217,7550.100608
1091.935809,-612.876398,4071.132681,7476.080014
1091.936125,-1762.019645,3404.947333,8512.368333
1091.936441,-2911.162892,2516.700203,9770.718434
1091.936757,-4136.915689,518.144159,10881.027347
1091.937073,-4903.011187,-0.000000,11769.274478
1091.937388,-5745.716235,-1406.391290,12435.459826
1091.937704,-5209.449386,-2072.576638,12805.562797
1091.938020,-4903.011187,-1702.473667,12731.542202
1091.938336,-3753.867940,-740.205942,12065.356855
1091.938652,-2451.505594,666.185348,10881.027347
1091.938968,-536.266849,1850.514855,9326.594869
1091.939283,612.876398,3775.050304,7698.141797
1091.939599,1532.190996,5107.421000,6513.812290
1091.939915,1838.629195,5995.668130,6217.729913
1091.940231,1455.581446,5699.585753,6217.729913
1091.940547,1225.752797,4737.318029,6661.853478
1091.940863,229.828649,3923.091493,7698.141797
1091.941178,-1225.752797,2368.659014,8808.450710
1091.941494,-2528.115143,740.205942,10066.800811
1091.941810,-4060.306139,-1036.288319,11399.171507
1091.942126,-4366.744339,-1184.329507,12509.480420
1091.942442,-4519.963438,-888.247130,12583.501014
1091.942757,-4673.182538,-222.061783,11843.295072
1091.943073,-4366.744339,444.123565,11177.109724
1091.943389,-3294.210641,1480.411884,10436.903782
1091.943705,-1838.629195,2146.597232,9178.553681
1091.944021,-919.314598,3034.844362,8364.327145
1091.944337,-383.047749,3330.926739,8142.265362
1091.944652,459.657299,3256.906145,7920.203579
1091.944968,459.657299,2960.823768,8216.285956
1091.945284,842.705048,2590.720797,8364.327145
1091.945600,689.485948,2294.638420,8586.388927
1091.945916,766.095498,2368.659014,8512.368333
1091.946231,0.000000,1924.535449,9326.594869
1091.946547,-919.314598,1258.350101,9548.656652
1091.946863,-1378.971896,1332.370696,9622.677246
1091.947179,-1838.629195,888.247130,9770.718434
1091.947495,-2757.943793,888.247130,9770.718434
1091.947811,-3140.991542,-0.000000,10066.800811
1091.948126,-3753.867940,-296.082377,10510.924376
1091.948442,-2757.943793,-370.102971,10362.883188
1091.948758,-2451.505594,-148.041188,9622.677246
1091.949074,-2911.162892,888.247130,9474.636058
1091.949390,-2145.067394,1184.329507,9030.512492
1091.949706,-1915.238745,1850.514855,8956.491898
1091.950021,-1915.238745,2146.597232,9030.512492
1091.950337,-1991.848295,2220.617826,9252.574275
1091.950653,-1915.238745,1480.411884,9400.615463
1091.950969,-1378.971896,740.205942,9992.780217
1091.951285,-1302.362347,148.041188,9474.636058
1091.951600,-1455.581446,-0.000000,9326.594869
1091.951916,-995.924147,-814.226536,9622.677246
1091.952232,-229.828649,-814.226536,10066.800811
1091.952548,0.000000,-0.000000,9622.677246
1091.952864,-383.047749,370.102971,9252.574275
1091.953180,-229.828649,1036.288319,9474.636058
1091.953495,229.828649,1776.494261,9326.594869
1091.953811,306.438199,2664.741391,8438.347739
1091.954127,536.266849,2960.823768,7772.162391
1091.954443,383.047749,2516.700203,8290.306550
1091.954759,536.266849,1628.453072,8734.430116
1091.955075,0.000000,888.247130,8956.491898
1091.955390,-1302.362347,296.082377,9770.718434
1091.955706,-1915.238745,-1036.288319,10955.047942
1091.956022,-1608.800546,-1036.288319,11621.233289
1091.956338,-1915.238745,-888.247130,11325.150913
1091.956654,-1302.362347,-666.185348,10510.924376
1091.956969,-689.485948,-1036.288319,10881.027347
1091.957285,689.485948,-666.185348,10140.821405
1091.957600,1378.971896,370.102971,9474.636058
1091.957916,2145.067394,592.164754,8290.306550
1091.958231,2834.553343,888.247130,8586.388927
1091.958547,3294.210641,1406.391290,8142.265362
1091.958862,2911.162892,2220.617826,7254.018232
1091.959178,2681.334243,2146.597232,7550.100608
1091.959493,2145.067394,2294.638420,7624.121203
1091.959809,1149.143247,2146.597232,7920.203579
1091.960125,-459.657299,1406.391290,9178.553681
1091.960440,-995.924147,-74.020594,10288.862594
1091.960756,-1991.848295,-1184.329507,11251.130318
1091.961071,-2681.334243,-1628.453072,11103.089130
1091.961387,-2987.772442,-2220.617826,11473.192101
1091.961702,-2834.553343,-3256.906145,11621.233289
1091.962018,-2528.115143,-2442.679609,11325.150913
1091.962333,-2374.896044,-1998.556043,10955.047942
1091.962649,-1302.362347,-1258.350101,10807.006753
1091.962964,0.000000,-370.102971,9622.677246
1091.963280,1225.752797,1036.288319,8734.430116
1091.963596,2145.067394,1998.556043,7772.162391
1091.963911,3140.991542,1998.556043,7402.059420
1091.964227,3600.648841,1924.535449,7105.977043
1091.964542,3677.258390,1850.514855,7328.038826
1091.964858,2757.943793,962.267725,8068.244768
1091.965173,2451.505594,222.061783,9030.512492
1091.965489,1532.190996,-222.061783,9400.615463
1091.965804,536.266849,-296.082377,9548.656652
1091.966120,383.047749,-814.226536,10140.821405
1091.966435,-689.485948,-962.267725,10362.883188
1091.966751,-1072.533697,-888.247130,10732.986159
1091.967066,-842.705048,-1332.370696,10214.842000
1091.967382,-536.266849,-1332.370696,10066.800811
1091.967698,0.000000,-1036.288319,10288.862594
1091.968013,0.000000,-814.226536,9844.739029
1091.968329,229.828649,-888.247130,10140.821405
1091.968644,1072.533697,-0.000000,8956.491898
1091.968960,1072.533697,962.267725,8512.368333
1091.969275,1225.752797,1110.308913,8364.327145
1091.969591,1685.410096,1036.288319,8734.430116
1091.969906,1838.629195,1110.308913,8734.430116
1091.970222,1685.410096,740.205942,8956.491898
1091.970537,1915.238745,-0.000000,8882.471304
1091.970853,2221.676944,-1110.308913,9770.718434
1091.971168,1072.533697,-592.164754,9326.594869
1091.971484,689.485948,-518.144159,9622.677246
1091.971800,612.876398,-888.247130,10362.883188
1091.972115,229.828649,-222.061783,10140.821405
1091.972431,0.000000,370.102971,9474.636058
1091.972746,-229.828649,296.082377,9400.615463
1091.973062,-383.047749,-148.041188,9770.718434
1091.973377,-766.095498,-0.000000,9326.594869
1091.973693,-766.095498,148.041188,9844.739029
1091.974008,-1302.362347,-0.000000,9770.718434
1091.974324,-1072.533697,-666.185348,9844.739029
1091.974639,-1762.019645,-666.185348,9992.780217
1091.974955,-995.924147,-1036.288319,9918.759623
1091.975270,-995.924147,-1184.329507,9918.759623
1091.975586,-536.266849,-1702.473667,10510.924376
1091.975902,-383.047749,-1184.329507,9918.759623
1091.976217,229.828649,-1110.308913,10214.842000
1091.976533,842.705048,-888.247130,10214.842000
1091.976848,1685.410096,-74.020594,9400.615463
1091.977164,2068.457845,814.226536,7920.203579
1091.977479,2451.505594,1036.288319,8216.285956
1091.977795,2451.505594,1702.473667,7624.121203
1091.978110,2451.505594,1702.473667,7920.203579
1091.978426,1991.848295,1332.370696,8512.368333
1091.978741,1455.581446,1184.329507,8364.327145
1091.979057,1072.533697,666.185348,9178.553681
1091.979373,306.438199,740.205942,9400.615463
1091.979688,-229.828649,74.020594,9326.594869
1091.980004,-459.657299,-370.102971,10140.821405
1091.980319,-1072.533697,-814.226536,10362.883188
1091.980635,-1532.190996,-1332.370696,10584.944971
1091.980950,-766.095498,-1702.473667,10881.027347
1091.981266,-689.485948,-888.247130,11251.130318
1091.981581,-229.828649,-518.144159,10362.883188
1091.981897,536.266849,-0.000000,9474.636058
1091.982212,1225.752797,444.123565,8882.471304
1091.982528,995.924147,2368.659014,8068.244768
1091.982843,1532.190996,2368.659014,8068.244768
1091.983159,2221.676944,1480.411884,7772.162391
1091.983475,1455.581446,2146.597232,8882.471304
1091.983790,1149.143247,1406.391290,8734.430116
1091.984106,1149.143247,296.082377,9030.512492
1091.984421,153.219100,-148.041188,9696.697840
1091.984737,-919.314598,-666.185348,9844.739029
1091.985052,-919.314598,-888.247130,10807.006753
1091.985368,-1378.971896,-1702.473667,11325.150913
1091.985683,-1838.629195,-1702.473667,11843.295072
1091.985999,-1991.848295,-1554.432478,11177.109724
1091.986314,-1378.971896,-1406.391290,10288.862594
1091.986630,-536.266849,-1258.350101,9918.759623
1091.986945,-842.705048,-518.144159,9844.739029
1091.987261,842.705048,-444.123565,9030.512492
1091.987577,995.924147,-148.041188,9104.533087
1091.987892,1532.190996,-0.000000,8882.471304
1091.988208,1532.190996,-0.000000,8586.388927
1091.988523,1685.410096,-0.000000,8216.285956
1091.988839,1685.410096,-370.102971,8512.368333
1091.989154,1302.362347,-296.082377,9030.512492
1091.989470,1225.752797,-518.144159,9326.594869
1091.989785,766.095498,-1628.453072,9992.780217
1091.990101,766.095498,-1628.453072,10140.821405
1091.990416,306.438199,-1480.411884,10214.842000
1091.990732,536.266849,-1554.432478,9474.636058
1091.991047,1072.533697,-1406.391290,9918.759623
1091.991363,1072.533697,-592.164754,9104.533087
1091.991679,612.876398,-0.000000,8882.471304
1091.991994,919.314598,-0.000000,9104.533087
1091.992310,995.924147,296.082377,8882.471304
1091.992625,842.705048,814.226536,8512.368333
1091.992941,766.095498,592.164754,8364.327145
1091.993256,766.095498,-148.041188,8808.450710
1091.993572,689.485948,-222.061783,9474.636058
1091.993887,306.438199,-296.082377,9474.636058
1091.994203,0.000000,-1184.329507,9992.780217
1091.994518,229.828649,-962.267725,10288.862594
1091.994834,0.000000,-740.205942,9548.656652
1091.995150,0.000000,-740.205942,9770.718434
1091.995465,766.095498,-962.267725,9844.739029
1091.995781,766.095498,-370.102971,9622.677246
1091.996096,689.485948,148.041188,9104.533087
1091.996412,919.314598,-74.020594,8956.491898
1091.996727,1225.752797,-148.041188,8882.471304
1091.997043,995.924147,666.185348,8808.450710
1091.997358,689.485948,814.226536,8438.347739
1091.997674,536.266849,148.041188,8660.409521
1091.997989,76.609550,-222.061783,9770.718434
1091.998305,-306.438199,-666.185348,9622.677246
1091.998620,-689.485948,-962.267725,10066.800811
1091.998936,-919.314598,-1702.473667,10807.006753
1091.999252,-766.095498,-1554.432478,10881.027347
1091.999567,-459.657299,-962.267725,9918.759623
1091.999883,-153.219100,-1110.308913,9844.739029
1092.000198,306.438199,-666.185348,9622.677246
1092.000514,612.876398,-296.082377,9400.615463
1092.000829,1072.533697,-0.000000,9474.636058
1092.001145,1608.800546,-74.020594,8734.430116
1092.001460,1378.971896,1110.308913,8660.409521
1092.001776,1532.190996,1480.411884,8586.388927
1092.002091,1685.410096,1258.350101,8586.388927
1092.002407,1302.362347,1628.453072,8808.450710
1092.002722,306.438199,1036.288319,8882.471304
1092.003038,229.828649,888.247130,9474.636058
1092.003354,459.657299,-0.000000,10140.821405
1092.003669,0.000000,148.041188,10140.821405
1092.003985,-612.876398,-148.041188,10214.842000
1092.004300,-229.828649,-296.082377,10510.924376
1092.004616,-229.828649,-370.102971,10362.883188
1092.004931,-459.657299,296.082377,10066.800811
1092.005247,76.609550,518.144159,9918.759623
1092.005562,459.657299,592.164754,9770.718434
1092.005878,383.047749,1480.411884,9548.656652
1092.006193,383.047749,1406.391290,9104.533087
1092.006509,995.924147,962.267725,8882.471304
1092.006824,1072.533697,592.164754,9400.615463
1092.007140,612.876398,1184.329507,9030.512492
1092.007456,153.219100,888.247130,9400.615463
1092.007771,536.266849,-740.205942,10288.862594
1092.008087,0.000000,666.185348,10584.944971
1092.008402,-689.485948,-222.061783,9326.594869
1092.008718,0.000000,-1406.391290,10140.821405
1092.009033,-612.876398,-888.247130,10140.821405
1092.009349,-842.705048,-1554.432478,9918.759623
1092.009664,76.609550,-1480.411884,10140.821405
1092.009980,0.000000,-1258.350101,10214.842000
1092.010295,0.000000,-962.267725,9918.759623
1092.010611,689.485948,-0.000000,8882.471304
1092.010927,383.047749,-0.000000,8290.306550
1092.011242,1302.362347,-148.041188,8808.450710
1092.011558,76.609550,-74.020594,8956.491898
1092.011873,612.876398,-296.082377,8956.491898
1092.012189,766.095498,-370.102971,8808.450710
1092.012504,153.219100,-1036.288319,9474.636058
1092.012820,76.609550,-1628.453072,9918.759623
1092.013135,306.438199,-1850.514855,9918.759623
1092.013451,306.438199,-1480.411884,9622.677246
1092.013766,612.876398,-1036.288319,9548.656652
1092.014082,612.876398,-962.267725,9400.615463
1092.014397,1225.752797,-962.267725,9400.615463
1092.014713,1378.971896,-444.123565,9178.553681
1092.015029,1149.143247,-74.020594,8808.450710
1092.015344,1225.752797,-0.000000,8586.388927
1092.015660,1532.190996,-222.061783,8660.409521
1092.015975,1149.143247,296.082377,8586.388927
1092.016291,689.485948,-0.000000,8660.409521
1092.016606,536.266849,-444.123565,9326.594869
1092.016922,306.438199,-1110.308913,9770.718434
1092.017237,76.609550,-740.205942,9548.656652
1092.017553,153.219100,-1036.288319,9548.656652
1092.017868,76.609550,-1332.370696,9696.697840
1092.018184,306.438199,-1332.370696,9696.697840
1092.018499,76.609550,-740.205942,9992.780217
1092.018815,689.485948,-666.185348,10140.821405
1092.019131,1225.752797,-814.226536,9770.718434
1092.019446,766.095498,444.123565,8882.471304
1092.019762,1072.533697,444.123565,8142.265362
1092.020077,1915.238745,-370.102971,8660.409521
1092.020393,1225.752797,666.185348,8660.409521
1092.020708,1302.362347,370.102971,8660.409521
1092.021024,995.924147,-0.000000,8956.491898
1092.021339,612.876398,-740.205942,9474.636058
1092.021655,0.000000,-370.102971,10214.842000
1092.021970,0.000000,-592.164754,9918.759623
1092.022286,0.000000,-962.267725,9918.759623
1092.022601,-383.047749,-814.226536,10510.924376
1092.022917,-229.828649,-370.102971,9844.739029
1092.023233,-229.828649,-814.226536,9622.677246
1092.023548,0.000000,-370.102971,9770.718434
1092.023864,76.609550,-0.000000,9548.656652
1092.024179,766.095498,370.102971,9326.594869
1092.024495,919.314598,444.123565,9178.553681
1092.024810,1072.533697,740.205942,9252.574275
1092.025126,1378.971896,888.247130,9104.533087
1092.025441,612.876398,740.205942,8882.471304
1092.025757,306.438199,592.164754,9548.656652
1092.026072,536.266849,1036.288319,9770.718434
1092.026388,459.657299,814.226536,9474.636058
1092.026704,153.219100,592.164754,9622.677246
1092.027019,459.657299,296.082377,9696.697840
1092.027335,0.000000,222.061783,9474.636058
1092.027650,-689.485948,296.082377,10066.800811
1092.027966,-766.095498,-148.041188,10658.965565
1092.028281,0.000000,-74.020594,10140.821405
1092.028597,-612.876398,666.185348,9474.636058
1092.028912,-459.657299,444.123565,9474.636058
1092.029228,0.000000,296.082377,9474.636058
1092.029543,-153.219100,962.267725,9474.636058
1092.029859,-229.828649,1036.288319,9104.533087
1092.030174,76.609550,1036.288319,9918.759623
1092.030490,536.266849,592.164754,9474.636058
1092.030806,76.609550,962.267725,9030.512492
1092.031121,383.047749,-0.000000,9474.636058
1092.031437,766.095498,-74.020594,9844.739029
1092.031752,153.219100,-0.000000,9696.697840
1092.032068,-153.219100,74.020594,9252.574275
1092.032383,459.657299,-296.082377,9770.718434
1092.032699,76.609550,-444.123565,9770.718434
1092.033014,306.438199,-148.041188,9474.636058
1092.033330,995.924147,-814.226536,9844.739029
1092.033645,1072.533697,-666.185348,9474.636058
1092.033961,612.876398,148.041188,9178.553681
1092.034276,766.095498,-0.000000,8734.430116
1092.034592,459.657299,-0.000000,9622.677246
1092.034908,766.095498,-592.164754,9770.718434
1092.035223,612.876398,-222.061783,9178.553681
1092.035539,306.438199,-370.102971,9326.594869
1092.035854,76.609550,-1036.288319,9770.718434
1092.036170,459.657299,-1036.288319,9918.759623
1092.036485,306.438199,-518.144159,9326.594869
1092.036801,459.657299,-518.144159,9696.697840
1092.037116,536.266849,-666.185348,9548.656652
1092.037432,1149.143247,-518.144159,9104.533087
1092.037747,1072.533697,-370.102971,8808.450710
1092.038063,842.705048,-1036.288319,8882.471304
1092.038378,689.485948,-1036.288319,9326.594869
1092.038694,459.657299,-740.205942,9252.574275
1092.039010,766.095498,-1110.308913,8956.491898
1092.039325,766.095498,-444.123565,9400.615463
1092.039641,153.219100,-222.061783,9474.636058
1092.039956,306.438199,-370.102971,9104.533087
1092.040272,306.438199,-888.247130,9548.656652
1092.040587,612.876398,-1110.308913,9326.594869
1092.040903,536.266849,-666.185348,9252.574275
1092.041218,0.000000,-1258.350101,9992.780217
1092.041534,689.485948,-962.267725,10066.800811
1092.041849,689.485948,-370.102971,9474.636058
1092.042165,1225.752797,-592.164754,8956.491898
1092.042481,1072.533697,-222.061783,9030.512492
1092.042796,919.314598,-222.061783,9104.533087
1092.043112,919.314598,-74.020594,9104.533087
1092.043427,1532.190996,-666.185348,9770.718434
1092.043743,919.314598,-962.267725,9548.656652
1092.044058,995.924147,518.144159,9030.512492
1092.044374,1072.533697,-814.226536,8882.471304
1092.044689,689.485948,-666.185348,9992.780217
1092.045005,229.828649,-296.082377,9178.553681
1092.045320,76.609550,-222.061783,9622.677246
1092.045636,-153.219100,-0.000000,9474.636058
1092.045951,0.000000,-666.185348,10066.800811
1092.046267,383.047749,-444.123565,9992.780217
1092.046583,995.924147,-444.123565,9030.512492
1092.046898,383.047749,-518.144159,9548.656652
1092.047214,612.876398,-814.226536,9548.656652
1092.047529,229.828649,-518.144159,8808.450710
1092.047845,0.000000,-0.000000,9178.553681
1092.048160,689.485948,-0.000000,9770.718434
1092.048476,383.047749,296.082377,8808.450710
1092.048791,153.219100,888.247130,9030.512492
1092.049107,0.000000,370.102971,9030.512492
1092.049422,153.219100,-296.082377,9622.677246
1092.049738,0.000000,370.102971,9252.574275
1092.050053,-689.485948,518.144159,9030.512492
1092.050369,-306.438199,-74.020594,9474.636058
1092.050685,-459.657299,-74.020594,9918.759623
1092.051000,-689.485948,-0.000000,9844.739029
1092.051316,-842.705048,-0.000000,9918.759623
1092.051631,-459.657299,-0.000000,9622.677246
1092.051947,-842.705048,592.164754,9178.553681
1092.052262,-919.314598,666.185348,9992.780217
1092.052578,-153.219100,-148.041188,10436.903782
1092.052893,0.000000,-74.020594,10066.800811
1092.053209,-229.828649,222.061783,9770.718434
1092.053524,612.876398,-0.000000,9844.739029
1092.053840,995.924147,370.102971,8956.491898
1092.054155,536.266849,888.247130,8882.471304
1092.054471,536.266849,592.164754,9696.697840
1092.054787,919.314598,-0.000000,10140.821405
1092.055102,842.705048,148.041188,9992.780217
1092.055418,766.095498,740.205942,9548.656652
1092.055733,1302.362347,-0.000000,8956.491898
1092.056049,1225.752797,-296.082377,9326.594869
1092.056364,919.314598,-0.000000,9474.636058
1092.056680,995.924147,-0.000000,9622.677246
1092.056995,842.705048,-74.020594,9844.739029
1092.057311,766.095498,-444.123565,9992.780217
1092.057626,919.314598,-370.102971,9474.636058
1092.057942,689.485948,-666.185348,9696.697840
1092.058258,1225.752797,-1110.308913,10066.800811
1092.058573,919.314598,-148.041188,9622.677246
1092.058889,919.314598,-0.000000,9474.636058
1092.059204,995.924147,592.164754,9326.594869
1092.059520,1378.971896,296.082377,9400.615463
1092.059836,1302.362347,-148.041188,9622.677246
1092.060151,1378.971896,-740.205942,9252.574275
1092.060467,995.924147,-740.205942,9474.636058
1092.060783,995.924147,-518.144159,9548.656652
1092.061098,766.095498,-1184.329507,9696.697840
1092.061414,995.924147,-592.164754,10362.883188
1092.061729,766.095498,-444.123565,9696.697840
1092.062045,689.485948,-296.082377,9252.574275
1092.062361,689.485948,-148.041188,9104.533087
1092.062676,842.705048,-888.247130,9400.615463
1092.062992,536.266849,-666.185348,9474.636058
1092.063307,229.828649,-666.185348,9252.574275
1092.063623,153.219100,-666.185348,9400.615463
1092.063939,76.609550,-814.226536,9400.615463
1092.064254,0.000000,-740.205942,9474.636058
1092.064570,0.000000,-148.041188,9474.636058
1092.064885,-229.828649,-1406.391290,9474.636058
1092.065201,0.000000,-740.205942,9326.594869
1092.065517,0.000000,-592.164754,9548.656652
1092.065832,0.000000,-666.185348,9474.636058
1092.066148,612.876398,-1110.308913,9844.739029
1092.066464,612.876398,-444.123565,9474.636058
1092.066779,689.485948,-444.123565,9252.574275
1092.067095,766.095498,-148.041188,8734.430116
1092.067410,1302.362347,-370.102971,8882.471304
1092.067726,1072.533697,-592.164754,9030.512492
1092.068042,536.266849,-0.000000,9030.512492
1092.068357,919.314598,148.041188,9252.574275
1092.068673,919.314598,444.123565,9104.533087
1092.068988,153.219100,296.082377,8956.491898
1092.069304,842.705048,-222.061783,8956.491898
1092.069620,306.438199,-740.205942,9474.636058
1092.069935,153.219100,-518.144159,10140.821405
1092.070251,0.000000,-296.082377,9918.759623
1092.070566,76.609550,-518.144159,9918.759623
1092.070882,306.438199,-296.082377,10881.027347
1092.071198,229.828649,-0.000000,9400.615463
1092.071513,76.609550,-0.000000,9104.533087
1092.071829,459.657299,-0.000000,9770.718434
1092.072145,459.657299,296.082377,9178.553681
1092.072460,0.000000,1110.308913,9326.594869
1092.072776,536.266849,814.226536,9548.656652
1092.073091,842.705048,592.164754,9474.636058
1092.073407,76.609550,888.247130,8956.491898
1092.073723,0.000000,-0.000000,9178.553681
1092.074038,-153.219100,-370.102971,9918.759623
1092.074354,-536.266849,-74.020594,10288.862594
1092.074669,-766.095498,-518.144159,10288.862594
1092.074985,-842.705048,-444.123565,10732.986159
1092.075301,-536.266849,-296.082377,10214.842000
1092.075616,-153.219100,-0.000000,9474.636058
1092.075932,-306.438199,-148.041188,9474.636058
1092.076247,0.000000,-444.123565,9696.697840
1092.076563,153.219100,-0.000000,9474.636058
1092.076879,383.047749,296.082377,9252.574275
1092.077194,0.000000,296.082377,9622.677246
1092.077510,612.876398,148.041188,9696.697840
1092.077825,689.485948,296.082377,9326.594869
1092.078141,689.485948,-0.000000,9326.594869
1092.078457,766.095498,-0.000000,9400.615463
1092.078772,0.000000,-148.041188,9548.656652
1092.079088,306.438199,-0.000000,9992.780217
1092.079404,536.266849,-222.061783,9622.677246
1092.079719,919.314598,-666.185348,9992.780217
1092.080035,612.876398,-148.041188,9548.656652
1092.080350,766.095498,-444.123565,9844.739029
1092.080666,1302.362347,-222.061783,9548.656652
1092.080982,1608.800546,-222.061783,9104.533087
1092.081297,995.924147,148.041188,8882.471304
1092.081613,766.095498,222.061783,9252.574275
1092.081928,1762.019645,-0.000000,9622.677246
1092.082244,1302.362347,148.041188,8956.491898
1092.082560,1149.143247,370.102971,9474.636058
1092.082875,1149.143247,-444.123565,8882.471304
1092.083191,842.705048,-370.102971,9400.615463
1092.083506,459.657299,-296.082377,9474.636058
1092.083822,76.609550,-740.205942,9844.739029
1092.084138,306.438199,-518.144159,9992.780217
1092.084453,76.609550,-370.102971,9696.697840
1092.084769,153.219100,-0.000000,9474.636058
1092.085085,842.705048,-592.164754,9622.677246
1092.085400,383.047749,-370.102971,9548.656652
1092.085716,383.047749,-0.000000,9252.574275
1092.086031,383.047749,-296.082377,9252.574275
1092.086347,459.657299,-666.185348,9622.677246
1092.086663,689.485948,-444.123565,10066.800811
1092.086978,383.047749,148.041188,8956.491898
1092.087294,0.000000,-148.041188,9104.533087
1092.087609,-229.828649,-444.123565,9696.697840
1092.087925,-459.657299,-370.102971,9770.718434
1092.088241,-612.876398,-444.123565,10140.821405
1092.088556,0.000000,-888.247130,10807.006753
1092.088872,0.000000,-888.247130,10288.862594
1092.089187,0.000000,-296.082377,9474.636058
1092.089503,766.095498,-592.164754,9474.636058
1092.089819,612.876398,-592.164754,9474.636058
1092.090134,612.876398,370.102971,9474.636058
1092.090450,689.485948,148.041188,8882.471304
1092.090766,995.924147,-74.020594,9400.615463
1092.091081,842.705048,-296.082377,9474.636058
1092.091397,689.485948,-0.000000,9178.553681
1092.091712,689.485948,-222.061783,8882.471304
1092.092028,459.657299,-444.123565,9326.594869
1092.092344,229.828649,-370.102971,9474.636058
1092.092659,0.000000,-222.061783,9400.615463
1092.092975,0.000000,-962.267725,9844.739029
1092.093290,0.000000,-444.123565,10510.924376
1092.093606,0.000000,-518.144159,9548.656652
1092.093922,-153.219100,-148.041188,9252.574275
1092.094237,229.828649,-592.164754,9548.656652
1092.094553,0.000000,-814.226536,9770.718434
1092.094868,0.000000,814.226536,9252.574275
1092.095184,0.000000,148.041188,9104.533087
1092.095500,383.047749,740.205942,9474.636058
1092.095815,153.219100,1110.308913,8956.491898
1092.096131,612.876398,740.205942,8586.388927
1092.096446,383.047749,-0.000000,9030.512492
1092.096762,0.000000,296.082377,9548.656652
1092.097078,-689.485948,222.061783,9104.533087
1092.097393,-229.828649,-444.123565,10362.883188
1092.097709,-1072.533697,-222.061783,10584.944971
1092.098025,0.000000,-148.041188,10288.862594
1092.098340,-229.828649,-962.267725,9770.718434
1092.098656,76.609550,-222.061783,10362.883188
1092.098971,153.219100,-74.020594,9400.615463
1092.099287,995.924147,222.061783,9104.533087
1092.099603,919.314598,666.185348,9104.533087
1092.099918,995.924147,296.082377,9326.594869
1092.100234,1072.533697,444.123565,9400.615463
1092.100549,995.924147,518.144159,9030.512492
1092.100865,1378.971896,222.061783,9252.574275
1092.101181,536.266849,-814.226536,9474.636058
1092.101496,459.657299,-296.082377,9918.759623
1092.101812,612.876398,-666.185348,9770.718434
1092.102127,76.609550,-1258.350101,10214.842000
1092.102443,306.438199,-1110.308913,10807.006753
1092.102759,612.876398,-666.185348,9696.697840
1092.103074,1149.143247,-148.041188,9474.636058
1092.103390,919.314598,-0.000000,9400.615463
1092.103706,612.876398,-222.061783,8734.430116
1092.104021,1378.971896,-0.000000,9030.512492
1092.104337,1378.971896,-222.061783,9622.677246
1092.104652,1225.752797,-0.000000,9474.636058
1092.104968,1378.971896,222.061783,8512.368333
1092.105284,1225.752797,-370.102971,8956.491898
1092.105599,1225.752797,-296.082377,9178.553681
1092.105915,842.705048,-370.102971,9252.574275
1092.106230,306.438199,-296.082377,9770.718434
1092.106546,536.266849,-444.123565,9992.780217
1092.106862,76.609550,-666.185348,9548.656652
1092.107177,306.438199,-518.144159,9252.574275
1092.107493,459.657299,-518.144159,9400.615463
1092.107808,536.266849,-666.185348,9252.574275
1092.108124,536.266849,-222.061783,9474.636058
1092.108440,459.657299,-592.164754,9104.533087
1092.108755,612.876398,-666.185348,9104.533087
1092.109071,459.657299,222.061783,9252.574275
1092.109387,536.266849,444.123565,8808.450710
1092.109702,612.876398,-0.000000,8734.430116
1092.110018,459.657299,-0.000000,8956.491898
1092.110333,-306.438199,-0.000000,9696.697840
1092.110649,-229.828649,-74.020594,9548.656652
1092.110965,0.000000,-518.144159,9474.636058
1092.111280,-612.876398,-1110.308913,10584.944971
1092.111596,-383.047749,-888.247130,10066.800811
1092.111911,0.000000,-962.267725,9770.718434
1092.112227,153.219100,-1036.288319,9844.739029
1092.112543,0.000000,-444.123565,10140.821405
1092.112858,229.828649,444.123565,9252.574275
1092.113174,612.876398,148.041188,9178.553681
1092.113489,995.924147,370.102971,9104.533087
1092.113805,689.485948,740.205942,9030.512492
1092.114121,1149.143247,444.123565,8734.430116
1092.114436,766.095498,222.061783,9104.533087
1092.114752,383.047749,-0.000000,9400.615463
1092.115067,153.219100,-0.000000,9696.697840
1092.115383,-153.219100,-222.061783,9992.780217
1092.115699,0.000000,-296.082377,10510.924376
1092.116014,0.000000,-370.102971,9918.759623
1092.116330,0.000000,-666.185348,9992.780217
1092.116646,0.000000,-444.123565,10140.821405
1092.116961,0.000000,-222.061783,9918.759623
1092.117277,153.219100,666.185348,9474.636058
1092.117592,612.876398,222.061783,9548.656652
1092.117908,766.095498,-0.000000,9622.677246
1092.118224,766.095498,518.144159,9104.533087
1092.118539,536.266849,518.144159,8660.409521
1092.118855,919.314598,148.041188,9474.636058
1092.119170,612.876398,444.123565,9474.636058
1092.119486,76.609550,370.102971,9474.636058
1092.119802,306.438199,-0.000000,10066.800811
1092.120117,76.609550,-222.061783,10140.821405
1092.120433,76.609550,-148.041188,9622.677246
1092.120748,0.000000,-666.185348,10362.883188
1092.121064,383.047749,-814.226536,10362.883188
1092.121380,459.657299,-74.020594,9622.677246
1092.121695,229.828649,518.144159,9326.594869
1092.122011,612.876398,-74.020594,9400.615463
1092.122327,1072.533697,-74.020594,9844.739029
1092.122642,1072.533697,444.123565,9474.636058
1092.122958,1302.362347,74.020594,9400.615463
1092.123273,689.485948,-296.082377,9030.512492
1092.123589,1455.581446,-296.082377,9178.553681
1092.123905,919.314598,-74.020594,9178.553681
1092.124220,1225.752797,-814.226536,9474.636058
1092.124536,1072.533697,-888.247130,9474.636058
1092.124851,536.266849,-444.123565,9844.739029
1092.125167,383.047749,-888.247130,9622.677246
1092.125483,995.924147,-1110.308913,9474.636058
1092.125798,766.095498,-888.247130,9696.697840
1092.126114,842.705048,-592.164754,9326.594869
1092.126429,383.047749,-666.185348,9326.594869
1092.126745,1149.143247,-814.226536,9474.636058
1092.127061,1072.533697,-222.061783,9252.574275
1092.127376,995.924147,-0.000000,8438.347739
1092.127692,689.485948,-370.102971,8660.409521
1092.128008,919.314598,-148.041188,8956.491898
1092.128323,306.438199,-222.061783,9104.533087
1092.128639,306.438199,-666.185348,9622.677246
1092.128954,306.438199,-888.247130,10066.800811
1092.129270,153.219100,-592.164754,9918.759623
1092.129586,383.047749,-518.144159,9548.656652
1092.129901,229.828649,-666.185348,9474.636058
1092.130217,229.828649,-740.205942,9770.718434
1092.130532,76.609550,-296.082377,9252.574275
1092.130848,76.609550,296.082377,9622.677246
1092.131164,306.438199,-0.000000,9696.697840
1092.131479,306.438199,148.041188,9474.636058
1092.131795,229.828649,518.144159,8808.450710
1092.132110,536.266849,-148.041188,8956.491898
1092.132426,919.314598,-148.041188,9696.697840
1092.132742,306.438199,296.082377,9326.594869
1092.133057,76.609550,-0.000000,9622.677246
1092.133373,0.000000,-962.267725,10288.862594
1092.133688,153.219100,-370.102971,10658.965565
1092.134004,306.438199,-0.000000,9548.656652
1092.134320,459.657299,-518.144159,9474.636058
1092.134635,612.876398,-370.102971,9770.718434
1092.134951,383.047749,-0.000000,9548.656652
1092.135267,919.314598,-74.020594,9326.594869
1092.135582,1072.533697,-148.041188,9696.697840
1092.135898,995.924147,-0.000000,9622.677246
1092.136213,842.705048,518.144159,8956.491898
1092.136529,689.485948,222.061783,9104.533087
1092.136845,689.485948,-148.041188,9474.636058
1092.137160,612.876398,-148.041188,9474.636058
1092.137476,229.828649,370.102971,9474.636058
1092.137791,0.000000,222.061783,9474.636058
1092.138107,-229.828649,-74.020594,9770.718434
1092.138423,76.609550,74.020594,9770.718434
1092.138738,459.657299,-0.000000,9548.656652
1092.139054,76.609550,-518.144159,9992.780217
1092.139369,-153.219100,-148.041188,9474.636058
1092.139685,-306.438199,-0.000000,9400.615463
1092.140001,229.828649,-148.041188,10066.800811
1092.140316,919.314598,-296.082377,9548.656652
1092.140632,153.219100,1110.308913,9178.553681
1092.140948,383.047749,1258.350101,8660.409521
1092.141263,612.876398,518.144159,9030.512492
1092.141579,995.924147,592.164754,8956.491898
1092.141894,229.828649,962.267725,9548.656652
1092.142210,-153.219100,-0.000000,10214.842000
1092.142526,153.219100,-296.082377,9474.636058
1092.142841,0.000000,-0.000000,9918.759623
1092.143157,0.000000,-74.020594,9918.759623
1092.143472,229.828649,-962.267725,9770.718434
1092.143788,0.000000,-296.082377,9474.636058
1092.144104,0.000000,-0.000000,9326.594869
1092.144419,229.828649,-74.020594,9548.656652
1092.144735,536.266849,-148.041188,9696.697840
1092.145050,995.924147,222.061783,9622.677246
1092.145366,229.828649,-148.041188,8956.491898
1092.145682,536.266849,-370.102971,9474.636058
1092.145997,1149.143247,-296.082377,9400.615463
1092.146313,1225.752797,-74.020594,9400.615463
1092.146629,995.924147,-888.247130,9252.574275
1092.146944,612.876398,-814.226536,9992.780217
1092.147260,842.705048,-888.247130,9622.677246
1092.147575,842.705048,-592.164754,9400.615463
1092.147891,919.314598,-888.247130,9992.780217
1092.148207,842.705048,-888.247130,9474.636058
1092.148522,842.705048,222.061783,8956.491898
1092.148838,995.924147,-74.020594,9252.574275
1092.149153,1149.143247,-222.061783,9400.615463
1092.149469,1225.752797,-74.020594,9252.574275
1092.149785,1225.752797,296.082377,9548.656652
1092.150100,536.266849,-222.061783,8882.471304
1092.150416,842.705048,-814.226536,9696.697840
1092.150731,76.609550,-1110.308913,9696.697840
1092.151047,0.000000,-740.205942,9992.780217
1092.151363,-383.047749,-1258.350101,10214.842000
1092.151678,0.000000,-740.205942,9918.759623
1092.151994,76.609550,-222.061783,9474.636058
1092.152309,459.657299,-592.164754,9326.594869
1092.152625,842.705048,-666.185348,9326.594869
1092.152941,766.095498,-444.123565,8956.491898
1092.153256,536.266849,-296.082377,8882.471304
1092.153572,766.095498,-74.020594,9104.533087
1092.153888,766.095498,-0.000000,9326.594869
1092.154203,689.485948,-0.000000,9030.512492
1092.154519,306.438199,-370.102971,8882.471304
1092.154834,0.000000,-666.185348,8882.471304
1092.155150,0.000000,-740.205942,9400.615463
1092.155466,0.000000,-740.205942,9770.718434
1092.155781,0.000000,-888.247130,10140.821405
1092.156097,-306.438199,-814.226536,10140.821405
1092.156412,-153.219100,-666.185348,9770.718434
1092.156728,0.000000,-666.185348,9474.636058
1092.157044,383.047749,-592.164754,9770.718434
1092.157359,612.876398,-0.000000,9400.615463
1092.157675,536.266849,518.144159,9178.553681
1092.157990,995.924147,296.082377,9400.615463
1092.158306,995.924147,1036.288319,9252.574275
1092.158622,1072.533697,1110.308913,8586.388927
1092.158937,1072.533697,740.205942,8956.491898
1092.159253,995.924147,-0.000000,9326.594869
1092.159569,919.314598,444.123565,9326.594869
1092.159885,0.000000,666.185348,9548.656652
1092.160201,229.828649,-148.041188,9918.759623
1092.160516,229.828649,-444.123565,10140.821405
1092.160832,-306.438199,222.061783,10140.821405
1092.161148,0.000000,444.123565,9992.780217
1092.161464,383.047749,-0.000000,9474.636058
1092.161780,76.609550,222.061783,9622.677246
1092.162095,0.000000,222.061783,9326.594869
1092.162411,-153.219100,296.082377,10584.944971
1092.162727,689.485948,-0.000000,10066.800811
1092.163043,153.219100,148.041188,9178.553681
1092.163359,0.000000,888.247130,9400.615463
1092.163674,0.000000,-0.000000,9622.677246
1092.163990,153.219100,-74.020594,9918.759623
1092.164306,0.000000,814.226536,9104.533087
1092.164622,-306.438199,222.061783,9474.636058
1092.164937,-306.438199,-666.185348,10436.903782
1092.165253,0.000000,-1036.288319,10436.903782
1092.165569,-306.438199,-370.102971,9918.759623
1092.165885,76.609550,-592.164754,9770.718434
1092.166201,0.000000,-148.041188,9104.533087
1092.166516,153.219100,-222.061783,9474.636058
1092.166832,459.657299,296.082377,9474.636058
1092.167148,306.438199,-222.061783,9474.636058
1092.167464,229.828649,-74.020594,9770.718434
1092.167780,612.876398,-148.041188,8956.491898
1092.168095,766.095498,-592.164754,9326.594869
1092.168411,689.485948,-592.164754,9696.697840
1092.168727,536.266849,-370.102971,8956.491898
1092.169043,459.657299,-740.205942,9548.656652
1092.169358,766.095498,-592.164754,9548.656652
1092.169674,459.657299,-962.267725,9548.656652
1092.169990,842.705048,-962.267725,8956.491898
1092.170306,1225.752797,-740.205942,9474.636058
1092.170622,766.095498,-962.267725,9252.574275
1092.170937,995.924147,-296.082377,9030.512492
1092.171253,1378.971896,-296.082377,9104.533087
1092.171569,1302.362347,-148.041188,9548.656652
1092.171885,1455.581446,-0.000000,9178.553681
1092.172201,1378.971896,-148.041188,8216.285956
1092.172516,919.314598,-296.082377,9252.574275
1092.172832,995.924147,-1110.308913,8956.491898
1092.173148,612.876398,-888.247130,8956.491898
1092.173464,306.438199,-444.123565,9252.574275
1092.173779,0.000000,-962.267725,9474.636058
1092.174095,153.219100,-740.205942,10288.862594
1092.174411,153.219100,-518.144159,9178.553681
1092.174727,383.047749,-888.247130,9548.656652
1092.175043,689.485948,-888.247130,9548.656652
1092.175358,383.047749,-444.123565,9104.533087
1092.175674,459.657299,-444.123565,8956.491898
1092.175990,536.266849,-592.164754,9326.594869
1092.176306,383.047749,-222.061783,9030.512492
1092.176622,459.657299,296.082377,9178.553681
1092.176937,229.828649,518.144159,8734.430116
1092.177253,306.438199,148.041188,9178.553681
1092.177569,153.219100,-148.041188,9548.656652
1092.177885,0.000000,-518.144159,9844.739029
1092.178201,76.609550,-740.205942,10214.842000
1092.178516,0.000000,-962.267725,10288.862594
1092.178832,-153.219100,-814.226536,9992.780217
1092.179148,-153.219100,-814.226536,9918.759623
1092.179464,306.438199,-592.164754,9844.739029
1092.179779,459.657299,-0.000000,9548.656652
1092.180095,306.438199,666.185348,9326.594869
1092.180411,459.657299,-0.000000,9104.533087
1092.180727,536.266849,666.185348,9844.739029
1092.181043,919.314598,888.247130,9474.636058
1092.181358,842.705048,1036.288319,8956.491898
1092.181674,612.876398,296.082377,8956.491898
1092.181990,153.219100,592.164754,9474.636058
1092.182306,612.876398,370.102971,10066.800811
1092.182622,153.219100,-222.061783,10436.903782
1092.182937,-612.876398,-0.000000,10584.944971
1092.183253,-459.657299,296.082377,10510.924376
1092.183569,-229.828649,814.226536,9992.780217
1092.183885,0.000000,222.061783,9992.780217
1092.184200,0.000000,888.247130,9548.656652
1092.184516,-229.828649,962.267725,9400.615463
1092.184832,153.219100,666.185348,9252.574275
1092.185148,766.095498,444.123565,9770.718434
1092.185464,536.266849,740.205942,9178.553681
1092.185779,153.219100,518.144159,8882.471304
1092.186095,459.657299,-0.000000,9178.553681
1092.186411,0.000000,-222.061783,9326.594869
1092.186727,-229.828649,592.164754,9548.656652
1092.187043,-459.657299,-0.000000,9918.759623
1092.187358,-383.047749,-222.061783,9474.636058
1092.187674,-612.876398,-666.185348,9992.780217
1092.187990,-459.657299,-1258.350101,9918.759623
1092.188306,-76.609550,-666.185348,9992.780217
1092.188622,229.828649,-888.247130,9770.718434
1092.188937,459.657299,-74.020594,9696.697840
1092.189253,766.095498,518.144159,9030.512492
1092.189569,612.876398,518.144159,9252.574275
1092.189885,995.924147,296.082377,9400.615463
1092.190200,1302.362347,444.123565,8734.430116
1092.190516,1378.971896,-74.020594,8882.471304
1092.190832,1225.752797,-296.082377,9622.677246
1092.191148,1302.362347,-370.102971,9252.574275
1092.191464,689.485948,-666.185348,8956.491898
1092.191779,842.705048,-888.247130,9770.718434
1092.192095,919.314598,-1036.288319,10584.944971
1092.192411,919.314598,-1036.288319,9696.697840
1092.192727,612.876398,-740.205942,9252.574275
1092.193043,459.657299,-1110.308913,9474.636058
1092.193358,1072.533697,-1036.288319,9696.697840
1092.193674,766.095498,-666.185348,9178.553681
1092.193990,1149.143247,-222.061783,9252.574275
1092.194306,1685.410096,-0.000000,9104.533087
1092.194621,1608.800546,-0.000000,8068.244768
1092.194937,1608.800546,-74.020594,8216.285956
1092.195253,1608.800546,-740.205942,8734.430116
1092.195569,1225.752797,-666.185348,9178.553681
1092.195885,766.095498,-1184.329507,9474.636058
1092.196200,229.828649,-1406.391290,9844.739029
1092.196516,229.828649,-1258.350101,10140.821405
1092.196832,0.000000,-1258.350101,9696.697840
1092.197148,153.219100,-1036.288319,9992.780217
1092.197464,459.657299,-1110.308913,9992.780217
1092.197779,306.438199,-740.205942,9104.533087
1092.198095,229.828649,-814.226536,9104.533087
1092.198411,536.266849,-962.267725,9548.656652
1092.198727,919.314598,-814.226536,9326.594869
1092.199042,612.876398,-0.000000,8882.471304
1092.199358,689.485948,-148.041188,8808.450710
1092.199674,995.924147,-518.144159,9252.574275
1092.199990,153.219100,-444.123565,9474.636058
1092.200306,-383.047749,-740.205942,9622.677246
1092.200621,0.000000,-1036.288319,10214.842000
1092.200937,-306.438199,-444.123565,9992.780217
1092.201253,-153.219100,-148.041188,9474.636058
1092.201569,0.000000,-962.267725,9770.718434
1092.201885,383.047749,-814.226536,10288.862594
1092.202200,306.438199,-222.061783,9252.574275
1092.202516,0.000000,-0.000000,9252.574275
1092.202832,229.828649,148.041188,9474.636058
1092.203148,459.657299,-0.000000,9622.677246
1092.203464,229.828649,814.226536,9622.677246
1092.203779,536.266849,962.267725,8808.450710
1092.204095,612.876398,370.102971,8660.409521
1092.204411,459.657299,592.164754,9252.574275
1092.204727,612.876398,592.164754,9104.533087
1092.205042,229.828649,888.247130,9178.553681
1092.205358,-153.219100,370.102971,9844.739029
1092.205674,-383.047749,-0.000000,9474.636058
1092.205990,-459.657299,370.102971,9844.739029
1092.206306,-459.657299,-74.020594,9918.759623
1092.206621,-612.876398,-148.041188,9770.718434
1092.206937,-536.266849,444.123565,9474.636058
1092.207253,0.000000,518.144159,9696.697840
1092.207569,153.219100,740.205942,9326.594869
1092.207885,306.438199,1184.329507,9252.574275
1092.208200,459.657299,1036.288319,9178.553681
1092.208516,383.047749,740.205942,8586.388927
1092.208832,459.657299,814.226536,9104.533087
1092.209148,0.000000,518.144159,9548.656652
1092.209463,383.047749,296.082377,10288.862594
1092.209779,-153.219100,296.082377,9918.759623
1092.210095,-459.657299,444.123565,9696.697840
1092.210411,0.000000,-0.000000,9992.780217
1092.210727,229.828649,-666.185348,10140.821405
1092.211042,153.219100,-444.123565,10140.821405
1092.211358,536.266849,-518.144159,10140.821405
1092.211674,766.095498,-148.041188,9474.636058
1092.211990,995.924147,-74.020594,10066.800811
1092.212306,1149.143247,370.102971,9474.636058
1092.212621,1302.362347,1036.288319,9252.574275
1092.212937,1532.190996,518.144159,8808.450710
1092.213253,1685.410096,222.061783,9030.512492
1092.213569,1149.143247,-0.000000,9400.615463
1092.213884,1072.533697,-296.082377,9622.677246
1092.214200,1149.143247,-592.164754,9918.759623
1092.214516,995.924147,-444.123565,9844.739029
1092.214832,536.266849,-814.226536,9696.697840
1092.215148,536.266849,-1036.288319,9474.636058
1092.215463,842.705048,-1036.288319,9844.739029
1092.215779,459.657299,-1776.494261,9844.739029
1092.216095,383.047749,-1184.329507,9918.759623
1092.216411,842.705048,-962.267725,9844.739029
1092.216727,1225.752797,-444.123565,9326.594869
1092.217042,842.705048,222.061783,8808.450710
1092.217358,1378.971896,-74.020594,8660.409521
1092.217674,1608.800546,-0.000000,8660.409521
1092.217990,1378.971896,-0.000000,8586.388927
1092.218306,612.876398,-296.082377,8956.491898
1092.218621,612.876398,-740.205942,9326.594869
1092.218937,383.047749,-1036.288319,9918.759623
1092.219253,0.000000,-962.267725,9844.739029
1092.219569,0.000000,-1184.329507,9474.636058
1092.219884,0.000000,-1332.370696,9622.677246
1092.220200,459.657299,-1036.288319,9474.636058
1092.220516,0.000000,-962.267725,9178.553681
1092.220832,0.000000,-1184.329507,10140.821405
1092.221148,153.219100,-814.226536,9474.636058
1092.221463,383.047749,-444.123565,8956.491898
1092.221779,766.095498,-592.164754,8660.409521
1092.222095,76.609550,-814.226536,8956.491898
1092.222411,306.438199,-222.061783,8808.450710
1092.222727,229.828649,-296.082377,9178.553681
1092.223042,-153.219100,-370.102971,9326.594869
1092.223358,-459.657299,-740.205942,9696.697840
1092.223674,-153.219100,-1184.329507,9918.759623
1092.223990,0.000000,-740.205942,9474.636058
1092.224305,0.000000,-1406.391290,9696.697840
1092.224621,0.000000,-962.267725,9548.656652
1092.224937,0.000000,-444.123565,9622.677246
1092.225253,76.609550,-444.123565,9622.677246
1092.225569,612.876398,222.061783,9474.636058
1092.225884,536.266849,888.247130,8660.409521
1092.226200,536.266849,962.267725,8734.430116
1092.226516,919.314598,296.082377,9326.594869
1092.226832,919.314598,-148.041188,9252.574275
1092.227148,306.438199,222.061783,9104.533087
1092.227463,0.000000,370.102971,9400.615463
1092.227779,459.657299,148.041188,10214.842000
1092.228095,612.876398,444.123565,9918.759623
1092.228411,0.000000,518.144159,9474.636058
1092.228726,153.219100,222.061783,9474.636058
1092.229042,0.000000,-444.123565,10140.821405
1092.229358,0.000000,222.061783,9992.780217
1092.229674,0.000000,148.041188,10510.924376
1092.229990,0.000000,518.144159,9918.759623
1092.230305,536.266849,888.247130,9918.759623
1092.230621,536.266849,1406.391290,8808.450710
1092.230937,612.876398,962.267725,8956.491898
1092.231253,766.095498,444.123565,9770.718434
1092.231569,306.438199,518.144159,9178.553681
1092.231884,0.000000,740.205942,9474.636058
1092.232200,0.000000,-296.082377,10732.986159
1092.232516,-229.828649,-518.144159,10140.821405
1092.232832,-536.266849,-0.000000,10140.821405
1092.233148,-153.219100,-0.000000,9770.718434
1092.233463,-76.609550,-0.000000,9918.759623
1092.233779,-76.609550,-0.000000,9992.780217
1092.234095,153.219100,-222.061783,10140.821405
1092.234411,153.219100,-444.123565,10436.903782
1092.234726,536.266849,-296.082377,10214.842000
1092.235042,1072.533697,370.102971,9400.615463
1092.235358,1072.533697,148.041188,8882.471304
1092.235674,1302.362347,-296.082377,9918.759623
1092.235990,1225.752797,222.061783,8956.491898
1092.236305,766.095498,148.041188,9104.533087
1092.236621,1149.143247,-74.020594,9400.615463
1092.236937,995.924147,-74.020594,9474.636058
1092.237253,536.266849,-222.061783,9548.656652
1092.237569,1072.533697,-962.267725,9696.697840
1092.237884,1072.533697,-1036.288319,9326.594869
1092.238200,612.876398,-592.164754,9252.574275
1092.238516,229.828649,-814.226536,9548.656652
1092.238832,1072.533697,-1110.308913,9622.677246
1092.239147,536.266849,-370.102971,9622.677246
1092.239463,612.876398,-0.000000,8734.430116
1092.239779,536.266849,-222.061783,8882.471304
1092.240095,306.438199,-518.144159,9252.574275
1092.240411,766.095498,-222.061783,9104.533087
1092.240726,612.876398,-222.061783,8734.430116
1092.241042,306.438199,-518.144159,9030.512492
1092.241358,383.047749,-1332.370696,9104.533087
1092.241674,76.609550,-1332.370696,9696.697840
1092.241990,76.609550,-1036.288319,9844.739029
1092.242305,0.000000,-1184.329507,9844.739029
1092.242621,229.828649,-1036.288319,9548.656652
1092.242937,383.047749,-1184.329507,9326.594869
1092.243253,306.438199,-740.205942,9178.553681
1092.243569,766.095498,-296.082377,9252.574275
1092.243884,689.485948,-444.123565,9252.574275
1092.244200,1072.533697,-444.123565,8882.471304
1092.244516,1072.533697,-740.205942,8956.491898
1092.244832,995.924147,-370.102971,8882.471304
1092.245147,459.657299,-222.061783,8882.471304
1092.245463,306.438199,-740.205942,9400.615463
1092.245779,383.047749,-666.185348,9918.759623
1092.246095,76.609550,-370.102971,9844.739029
1092.246411,0.000000,-666.185348,9992.780217
1092.246726,459.657299,-444.123565,9178.553681
1092.247042,153.219100,-370.102971,9178.553681
1092.247358,0.000000,-370.102971,9696.697840
1092.247674,76.609550,-666.185348,9622.677246
1092.247990,459.657299,-814.226536,10214.842000
1092.248305,306.438199,-74.020594,9548.656652
1092.248621,536.266849,74.020594,9326.594869
1092.248937,995.924147,-370.102971,9326.594869
1092.249253,1149.143247,-0.000000,9474.636058
1092.249568,536.266849,444.123565,9326.594869
1092.249884,689.485948,592.164754,9474.636058
1092.250200,919.314598,518.144159,9474.636058
1092.250516,766.095498,518.144159,9104.533087
1092.250832,536.266849,962.267725,9696.697840
1092.251147,612.876398,-74.020594,9474.636058
1092.251463,306.438199,-0.000000,9474.636058
1092.251779,-153.219100,148.041188,10066.800811
1092.252095,0.000000,-74.020594,9992.780217
1092.252411,383.047749,-222.061783,10288.862594
1092.252726,-383.047749,222.061783,9622.677246
1092.253042,-229.828649,666.185348,9622.677246
1092.253358,0.000000,370.102971,9844.739029
1092.253674,0.000000,-0.000000,9400.615463
1092.253989,-153.219100,-0.000000,9992.780217
1092.254305,-536.266849,444.123565,9918.759623
1092.254621,0.000000,-74.020594,10214.842000
1092.254937,-153.219100,370.102971,10066.800811
1092.255253,76.609550,-0.000000,9548.656652
1092.255568,-612.876398,-222.061783,10214.842000
1092.255884,153.219100,-296.082377,9770.718434
1092.256200,459.657299,592.164754,9622.677246
1092.256516,766.095498,148.041188,9474.636058
1092.256832,1072.533697,-0.000000,9770.718434
1092.257147,689.485948,296.082377,9696.697840
1092.257463,1378.971896,296.082377,9178.553681
1092.257779,1532.190996,-0.000000,9474.636058
1092.258095,1455.581446,-0.000000,9474.636058
1092.258411,995.924147,-0.000000,8882.471304
1092.258726,1225.752797,296.082377,9622.677246
1092.259042,612.876398,-518.144159,9622.677246
1092.259358,612.876398,-0.000000,9252.574275
1092.259674,536.266849,-0.000000,9474.636058
1092.259990,306.438199,-666.185348,9326.594869
1092.260305,459.657299,-518.144159,9844.739029
1092.260621,76.609550,-592.164754,9326.594869
1092.260937,229.828649,-444.123565,9474.636058
1092.261253,459.657299,-888.247130,9918.759623
1092.261569,689.485948,-814.226536,9474.636058
1092.261885,383.047749,222.061783,8956.491898
1092.262201,995.924147,-0.000000,8734.430116
1092.262516,1149.143247,-370.102971,8660.409521
1092.262832,689.485948,-222.061783,8956.491898
1092.263148,612.876398,-222.061783,8808.450710
1092.263464,612.876398,-370.102971,9918.759623
1092.263780,612.876398,-666.185348,9622.677246
1092.264096,612.876398,-0.000000,9030.512492
1092.264412,459.657299,-0.000000,8956.491898
1092.264727,459.657299,-740.205942,9622.677246
1092.265043,0.000000,-888.247130,9104.533087
1092.265359,-153.219100,-592.164754,8882.471304
1092.265675,-459.657299,-444.123565,9770.718434
1092.265991,-229.828649,-1036.288319,9548.656652
1092.266307,0.000000,-222.061783,9474.636058
1092.266623,229.828649,-814.226536,9400.615463
1092.266938,0.000000,-592.164754,9104.533087
1092.267254,306.438199,-740.205942,9474.636058
1092.267570,229.828649,-518.144159,9178.553681
1092.267886,459.657299,-592.164754,9474.636058
1092.268202,383.047749,-962.267725,9844.739029
1092.268518,306.438199,-518.144159,9474.636058
1092.268834,612.876398,-222.061783,9474.636058
1092.269149,689.485948,-444.123565,9548.656652
1092.269465,766.095498,-0.000000,9474.636058
1092.269781,306.438199,592.164754,9178.553681
1092.270097,536.266849,370.102971,8882.471304
1092.270413,689.485948,-222.061783,9622.677246
1092.270729,459.657299,-148.041188,9992.780217
1092.271045,306.438199,-0.000000,9474.636058
1092.271360,766.095498,-962.267725,8734.430116
1092.271676,306.438199,-296.082377,9844.739029
1092.271992,306.438199,370.102971,9622.677246
1092.272308,459.657299,296.082377,9474.636058
1092.272624,153.219100,444.123565,9696.697840
1092.272940,0.000000,-0.000000,10140.821405
1092.273256,0.000000,-0.000000,9474.636058
1092.273571,842.705048,-148.041188,9696.697840
1092.273887,766.095498,-0.000000,9400.615463
1092.274203,0.000000,444.123565,9104.533087
1092.274519,612.876398,222.061783,9326.594869
1092.274835,919.314598,-0.000000,9474.636058
1092.275151,612.876398,444.123565,9104.533087
1092.275467,229.828649,592.164754,9326.594869
1092.275783,536.266849,-74.020594,9548.656652
1092.276098,536.266849,-148.041188,9400.615463
1092.276414,76.609550,222.061783,9474.636058
1092.276730,76.609550,-0.000000,9548.656652
1092.277046,383.047749,-814.226536,9844.739029
1092.277362,306.438199,-740.205942,10140.821405
1092.277678,229.828649,-592.164754,9474.636058
1092.277994,153.219100,-444.123565,9474.636058
1092.278309,76.609550,-370.102971,9696.697840
1092.278625,306.438199,-0.000000,9400.615463
1092.278941,383.047749,-0.000000,9474.636058
1092.279257,689.485948,-518.144159,9474.636058
1092.279573,766.095498,-592.164754,9474.636058
1092.279889,766.095498,-592.164754,9770.718434
1092.280205,995.924147,-666.185348,9400.615463
1092.280520,1072.533697,-444.123565,9400.615463
1092.280836,1302.362347,-444.123565,9326.594869
1092.281152,919.314598,-74.020594,9622.677246
1092.281468,766.095498,-444.123565,9400.615463
1092.281784,612.876398,-518.144159,9548.656652
1092.282100,766.095498,-518.144159,9770.718434
1092.282416,919.314598,-740.205942,9252.574275
1092.282731,995.924147,-740.205942,9474.636058
1092.283047,842.705048,-370.102971,9622.677246
1092.283363,842.705048,-0.000000,9104.533087
1092.283679,766.095498,296.082377,8956.491898
1092.283995,1149.143247,-370.102971,9844.739029
1092.284311,766.095498,-444.123565,9770.718434
1092.284627,612.876398,-814.226536,9326.594869
1092.284942,459.657299,-444.123565,9696.697840
1092.285258,612.876398,-666.185348,9474.636058
1092.285574,842.705048,-592.164754,9400.615463
1092.285890,766.095498,-148.041188,9474.636058
1092.286206,459.657299,-666.185348,9474.636058
1092.286522,383.047749,-592.164754,9622.677246
1092.286838,383.047749,-740.205942,9326.594869
1092.287153,919.314598,-444.123565,9474.636058
1092.287469,689.485948,-74.020594,9474.636058
1092.287785,306.438199,518.144159,8512.368333
1092.288101,383.047749,148.041188,9178.553681
1092.288417,229.828649,-444.123565,9844.739029
1092.288733,0.000000,-74.020594,9622.677246
1092.289049,0.000000,-0.000000,9400.615463
1092.289364,0.000000,-592.164754,9178.553681
1092.289680,0.000000,-888.247130,10140.821405
1092.289996,-153.219100,-296.082377,9992.780217
1092.290312,-612.876398,-1184.329507,9844.739029
1092.290628,0.000000,-592.164754,10140.821405
1092.290944,0.000000,-148.041188,9696.697840
1092.291260,153.219100,-0.000000,9252.574275
1092.291576,306.438199,-148.041188,9400.615463
1092.291891,919.314598,-444.123565,9474.636058
1092.292207,536.266849,518.144159,8734.430116
1092.292523,383.047749,518.144159,8586.388927
1092.292839,766.095498,-0.000000,9474.636058
1092.293155,842.705048,-0.000000,9548.656652
1092.293471,842.705048,296.082377,9030.512492
1092.293787,766.095498,-74.020594,9104.533087
1092.294102,689.485948,-222.061783,9474.636058
1092.294418,153.219100,-296.082377,9474.636058
1092.294734,76.609550,-0.000000,9622.677246
1092.295050,0.000000,-0.000000,10066.800811
1092.295366,-153.219100,-0.000000,10140.821405
1092.295682,0.000000,-74.020594,10066.800811
1092.295998,0.000000,-74.020594,9622.677246
1092.296313,0.000000,-74.020594,9770.718434
1092.296629,383.047749,-0.000000,9400.615463
1092.296945,383.047749,666.185348,9104.533087
1092.297261,459.657299,592.164754,10288.862594
1092.297577,766.095498,370.102971,9548.656652
1092.297893,306.438199,592.164754,9178.553681
1092.298209,612.876398,148.041188,9548.656652
1092.298524,306.438199,296.082377,9474.636058
1092.298840,229.828649,518.144159,9622.677246
1092.299156,153.219100,518.144159,9770.718434
1092.299472,306.438199,-74.020594,9918.759623
1092.299788,229.828649,-222.061783,10436.903782
1092.300104,459.657299,-0.000000,9696.697840
1092.300420,306.438199,-74.020594,9622.677246
1092.300735,689.485948,-444.123565,10140.821405
1092.301051,536.266849,-74.020594,9474.636058
1092.301367,306.438199,222.061783,9696.697840
1092.301683,612.876398,-0.000000,9400.615463
1092.301999,612.876398,-518.144159,9400.615463
1092.302315,383.047749,-296.082377,9474.636058
1092.302631,842.705048,-370.102971,9474.636058
1092.302946,1149.143247,-962.267725,9178.553681
1092.303262,459.657299,-444.123565,9326.594869
1092.303578,536.266849,-148.041188,9622.677246
1092.303894,766.095498,-666.185348,9844.739029
1092.304210,536.266849,-814.226536,9770.718434
1092.304526,612.876398,-962.267725,9844.739029
1092.304842,536.266849,-814.226536,9548.656652
1092.305157,995.924147,-962.267725,9030.512492
1092.305473,766.095498,-666.185348,9474.636058
1092.305789,689.485948,-0.000000,9474.636058
1092.306105,1225.752797,-296.082377,8956.491898
1092.306421,689.485948,-148.041188,9104.533087
1092.306737,383.047749,518.144159,9104.533087
1092.307053,536.266849,-148.041188,8734.430116
1092.307369,766.095498,-444.123565,9696.697840
1092.307684,-153.219100,-666.185348,9622.677246
1092.308000,-153.219100,-1036.288319,9844.739029
1092.308316,0.000000,-962.267725,9770.718434
1092.308632,153.219100,-962.267725,9992.780217
1092.308948,0.000000,-814.226536,9844.739029
1092.309264,76.609550,-666.185348,9548.656652
1092.309580,383.047749,-444.123565,9918.759623
1092.309895,995.924147,-148.041188,9104.533087
1092.310211,919.314598,592.164754,8438.347739
1092.310527,919.314598,592.164754,8808.450710
1092.310843,1149.143247,-74.020594,9400.615463
1092.311159,842.705048,-0.000000,9030.512492
1092.311475,766.095498,-0.000000,9104.533087
1092.311791,459.657299,-444.123565,9326.594869
1092.312106,459.657299,-518.144159,9400.615463
1092.312422,306.438199,-518.144159,9474.636058
1092.312738,-306.438199,-1036.288319,9770.718434
1092.313054,0.000000,-592.164754,10288.862594
1092.313370,-153.219100,-592.164754,9770.718434
1092.313686,76.609550,-296.082377,9400.615463
1092.314002,0.000000,-666.185348,9770.718434
1092.314317,536.266849,-148.041188,9326.594869
1092.314633,689.485948,296.082377,8734.430116
1092.314949,383.047749,222.061783,9178.553681
1092.315265,689.485948,-296.082377,9548.656652
1092.315581,766.095498,666.185348,9474.636058
1092.315897,689.485948,666.185348,8660.409521
1092.316213,306.438199,-0.000000,9104.533087
1092.316528,919.314598,370.102971,9474.636058
1092.316844,612.876398,592.164754,9030.512492
1092.317160,0.000000,666.185348,8956.491898
1092.317476,153.219100,-148.041188,9992.780217
1092.317792,0.000000,-0.000000,9770.718434
1092.318108,-229.828649,148.041188,9918.759623
1092.318424,0.000000,-148.041188,9918.759623
1092.318739,306.438199,-74.020594,9696.697840
1092.319055,0.000000,592.164754,9548.656652
1092.319371,0.000000,370.102971,9474.636058
1092.319687,383.047749,-0.000000,9770.718434
1092.320003,383.047749,518.144159,9548.656652
1092.320319,229.828649,518.144159,8956.491898
1092.320635,0.000000,592.164754,9400.615463
1092.320950,689.485948,370.102971,9474.636058
1092.321266,76.609550,444.123565,9400.615463
1092.321582,-306.438199,370.102971,9622.677246
1092.321898,0.000000,-518.144159,10066.800811
1092.322214,-306.438199,-222.061783,10066.800811
1092.322530,0.000000,-444.123565,10066.800811
1092.322846,153.219100,-1110.308913,10214.842000
1092.323162,383.047749,-518.144159,10066.800811
1092.323477,689.485948,-148.041188,9252.574275
1092.323793,842.705048,370.102971,9178.553681
1092.324109,995.924147,74.020594,9326.594869
1092.324425,1149.143247,-222.061783,9548.656652
1092.324741,1455.581446,-0.000000,9326.594869
1092.325057,76.609550,-370.102971,9030.512492
1092.325373,766.095498,-740.205942,9696.697840
1092.325688,766.095498,-740.205942,9770.718434
1092.326004,612.876398,-74.020594,8734.430116
1092.326320,76.609550,-444.123565,9918.759623
1092.326636,0.000000,-1332.370696,10288.862594
1092.326952,153.219100,-962.267725,9474.636058
1092.327268,383.047749,-740.205942,9696.697840
1092.327584,536.266849,-1554.432478,9622.677246
1092.327899,995.924147,-1184.329507,9178.553681
1092.328215,919.314598,-592.164754,8586.388927
1092.328531,1149.143247,-296.082377,9104.533087
1092.328847,1302.362347,-592.164754,9548.656652
1092.329163,1072.533697,-296.082377,9030.512492
1092.329479,995.924147,-222.061783,8512.368333
1092.329795,1455.581446,-592.164754,8956.491898
1092.330110,1455.581446,-370.102971,8734.430116
1092.330426,1149.143247,-0.000000,8438.347739
1092.330742,612.876398,-518.144159,9030.512492
1092.331058,766.095498,-1110.308913,9622.677246
1092.331374,306.438199,-1332.370696,9770.718434
1092.331690,0.000000,-1184.329507,9918.759623
1092.332006,383.047749,-1554.432478,9992.780217
1092.332321,306.438199,-740.205942,9326.594869
1092.332637,306.438199,-0.000000,8438.347739
1092.332953,383.047749,-148.041188,8956.491898
1092.333269,153.219100,-814.226536,9696.697840
1092.333585,995.924147,-74.020594,9400.615463
1092.333901,306.438199,296.082377,8216.285956
1092.334217,612.876398,-74.020594,8660.409521
1092.334532,689.485948,-296.082377,9400.615463
1092.334848,536.266849,-0.000000,8882.471304
1092.335164,-76.609550,-148.041188,9844.739029
1092.335480,0.000000,-814.226536,10436.903782
1092.335796,0.000000,-370.102971,9696.697840
1092.336112,0.000000,-222.061783,9622.677246
1092.336428,229.828649,-444.123565,9622.677246
1092.336743,459.657299,-444.123565,9696.697840
1092.337059,76.609550,-0.000000,9474.636058
1092.337375,842.705048,-0.000000,9252.574275
1092.337691,229.828649,148.041188,9400.615463
1092.338007,842.705048,518.144159,9178.553681
1092.338323,459.657299,1036.288319,8882.471304
1092.338639,612.876398,592.164754,9400.615463
1092.338954,1149.143247,444.123565,9104.533087
1092.339270,229.828649,518.144159,9104.533087
1092.339586,-153.219100,148.041188,9918.759623
1092.339902,229.828649,-74.020594,10510.924376
1092.340218,-306.438199,444.123565,9844.739029
1092.340534,-459.657299,-0.000000,9844.739029
1092.340850,0.000000,-0.000000,9770.718434
1092.341166,0.000000,-0.000000,9992.780217
1092.341481,-229.828649,518.144159,9474.636058
1092.341797,0.000000,222.061783,9844.739029
1092.342113,0.000000,-296.082377,9992.780217
1092.342429,-153.219100,148.041188,9548.656652
1092.342745,153.219100,-0.000000,9622.677246
1092.343061,459.657299,740.205942,9770.718434
1092.343377,612.876398,740.205942,9622.677246
1092.343692,612.876398,444.123565,9252.574275
1092.344008,612.876398,1110.308913,9178.553681
1092.344324,229.828649,148.041188,9474.636058
1092.344640,689.485948,-296.082377,9770.718434
1092.344956,383.047749,-518.144159,9992.780217
1092.345272,229.828649,-666.185348,9918.759623
1092.345588,689.485948,-296.082377,9918.759623
1092.345903,689.485948,-148.041188,9474.636058
1092.346219,766.095498,296.082377,9178.553681
1092.346535,1225.752797,-296.082377,9548.656652
1092.346851,1225.752797,-888.247130,9030.512492
1092.347167,459.657299,-74.020594,9400.615463
1092.347483,766.095498,-0.000000,9030.512492
1092.347799,1225.752797,-592.164754,9252.574275
1092.348114,1149.143247,-370.102971,9400.615463
1092.348430,459.657299,-74.020594,9104.533087
1092.348746,612.876398,-814.226536,9474.636058
1092.349062,459.657299,-1258.350101,9844.739029
1092.349378,383.047749,-888.247130,9474.636058
1092.349694,919.314598,-1258.350101,9474.636058
1092.350010,1072.533697,-1184.329507,9622.677246
1092.350325,919.314598,-1184.329507,9474.636058
1092.350641,995.924147,-740.205942,8734.430116
1092.350957,1149.143247,-370.102971,9548.656652
1092.351273,1532.190996,-592.164754,9252.574275
1092.351589,1302.362347,222.061783,8734.430116
1092.351905,1072.533697,222.061783,8364.327145
1092.352221,919.314598,-666.185348,8734.430116
1092.352536,689.485948,-740.205942,9178.553681
1092.352852,229.828649,-666.185348,9252.574275
1092.353168,76.609550,-1036.288319,9400.615463
1092.353484,76.609550,-1332.370696,9992.780217
1092.353800,-306.438199,-740.205942,10140.821405
1092.354116,-306.438199,-888.247130,9474.636058
1092.354432,0.000000,-962.267725,9252.574275
1092.354747,0.000000,-814.226536,9400.615463
1092.355063,0.000000,-370.102971,9252.574275
1092.355379,0.000000,-888.247130,9844.739029
1092.355695,766.095498,-814.226536,9770.718434
1092.356011,-306.438199,-444.123565,9104.533087
1092.356327,306.438199,-0.000000,8290.306550
1092.356643,383.047749,-0.000000,8882.471304
1092.356959,766.095498,-518.144159,9326.594869
1092.357274,612.876398,-0.000000,9178.553681
1092.357590,153.219100,-0.000000,9474.636058
1092.357906,153.219100,-888.247130,9918.759623
1092.358222,306.438199,-222.061783,9770.718434
1092.358538,153.219100,-148.041188,9622.677246
1092.358854,689.485948,-296.082377,9400.615463
1092.359170,689.485948,-148.041188,9474.636058
1092.359485,229.828649,222.061783,9474.636058
1092.359801,306.438199,444.123565,9474.636058
1092.360117,306.438199,-74.020594,9548.656652
1092.360433,689.485948,370.102971,9622.677246
1092.360749,76.609550,370.102971,9178.553681
1092.361065,536.266849,-0.000000,9770.718434
1092.361381,536.266849,296.082377,9548.656652
1092.361697,153.219100,592.164754,9548.656652
1092.362012,229.828649,666.185348,9326.594869
1092.362328,76.609550,-0.000000,9918.759623
1092.362644,229.828649,296.082377,10066.800811
1092.362960,0.000000,518.144159,9696.697840
1092.363276,383.047749,962.267725,9622.677246
1092.363592,995.924147,296.082377,9474.636058
1092.363908,383.047749,592.164754,9252.574275
1092.364224,306.438199,962.267725,9326.594869
1092.364540,383.047749,444.123565,9326.594869
1092.364855,0.000000,444.123565,10066.800811
1092.365171,-229.828649,888.247130,9474.636058
1092.365487,0.000000,444.123565,9252.574275
1092.365803,383.047749,-0.000000,9770.718434
1092.366119,-76.609550,148.041188,9696.697840
1092.366435,-459.657299,148.041188,9252.574275
1092.366751,-153.219100,-0.000000,9992.780217
1092.367067,-306.438199,-296.082377,10214.842000
1092.367383,-383.047749,-222.061783,10066.800811
1092.367698,-229.828649,-296.082377,9622.677246
1092.368014,-536.266849,-518.144159,9622.677246
1092.368330,76.609550,-0.000000,9474.636058
1092.368646,536.266849,-0.000000,9030.512492
1092.368962,766.095498,-74.020594,9326.594869
1092.369278,995.924147,-148.041188,9770.718434
1092.369594,1149.143247,222.061783,9474.636058
1092.369910,1378.971896,370.102971,8512.368333
1092.370226,1302.362347,-0.000000,9178.553681
1092.370541,1455.581446,-0.000000,9474.636058
1092.370857,1378.971896,222.061783,9030.512492
1092.371173,1378.971896,222.061783,9326.594869
1092.371489,995.924147,-740.205942,9918.759623
1092.371805,383.047749,-1406.391290,9696.697840
1092.372121,842.705048,-1258.350101,9844.739029
1092.372437,919.314598,-1554.432478,9474.636058
1092.372753,995.924147,-888.247130,9104.533087
1092.373069,536.266849,-444.123565,9400.615463
1092.373385,689.485948,-888.247130,9252.574275
1092.373700,1302.362347,-1184.329507,9770.718434
1092.374016,612.876398,-370.102971,9326.594869
1092.374332,536.266849,-444.123565,8734.430116
1092.374648,1072.533697,-666.185348,8882.471304
1092.374964,1225.752797,-962.267725,9252.574275
1092.375280,766.095498,-592.164754,9400.615463
1092.375596,536.266849,-1036.288319,9178.553681
1092.375912,0.000000,-1036.288319,9548.656652
1092.376228,383.047749,-1184.329507,9696.697840
1092.376543,229.828649,-814.226536,9474.636058
1092.376859,689.485948,-666.185348,9400.615463
1092.377175,536.266849,-666.185348,9474.636058
1092.377491,459.657299,-296.082377,9252.574275
1092.377807,153.219100,-296.082377,9178.553681
1092.378123,229.828649,-592.164754,9696.697840
1092.378439,0.000000,-740.205942,9622.677246
1092.378755,0.000000,-370.102971,9252.574275
1092.379071,0.000000,-962.267725,9252.574275
1092.379386,0.000000,-444.123565,9030.512492
1092.379702,-229.828649,-740.205942,9474.636058
1092.380018,153.219100,-1554.432478,9918.759623
1092.380334,0.000000,-962.267725,10214.842000
1092.380650,76.609550,-740.205942,9992.780217
1092.380966,0.000000,-296.082377,9326.594869
1092.381282,383.047749,-222.061783,9104.533087
1092.381598,536.266849,-666.185348,9326.594869
1092.381914,766.095498,-148.041188,9178.553681
1092.382229,689.485948,296.082377,9400.615463
1092.382545,689.485948,-0.000000,8882.471304
1092.382861,766.095498,296.082377,8956.491898
1092.383177,0.000000,814.226536,9030.512492
1092.383493,459.657299,592.164754,8882.471304
1092.383809,306.438199,444.123565,9104.533087
1092.384125,0.000000,148.041188,9474.636058
1092.384441,0.000000,148.041188,9770.718434
1092.384757,-383.047749,-148.041188,10436.903782
1092.385073,0.000000,-148.041188,10584.944971
1092.385388,-536.266849,-74.020594,9992.780217
1092.385704,0.000000,-0.000000,9770.718434
1092.386020,229.828649,296.082377,9696.697840
1092.386336,536.266849,518.144159,9770.718434
1092.386652,689.485948,1554.432478,9252.574275
1092.386968,612.876398,1036.288319,9178.553681
1092.387284,612.876398,1332.370696,9326.594869
1092.387600,612.876398,1554.432478,9400.615463
1092.387916,689.485948,1184.329507,9326.594869
1092.388231,689.485948,666.185348,9474.636058
1092.388547,76.609550,-0.000000,9844.739029
1092.388863,0.000000,-0.000000,9622.677246
1092.389179,-459.657299,-296.082377,10214.842000
1092.389495,-689.485948,-740.205942,10955.047942
1092.389811,-459.657299,-296.082377,10807.006753
1092.390127,-383.047749,296.082377,9918.759623
1092.390443,0.000000,-222.061783,9622.677246
1092.390759,-153.219100,-370.102971,9844.739029
1092.391074,153.219100,-74.020594,9252.574275
1092.391390,383.047749,-222.061783,9770.718434
1092.391706,689.485948,-518.144159,9918.759623
1092.392022,689.485948,296.082377,9474.636058
1092.392338,1072.533697,-0.000000,8512.368333
1092.392654,1225.752797,-444.123565,9030.512492
1092.392970,995.924147,-518.144159,9622.677246
1092.393286,689.485948,-0.000000,9622.677246
1092.393602,1225.752797,-222.061783,9622.677246
1092.393917,1072.533697,-592.164754,9696.697840
1092.394233,995.924147,-592.164754,9696.697840
1092.394549,1149.143247,-888.247130,9770.718434
1092.394865,1608.800546,-814.226536,9400.615463
1092.395181,1225.752797,-888.247130,9252.574275
1092.395497,1072.533697,-518.144159,9474.636058
1092.395813,1225.752797,-0.000000,9474.636058
1092.396129,1685.410096,-0.000000,9030.512492
1092.396445,995.924147,666.185348,9178.553681
1092.396761,1302.362347,296.082377,8512.368333
1092.397076,1302.362347,-222.061783,8808.450710
1092.397392,1072.533697,-740.205942,9400.615463
1092.397708,459.657299,-962.267725,9770.718434
1092.398024,536.266849,-1036.288319,9622.677246
1092.398340,153.219100,-1702.473667,9844.739029
1092.398656,-153.219100,-1776.494261,10288.862594
1092.398972,0.000000,-1332.370696,9992.780217
1092.399288,383.047749,-1184.329507,9030.512492
1092.399604,383.047749,-814.226536,9696.697840
1092.399919,229.828649,-740.205942,9104.533087
1092.400235,689.485948,-518.144159,8734.430116
1092.400551,1072.533697,-592.164754,9400.615463
1092.400867,536.266849,-444.123565,8808.450710
1092.401183,766.095498,-148.041188,8512.368333
1092.401499,842.705048,-740.205942,8882.471304
1092.401815,383.047749,-1036.288319,8956.491898
1092.402131,0.000000,-962.267725,9548.656652
1092.402447,-153.219100,-962.267725,9400.615463
1092.402762,-459.657299,-1406.391290,10066.800811
1092.403078,-306.438199,-1332.370696,10362.883188
1092.403394,-229.828649,-592.164754,9844.739029
1092.403710,153.219100,-296.082377,8956.491898
1092.404026,536.266849,-444.123565,9548.656652
1092.404342,383.047749,-370.102971,9030.512492
1092.404658,229.828649,-148.041188,9030.512492
1092.404974,689.485948,-148.041188,9474.636058
1092.405290,919.314598,-0.000000,9178.553681
1092.405606,766.095498,592.164754,8808.450710
1092.405921,459.657299,1110.308913,9030.512492
1092.406237,383.047749,592.164754,9178.553681
1092.406553,383.047749,740.205942,9400.615463
1092.406869,0.000000,888.247130,9030.512492
1092.407185,0.000000,518.144159,9548.656652
1092.407501,-459.657299,-592.164754,10066.800811
1092.407817,-229.828649,-0.000000,10436.903782
1092.408133,-306.438199,-518.144159,9844.739029
1092.408449,0.000000,-0.000000,10436.903782
1092.408764,0.000000,444.123565,9326.594869
1092.409080,-229.828649,962.267725,9252.574275
1092.409396,459.657299,962.267725,9770.718434
1092.409712,383.047749,888.247130,9474.636058
1092.410028,229.828649,1628.453072,9400.615463
1092.410344,0.000000,1110.308913,8808.450710
1092.410660,0.000000,962.267725,9326.594869
1092.410976,383.047749,740.205942,9918.759623
1092.411292,-612.876398,1036.288319,9474.636058
1092.411607,-689.485948,222.061783,9696.697840
1092.411923,-459.657299,-222.061783,11399.171507
1092.412239,-766.095498,-740.205942,10584.944971
1092.412555,-1149.143247,-666.185348,11029.068536
1092.412871,-306.438199,-888.247130,10436.903782
1092.413187,-383.047749,-296.082377,9992.780217
1092.413503,153.219100,814.226536,10066.800811
1092.413819,842.705048,370.102971,9844.739029
1092.414135,1225.752797,222.061783,9400.615463
1092.414450,1225.752797,814.226536,9326.594869
1092.414766,1532.190996,888.247130,8586.388927
1092.415082,1608.800546,-148.041188,8512.368333
1092.415398,1608.800546,-0.000000,9474.636058
1092.415714,995.924147,296.082377,9326.594869
1092.416030,1072.533697,148.041188,9474.636058
1092.416346,995.924147,-296.082377,9992.780217
1092.416662,919.314598,-444.123565,9252.574275
1092.416978,383.047749,-0.000000,9770.718434
1092.417294,995.924147,-1184.329507,9770.718434
1092.417609,1072.533697,-1480.411884,10362.883188
1092.417925,842.705048,-740.205942,9622.677246
1092.418241,1149.143247,-814.226536,9474.636058
1092.418557,1455.581446,-666.185348,9696.697840
1092.418873,1608.800546,-222.061783,9178.553681
1092.419189,1455.581446,444.123565,7994.224174
1092.419505,1685.410096,518.144159,8808.450710
1092.419821,1608.800546,-0.000000,9252.574275
1092.420137,919.314598,-148.041188,8956.491898
1092.420452,689.485948,-518.144159,9104.533087
1092.420768,612.876398,-1184.329507,10140.821405
1092.421084,612.876398,-1036.288319,10510.924376
1092.421400,459.657299,-1110.308913,9252.574275
1092.421716,229.828649,-1332.370696,9696.697840
1092.422032,306.438199,-1702.473667,9918.759623
1092.422348,383.047749,-1332.370696,9474.636058
1092.422664,689.485948,-740.205942,9696.697840
1092.422980,383.047749,-1332.370696,9622.677246
1092.423295,842.705048,-296.082377,8882.471304
1092.423611,766.095498,148.041188,8660.409521
1092.423927,766.095498,-148.041188,8586.388927
1092.424243,919.314598,-814.226536,8956.491898
1092.424559,459.657299,-222.061783,8808.450710
1092.424875,0.000000,-740.205942,8956.491898
1092.425191,0.000000,-1554.432478,10140.821405
1092.425507,-459.657299,-1850.514855,9844.739029
1092.425823,-383.047749,-1554.432478,9696.697840
1092.426138,-459.657299,-1332.370696,9474.636058
1092.426454,-153.219100,-1406.391290,9918.759623
1092.426770,-459.657299,-592.164754,9030.512492
1092.427086,0.000000,-148.041188,9104.533087
1092.427402,536.266849,-74.020594,9178.553681
1092.427718,536.266849,-74.020594,8956.491898
1092.428034,536.266849,740.205942,8364.327145
1092.428350,766.095498,592.164754,8438.347739
1092.428666,842.705048,-0.000000,8808.450710
1092.428982,229.828649,444.123565,8586.388927
1092.429297,153.219100,888.247130,9400.615463
1092.429613,-459.657299,-148.041188,9474.636058
1092.429929,-459.657299,-0.000000,9918.759623
1092.430245,-306.438199,148.041188,10066.800811
1092.430561,-612.876398,-74.020594,9844.739029
1092.430877,-153.219100,-222.061783,9844.739029
1092.431193,-306.438199,148.041188,9696.697840
1092.431509,-459.657299,148.041188,9844.739029
1092.431825,-153.219100,518.144159,10288.862594
1092.432140,306.438199,-0.000000,9770.718434
1092.432456,153.219100,1110.308913,9400.615463
1092.432772,383.047749,1036.288319,9252.574275
1092.433088,766.095498,888.247130,9548.656652
1092.433404,842.705048,888.247130,9548.656652
1092.433720,459.657299,740.205942,9474.636058
1092.434036,536.266849,444.123565,9770.718434
1092.434352,612.876398,222.061783,10140.821405
1092.434668,306.438199,222.061783,10140.821405
1092.434983,229.828649,-0.000000,10214.842000
1092.435299,0.000000,-222.061783,10066.800811
1092.435615,229.828649,-370.102971,9918.759623
1092.435931,-229.828649,370.102971,9992.780217
1092.436247,229.828649,-148.041188,10066.800811
1092.436563,1072.533697,-370.102971,10362.883188
1092.436879,842.705048,-222.061783,9844.739029
1092.437195,842.705048,-0.000000,9474.636058
1092.437511,1149.143247,-0.000000,9474.636058
1092.437826,1378.971896,-0.000000,9548.656652
1092.438142,995.924147,370.102971,8882.471304
1092.438458,1072.533697,666.185348,9178.553681
1092.438774,919.314598,-0.000000,9400.615463
1092.439090,1225.752797,-592.164754,9844.739029
1092.439406,383.047749,-444.123565,9326.594869
1092.439722,766.095498,-666.185348,9474.636058
1092.440038,766.095498,-1036.288319,9548.656652
1092.440354,536.266849,-962.267725,9178.553681
1092.440670,612.876398,-296.082377,10066.800811
1092.440985,612.876398,-444.123565,9770.718434
1092.441301,919.314598,-296.082377,9178.553681
1092.441617,919.314598,-0.000000,9030.512492
1092.441933,766.095498,148.041188,8660.409521
1092.442249,1225.752797,222.061783,8216.285956
1092.442565,842.705048,-370.102971,8734.430116
1092.442881,612.876398,-148.041188,9252.574275
1092.443197,76.609550,-888.247130,9474.636058
1092.443513,0.000000,-1110.308913,9844.739029
1092.443828,-229.828649,-814.226536,9770.718434
1092.444144,0.000000,-1184.329507,9622.677246
1092.444460,76.609550,-1628.453072,9178.553681
1092.444776,-306.438199,-888.247130,9844.739029
1092.445092,0.000000,-1184.329507,9844.739029
1092.445408,383.047749,-814.226536,9252.574275
1092.445724,383.047749,-296.082377,8808.450710
1092.446040,536.266849,-0.000000,9030.512492
1092.446356,612.876398,-148.041188,8216.285956
1092.446671,1302.362347,-148.041188,8438.347739
1092.446987,766.095498,-148.041188,9030.512492
1092.447303,612.876398,-370.102971,9178.553681
1092.447619,-229.828649,-888.247130,9252.574275
1092.447935,-153.219100,-1036.288319,9474.636058
1092.448251,-229.828649,-1332.370696,9918.759623
1092.448567,0.000000,-1332.370696,10288.862594
1092.448883,0.000000,-1110.308913,9770.718434
1092.449199,-459.657299,-1110.308913,10140.821405
1092.449514,-459.657299,-444.123565,9992.780217
1092.449830,0.000000,-148.041188,9474.636058
1092.450146,229.828649,-0.000000,9474.636058
1092.450462,459.657299,444.123565,9178.553681
1092.450778,612.876398,370.102971,8586.388927
1092.451094,842.705048,-0.000000,8808.450710
1092.451410,612.876398,296.082377,9326.594869
1092.451726,229.828649,518.144159,9104.533087
1092.452042,612.876398,518.144159,9474.636058
1092.452358,459.657299,296.082377,9622.677246
1092.452673,153.219100,592.164754,9696.697840
1092.452989,306.438199,740.205942,9474.636058
1092.453305,459.657299,-74.020594,9474.636058
1092.453621,0.000000,-444.123565,9992.780217
1092.453937,76.609550,-0.000000,10066.800811
1092.454253,76.609550,-0.000000,9770.718434
1092.454569,76.609550,-74.020594,9918.759623
1092.454885,0.000000,444.123565,9696.697840
1092.455201,306.438199,814.226536,9326.594869
1092.455516,306.438199,518.144159,9400.615463
1092.455832,459.657299,666.185348,9474.636058
1092.456148,689.485948,1184.329507,9622.677246
1092.456464,229.828649,666.185348,9326.594869
1092.456780,536.266849,-0.000000,10288.862594
1092.457096,536.266849,-148.041188,10214.842000
1092.457412,306.438199,-74.020594,9622.677246
1092.457728,612.876398,-148.041188,9918.759623
1092.458044,306.438199,-296.082377,9844.739029
1092.458359,383.047749,-222.061783,10140.821405
1092.458675,459.657299,666.185348,9474.636058
1092.458991,995.924147,-148.041188,9548.656652
1092.459307,842.705048,-74.020594,9918.759623
1092.459623,842.705048,-0.000000,9400.615463
1092.459939,1072.533697,-296.082377,9104.533087
1092.460255,1608.800546,-518.144159,9474.636058
1092.460571,1302.362347,-0.000000,8586.388927
1092.460887,1072.533697,-0.000000,8956.491898
1092.461203,1072.533697,-962.267725,9770.718434
1092.461518,612.876398,-222.061783,9844.739029
1092.461834,306.438199,-148.041188,9178.553681
1092.462150,689.485948,-1184.329507,9548.656652
1092.462466,459.657299,-1036.288319,9770.718434
1092.462782,76.609550,-370.102971,9326.594869
1092.463098,766.095498,-518.144159,9474.636058
1092.463413,766.095498,-296.082377,8956.491898
1092.463729,459.657299,222.061783,9252.574275
1092.464045,383.047749,-370.102971,9178.553681
1092.464361,459.657299,-444.123565,8956.491898
1092.464677,459.657299,-444.123565,9252.574275
1092.464993,612.876398,-0.000000,8882.471304
1092.465309,612.876398,370.102971,8660.409521
1092.465624,995.924147,-962.267725,9548.656652
1092.465940,153.219100,-592.164754,9696.697840
1092.466256,-229.828649,-370.102971,9474.636058
1092.466572,0.000000,-666.185348,9474.636058
1092.466888,0.000000,-740.205942,9474.636058
1092.467204,-306.438199,-962.267725,9622.677246
1092.467519,0.000000,-1184.329507,9992.780217
1092.467835,0.000000,-888.247130,9474.636058
1092.468151,0.000000,-666.185348,9622.677246
1092.468467,153.219100,-518.144159,9326.594869
1092.468783,306.438199,-592.164754,8734.430116
1092.469099,229.828649,-888.247130,9326.594869
1092.469414,689.485948,-518.144159,9326.594869
1092.469730,383.047749,-148.041188,8734.430116
1092.470046,536.266849,-74.020594,9474.636058
1092.470362,1072.533697,-666.185348,8882.471304
1092.470678,612.876398,-370.102971,8438.347739
1092.470994,766.095498,-296.082377,9696.697840
1092.471310,689.485948,-740.205942,9696.697840
1092.471625,383.047749,-518.144159,9178.553681
1092.471941,383.047749,-148.041188,9696.697840
1092.472257,0.000000,-592.164754,9770.718434
1092.472573,383.047749,-222.061783,10288.862594
1092.472889,153.219100,518.144159,9178.553681
1092.473205,0.000000,296.082377,9030.512492
1092.473520,459.657299,-666.185348,9622.677246
1092.473836,536.266849,-592.164754,9770.718434
1092.474152,229.828649,148.041188,9252.574275
1092.474468,76.609550,-0.000000,9770.718434
1092.474784,0.000000,148.041188,9918.759623
1092.475100,229.828649,814.226536,9400.615463
1092.475415,306.438199,1110.308913,9326.594869
1092.475731,383.047749,592.164754,9178.553681
1092.476047,459.657299,740.205942,9326.594869
1092.476363,383.047749,444.123565,9696.697840
1092.476679,0.000000,-148.041188,9992.780217
1092.476995,383.047749,148.041188,10214.842000
1092.477311,0.000000,222.061783,9474.636058
1092.477626,0.000000,444.123565,9770.718434
1092.477942,1072.533697,222.061783,9622.677246
1092.478258,383.047749,518.144159,9252.574275
1092.478574,-76.609550,888.247130,9548.656652
1092.478890,-459.657299,444.123565,9622.677246
1092.479206,0.000000,-74.020594,10066.800811
1092.479521,-153.219100,-370.102971,10362.883188
1092.479837,-536.266849,-222.061783,9770.718434
1092.480153,153.219100,-296.082377,9918.759623
1092.480469,306.438199,-444.123565,9844.739029
1092.480785,0.000000,-0.000000,9400.615463
1092.481101,229.828649,-296.082377,9622.677246
1092.481416,306.438199,-740.205942,9696.697840
1092.481732,306.438199,-370.102971,9474.636058
1092.482048,459.657299,-0.000000,9622.677246
1092.482364,1302.362347,-74.020594,9326.594869
1092.482680,1608.800546,-0.000000,9252.574275
1092.482996,1378.971896,518.144159,8956.491898
1092.483312,1072.533697,222.061783,8364.327145
1092.483627,1455.581446,-148.041188,9474.636058
1092.483943,1225.752797,-296.082377,9252.574275
1092.484259,842.705048,-962.267725,9104.533087
1092.484575,689.485948,-888.247130,9696.697840
1092.484891,766.095498,-1332.370696,9918.759623
1092.485207,459.657299,-296.082377,9178.553681
1092.485522,689.485948,-0.000000,8956.491898
1092.485838,383.047749,-74.020594,8734.430116
1092.486154,536.266849,-74.020594,9030.512492
1092.486470,459.657299,-740.205942,9474.636058
1092.486786,536.266849,-1110.308913,9104.533087
1092.487102,995.924147,-1332.370696,9400.615463
1092.487417,842.705048,-592.164754,8956.491898
1092.487733,383.047749,-444.123565,8586.388927
1092.488049,612.876398,-518.144159,9400.615463
1092.488365,919.314598,-592.164754,9696.697840
1092.488681,459.657299,-74.020594,8438.347739
1092.488997,383.047749,-222.061783,9474.636058
1092.489313,766.095498,-444.123565,9252.574275
1092.489628,689.485948,-592.164754,9252.574275
1092.489944,689.485948,-370.102971,9178.553681
1092.490260,536.266849,-1036.288319,9548.656652
1092.490576,612.876398,-814.226536,9992.780217
1092.490892,153.219100,-962.267725,9992.780217
1092.491208,0.000000,-518.144159,9770.718434
1092.491523,459.657299,-592.164754,9918.759623
1092.491839,612.876398,-148.041188,9400.615463
1092.492155,0.000000,370.102971,9252.574275
1092.492471,459.657299,-444.123565,9992.780217
1092.492787,536.266849,-740.205942,9844.739029
1092.493103,536.266849,-444.123565,10214.842000
1092.493418,842.705048,-666.185348,9548.656652
1092.493734,995.924147,-370.102971,9326.594869
1092.494050,536.266849,-0.000000,9474.636058
1092.494366,766.095498,-0.000000,9474.636058
1092.494682,995.924147,-0.000000,9326.594869
1092.494998,536.266849,-0.000000,9326.594869
1092.495313,153.219100,370.102971,9104.533087
1092.495629,536.266849,-0.000000,9178.553681
1092.495945,995.924147,-222.061783,9770.718434
1092.496261,842.705048,-0.000000,9252.574275
1092.496577,76.609550,222.061783,9474.636058
1092.496893,229.828649,-148.041188,9548.656652
1092.497209,-153.219100,-444.123565,9622.677246
1092.497524,-153.219100,-370.102971,10066.800811
1092.497840,153.219100,-370.102971,9696.697840
1092.498156,0.000000,-0.000000,9622.677246
1092.498472,0.000000,296.082377,9622.677246
1092.498788,76.609550,962.267725,8882.471304
1092.499104,0.000000,962.267725,9178.553681
1092.499419,536.266849,370.102971,9104.533087
1092.499735,383.047749,148.041188,8956.491898
1092.500051,0.000000,-0.000000,9252.574275
1092.500367,76.609550,-296.082377,9326.594869
1092.500683,76.609550,-592.164754,10066.800811
1092.500999,-306.438199,370.102971,9400.615463
1092.501314,-612.876398,740.205942,9030.512492
1092.501630,-612.876398,-0.000000,9992.780217
1092.501946,-766.095498,-444.123565,9918.759623
1092.502262,-766.095498,-444.123565,10436.903782
1092.502578,0.000000,-296.082377,9696.697840
1092.502894,229.828649,-74.020594,9326.594869
1092.503210,306.438199,148.041188,9326.594869
1092.503525,383.047749,-0.000000,9548.656652
1092.503841,229.828649,-148.041188,9622.677246
1092.504157,76.609550,-0.000000,9844.739029
1092.504473,153.219100,296.082377,9474.636058
1092.504789,689.485948,-148.041188,9474.636058
1092.505105,995.924147,-814.226536,9696.697840
1092.505420,995.924147,-148.041188,9548.656652
1092.505736,842.705048,-222.061783,9400.615463
1092.506052,1225.752797,-444.123565,9548.656652
1092.506368,842.705048,-444.123565,9400.615463
1092.506684,536.266849,-148.041188,9622.677246
1092.507000,1149.143247,-740.205942,9400.615463
1092.507315,1302.362347,-666.185348,9400.615463
1092.507631,1072.533697,-0.000000,9326.594869
1092.507947,995.924147,-0.000000,9030.512492
1092.508263,919.314598,-370.102971,10066.800811
1092.508579,1378.971896,-74.020594,9844.739029
1092.508895,766.095498,518.144159,8290.306550
1092.509211,1072.533697,518.144159,9104.533087
1092.509526,1302.362347,-666.185348,9400.615463
1092.509842,995.924147,-592.164754,9548.656652
1092.510158,536.266849,-888.247130,9918.759623
1092.510474,536.266849,-1258.350101,9918.759623
1092.510790,766.095498,-962.267725,10362.883188
1092.511106,536.266849,-592.164754,9548.656652
1092.511421,229.828649,-0.000000,9030.512492
1092.511737,842.705048,-518.144159,9030.512492
1092.512053,842.705048,-74.020594,9104.533087
1092.512369,766.095498,-0.000000,8734.430116
1092.512685,612.876398,-518.144159,9474.636058
1092.513001,689.485948,-1036.288319,9770.718434
1092.513316,459.657299,-888.247130,9400.615463
1092.513632,0.000000,-666.185348,9548.656652
1092.513948,383.047749,-444.123565,9326.594869
1092.514264,153.219100,-370.102971,9474.636058
1092.514580,76.609550,-0.000000,9400.615463
1092.514896,153.219100,-518.144159,9474.636058
1092.515212,383.047749,-888.247130,9918.759623
1092.515527,153.219100,-814.226536,9770.718434
1092.515843,459.657299,-814.226536,9104.533087
1092.516159,919.314598,-518.144159,9178.553681
1092.516475,842.705048,-0.000000,8808.450710
1092.516791,383.047749,1110.308913,8808.450710
1092.517107,766.095498,296.082377,8808.450710
1092.517422,689.485948,-222.061783,9400.615463
1092.517738,383.047749,-74.020594,9548.656652
1092.518054,459.657299,-148.041188,9252.574275
1092.518370,229.828649,-814.226536,9548.656652
1092.518686,0.000000,-444.123565,9696.697840
1092.519002,0.000000,148.041188,9918.759623
1092.519317,0.000000,444.123565,9252.574275
1092.519633,0.000000,-0.000000,9622.677246
1092.519949,0.000000,-0.000000,9474.636058
1092.520265,-153.219100,222.061783,9474.636058
1092.520581,612.876398,-444.123565,9696.697840
1092.520897,536.266849,-222.061783,9474.636058
1092.521213,306.438199,592.164754,9178.553681
1092.521528,459.657299,962.267725,8808.450710
1092.521844,383.047749,592.164754,9030.512492
1092.522160,76.609550,444.123565,9548.656652
1092.522476,153.219100,148.041188,9326.594869
1092.522792,383.047749,-0.000000,9400.615463
1092.523108,76.609550,-0.000000,10288.862594
1092.523423,0.000000,-0.000000,9548.656652
1092.523739,-612.876398,370.102971,9400.615463
1092.524055,-459.657299,-0.000000,9474.636058
1092.524371,-229.828649,-370.102971,10140.821405
1092.524687,-612.876398,-666.185348,10436.903782
1092.525003,-229.828649,-666.185348,10214.842000
1092.525318,153.219100,-518.144159,9918.759623
1092.525634,459.657299,148.041188,9622.677246
1092.525950,459.657299,370.102971,9030.512492
1092.526266,536.266849,-74.020594,9548.656652
1092.526582,536.266849,-148.041188,9696.697840
1092.526898,995.924147,-296.082377,9548.656652
1092.527214,689.485948,-0.000000,9400.615463
1092.527529,842.705048,296.082377,8956.491898
1092.527845,612.876398,-74.020594,9400.615463
1092.528161,842.705048,-148.041188,9252.574275
1092.528477,612.876398,-370.102971,9992.780217
1092.528793,919.314598,-814.226536,10066.800811
1092.529109,306.438199,-518.144159,9992.780217
1092.529424,536.266849,-814.226536,9622.677246
1092.529740,766.095498,-1332.370696,9696.697840
1092.530056,1455.581446,-0.000000,9178.553681
1092.530372,1532.190996,740.205942,8956.491898
1092.530688,1225.752797,-222.061783,8882.471304
1092.531004,1302.362347,-74.020594,9178.553681
1092.531319,612.876398,-0.000000,9252.574275
1092.531635,1072.533697,-0.000000,8956.491898
1092.531951,995.924147,-370.102971,9400.615463
1092.532267,919.314598,-0.000000,8956.491898
1092.532583,612.876398,-222.061783,9474.636058
1092.532899,919.314598,-962.267725,9770.718434
1092.533214,0.000000,-962.267725,9696.697840
1092.533530,229.828649,-740.205942,9474.636058
1092.533846,153.219100,-1036.288319,9474.636058
1092.534162,383.047749,-666.185348,9622.677246
1092.534478,766.095498,-222.061783,9030.512492
1092.534794,229.828649,-0.000000,8956.491898
1092.535110,153.219100,-444.123565,9326.594869
1092.535425,459.657299,-740.205942,9770.718434
1092.535741,76.609550,-222.061783,9326.594869
1092.536057,612.876398,-370.102971,9326.594869
1092.536373,689.485948,-148.041188,9252.574275
1092.536689,612.876398,-0.000000,8734.430116
1092.537005,383.047749,-0.000000,9326.594869
1092.537320,153.219100,-1036.288319,9844.739029
1092.537636,0.000000,-814.226536,9918.759623
1092.537952,-229.828649,-444.123565,9770.718434
1092.538268,0.000000,-888.247130,9474.636058
1092.538584,459.657299,-444.123565,9178.553681
1092.538900,612.876398,-296.082377,9326.594869
1092.539215,536.266849,-148.041188,8956.491898
1092.539531,1072.533697,-0.000000,9178.553681
1092.539847,459.657299,-0.000000,9178.553681
1092.540163,536.266849,518.144159,9030.512492
1092.540479,76.609550,518.144159,9400.615463
1092.540795,383.047749,518.144159,9548.656652
1092.541111,459.657299,296.082377,9252.574275
1092.541426,0.000000,148.041188,9400.615463
1092.541742,0.000000,-0.000000,9622.677246
1092.542058,0.000000,-518.144159,10066.800811
1092.542374,-229.828649,-148.041188,10140.821405
1092.542690,-306.438199,-0.000000,9992.780217
1092.543006,76.609550,-148.041188,9622.677246
1092.543321,383.047749,444.123565,9548.656652
1092.543637,229.828649,518.144159,9326.594869
1092.543953,0.000000,740.205942,8734.430116
1092.544269,536.266849,370.102971,9548.656652
1092.544585,459.657299,370.102971,9252.574275
1092.544901,306.438199,962.267725,9474.636058
1092.545216,383.047749,888.247130,9474.636058
1092.545532,612.876398,222.061783,9474.636058
1092.545848,-153.219100,592.164754,9104.533087
1092.546164,-459.657299,370.102971,9548.656652
1092.546480,-153.219100,-370.102971,10362.883188
1092.546796,-383.047749,-814.226536,10807.006753
1092.547112,-536.266849,-296.082377,10436.903782
1092.547427,-536.266849,-740.205942,10140.821405
1092.547743,0.000000,-518.144159,10140.821405
1092.548059,229.828649,296.082377,9474.636058
1092.548375,536.266849,592.164754,9474.636058
1092.548691,842.705048,222.061783,9474.636058
1092.549007,919.314598,444.123565,9548.656652
1092.549322,1302.362347,518.144159,8882.471304
1092.549638,1302.362347,222.061783,8660.409521
1092.549954,1225.752797,-0.000000,9252.574275
1092.550270,689.485948,370.102971,9252.574275
1092.550586,919.314598,-0.000000,9844.739029
1092.550902,459.657299,-518.144159,10066.800811
1092.551217,76.609550,-518.144159,10288.862594
1092.551533,0.000000,-740.205942,9770.718434
1092.551849,306.438199,-1332.370696,9548.656652
1092.552165,0.000000,-1406.391290,9918.759623
1092.552481,229.828649,-518.144159,9622.677246
1092.552797,383.047749,-296.082377,9326.594869
1092.553113,383.047749,-592.164754,9474.636058
1092.553428,689.485948,-444.123565,9474.636058
1092.553744,459.657299,-666.185348,8956.491898
1092.554060,689.485948,-444.123565,9030.512492
1092.554376,1072.533697,-370.102971,9104.533087
1092.554692,1149.143247,-222.061783,8512.368333
1092.555008,1378.971896,-148.041188,9030.512492
1092.555323,1225.752797,-814.226536,9474.636058
1092.555639,612.876398,-666.185348,9696.697840
1092.555955,842.705048,-444.123565,9474.636058
1092.556271,383.047749,-740.205942,9400.615463
1092.556587,766.095498,-1110.308913,9622.677246
1092.556903,995.924147,-1036.288319,9400.615463
1092.557218,842.705048,-296.082377,9178.553681
1092.557534,536.266849,-444.123565,9178.553681
1092.557850,1225.752797,-222.061783,9326.594869
1092.558166,1149.143247,-0.000000,9030.512492
1092.558482,1225.752797,-148.041188,8586.388927
1092.558798,1149.143247,-74.020594,8660.409521
1092.559114,689.485948,-888.247130,9252.574275
1092.559429,229.828649,-518.144159,9696.697840
1092.559745,306.438199,-518.144159,9918.759623
1092.560061,229.828649,-592.164754,9696.697840
1092.560377,76.609550,-518.144159,9918.759623
1092.560693,0.000000,-370.102971,9992.780217
1092.561009,459.657299,-518.144159,9844.739029
1092.561324,766.095498,-222.061783,9474.636058
1092.561640,306.438199,-74.020594,9104.533087
1092.561956,306.438199,-0.000000,9622.677246
1092.562272,919.314598,-148.041188,9770.718434
1092.562588,919.314598,592.164754,9252.574275
1092.562904,612.876398,1406.391290,9178.553681
1092.563219,842.705048,888.247130,9030.512492
1092.563535,766.095498,518.144159,9178.553681
1092.563851,536.266849,518.144159,9474.636058
1092.564167,0.000000,370.102971,9770.718434
1092.564483,0.000000,222.061783,9548.656652
1092.564799,-229.828649,-74.020594,10140.821405
1092.565115,-459.657299,-296.082377,10436.903782
1092.565430,-306.438199,-0.000000,10140.821405
1092.565746,0.000000,-0.000000,9770.718434
1092.566062,-153.219100,518.144159,9326.594869
1092.566378,-153.219100,-0.000000,9622.677246
1092.566694,153.219100,296.082377,9548.656652
1092.567010,76.609550,-0.000000,9326.594869
1092.567325,-229.828649,222.061783,9844.739029
1092.567641,306.438199,-444.123565,9252.574275
1092.567957,459.657299,-0.000000,9104.533087
1092.568273,0.000000,370.102971,9622.677246
1092.568589,0.000000,444.123565,9252.574275
1092.568905,0.000000,370.102971,9474.636058
1092.569221,153.219100,-0.000000,10066.800811
1092.569536,-153.219100,-370.102971,9844.739029
1092.569852,76.609550,-592.164754,9622.677246
1092.570168,153.219100,-888.247130,9770.718434
1092.570484,383.047749,-666.185348,9844.739029
1092.570800,383.047749,222.061783,9548.656652
1092.571116,153.219100,-148.041188,9548.656652
1092.571432,459.657299,-0.000000,9770.718434
1092.571747,306.438199,370.102971,9326.594869
1092.572063,612.876398,-148.041188,9474.636058
1092.572379,919.314598,-74.020594,9326.594869
1092.572695,919.314598,-148.041188,8882.471304
1092.573011,766.095498,-0.000000,9178.553681
1092.573327,766.095498,-444.123565,9622.677246
1092.573642,766.095498,-1480.411884,10362.883188
1092.573958,689.485948,-296.082377,9622.677246
1092.574274,689.485948,-296.082377,9030.512492
1092.574590,995.924147,-666.185348,8808.450710
1092.574906,1762.019645,-814.226536,9474.636058
1092.575222,1455.581446,-740.205942,9474.636058
1092.575538,1302.362347,-740.205942,9104.533087
1092.575853,1225.752797,-666.185348,8808.450710
1092.576169,995.924147,-296.082377,8808.450710
1092.576485,1225.752797,-0.000000,8882.471304
1092.576801,919.314598,-666.185348,9548.656652
1092.577117,612.876398,-740.205942,9400.615463
1092.577433,459.657299,-370.102971,8956.491898
1092.577749,153.219100,-1406.391290,9770.718434
1092.578064,306.438199,-1776.494261,10436.903782
1092.578380,0.000000,-1628.453072,10362.883188
1092.578696,0.000000,-1628.453072,9622.677246
1092.579012,383.047749,-1332.370696,10066.800811
1092.579328,842.705048,-740.205942,9548.656652
1092.579644,536.266849,-0.000000,8808.450710
1092.579959,919.314598,-148.041188,9400.615463
1092.580275,1302.362347,-444.123565,9622.677246
1092.580591,1455.581446,444.123565,8734.430116
1092.580907,1072.533697,222.061783,8808.450710
1092.581223,1149.143247,-666.185348,9326.594869
1092.581539,1302.362347,-444.123565,9252.574275
1092.581855,383.047749,-148.041188,9474.636058
1092.582170,536.266849,-740.205942,9844.739029
1092.582486,459.657299,-666.185348,10436.903782
1092.582802,-229.828649,-740.205942,9770.718434
1092.583118,-153.219100,-444.123565,10066.800811
1092.583434,229.828649,-740.205942,9992.780217
1092.583750,153.219100,-444.123565,9696.697840
1092.584065,-153.219100,-74.020594,9474.636058
1092.584381,0.000000,74.020594,9104.533087
1092.584697,459.657299,-148.041188,9104.533087
1092.585013,459.657299,592.164754,9326.594869
1092.585329,383.047749,740.205942,8956.491898
1092.585645,612.876398,370.102971,8882.471304
1092.585961,306.438199,-0.000000,9474.636058
1092.586276,0.000000,296.082377,9474.636058
1092.586592,-229.828649,222.061783,9696.697840
1092.586908,459.657299,222.061783,9696.697840
1092.587224,0.000000,962.267725,9548.656652
1092.587540,0.000000,296.082377,9844.739029
1092.587856,-229.828649,-0.000000,9918.759623
1092.588172,229.828649,222.061783,9548.656652
1092.588487,0.000000,370.102971,9178.553681
1092.588803,-536.266849,518.144159,9030.512492
1092.589119,0.000000,222.061783,9770.718434
1092.589435,0.000000,444.123565,9548.656652
1092.589751,-383.047749,370.102971,9548.656652
1092.590067,-306.438199,148.041188,9400.615463
1092.590382,229.828649,-370.102971,9474.636058
1092.590698,-766.095498,-296.082377,9844.739029
1092.591014,-383.047749,-296.082377,10288.862594
1092.591330,0.000000,-0.000000,9770.718434
1092.591646,0.000000,-296.082377,9696.697840
1092.591962,0.000000,-0.000000,9992.780217
1092.592278,459.657299,-74.020594,9252.574275
1092.592593,612.876398,-444.123565,9326.594869
1092.592909,766.095498,-296.082377,9622.677246
1092.593225,459.657299,-0.000000,9252.574275
1092.593541,766.095498,-222.061783,9474.636058
1092.593857,919.314598,296.082377,9696.697840
1092.594173,1225.752797,592.164754,9178.553681
1092.594489,766.095498,740.205942,9104.533087
1092.594804,842.705048,-0.000000,8882.471304
1092.595120,919.314598,-740.205942,9770.718434
1092.595436,766.095498,-296.082377,10066.800811
1092.595752,689.485948,-296.082377,9622.677246
1092.596068,842.705048,-370.102971,9770.718434
1092.596384,306.438199,-444.123565,9696.697840
1092.596699,1149.143247,-296.082377,9548.656652
1092.597015,1532.190996,-0.000000,9252.574275
1092.597331,1532.190996,-0.000000,9326.594869
1092.597647,1225.752797,74.020594,9030.512492
1092.597963,1455.581446,74.020594,9178.553681
1092.598279,842.705048,-296.082377,9178.553681
1092.598595,1378.971896,-222.061783,9252.574275
1092.598910,995.924147,-0.000000,9104.533087
1092.599226,995.924147,-148.041188,8438.347739
1092.599542,459.657299,-444.123565,9178.553681
1092.599858,536.266849,-444.123565,9844.739029
1092.600174,-306.438199,-888.247130,9992.780217
1092.600490,0.000000,-1036.288319,10066.800811
1092.600805,-459.657299,-1184.329507,10436.903782
1092.601121,0.000000,-1480.411884,9770.718434
1092.601437,383.047749,-1258.350101,9252.574275
1092.601753,383.047749,-666.185348,9622.677246
1092.602069,306.438199,-222.061783,8734.430116
1092.602385,383.047749,222.061783,8956.491898
1092.602701,1149.143247,-296.082377,9474.636058
1092.603016,689.485948,-370.102971,9326.594869
1092.603332,459.657299,-148.041188,8808.450710
1092.603648,459.657299,-592.164754,8808.450710
1092.603964,689.485948,-888.247130,9474.636058
1092.604280,306.438199,-444.123565,9400.615463
1092.604596,76.609550,-370.102971,9770.718434
1092.604912,76.609550,-592.164754,10066.800811
1092.605227,0.000000,-592.164754,9992.780217
1092.605543,-153.219100,-74.020594,9548.656652
1092.605859,76.609550,-518.144159,9622.677246
1092.606175,0.000000,-1184.329507,9622.677246
1092.606491,153.219100,-370.102971,9400.615463
1092.606807,-153.219100,-0.000000,9474.636058
1092.607122,459.657299,-0.000000,9548.656652
1092.607438,612.876398,444.123565,9400.615463
1092.607754,766.095498,370.102971,8586.388927
1092.608070,612.876398,296.082377,8882.471304
1092.608386,995.924147,148.041188,9622.677246
1092.608702,306.438199,222.061783,9400.615463
1092.609018,306.438199,222.061783,9474.636058
1092.609333,76.609550,-518.144159,9696.697840
1092.609649,153.219100,-148.041188,10140.821405
1092.609965,306.438199,-0.000000,9844.739029
1092.610281,459.657299,-0.000000,9696.697840
1092.610597,459.657299,-0.000000,9548.656652
1092.610913,766.095498,1110.308913,9474.636058
1092.611229,383.047749,666.185348,8956.491898
1092.611544,229.828649,592.164754,9622.677246
1092.611860,689.485948,148.041188,9474.636058
1092.612176,153.219100,444.123565,8882.471304
1092.612492,-536.266849,-148.041188,9474.636058
1092.612808,0.000000,-962.267725,10066.800811
1092.613124,0.000000,-0.000000,9844.739029
1092.613439,-766.095498,222.061783,9844.739029
1092.613755,-383.047749,-148.041188,9770.718434
1092.614071,153.219100,-888.247130,10214.842000
1092.614387,-306.438199,-518.144159,9770.718434
1092.614703,0.000000,-814.226536,9326.594869
1092.615019,459.657299,-1036.288319,9548.656652
1092.615335,612.876398,-666.185348,9622.677246
1092.615650,1225.752797,-0.000000,9326.594869
1092.615966,1608.800546,740.205942,8956.491898
1092.616282,1455.581446,296.082377,8586.388927
1092.616598,1072.533697,444.123565,9030.512492
1092.616914,1072.533697,-222.061783,8882.471304
1092.617230,995.924147,-666.185348,9474.636058
1092.617545,842.705048,-518.144159,9622.677246
1092.617861,689.485948,-0.000000,9326.594869
1092.618177,766.095498,-222.061783,9400.615463
1092.618493,536.266849,-444.123565,10066.800811
1092.618809,536.266849,-592.164754,9696.697840
1092.619125,383.047749,-370.102971,9474.636058
1092.619441,612.876398,-888.247130,9548.656652
1092.619756,383.047749,-666.185348,9326.594869
1092.620072,689.485948,-148.041188,9548.656652
1092.620388,842.705048,-74.020594,9548.656652
1092.620704,1149.143247,148.041188,8956.491898
1092.621020,995.924147,814.226536,8882.471304
1092.621336,766.095498,370.102971,8586.388927
1092.621652,1302.362347,-592.164754,9104.533087
1092.621967,842.705048,-444.123565,9622.677246
1092.622283,766.095498,-370.102971,9474.636058
1092.622599,0.000000,-296.082377,9622.677246
1092.622915,0.000000,-740.205942,9770.718434
1092.623231,0.000000,-444.123565,9992.780217
1092.623547,0.000000,-444.123565,9992.780217
1092.623862,229.828649,-592.164754,9400.615463
1092.624178,153.219100,-814.226536,9696.697840
1092.624494,229.828649,-518.144159,9696.697840
1092.624810,229.828649,-814.226536,9548.656652
1092.625126,459.657299,-296.082377,9548.656652
1092.625442,766.095498,-0.000000,9178.553681
1092.625758,229.828649,-0.000000,8734.430116
1092.626073,0.000000,-296.082377,9104.533087
1092.626389,0.000000,-888.247130,9696.697840
1092.626705,0.000000,-370.102971,10288.862594
1092.627021,76.609550,-148.041188,9696.697840
1092.627337,0.000000,-296.082377,9696.697840
1092.627653,306.438199,-518.144159,9992.780217
1092.627969,689.485948,-740.205942,10066.800811
1092.628284,919.314598,-888.247130,9622.677246
1092.628600,1072.533697,-592.164754,9474.636058
1092.628916,1072.533697,-444.123565,8660.409521
1092.629232,1225.752797,148.041188,9326.594869
1092.629548,1838.629195,518.144159,9104.533087
1092.629864,1302.362347,888.247130,9178.553681
1092.630179,842.705048,1184.329507,8512.368333
1092.630495,306.438199,370.102971,8512.368333
1092.630811,459.657299,-0.000000,9400.615463
1092.631127,153.219100,-518.144159,9548.656652
1092.631443,153.219100,-222.061783,10362.883188
1092.631759,153.219100,-444.123565,10140.821405
1092.632075,-383.047749,-296.082377,10288.862594
1092.632390,-153.219100,-222.061783,9918.759623
1092.632706,-689.485948,-444.123565,9326.594869
1092.633022,-76.609550,296.082377,9548.656652
1092.633338,229.828649,740.205942,9252.574275
1092.633654,153.219100,814.226536,9030.512492
1092.633970,459.657299,370.102971,9326.594869
1092.634285,1149.143247,370.102971,9030.512492
1092.634601,459.657299,444.123565,8512.368333
1092.634917,842.705048,296.082377,9252.574275
1092.635233,612.876398,-148.041188,9696.697840
1092.635549,153.219100,444.123565,9770.718434
1092.635865,-153.219100,518.144159,9622.677246
1092.636181,-306.438199,444.123565,9474.636058
1092.636496,-306.438199,-74.020594,9992.780217
1092.636812,-153.219100,-370.102971,10214.842000
1092.637128,0.000000,-740.205942,9918.759623
1092.637444,-153.219100,-1480.411884,10214.842000
1092.637760,536.266849,-888.247130,10066.800811
1092.638076,612.876398,-148.041188,9474.636058
1092.638392,1072.533697,-0.000000,9326.594869
1092.638707,1225.752797,740.205942,9474.636058
1092.639023,766.095498,962.267725,9474.636058
1092.639339,1072.533697,296.082377,8882.471304
1092.639655,1149.143247,-74.020594,9474.636058
1092.639971,1072.533697,-222.061783,9400.615463
1092.640287,689.485948,-222.061783,9252.574275
1092.640602,689.485948,-0.000000,9622.677246
1092.640918,459.657299,-740.205942,9696.697840
1092.641234,536.266849,-592.164754,9696.697840
1092.641550,383.047749,-666.185348,9696.697840
1092.641866,383.047749,-1554.432478,9992.780217
1092.642182,383.047749,-1258.350101,10288.862594
1092.642498,306.438199,-592.164754,9918.759623
1092.642813,612.876398,444.123565,9326.594869
1092.643129,1149.143247,518.144159,8882.471304
1092.643445,1302.362347,592.164754,8512.368333
1092.643761,919.314598,592.164754,8808.450710
1092.644077,689.485948,-296.082377,9178.553681
1092.644393,919.314598,-444.123565,8956.491898
1092.644708,229.828649,-148.041188,9030.512492
1092.645024,-76.609550,-592.164754,9696.697840
1092.645340,0.000000,-1184.329507,10140.821405
1092.645656,-536.266849,-888.247130,9844.739029
1092.645972,-536.266849,-814.226536,9992.780217
1092.646288,-306.438199,-1110.308913,10066.800811
1092.646604,0.000000,-1258.350101,9030.512492
1092.646919,459.657299,-296.082377,9474.636058
1092.647235,766.095498,-296.082377,9400.615463
1092.647551,842.705048,-222.061783,9252.574275
1092.647867,919.314598,-74.020594,9252.574275
1092.648183,919.314598,296.082377,8438.347739
1092.648499,766.095498,-222.061783,8290.306550
1092.648815,689.485948,-296.082377,8882.471304
1092.649130,459.657299,-592.164754,9474.636058
1092.649446,0.000000,-962.267725,9918.759623
1092.649762,0.000000,-1554.432478,10362.883188
1092.650078,0.000000,-1036.288319,9918.759623
1092.650394,153.219100,-370.102971,9474.636058
1092.650710,383.047749,-370.102971,9400.615463
1092.651025,689.485948,-740.205942,9326.594869
1092.651341,995.924147,-222.061783,9104.533087
1092.651657,766.095498,370.102971,9104.533087
1092.651973,1072.533697,-0.000000,9326.594869
1092.652289,919.314598,148.041188,8808.450710
1092.652605,919.314598,296.082377,9030.512492
1092.652921,383.047749,666.185348,9474.636058
1092.653236,1072.533697,222.061783,9178.553681
1092.653552,766.095498,74.020594,9178.553681
1092.653868,306.438199,296.082377,9548.656652
1092.654184,0.000000,-222.061783,9918.759623
1092.654500,76.609550,-370.102971,9918.759623
1092.654816,-306.438199,-0.000000,9918.759623
1092.655132,-306.438199,-0.000000,10214.842000
1092.655447,76.609550,-222.061783,9696.697840
1092.655763,-153.219100,296.082377,9104.533087
1092.656079,-153.219100,518.144159,9622.677246
1092.656395,459.657299,296.082377,9548.656652
1092.656711,76.609550,222.061783,9326.594869
1092.657027,459.657299,666.185348,9696.697840
1092.657342,76.609550,-0.000000,9104.533087
1092.657658,536.266849,296.082377,9178.553681
1092.657974,0.000000,444.123565,9400.615463
1092.658290,-306.438199,444.123565,9548.656652
1092.658606,-383.047749,370.102971,9844.739029
1092.658922,76.609550,-296.082377,10140.821405
1092.659238,-919.314598,-518.144159,10066.800811
1092.659553,-612.876398,-1036.288319,10584.944971
1092.659869,-153.219100,-1406.391290,10584.944971
1092.660185,153.219100,-814.226536,10214.842000
1092.660501,153.219100,-370.102971,10140.821405
1092.660817,842.705048,-148.041188,9030.512492
1092.661133,766.095498,-0.000000,9252.574275
1092.661448,842.705048,222.061783,9178.553681
1092.661764,919.314598,222.061783,9178.553681
1092.662080,1302.362347,222.061783,9030.512492
1092.662396,1455.581446,370.102971,8808.450710
1092.662712,1532.190996,148.041188,8808.450710
1092.663028,689.485948,444.123565,8956.491898
1092.663344,995.924147,-962.267725,9474.636058
1092.663659,1072.533697,-1554.432478,9622.677246
1092.663975,612.876398,-444.123565,9548.656652
1092.664291,766.095498,-1258.350101,9622.677246
1092.664606,1225.752797,-1554.432478,9844.739029
1092.664922,1225.752797,-296.082377,9474.636058
1092.665238,1072.533697,-0.000000,9252.574275
1092.665554,1762.019645,296.082377,9622.677246
1092.665869,1378.971896,518.144159,9030.512492
1092.666185,766.095498,740.205942,8142.265362
1092.666501,1532.190996,-296.082377,8438.347739
1092.666817,919.314598,-814.226536,9474.636058
1092.667132,842.705048,-370.102971,9548.656652
1092.667448,76.609550,-148.041188,9030.512492
1092.667764,383.047749,-222.061783,10362.883188
1092.668079,76.609550,-740.205942,9844.739029
1092.668395,-536.266849,-444.123565,9326.594869
1092.668711,76.609550,-666.185348,9696.697840
1092.669027,-76.609550,-1776.494261,10066.800811
1092.669342,0.000000,-1184.329507,10362.883188
1092.669658,76.609550,-740.205942,9178.553681
1092.669974,536.266849,-1258.350101,9548.656652
1092.670290,612.876398,-518.144159,9548.656652
1092.670605,459.657299,-222.061783,9104.533087
1092.670921,766.095498,-222.061783,8660.409521
1092.671237,919.314598,518.144159,8660.409521
1092.671553,689.485948,444.123565,9030.512492
1092.671868,383.047749,-370.102971,9178.553681
1092.672184,0.000000,-1628.453072,9770.718434
1092.672500,76.609550,-1184.329507,10066.800811
1092.672816,-383.047749,-1258.350101,9844.739029
1092.673131,0.000000,-740.205942,9770.718434
1092.673447,153.219100,-592.164754,9770.718434
1092.673763,383.047749,-222.061783,9474.636058
1092.674078,383.047749,222.061783,8734.430116
1092.674394,689.485948,-0.000000,9548.656652
1092.674710,919.314598,-518.144159,9696.697840
1092.675026,842.705048,-0.000000,9178.553681
1092.675341,536.266849,666.185348,9252.574275
1092.675657,1072.533697,-0.000000,9400.615463
1092.675973,1072.533697,666.185348,8586.388927
1092.676289,536.266849,1110.308913,9030.512492
1092.676604,766.095498,1110.308913,9400.615463
1092.676920,1149.143247,-74.020594,9474.636058
1092.677236,0.000000,518.144159,9622.677246
1092.677552,76.609550,518.144159,9696.697840
1092.677867,153.219100,222.061783,9252.574275
1092.678183,-306.438199,518.144159,9992.780217
1092.678499,-1225.752797,444.123565,9622.677246
1092.678814,0.000000,-0.000000,9770.718434
1092.679130,-383.047749,-222.061783,10066.800811
1092.679446,0.000000,-0.000000,9622.677246
1092.679762,153.219100,-222.061783,9474.636058
1092.680077,229.828649,-74.020594,9992.780217
1092.680393,0.000000,222.061783,9474.636058
1092.680709,-306.438199,518.144159,9400.615463
1092.681025,-612.876398,666.185348,9622.677246
1092.681340,-459.657299,-0.000000,9770.718434
1092.681656,-1302.362347,-296.082377,9770.718434
1092.681972,-995.924147,-0.000000,10214.842000
1092.682288,-459.657299,-1036.288319,9992.780217
1092.682603,0.000000,-814.226536,10140.821405
1092.682919,0.000000,-518.144159,10066.800811
1092.683235,0.000000,-444.123565,9622.677246
1092.683551,766.095498,-666.185348,9992.780217
1092.683866,536.266849,-0.000000,9548.656652
1092.684182,536.266849,666.185348,9474.636058
1092.684498,1608.800546,222.061783,9252.574275
1092.684813,1378.971896,592.164754,8586.388927
1092.685129,1225.752797,1036.288319,8956.491898
1092.685445,1378.971896,296.082377,8956.491898
1092.685761,1378.971896,-0.000000,9326.594869
1092.686076,1072.533697,-0.000000,9400.615463
1092.686392,459.657299,-148.041188,9326.594869
1092.686708,612.876398,-666.185348,9770.718434
1092.687024,766.095498,-1258.350101,10288.862594
1092.687339,842.705048,-592.164754,10066.800811
1092.687655,689.485948,-296.082377,9696.697840
1092.687971,1072.533697,-74.020594,9326.594869
1092.688287,995.924147,-0.000000,9030.512492
1092.688602,1302.362347,518.144159,8882.471304
1092.688918,1685.410096,-0.000000,8808.450710
1092.689234,1455.581446,222.061783,8438.347739
1092.689549,1378.971896,-74.020594,9030.512492
1092.689865,919.314598,-518.144159,8882.471304
1092.690181,689.485948,-518.144159,9474.636058
1092.690497,383.047749,-592.164754,9696.697840
1092.690812,0.000000,-962.267725,9104.533087
1092.691128,383.047749,-1110.308913,9548.656652
1092.691444,0.000000,-1258.350101,9770.718434
1092.691760,-306.438199,-1184.329507,9770.718434
1092.692075,-153.219100,-1184.329507,10140.821405
1092.692391,0.000000,-1110.308913,9474.636058
1092.692707,0.000000,-740.205942,9770.718434
1092.693023,0.000000,-666.185348,9326.594869
1092.693338,612.876398,-666.185348,9178.553681
1092.693654,536.266849,-296.082377,8734.430116
1092.693970,766.095498,-296.082377,8734.430116
1092.694286,153.219100,-518.144159,9252.574275
1092.694601,306.438199,-666.185348,9400.615463
1092.694917,306.438199,-962.267725,9918.759623
1092.695233,-153.219100,-1036.288319,9622.677246
1092.695548,383.047749,-740.205942,9770.718434
1092.695864,459.657299,-666.185348,9622.677246
1092.696180,689.485948,-518.144159,9474.636058
1092.696496,995.924147,-592.164754,9548.656652
1092.696811,1072.533697,-814.226536,9770.718434
1092.697127,1225.752797,-444.123565,9770.718434
1092.697443,1302.362347,-444.123565,9178.553681
1092.697759,1302.362347,-370.102971,9178.553681
1092.698074,1532.190996,-0.000000,9252.574275
1092.698390,1455.581446,592.164754,8586.388927
1092.698706,995.924147,1332.370696,8142.265362
1092.699022,612.876398,740.205942,8882.471304
1092.699337,306.438199,-370.102971,9474.636058
1092.699653,76.609550,-370.102971,9474.636058
1092.699969,-842.705048,-888.247130,9548.656652
1092.700284,-1072.533697,-1628.453072,10214.842000
1092.700600,-1225.752797,-1776.494261,10436.903782
1092.700916,-1532.190996,-1332.370696,10732.986159
1092.701232,-1685.410096,-814.226536,10436.903782
1092.701547,-1302.362347,-740.205942,10288.862594
1092.701863,-842.705048,-740.205942,10066.800811
1092.702179,-612.876398,-518.144159,9252.574275
1092.702495,383.047749,-370.102971,9400.615463
1092.702810,612.876398,-814.226536,8956.491898
1092.703126,842.705048,-222.061783,8882.471304
1092.703442,766.095498,-592.164754,8956.491898
1092.703758,995.924147,-1258.350101,9622.677246
1092.704073,689.485948,-1702.473667,9770.718434
1092.704389,689.485948,-1628.453072,9548.656652
1092.704705,995.924147,-1406.391290,9696.697840
1092.705021,1225.752797,-1628.453072,10214.842000
1092.705336,1225.752797,-1480.411884,9844.739029
1092.705652,1378.971896,-1702.473667,9696.697840
1092.705968,1149.143247,-888.247130,9474.636058
1092.706283,1455.581446,-1258.350101,9770.718434
1092.706599,1378.971896,-1702.473667,9696.697840
1092.706915,1915.238745,-1628.453072,9474.636058
1092.707231,2068.457845,-1480.411884,9326.594869
1092.707546,2451.505594,-1924.535449,9030.512492
1092.707862,2681.334243,-1554.432478,9474.636058
1092.708178,3217.601092,-1258.350101,9326.594869
1092.708494,2987.772442,-1628.453072,9252.574275
1092.708809,3524.039291,-2146.597232,9474.636058
