#time,accel_x,accel_y,accel_z
965.580103,-536.266849,1110.308913,9770.718434
965.580419,-919.314598,1184.329507,9770.718434
965.580735,-1149.143247,1554.432478,9770.718434
965.581050,-766.095498,1406.391290,9844.739029
965.581366,0.000000,1554.432478,9474.636058
965.581682,-229.828649,2072.576638,9326.594869
965.581997,0.000000,2146.597232,9104.533087
965.582313,229.828649,1702.473667,9474.636058
965.582629,459.657299,1776.494261,9400.615463
965.582945,153.219100,1480.411884,9548.656652
965.583260,229.828649,1258.350101,9622.677246
965.583576,76.609550,1406.391290,9918.759623
965.583892,383.047749,1554.432478,10066.800811
965.584207,536.266849,1924.535449,9770.718434
965.584523,0.000000,2368.659014,9474.636058
965.584839,-153.219100,2590.720797,9400.615463
965.585154,-383.047749,2442.679609,9252.574275
965.585470,-612.876398,2368.659014,9252.574275
965.585786,-1072.533697,2294.638420,9400.615463
965.586102,-1532.190996,2220.617826,9400.615463
965.586417,-1685.410096,1850.514855,9622.677246
965.586733,-2451.505594,1702.473667,9548.656652
965.587049,-2374.896044,1628.453072,9548.656652
965.587364,-2681.334243,1480.411884,9696.697840
965.587680,-2604.724693,1628.453072,9918.759623
965.587996,-2987.772442,1480.411884,9474.636058
965.588312,-2528.115143,1406.391290,9400.615463
965.588627,-2528.115143,1924.535449,9326.594869
965.588943,-2681.334243,1554.432478,9326.594869
965.589259,-2834.553343,1850.514855,9548.656652
965.589574,-3064.381992,1406.391290,9252.574275
965.589890,-2911.162892,962.267725,9548.656652
965.590206,-3370.820191,1110.308913,9622.677246
965.590522,-3140.991542,1036.288319,9400.615463
965.590837,-2987.772442,1406.391290,9104.533087
965.591153,-3217.601092,1480.411884,9104.533087
965.591469,-3294.210641,1702.473667,9104.533087
965.591784,-3447.429741,1702.473667,9030.512492
965.592100,-3370.820191,1850.514855,9178.553681
965.592416,-3447.429741,2220.617826,9178.553681
965.592731,-3677.258390,1924.535449,9326.594869
965.593047,-3677.258390,1628.453072,9474.636058
965.593363,-3064.381992,1184.329507,9696.697840
965.593679,-2911.162892,1110.308913,9622.677246
965.593994,-2757.943793,1036.288319,9844.739029
965.594310,-2451.505594,1184.329507,9844.739029
965.594626,-1685.410096,1184.329507,9844.739029
965.594941,-1302.362347,1184.329507,10066.800811
965.595257,-306.438199,1628.453072,9696.697840
965.595573,689.485948,1998.556043,9252.574275
965.595889,995.924147,2220.617826,8882.471304
965.596204,1685.410096,2294.638420,8808.450710
965.596520,1685.410096,2516.700203,8512.368333
965.596836,2221.676944,2516.700203,8586.388927
965.597151,1838.629195,2294.638420,8438.347739
965.597467,1991.848295,2146.597232,8512.368333
965.597783,1378.971896,1628.453072,9326.594869
965.598099,842.705048,1036.288319,9622.677246
965.598414,76.609550,518.144159,10066.800811
965.598730,153.219100,-666.185348,10510.924376
965.599046,-229.828649,-518.144159,10732.986159
965.599361,-459.657299,-370.102971,10955.047942
965.599677,-229.828649,-222.061783,10658.965565
965.599993,-229.828649,-74.020594,10510.924376
965.600308,306.438199,-296.082377,10066.800811
965.600624,153.219100,-0.000000,9770.718434
965.600940,306.438199,-0.000000,9548.656652
965.601256,612.876398,-0.000000,9696.697840
965.601571,689.485948,-296.082377,9474.636058
965.601887,1149.143247,-1258.350101,9696.697840
965.602203,689.485948,-1554.432478,9844.739029
965.602518,995.924147,-1776.494261,10140.821405
965.602834,1149.143247,-1924.535449,10362.883188
965.603150,1608.800546,-2442.679609,10436.903782
965.603466,1685.410096,-2146.597232,9918.759623
965.603781,1532.190996,-1702.473667,9918.759623
965.604097,1915.238745,-1184.329507,9696.697840
965.604413,2221.676944,-444.123565,9326.594869
965.604728,2528.115143,-518.144159,8734.430116
965.605049,2221.676944,-148.041188,8364.327145
965.605365,1838.629195,-0.000000,8290.306550
965.605680,1838.629195,-518.144159,8290.306550
965.605996,1149.143247,-888.247130,8660.409521
965.606312,459.657299,-1036.288319,8734.430116
965.606627,76.609550,-1184.329507,8882.471304
965.606943,-459.657299,-1110.308913,9178.553681
965.607259,-1072.533697,-888.247130,9474.636058
965.607574,-1378.971896,-592.164754,9474.636058
965.607890,-1455.581446,-740.205942,9252.574275
965.608206,-1072.533697,-666.185348,9030.512492
965.608521,-919.314598,-888.247130,8882.471304
965.608837,-306.438199,-1332.370696,9030.512492
965.609153,0.000000,-1628.453072,9252.574275
965.609468,919.314598,-1258.350101,8882.471304
965.609784,1149.143247,-592.164754,8956.491898
965.610099,1378.971896,-74.020594,8364.327145
965.610415,1149.143247,518.144159,8216.285956
965.610731,1455.581446,888.247130,7994.224174
965.611046,1378.971896,1702.473667,8216.285956
965.611362,1302.362347,1554.432478,7994.224174
965.611678,689.485948,1406.391290,8290.306550
965.611993,229.828649,370.102971,8882.471304
965.612309,0.000000,-518.144159,9474.636058
965.612625,-689.485948,-1184.329507,9918.759623
965.612940,-1608.800546,-962.267725,10584.944971
965.613256,-1915.238745,-1036.288319,10288.862594
965.613572,-2451.505594,-1110.308913,10584.944971
965.613887,-1685.410096,-1110.308913,10658.965565
965.614203,-1915.238745,-74.020594,10658.965565
965.614519,-1762.019645,296.082377,9992.780217
965.614834,-1149.143247,370.102971,9844.739029
965.615150,-766.095498,444.123565,9992.780217
965.615466,-612.876398,-0.000000,9992.780217
965.615781,229.828649,-74.020594,10362.883188
965.616097,842.705048,-296.082377,9992.780217
965.616413,766.095498,-222.061783,9696.697840
965.616728,1532.190996,-0.000000,9622.677246
965.617044,1915.238745,222.061783,10140.821405
965.617360,2298.286494,962.267725,9844.739029
965.617675,2528.115143,1332.370696,9252.574275
965.617991,2681.334243,1702.473667,9104.533087
965.618306,2987.772442,1998.556043,8956.491898
965.618622,2604.724693,1628.453072,9104.533087
965.618938,2451.505594,1554.432478,9178.553681
965.619253,1915.238745,1480.411884,9548.656652
965.619569,1762.019645,1554.432478,9474.636058
965.619885,919.314598,1702.473667,9474.636058
965.620200,153.219100,1406.391290,9918.759623
965.620516,-459.657299,1184.329507,10510.924376
965.620832,-459.657299,888.247130,10510.924376
965.621147,-612.876398,814.226536,10362.883188
965.621463,-1072.533697,296.082377,10807.006753
965.621779,-612.876398,-444.123565,10510.924376
965.622094,306.438199,-740.205942,10732.986159
965.622410,1225.752797,-888.247130,10436.903782
965.622726,1762.019645,-814.226536,10288.862594
965.623041,2068.457845,-592.164754,9474.636058
965.623357,2604.724693,-0.000000,9030.512492
965.623673,3294.210641,444.123565,8512.368333
965.623988,3677.258390,1184.329507,8068.244768
965.624304,3983.696590,1776.494261,7476.080014
965.624620,3370.820191,1850.514855,7698.141797
965.624935,2681.334243,1110.308913,8068.244768
965.625251,1915.238745,222.061783,8808.450710
965.625566,1455.581446,-592.164754,9252.574275
965.625882,0.000000,-1776.494261,9992.780217
965.626198,-1532.190996,-2368.659014,10362.883188
965.626513,-2298.286494,-2664.741391,10732.986159
965.626829,-3217.601092,-3256.906145,11029.068536
965.627145,-3217.601092,-2886.803174,11103.089130
965.627460,-2987.772442,-2516.700203,10658.965565
965.627776,-2987.772442,-2294.638420,10362.883188
965.628092,-2068.457845,-2220.617826,9696.697840
965.628407,-842.705048,-1924.535449,9400.615463
965.628723,153.219100,-1850.514855,9178.553681
965.629039,766.095498,-1554.432478,8364.327145
965.629354,1762.019645,-1184.329507,7994.224174
965.629670,1838.629195,-814.226536,7772.162391
965.629986,2221.676944,-296.082377,7698.141797
965.630301,2451.505594,-74.020594,8142.265362
965.630617,2374.896044,-0.000000,7920.203579
965.630933,1915.238745,222.061783,7994.224174
965.631248,1378.971896,222.061783,8290.306550
965.631564,995.924147,-222.061783,8808.450710
965.631880,459.657299,-518.144159,9252.574275
965.632195,-153.219100,-962.267725,9252.574275
965.632511,-766.095498,-740.205942,9474.636058
965.632827,-1685.410096,-814.226536,9474.636058
965.633142,-2298.286494,-888.247130,9696.697840
965.633458,-1378.971896,-740.205942,10288.862594
965.633773,-1915.238745,-592.164754,9992.780217
965.634089,-1762.019645,-370.102971,9992.780217
965.634405,-1455.581446,-518.144159,9770.718434
965.634720,-995.924147,-814.226536,9918.759623
965.635036,306.438199,-962.267725,10140.821405
965.635352,842.705048,-888.247130,9622.677246
965.635667,1532.190996,-296.082377,9474.636058
965.635983,2374.896044,-222.061783,8956.491898
965.636299,2604.724693,222.061783,8808.450710
965.636614,2681.334243,814.226536,8660.409521
965.636930,2757.943793,1406.391290,8586.388927
965.637246,2604.724693,1850.514855,8512.368333
965.637561,1991.848295,1998.556043,8660.409521
965.637877,1608.800546,1480.411884,9030.512492
965.638193,1072.533697,1036.288319,9474.636058
965.638508,459.657299,-0.000000,9770.718434
965.638824,-766.095498,-444.123565,10436.903782
965.639140,-1455.581446,-666.185348,10658.965565
965.639455,-2145.067394,-666.185348,10807.006753
965.639771,-2528.115143,-962.267725,11473.192101
965.640087,-2604.724693,-370.102971,11547.212695
965.640402,-2221.676944,-148.041188,11177.109724
965.640718,-1762.019645,-0.000000,10584.944971
965.641033,-1072.533697,74.020594,10288.862594
965.641349,-229.828649,-296.082377,10214.842000
965.641665,919.314598,-148.041188,9548.656652
965.641980,1991.848295,666.185348,9252.574275
965.642296,2681.334243,814.226536,8586.388927
965.642612,3217.601092,1110.308913,8586.388927
965.642927,3140.991542,1554.432478,8882.471304
965.643243,3140.991542,1998.556043,8808.450710
965.643559,2911.162892,2146.597232,8586.388927
965.643874,2451.505594,2442.679609,8734.430116
965.644190,1608.800546,2146.597232,8734.430116
965.644506,1072.533697,1406.391290,9474.636058
965.644821,689.485948,814.226536,9622.677246
965.645137,0.000000,370.102971,9696.697840
965.645453,-766.095498,222.061783,9918.759623
965.645768,-995.924147,-0.000000,10288.862594
965.646084,-1991.848295,-296.082377,10214.842000
965.646400,-2221.676944,-296.082377,10584.944971
965.646715,-2298.286494,-370.102971,10288.862594
965.647031,-2068.457845,-148.041188,10362.883188
965.647347,-1378.971896,-592.164754,9992.780217
965.647662,-919.314598,-518.144159,9992.780217
965.647978,0.000000,-962.267725,9992.780217
965.648294,1149.143247,-888.247130,9474.636058
965.648609,1762.019645,-592.164754,8882.471304
965.648925,2298.286494,-518.144159,8808.450710
965.649240,2451.505594,-0.000000,8364.327145
965.649556,2604.724693,-0.000000,8290.306550
965.649872,2451.505594,592.164754,7994.224174
965.650187,2068.457845,666.185348,8290.306550
965.650503,1455.581446,296.082377,8290.306550
965.650819,1072.533697,-0.000000,8512.368333
965.651134,229.828649,-1110.308913,9400.615463
965.651450,-459.657299,-1480.411884,9622.677246
965.651766,-1072.533697,-2072.576638,9918.759623
965.652081,-1762.019645,-2146.597232,10288.862594
965.652397,-2451.505594,-2294.638420,10362.883188
965.652713,-2528.115143,-2294.638420,10658.965565
965.653028,-2451.505594,-1924.535449,10584.944971
965.653344,-2374.896044,-1702.473667,10214.842000
965.653660,-2068.457845,-1702.473667,9770.718434
965.653975,-919.314598,-1554.432478,9548.656652
965.654291,153.219100,-1480.411884,9622.677246
965.654607,766.095498,-1184.329507,9178.553681
965.654922,1915.238745,-1258.350101,8956.491898
965.655238,2451.505594,-740.205942,8660.409521
965.655554,2451.505594,-518.144159,8438.347739
965.655869,3064.381992,-0.000000,8734.430116
965.656185,3294.210641,222.061783,8438.347739
965.656500,2451.505594,740.205942,8660.409521
965.656816,2451.505594,962.267725,8438.347739
965.657132,2068.457845,888.247130,8586.388927
965.657447,1608.800546,222.061783,9178.553681
965.657763,919.314598,-222.061783,9474.636058
965.658079,459.657299,-296.082377,9548.656652
965.658394,-153.219100,-814.226536,9918.759623
965.658710,-842.705048,-962.267725,9992.780217
965.659026,-1149.143247,-1110.308913,10436.903782
965.659341,-1072.533697,-1184.329507,10436.903782
965.659657,-1302.362347,-814.226536,10510.924376
965.659973,-1455.581446,-740.205942,10288.862594
965.660288,-766.095498,-814.226536,10214.842000
965.660604,459.657299,-1332.370696,10214.842000
965.660920,1149.143247,-1184.329507,10066.800811
965.661235,2068.457845,-740.205942,9326.594869
965.661551,2451.505594,-222.061783,8734.430116
965.661867,3064.381992,222.061783,8512.368333
965.662182,3064.381992,370.102971,8512.368333
965.662498,3370.820191,1184.329507,8216.285956
965.662814,2911.162892,1554.432478,8216.285956
965.663129,2681.334243,1554.432478,8290.306550
965.663445,1915.238745,1036.288319,8512.368333
965.663761,1762.019645,-148.041188,9178.553681
965.664076,612.876398,-0.000000,9770.718434
965.664392,0.000000,-666.185348,9918.759623
965.664707,-919.314598,-666.185348,10214.842000
965.665023,-1915.238745,-962.267725,10288.862594
965.665339,-2374.896044,-1110.308913,10732.986159
965.665654,-2681.334243,-666.185348,10881.027347
965.665970,-2451.505594,-222.061783,10658.965565
965.666286,-2298.286494,-0.000000,10140.821405
965.666601,-1532.190996,-148.041188,9918.759623
965.666917,-766.095498,-0.000000,9696.697840
965.667233,0.000000,-148.041188,9696.697840
965.667548,536.266849,-0.000000,9326.594869
965.667864,1378.971896,-0.000000,9030.512492
965.668180,1915.238745,370.102971,8512.368333
965.668495,2451.505594,444.123565,8734.430116
965.668811,2528.115143,888.247130,8660.409521
965.669127,2374.896044,1480.411884,8734.430116
965.669442,2068.457845,1850.514855,8660.409521
965.669758,1685.410096,1998.556043,8586.388927
965.670074,1149.143247,1258.350101,8660.409521
965.670389,612.876398,592.164754,9548.656652
965.670705,153.219100,222.061783,9474.636058
965.671021,-459.657299,-74.020594,9918.759623
965.671336,-1225.752797,-740.205942,10214.842000
965.671652,-1915.238745,-666.185348,10436.903782
965.671967,-1915.238745,-518.144159,10732.986159
965.672283,-1991.848295,-444.123565,10732.986159
965.672599,-1762.019645,-296.082377,10584.944971
965.672914,-1608.800546,-444.123565,10214.842000
965.673230,-766.095498,-444.123565,9918.759623
965.673546,-229.828649,-666.185348,10214.842000
965.673861,919.314598,-740.205942,9696.697840
965.674177,1762.019645,-370.102971,9104.533087
965.674493,1991.848295,-666.185348,9030.512492
965.674808,2528.115143,-74.020594,8660.409521
965.675124,2834.553343,-0.000000,8586.388927
965.675440,3217.601092,666.185348,8438.347739
965.675755,2911.162892,1036.288319,8586.388927
965.676071,2221.676944,666.185348,8068.244768
965.676387,1608.800546,296.082377,8438.347739
965.676702,1302.362347,-370.102971,9326.594869
965.677018,536.266849,-814.226536,9696.697840
965.677334,0.000000,-1332.370696,9770.718434
965.677649,-689.485948,-1628.453072,10288.862594
965.677965,-1838.629195,-1776.494261,10214.842000
965.678281,-1991.848295,-1628.453072,10436.903782
965.678596,-1915.238745,-1332.370696,10510.924376
965.678912,-1838.629195,-1036.288319,10214.842000
965.679228,-1532.190996,-518.144159,10288.862594
965.679543,-995.924147,-666.185348,9622.677246
965.679859,0.000000,-1036.288319,9844.739029
965.680174,995.924147,-888.247130,9548.656652
965.680490,2451.505594,-962.267725,9104.533087
965.680806,2451.505594,-592.164754,8882.471304
965.681121,2834.553343,-370.102971,8586.388927
965.681437,3064.381992,-148.041188,8660.409521
965.681753,3370.820191,370.102971,8364.327145
965.682068,3064.381992,740.205942,8512.368333
965.682384,2681.334243,1406.391290,8438.347739
965.682700,2221.676944,1332.370696,8142.265362
965.683015,1455.581446,814.226536,8956.491898
965.683331,919.314598,-0.000000,9400.615463
965.683647,459.657299,-666.185348,9548.656652
965.683962,-383.047749,-888.247130,9548.656652
965.684278,-1378.971896,-1184.329507,9918.759623
965.684594,-1762.019645,-1406.391290,10288.862594
965.684909,-1915.238745,-1258.350101,10436.903782
965.685225,-1915.238745,-814.226536,10584.944971
965.685541,-1762.019645,-888.247130,10066.800811
965.685856,-1685.410096,-1110.308913,10066.800811
965.686172,-919.314598,-1036.288319,10214.842000
965.686488,0.000000,-1184.329507,9844.739029
965.686803,995.924147,-740.205942,9548.656652
965.687119,1838.629195,-518.144159,9104.533087
965.687434,2374.896044,-74.020594,8586.388927
965.687750,2374.896044,222.061783,8438.347739
965.688066,2451.505594,518.144159,8512.368333
965.688381,2604.724693,1036.288319,8216.285956
965.688697,2528.115143,1628.453072,8068.244768
965.689013,1991.848295,1332.370696,8438.347739
965.689328,383.047749,592.164754,9178.553681
965.689644,1072.533697,-74.020594,9844.739029
965.689960,-612.876398,-296.082377,9992.780217
965.690275,-1302.362347,-814.226536,10066.800811
965.690591,-1838.629195,-740.205942,10214.842000
965.690907,-2681.334243,-962.267725,10658.965565
965.691222,-2451.505594,-1258.350101,10732.986159
965.691538,-2528.115143,-740.205942,10658.965565
965.691854,-2528.115143,-0.000000,10510.924376
965.692169,-1991.848295,-148.041188,10140.821405
965.692485,-1149.143247,-148.041188,9918.759623
965.692801,0.000000,-222.061783,9992.780217
965.693116,459.657299,-222.061783,9548.656652
965.693432,1302.362347,-0.000000,9252.574275
965.693748,2298.286494,-0.000000,8734.430116
965.694063,2757.943793,666.185348,8882.471304
965.694379,2911.162892,666.185348,8734.430116
965.694695,2987.772442,1184.329507,8438.347739
965.695010,2681.334243,1332.370696,8290.306550
965.695326,2068.457845,1998.556043,8512.368333
965.695641,1532.190996,1924.535449,8808.450710
965.695957,995.924147,814.226536,9104.533087
965.696273,689.485948,518.144159,9548.656652
965.696588,-153.219100,444.123565,9474.636058
965.696904,-459.657299,-148.041188,9770.718434
965.697220,-1685.410096,-740.205942,9918.759623
965.697535,-1915.238745,-740.205942,10436.903782
965.697851,-1762.019645,-814.226536,10658.965565
965.698167,-1915.238745,-518.144159,10584.944971
965.698482,-2145.067394,-296.082377,10510.924376
965.698798,-1455.581446,-740.205942,10214.842000
965.699114,-689.485948,-962.267725,10214.842000
965.699429,306.438199,-962.267725,10140.821405
965.699745,1225.752797,-666.185348,9474.636058
965.700061,2374.896044,-518.144159,9178.553681
965.700376,2528.115143,-0.000000,8586.388927
965.700692,2911.162892,148.041188,8364.327145
965.701008,3370.820191,740.205942,8290.306550
965.701323,3524.039291,962.267725,8142.265362
965.701639,2451.505594,1554.432478,8364.327145
965.701955,1915.238745,1036.288319,8438.347739
965.702270,1378.971896,222.061783,8734.430116
965.702586,459.657299,-370.102971,9696.697840
965.702901,-229.828649,-1110.308913,9992.780217
965.703217,-995.924147,-1480.411884,10362.883188
965.703533,-1915.238745,-1850.514855,10288.862594
965.703848,-2221.676944,-1776.494261,10436.903782
965.704164,-2374.896044,-1628.453072,10807.006753
965.704480,-2298.286494,-1184.329507,10436.903782
965.704795,-2068.457845,-592.164754,10140.821405
965.705111,-1762.019645,-592.164754,10066.800811
965.705427,-689.485948,-962.267725,9622.677246
965.705742,306.438199,-1036.288319,9548.656652
965.706058,1072.533697,-888.247130,9400.615463
965.706374,2145.067394,-592.164754,8734.430116
965.706690,2528.115143,-444.123565,8290.306550
965.707006,2757.943793,148.041188,8512.368333
965.707321,2987.772442,370.102971,8438.347739
965.707637,3447.429741,888.247130,8734.430116
965.707953,2451.505594,666.185348,8142.265362
965.708269,2298.286494,814.226536,8512.368333
965.708584,1455.581446,518.144159,8956.491898
965.708900,612.876398,-74.020594,9548.656652
965.709216,229.828649,-740.205942,9400.615463
965.709532,-229.828649,-888.247130,10066.800811
965.709848,-1149.143247,-1036.288319,9770.718434
965.710163,-1455.581446,-1184.329507,9992.780217
965.710479,-2068.457845,-1258.350101,10584.944971
965.710795,-1991.848295,-888.247130,10658.965565
965.711111,-1991.848295,-962.267725,10436.903782
965.711427,-1608.800546,-962.267725,10214.842000
965.711742,-995.924147,-1036.288319,9918.759623
965.712058,-229.828649,-1110.308913,10140.821405
965.712374,536.266849,-1332.370696,10140.821405
965.712690,1532.190996,-962.267725,9326.594869
965.713006,2145.067394,-518.144159,8882.471304
965.713321,2528.115143,-0.000000,8512.368333
965.713637,3294.210641,444.123565,8660.409521
965.713953,3294.210641,814.226536,8290.306550
965.714269,3294.210641,1628.453072,7994.224174
965.714585,2528.115143,1924.535449,7920.203579
965.714900,1762.019645,1406.391290,8364.327145
965.715216,1225.752797,518.144159,9030.512492
965.715532,612.876398,-74.020594,9622.677246
965.715848,0.000000,-592.164754,9770.718434
965.716163,-919.314598,-888.247130,10066.800811
965.716479,-1685.410096,-888.247130,10288.862594
965.716795,-1991.848295,-1258.350101,10658.965565
965.717111,-2145.067394,-1036.288319,10658.965565
965.717427,-1762.019645,-444.123565,10436.903782
965.717742,-1838.629195,-0.000000,10140.821405
965.718058,-1378.971896,-0.000000,10066.800811
965.718374,-306.438199,-74.020594,9844.739029
965.718690,536.266849,-222.061783,9622.677246
965.719006,1302.362347,-370.102971,9474.636058
965.719321,2145.067394,-370.102971,8882.471304
965.719637,2451.505594,-148.041188,8734.430116
965.719953,3064.381992,296.082377,8660.409521
965.720269,3370.820191,592.164754,8882.471304
965.720585,3140.991542,1258.350101,8586.388927
965.720900,2987.772442,1776.494261,8364.327145
965.721216,2374.896044,1554.432478,8438.347739
965.721532,1762.019645,1184.329507,9178.553681
965.721848,1225.752797,666.185348,9474.636058
965.722163,536.266849,222.061783,9474.636058
965.722479,-306.438199,-296.082377,9844.739029
965.722795,-766.095498,-666.185348,10140.821405
965.723111,-1685.410096,-1332.370696,10140.821405
965.723427,-2145.067394,-1258.350101,10584.944971
965.723742,-2221.676944,-888.247130,10881.027347
965.724058,-2145.067394,-666.185348,10510.924376
965.724374,-2145.067394,-518.144159,10288.862594
965.724690,-995.924147,-814.226536,10436.903782
965.725006,-229.828649,-1110.308913,10214.842000
965.725321,766.095498,-740.205942,9696.697840
965.725637,1302.362347,-444.123565,9252.574275
965.725953,2221.676944,-518.144159,8882.471304
965.726269,2451.505594,-148.041188,8660.409521
965.726585,2987.772442,518.144159,8660.409521
965.726900,2834.553343,962.267725,8216.285956
965.727216,2604.724693,1406.391290,7920.203579
965.727532,2528.115143,1332.370696,8216.285956
965.727848,1608.800546,814.226536,8734.430116
965.728164,1072.533697,74.020594,9178.553681
965.728479,383.047749,-444.123565,9622.677246
965.728795,-612.876398,-888.247130,9770.718434
965.729111,-1225.752797,-1036.288319,10066.800811
965.729427,-1991.848295,-1258.350101,10214.842000
965.729742,-2298.286494,-1480.411884,10362.883188
965.730058,-2298.286494,-1110.308913,10732.986159
965.730374,-2451.505594,-740.205942,10288.862594
965.730690,-1838.629195,-666.185348,9844.739029
965.731006,-1608.800546,-740.205942,9918.759623
965.731321,-689.485948,-962.267725,9844.739029
965.731637,229.828649,-740.205942,9770.718434
965.731953,1532.190996,-666.185348,9474.636058
965.732269,2068.457845,-592.164754,8512.368333
965.732585,2374.896044,-296.082377,8586.388927
965.732900,2528.115143,-0.000000,8734.430116
965.733216,2911.162892,740.205942,8216.285956
965.733532,2834.553343,1110.308913,8586.388927
965.733848,2374.896044,1480.411884,8142.265362
965.734164,1915.238745,1184.329507,8438.347739
965.734479,1302.362347,814.226536,8808.450710
965.734795,842.705048,296.082377,9474.636058
965.735111,0.000000,-296.082377,9400.615463
965.735427,-842.705048,-444.123565,9696.697840
965.735742,-1685.410096,-888.247130,10066.800811
965.736058,-2221.676944,-1110.308913,10732.986159
965.736374,-1762.019645,-1184.329507,10807.006753
965.736690,-2528.115143,-888.247130,11029.068536
965.737006,-2068.457845,-592.164754,10658.965565
965.737321,-1991.848295,-444.123565,10362.883188
965.737637,-1149.143247,-814.226536,10214.842000
965.737953,459.657299,-888.247130,9992.780217
965.738269,919.314598,-518.144159,9474.636058
965.738585,1915.238745,-0.000000,9326.594869
965.738900,2604.724693,-0.000000,8586.388927
965.739216,3064.381992,444.123565,8438.347739
965.739532,3524.039291,592.164754,8438.347739
965.739848,3524.039291,1554.432478,8290.306550
965.740164,2911.162892,1924.535449,8216.285956
965.740479,2374.896044,1628.453072,8586.388927
965.740795,1532.190996,888.247130,8734.430116
965.741111,919.314598,222.061783,9326.594869
965.741427,229.828649,-296.082377,9770.718434
965.741743,-995.924147,-518.144159,10288.862594
965.742058,-1455.581446,-1184.329507,10362.883188
965.742374,-1991.848295,-1332.370696,10436.903782
965.742690,-2221.676944,-1184.329507,10584.944971
965.743006,-2451.505594,-592.164754,10955.047942
965.743321,-2145.067394,-592.164754,10214.842000
965.743637,-2068.457845,-370.102971,10140.821405
965.743953,-1225.752797,-518.144159,9918.759623
965.744269,-76.609550,-962.267725,9992.780217
965.744585,766.095498,-740.205942,9770.718434
965.744900,1915.238745,-666.185348,9030.512492
965.745216,2451.505594,-222.061783,8660.409521
965.745532,2528.115143,-0.000000,8586.388927
965.745848,2834.553343,-0.000000,8438.347739
965.746164,3294.210641,962.267725,8660.409521
965.746479,2987.772442,1184.329507,8216.285956
965.746795,2145.067394,1258.350101,8142.265362
965.747111,1915.238745,1110.308913,8586.388927
965.747427,1302.362347,296.082377,8808.450710
965.747743,612.876398,-0.000000,9326.594869
965.748058,-153.219100,-296.082377,9696.697840
965.748374,-919.314598,-814.226536,9548.656652
965.748690,-1991.848295,-1036.288319,10140.821405
965.749006,-2145.067394,-1184.329507,10732.986159
965.749321,-2298.286494,-740.205942,10658.965565
965.749637,-2451.505594,-962.267725,10584.944971
965.749953,-2221.676944,-888.247130,10214.842000
965.750269,-1991.848295,-888.247130,10140.821405
965.750585,-919.314598,-1110.308913,10066.800811
965.750900,153.219100,-888.247130,9696.697840
965.751216,995.924147,-592.164754,9252.574275
965.751532,2145.067394,-444.123565,8808.450710
965.751848,2987.772442,-148.041188,8660.409521
965.752164,2834.553343,-0.000000,8364.327145
965.752479,3447.429741,666.185348,8290.306550
965.752795,3140.991542,1258.350101,7994.224174
965.753111,2757.943793,1480.411884,8068.244768
965.753427,1991.848295,1036.288319,8216.285956
965.753743,1225.752797,666.185348,8808.450710
965.754058,766.095498,-0.000000,9474.636058
965.754374,0.000000,-740.205942,9770.718434
965.754690,-689.485948,-1184.329507,10066.800811
965.755006,-1225.752797,-1850.514855,10436.903782
965.755322,-2068.457845,-1480.411884,10881.027347
965.755637,-2374.896044,-1406.391290,10881.027347
965.755953,-2528.115143,-1258.350101,10807.006753
965.756269,-1991.848295,-1036.288319,10436.903782
965.756585,-1455.581446,-740.205942,10066.800811
965.756900,-842.705048,-888.247130,9992.780217
965.757216,153.219100,-888.247130,9696.697840
965.757532,1455.581446,-814.226536,9474.636058
965.757848,2604.724693,-740.205942,8882.471304
965.758164,3217.601092,-592.164754,8512.368333
965.758479,3140.991542,296.082377,8660.409521
965.758795,3447.429741,518.144159,8142.265362
965.759111,3447.429741,1110.308913,8438.347739
965.759427,2681.334243,1184.329507,8512.368333
965.759743,2374.896044,1332.370696,8586.388927
965.760058,1685.410096,592.164754,8734.430116
965.760374,995.924147,-0.000000,9252.574275
965.760690,229.828649,-0.000000,9696.697840
965.761006,-612.876398,-518.144159,9548.656652
965.761322,-1532.190996,-962.267725,10362.883188
965.761637,-1915.238745,-740.205942,10362.883188
965.761953,-2221.676944,-888.247130,10732.986159
965.762269,-2221.676944,-888.247130,10807.006753
965.762585,-2681.334243,-888.247130,10955.047942
965.762900,-2145.067394,-222.061783,10362.883188
965.763216,-1455.581446,-814.226536,10140.821405
965.763532,-306.438199,-740.205942,10066.800811
965.763848,536.266849,-592.164754,9770.718434
965.764164,1608.800546,-370.102971,8882.471304
965.764479,2374.896044,-0.000000,8512.368333
965.764795,2681.334243,222.061783,8364.327145
965.765111,3140.991542,666.185348,8216.285956
965.765427,3294.210641,1406.391290,8290.306550
965.765743,3524.039291,2146.597232,8216.285956
965.766058,2757.943793,1924.535449,7772.162391
965.766374,1991.848295,1258.350101,8290.306550
965.766690,1149.143247,666.185348,9030.512492
965.767006,766.095498,-370.102971,9548.656652
965.767322,-306.438199,-592.164754,9770.718434
965.767637,-1149.143247,-962.267725,10066.800811
965.767953,-2221.676944,-1480.411884,10658.965565
965.768269,-2451.505594,-1332.370696,10955.047942
965.768585,-2221.676944,-666.185348,10807.006753
965.768901,-2374.896044,-814.226536,10658.965565
965.769216,-2145.067394,-296.082377,10362.883188
965.769532,-1532.190996,-222.061783,9992.780217
965.769848,-612.876398,-592.164754,9844.739029
965.770164,612.876398,-444.123565,9622.677246
965.770479,1455.581446,-296.082377,9400.615463
965.770795,2221.676944,-74.020594,8512.368333
965.771111,2834.553343,-222.061783,8660.409521
965.771427,3140.991542,444.123565,8586.388927
965.771743,3524.039291,888.247130,8586.388927
965.772058,3294.210641,1332.370696,8438.347739
965.772374,2604.724693,1628.453072,8216.285956
965.772690,2221.676944,1332.370696,8364.327145
965.773006,1455.581446,592.164754,9178.553681
965.773322,766.095498,-0.000000,9548.656652
965.773637,0.000000,-444.123565,9696.697840
965.773953,-766.095498,-518.144159,9770.718434
965.774269,-1762.019645,-740.205942,9992.780217
965.774585,-1838.629195,-1036.288319,10066.800811
965.774901,-2298.286494,-1036.288319,10732.986159
965.775216,-2451.505594,-740.205942,10584.944971
965.775532,-2221.676944,-592.164754,10732.986159
965.775848,-1378.971896,-740.205942,10066.800811
965.776164,-995.924147,-962.267725,10214.842000
965.776479,0.000000,-962.267725,10362.883188
965.776795,842.705048,-740.205942,9844.739029
965.777111,1915.238745,-592.164754,9178.553681
965.777427,2987.772442,-0.000000,8808.450710
965.777743,2834.553343,444.123565,8586.388927
965.778058,3370.820191,666.185348,8216.285956
965.778374,3294.210641,1332.370696,8142.265362
965.778690,3064.381992,1628.453072,7994.224174
965.779006,2604.724693,1702.473667,8438.347739
965.779322,1762.019645,1184.329507,8660.409521
965.779637,842.705048,74.020594,9178.553681
965.779953,306.438199,-370.102971,9696.697840
965.780269,-459.657299,-814.226536,9918.759623
965.780585,-1378.971896,-1702.473667,9992.780217
965.780901,-2068.457845,-1924.535449,10510.924376
965.781216,-2145.067394,-1924.535449,10881.027347
965.781532,-2374.896044,-1480.411884,10658.965565
965.781848,-2221.676944,-1036.288319,10436.903782
965.782164,-1915.238745,-814.226536,10214.842000
965.782480,-1762.019645,-666.185348,9770.718434
965.782795,-689.485948,-888.247130,9918.759623
965.783111,536.266849,-1036.288319,9696.697840
965.783427,1455.581446,-740.205942,9104.533087
965.783743,2298.286494,-1184.329507,8512.368333
965.784058,2604.724693,-222.061783,8364.327145
965.784374,3064.381992,148.041188,8364.327145
965.784690,3447.429741,1110.308913,8364.327145
965.785006,3140.991542,1406.391290,8068.244768
965.785322,2681.334243,1924.535449,7920.203579
965.785637,1915.238745,1554.432478,8068.244768
965.785953,1455.581446,962.267725,8808.450710
965.786269,842.705048,370.102971,9104.533087
965.786585,0.000000,-222.061783,9474.636058
965.786901,-689.485948,-962.267725,9696.697840
965.787216,-1915.238745,-1628.453072,9992.780217
965.787532,-2374.896044,-1480.411884,10658.965565
965.787848,-2451.505594,-1480.411884,10807.006753
965.788164,-2604.724693,-1184.329507,10881.027347
965.788480,-2374.896044,-814.226536,10584.944971
965.788795,-1991.848295,-962.267725,10510.924376
965.789111,-1149.143247,-1258.350101,10214.842000
965.789427,-153.219100,-814.226536,9918.759623
965.789743,1149.143247,-1110.308913,9548.656652
965.790058,1915.238745,-148.041188,8956.491898
965.790374,2451.505594,222.061783,8512.368333
965.790690,3064.381992,222.061783,8216.285956
965.791006,3600.648841,1036.288319,8364.327145
965.791322,3370.820191,1554.432478,8142.265362
965.791637,2911.162892,2072.576638,7994.224174
965.791953,2451.505594,1776.494261,8216.285956
965.792269,1838.629195,1184.329507,8882.471304
965.792585,995.924147,666.185348,9326.594869
965.792901,0.000000,-222.061783,9770.718434
965.793216,-919.314598,-814.226536,10214.842000
965.793532,-1532.190996,-1332.370696,10362.883188
965.793848,-2221.676944,-1406.391290,10732.986159
965.794164,-2528.115143,-1554.432478,11029.068536
965.794480,-2451.505594,-1480.411884,11325.150913
965.794795,-2528.115143,-962.267725,10732.986159
965.795111,-2451.505594,-666.185348,10584.944971
965.795427,-1685.410096,-888.247130,10436.903782
965.795743,-459.657299,-1036.288319,10066.800811
965.796059,153.219100,-666.185348,9548.656652
965.796374,1302.362347,-666.185348,8882.471304
965.796690,2451.505594,-296.082377,8808.450710
965.797006,2681.334243,296.082377,8438.347739
965.797322,2757.943793,592.164754,8364.327145
965.797637,3217.601092,1258.350101,8290.306550
965.797953,2987.772442,1406.391290,8216.285956
965.798269,2221.676944,1776.494261,8068.244768
965.798585,1532.190996,1480.411884,8586.388927
965.798901,1225.752797,444.123565,9030.512492
965.799216,536.266849,-0.000000,9252.574275
965.799532,-306.438199,-74.020594,9178.553681
965.799848,-1225.752797,-888.247130,9770.718434
965.800164,-1991.848295,-1036.288319,10066.800811
965.800480,-2681.334243,-1480.411884,10510.924376
965.800795,-2604.724693,-888.247130,10955.047942
965.801111,-2528.115143,-962.267725,10881.027347
965.801427,-2374.896044,-1258.350101,10807.006753
965.801743,-1838.629195,-1406.391290,10214.842000
965.802059,0.000000,-1554.432478,10510.924376
965.802374,459.657299,-1184.329507,9918.759623
965.802690,1532.190996,-592.164754,9178.553681
965.803006,2528.115143,-370.102971,8512.368333
965.803322,3140.991542,222.061783,8216.285956
965.803637,3600.648841,444.123565,7920.203579
965.803953,3600.648841,1184.329507,7920.203579
965.804269,3600.648841,1480.411884,7994.224174
965.804585,3140.991542,1702.473667,7920.203579
965.804901,3064.381992,1628.453072,8290.306550
965.805216,2145.067394,518.144159,8956.491898
965.805532,1532.190996,-74.020594,9252.574275
965.805848,153.219100,-740.205942,9548.656652
965.806164,-612.876398,-1110.308913,10066.800811
965.806480,-1838.629195,-1702.473667,10362.883188
965.806795,-2068.457845,-1776.494261,10955.047942
965.807111,-2451.505594,-1850.514855,11103.089130
965.807427,-2298.286494,-1332.370696,10955.047942
965.807743,-2221.676944,-962.267725,10732.986159
965.808058,-1608.800546,-1036.288319,10288.862594
965.808374,-689.485948,-1036.288319,10214.842000
965.808690,0.000000,-1110.308913,9844.739029
965.809006,1302.362347,-518.144159,9474.636058
965.809322,2374.896044,-518.144159,8882.471304
965.809637,2604.724693,-74.020594,8364.327145
965.809953,3140.991542,-0.000000,8364.327145
965.810269,3370.820191,666.185348,8586.388927
965.810585,3600.648841,1332.370696,8142.265362
965.810900,3140.991542,1258.350101,8290.306550
965.811216,2374.896044,1480.411884,8216.285956
965.811532,1762.019645,740.205942,8586.388927
965.811848,1302.362347,518.144159,8956.491898
965.812164,306.438199,-74.020594,9474.636058
965.812479,-612.876398,-814.226536,9844.739029
965.812795,-1378.971896,-1036.288319,10066.800811
965.813111,-2221.676944,-1258.350101,10510.924376
965.813427,-2451.505594,-1258.350101,10881.027347
965.813742,-2451.505594,-1184.329507,11103.089130
965.814058,-2451.505594,-814.226536,10732.986159
965.814374,-2374.896044,-1110.308913,10510.924376
965.814690,-1685.410096,-1258.350101,10362.883188
965.815005,-383.047749,-1332.370696,10140.821405
965.815321,1378.971896,-1110.308913,9918.759623
965.815637,1532.190996,-518.144159,9400.615463
965.815953,2374.896044,-0.000000,8734.430116
965.816269,2757.943793,592.164754,8290.306550
965.816584,3447.429741,962.267725,8068.244768
965.816900,3294.210641,1406.391290,8216.285956
965.817216,3524.039291,1924.535449,8068.244768
965.817532,2681.334243,1776.494261,8068.244768
965.817847,2145.067394,1184.329507,8364.327145
965.818163,1685.410096,296.082377,9178.553681
965.818479,842.705048,-0.000000,9474.636058
965.818795,-689.485948,-592.164754,9992.780217
965.819111,-1225.752797,-666.185348,10066.800811
965.819426,-2068.457845,-1258.350101,10658.965565
965.819742,-2451.505594,-1406.391290,10955.047942
965.820058,-2528.115143,-1110.308913,10955.047942
965.820374,-2604.724693,-1036.288319,10436.903782
965.820689,-2451.505594,-888.247130,10362.883188
965.821005,-1685.410096,-962.267725,10214.842000
965.821321,-766.095498,-888.247130,10140.821405
965.821637,612.876398,-1036.288319,9548.656652
965.821953,1225.752797,-666.185348,9326.594869
965.822268,2221.676944,-296.082377,8956.491898
965.822584,2528.115143,-0.000000,8438.347739
965.822900,3447.429741,814.226536,8364.327145
965.823216,3524.039291,1184.329507,8364.327145
965.823531,3600.648841,1554.432478,8216.285956
965.823847,3064.381992,1924.535449,7994.224174
965.824163,2221.676944,1702.473667,8290.306550
965.824479,1991.848295,814.226536,8808.450710
965.824794,1149.143247,518.144159,9400.615463
965.825110,153.219100,-0.000000,9474.636058
965.825426,-766.095498,-444.123565,9992.780217
965.825742,-1532.190996,-888.247130,9992.780217
965.826058,-2451.505594,-962.267725,10732.986159
965.826373,-2298.286494,-1036.288319,11177.109724
965.826689,-2451.505594,-740.205942,10881.027347
965.827005,-2451.505594,-666.185348,10881.027347
965.827321,-1991.848295,-1184.329507,10288.862594
965.827636,-1225.752797,-1258.350101,10510.924376
965.827952,-459.657299,-1332.370696,9918.759623
965.828268,766.095498,-1036.288319,9844.739029
965.828584,1608.800546,-444.123565,8956.491898
965.828900,2451.505594,-0.000000,8660.409521
965.829215,2681.334243,370.102971,8290.306550
965.829531,3294.210641,1184.329507,8142.265362
965.829847,3370.820191,1628.453072,7994.224174
965.830163,3370.820191,1924.535449,7698.141797
965.830478,2451.505594,1924.535449,8438.347739
965.830794,1915.238745,1110.308913,8660.409521
965.831110,1149.143247,518.144159,9252.574275
965.831426,306.438199,-222.061783,9474.636058
965.831741,-612.876398,-666.185348,9992.780217
965.832057,-1685.410096,-1258.350101,10288.862594
965.832373,-2374.896044,-1184.329507,10807.006753
965.832689,-2528.115143,-1628.453072,11251.130318
965.833005,-2834.553343,-1184.329507,11029.068536
965.833320,-2451.505594,-592.164754,10584.944971
965.833636,-2221.676944,-740.205942,10214.842000
965.833952,-1685.410096,-888.247130,10584.944971
965.834268,-919.314598,-1110.308913,9918.759623
965.834583,459.657299,-518.144159,9474.636058
965.834899,1762.019645,-518.144159,9030.512492
965.835215,2604.724693,-74.020594,8882.471304
965.835531,2681.334243,148.041188,8512.368333
965.835847,3064.381992,370.102971,8290.306550
965.836162,3217.601092,888.247130,8512.368333
965.836478,3064.381992,1258.350101,8290.306550
965.836794,2757.943793,1628.453072,8364.327145
965.837110,2374.896044,1184.329507,8290.306550
965.837425,1685.410096,740.205942,8882.471304
965.837741,919.314598,296.082377,9326.594869
965.838057,0.000000,-222.061783,9474.636058
965.838373,-919.314598,-370.102971,9844.739029
965.838688,-1762.019645,-1036.288319,9992.780217
965.839004,-2298.286494,-1258.350101,10584.944971
965.839320,-2451.505594,-1184.329507,10807.006753
965.839636,-2834.553343,-1258.350101,10955.047942
965.839952,-2451.505594,-1184.329507,10362.883188
965.840267,-2221.676944,-1184.329507,10362.883188
965.840583,-1225.752797,-1406.391290,10510.924376
965.840899,-229.828649,-1332.370696,10140.821405
965.841215,689.485948,-1258.350101,9474.636058
965.841530,1838.629195,-518.144159,8882.471304
965.841846,2374.896044,-148.041188,8512.368333
965.842162,2987.772442,222.061783,8364.327145
965.842478,3524.039291,962.267725,8142.265362
965.842794,3370.820191,1480.411884,7994.224174
965.843109,3140.991542,1924.535449,7772.162391
965.843425,2911.162892,1776.494261,7550.100608
965.843741,2068.457845,666.185348,8586.388927
965.844057,1455.581446,296.082377,9178.553681
965.844372,383.047749,-148.041188,9474.636058
965.844688,-153.219100,-592.164754,9844.739029
965.845004,-1378.971896,-888.247130,10214.842000
965.845320,-2221.676944,-1480.411884,10658.965565
965.845635,-2221.676944,-1850.514855,11029.068536
965.845951,-2681.334243,-962.267725,11251.130318
965.846267,-2451.505594,-666.185348,10436.903782
965.846583,-2145.067394,-962.267725,10214.842000
965.846899,-1455.581446,-1036.288319,10436.903782
965.847214,-229.828649,-1332.370696,9770.718434
965.847530,306.438199,-814.226536,9696.697840
965.847846,1455.581446,-518.144159,9252.574275
965.848162,2145.067394,-74.020594,8882.471304
965.848477,2681.334243,-0.000000,8586.388927
965.848793,2987.772442,370.102971,8438.347739
965.849109,3447.429741,1406.391290,8216.285956
965.849425,3140.991542,1702.473667,8216.285956
965.849741,2987.772442,1850.514855,8142.265362
965.850056,2451.505594,1036.288319,8438.347739
965.850372,1685.410096,814.226536,9252.574275
965.850688,995.924147,296.082377,9326.594869
965.851004,76.609550,-222.061783,9622.677246
965.851319,-919.314598,-740.205942,9770.718434
965.851635,-1685.410096,-888.247130,10362.883188
965.851951,-2298.286494,-888.247130,10807.006753
965.852267,-2604.724693,-1110.308913,10658.965565
965.852583,-2681.334243,-740.205942,10881.027347
965.852898,-2528.115143,-1110.308913,10436.903782
965.853214,-2221.676944,-1480.411884,10732.986159
965.853530,-1302.362347,-1850.514855,10436.903782
965.853846,-229.828649,-1480.411884,10436.903782
965.854161,842.705048,-888.247130,9844.739029
965.854477,2068.457845,-518.144159,8734.430116
965.854793,2451.505594,-0.000000,8364.327145
965.855109,3294.210641,740.205942,8290.306550
965.855424,3600.648841,1332.370696,7846.182985
965.855740,3753.867940,1924.535449,7772.162391
965.856056,3677.258390,2072.576638,7698.141797
965.856372,3064.381992,1258.350101,7846.182985
965.856688,2298.286494,666.185348,8512.368333
965.857003,1149.143247,-0.000000,9178.553681
965.857319,536.266849,-370.102971,9548.656652
965.857635,-536.266849,-814.226536,10066.800811
965.857951,-1685.410096,-888.247130,10066.800811
965.858266,-2374.896044,-1184.329507,10658.965565
965.858582,-2528.115143,-1332.370696,10955.047942
965.858898,-2757.943793,-962.267725,10807.006753
965.859214,-2604.724693,-1036.288319,10658.965565
965.859530,-2451.505594,-962.267725,10288.862594
965.859845,-1455.581446,-1110.308913,10436.903782
965.860161,-383.047749,-1110.308913,9918.759623
965.860477,612.876398,-962.267725,9622.677246
965.860793,1608.800546,-592.164754,9622.677246
965.861108,2221.676944,-222.061783,8734.430116
965.861424,2911.162892,296.082377,8734.430116
965.861740,3294.210641,666.185348,8438.347739
965.862056,3524.039291,1480.411884,8290.306550
965.862371,3370.820191,1850.514855,7698.141797
965.862687,2757.943793,1924.535449,7698.141797
965.863003,1991.848295,1332.370696,8512.368333
965.863319,1378.971896,370.102971,8808.450710
965.863635,612.876398,-0.000000,9326.594869
965.863950,-306.438199,-592.164754,9548.656652
965.864266,-1302.362347,-1036.288319,9992.780217
965.864582,-2298.286494,-1184.329507,10732.986159
965.864898,-2681.334243,-1406.391290,11029.068536
965.865213,-2604.724693,-1184.329507,11325.150913
965.865529,-2221.676944,-1036.288319,10881.027347
965.865845,-2528.115143,-888.247130,10214.842000
965.866161,-1532.190996,-1258.350101,10436.903782
965.866477,-766.095498,-1332.370696,10436.903782
965.866792,76.609550,-962.267725,9918.759623
965.867108,1685.410096,-518.144159,9104.533087
965.867424,2298.286494,-74.020594,8808.450710
965.867740,2834.553343,296.082377,8364.327145
965.868055,3524.039291,1036.288319,8142.265362
965.868371,3907.087040,1702.473667,7994.224174
965.868687,3753.867940,1998.556043,7920.203579
965.869003,3140.991542,2072.576638,8068.244768
965.869318,2451.505594,1406.391290,8216.285956
965.869634,1685.410096,592.164754,9252.574275
965.869950,1378.971896,-518.144159,9548.656652
965.870266,0.000000,-444.123565,9696.697840
965.870582,-842.705048,-962.267725,10140.821405
965.870897,-1838.629195,-1702.473667,10658.965565
965.871213,-2221.676944,-1332.370696,11103.089130
965.871529,-2451.505594,-814.226536,11177.109724
965.871845,-2528.115143,-740.205942,10955.047942
965.872160,-2145.067394,-814.226536,10288.862594
965.872476,-1762.019645,-1036.288319,10362.883188
965.872792,-766.095498,-1110.308913,10436.903782
965.873108,0.000000,-1036.288319,9992.780217
965.873424,1225.752797,-740.205942,9548.656652
965.873739,2221.676944,-518.144159,8882.471304
965.874055,2834.553343,-296.082377,8734.430116
965.874371,2987.772442,74.020594,8734.430116
965.874687,2987.772442,592.164754,8734.430116
965.875002,3370.820191,1406.391290,8364.327145
965.875318,3140.991542,1850.514855,7994.224174
965.875634,2528.115143,1702.473667,8068.244768
965.875950,2374.896044,740.205942,8660.409521
965.876265,1378.971896,296.082377,9104.533087
965.876581,229.828649,-222.061783,9252.574275
965.876897,-459.657299,-666.185348,9770.718434
965.877213,-1302.362347,-1110.308913,10288.862594
965.877529,-2298.286494,-1258.350101,10732.986159
965.877844,-2451.505594,-1110.308913,11177.109724
965.878160,-2374.896044,-962.267725,10658.965565
965.878476,-2604.724693,-1036.288319,10584.944971
965.878792,-2298.286494,-1036.288319,10584.944971
965.879107,-1685.410096,-1480.411884,10510.924376
965.879423,-459.657299,-962.267725,10362.883188
965.879739,919.314598,-814.226536,9548.656652
965.880055,1838.629195,-370.102971,9030.512492
965.880371,2298.286494,-296.082377,8660.409521
965.880686,3140.991542,296.082377,8512.368333
965.881002,3294.210641,814.226536,8364.327145
965.881318,3447.429741,1628.453072,7920.203579
965.881634,3370.820191,1924.535449,7624.121203
965.881949,2757.943793,1628.453072,7846.182985
965.882265,1838.629195,666.185348,8438.347739
965.882581,1302.362347,-0.000000,9104.533087
965.882897,383.047749,-74.020594,9548.656652
965.883213,-689.485948,-1036.288319,9918.759623
965.883528,-1685.410096,-1480.411884,10140.821405
965.883844,-2451.505594,-1702.473667,10807.006753
965.884160,-2451.505594,-1406.391290,11251.130318
965.884476,-3064.381992,-1406.391290,11103.089130
965.884791,-2528.115143,-1110.308913,10584.944971
965.885107,-2451.505594,-962.267725,10584.944971
965.885423,-1532.190996,-1110.308913,10140.821405
965.885739,-612.876398,-1036.288319,10140.821405
965.886054,459.657299,-814.226536,9696.697840
965.886370,1685.410096,-740.205942,9104.533087
965.886686,2451.505594,-148.041188,8660.409521
965.887002,2834.553343,-0.000000,8364.327145
965.887318,3370.820191,370.102971,8660.409521
965.887633,3907.087040,1110.308913,8438.347739
965.887949,2604.724693,1184.329507,8364.327145
965.888265,2604.724693,1998.556043,8216.285956
965.888581,2374.896044,1332.370696,8512.368333
965.888896,1532.190996,814.226536,8734.430116
965.889212,689.485948,370.102971,9326.594869
965.889528,0.000000,-148.041188,9400.615463
965.889844,-995.924147,-814.226536,9918.759623
965.890160,-1838.629195,-1332.370696,10362.883188
965.890475,-2374.896044,-1332.370696,10807.006753
965.890791,-2681.334243,-1332.370696,11103.089130
965.891107,-2834.553343,-962.267725,10807.006753
965.891423,-2604.724693,-1036.288319,10436.903782
965.891738,-1991.848295,-814.226536,10436.903782
965.892054,-919.314598,-1036.288319,10288.862594
965.892370,76.609550,-740.205942,9770.718434
965.892686,1149.143247,-518.144159,9400.615463
965.893001,2068.457845,-0.000000,8734.430116
965.893317,2987.772442,-0.000000,8586.388927
965.893633,3217.601092,444.123565,8290.306550
965.893949,3524.039291,888.247130,8068.244768
965.894265,3294.210641,1850.514855,7920.203579
965.894580,3140.991542,2072.576638,7698.141797
965.894896,2451.505594,1628.453072,8068.244768
965.895212,1608.800546,962.267725,8660.409521
965.895528,1455.581446,222.061783,9252.574275
965.895843,-153.219100,-222.061783,9844.739029
965.896159,-995.924147,-666.185348,9992.780217
965.896475,-1838.629195,-962.267725,10584.944971
965.896791,-2604.724693,-1702.473667,11103.089130
965.897107,-2374.896044,-1258.350101,11251.130318
965.897422,-2681.334243,-1036.288319,10955.047942
965.897738,-2528.115143,-888.247130,10362.883188
965.898054,-2221.676944,-666.185348,10436.903782
965.898370,-1455.581446,-814.226536,10140.821405
965.898685,-612.876398,-888.247130,9992.780217
965.899001,766.095498,-592.164754,9622.677246
965.899317,1915.238745,-444.123565,8808.450710
965.899633,2451.505594,-148.041188,8438.347739
965.899948,3140.991542,222.061783,8660.409521
965.900264,3447.429741,740.205942,8660.409521
965.900580,3370.820191,1332.370696,8216.285956
965.900896,3140.991542,1554.432478,8142.265362
965.901212,2528.115143,1554.432478,8216.285956
965.901527,2068.457845,1110.308913,8586.388927
965.901843,1149.143247,296.082377,8956.491898
965.902159,612.876398,-0.000000,9474.636058
965.902475,-229.828649,-370.102971,9844.739029
965.902790,-1225.752797,-814.226536,9844.739029
965.903106,-1991.848295,-1332.370696,10288.862594
965.903422,-2298.286494,-1332.370696,11029.068536
965.903738,-2528.115143,-1184.329507,10955.047942
965.904054,-2528.115143,-592.164754,10658.965565
965.904369,-2374.896044,-740.205942,10584.944971
965.904685,-1685.410096,-962.267725,10807.006753
965.905001,-919.314598,-962.267725,10362.883188
965.905317,153.219100,-888.247130,10066.800811
965.905632,1149.143247,-814.226536,9474.636058
965.905948,2068.457845,-296.082377,9030.512492
965.906264,3140.991542,-0.000000,8512.368333
965.906580,3447.429741,592.164754,8438.347739
965.906895,3830.477490,1332.370696,7994.224174
965.907211,3677.258390,1924.535449,8068.244768
965.907527,3294.210641,1850.514855,7772.162391
965.907843,2451.505594,1036.288319,8290.306550
965.908159,1991.848295,740.205942,9178.553681
965.908474,1072.533697,-74.020594,9474.636058
965.908790,459.657299,-518.144159,9474.636058
965.909106,-919.314598,-962.267725,10066.800811
965.909422,-1532.190996,-1110.308913,10140.821405
965.909738,-2068.457845,-1554.432478,10807.006753
965.910053,-1991.848295,-1036.288319,10732.986159
965.910369,-2451.505594,-1036.288319,10584.944971
965.910685,-2298.286494,-962.267725,10584.944971
965.911001,-2221.676944,-1110.308913,10288.862594
965.911316,-1072.533697,-1332.370696,10288.862594
965.911632,0.000000,-1110.308913,9770.718434
965.911948,766.095498,-1110.308913,9474.636058
965.912264,1685.410096,-962.267725,8956.491898
965.912580,2604.724693,-74.020594,8808.450710
965.912895,3217.601092,370.102971,8512.368333
965.913211,3447.429741,814.226536,8364.327145
965.913527,3447.429741,1480.411884,8068.244768
965.913843,3370.820191,1628.453072,7994.224174
965.914158,2451.505594,1332.370696,8068.244768
965.914474,2068.457845,888.247130,8660.409521
965.914790,1225.752797,444.123565,8734.430116
965.915106,766.095498,-148.041188,9400.615463
965.915422,-536.266849,-814.226536,9770.718434
965.915737,-1608.800546,-1110.308913,9918.759623
965.916053,-2145.067394,-1480.411884,10436.903782
965.916369,-2298.286494,-1110.308913,10881.027347
965.916685,-2451.505594,-1110.308913,10807.006753
965.917000,-2757.943793,-1110.308913,10436.903782
965.917316,-2451.505594,-1036.288319,10658.965565
965.917632,-1915.238745,-1406.391290,10732.986159
965.917948,-766.095498,-1480.411884,10732.986159
965.918264,612.876398,-1480.411884,10066.800811
965.918579,1149.143247,-814.226536,9178.553681
965.918895,2374.896044,222.061783,8882.471304
965.919211,2604.724693,370.102971,8438.347739
965.919527,3140.991542,888.247130,8142.265362
965.919843,3370.820191,1776.494261,7846.182985
965.920158,3524.039291,2072.576638,7476.080014
965.920474,2987.772442,1924.535449,7920.203579
965.920790,2374.896044,1258.350101,8364.327145
965.921106,1915.238745,814.226536,9252.574275
965.921421,766.095498,222.061783,9474.636058
965.921737,0.000000,-444.123565,9918.759623
965.922053,-1149.143247,-740.205942,10214.842000
965.922369,-1838.629195,-1036.288319,10807.006753
965.922685,-2374.896044,-1628.453072,10955.047942
965.923000,-2528.115143,-740.205942,11177.109724
965.923316,-2757.943793,-814.226536,10436.903782
965.923632,-2604.724693,-888.247130,10732.986159
965.923948,-1991.848295,-814.226536,10732.986159
965.924263,-995.924147,-1036.288319,10436.903782
965.924579,-153.219100,-962.267725,9918.759623
965.924895,919.314598,-592.164754,9622.677246
965.925211,1838.629195,-592.164754,8734.430116
965.925527,2451.505594,-296.082377,9104.533087
965.925842,3294.210641,-0.000000,8586.388927
965.926158,3753.867940,1110.308913,8068.244768
965.926474,3830.477490,1702.473667,7920.203579
965.926790,3370.820191,2220.617826,7698.141797
965.927105,3064.381992,1554.432478,7846.182985
965.927421,2145.067394,1258.350101,8586.388927
965.927737,1302.362347,740.205942,9030.512492
965.928053,229.828649,-0.000000,9252.574275
965.928369,-766.095498,-740.205942,9770.718434
965.928684,-1608.800546,-1036.288319,10288.862594
965.929000,-2298.286494,-1554.432478,10510.924376
965.929316,-2911.162892,-1628.453072,11177.109724
965.929632,-2681.334243,-1184.329507,11103.089130
965.929948,-2528.115143,-1184.329507,10881.027347
965.930263,-2528.115143,-1258.350101,10658.965565
965.930579,-1608.800546,-1332.370696,10584.944971
965.930895,-536.266849,-1110.308913,10362.883188
965.931211,383.047749,-814.226536,9474.636058
965.931526,1608.800546,-592.164754,9030.512492
965.931842,2374.896044,-0.000000,8660.409521
965.932158,3370.820191,518.144159,8438.347739
965.932474,3907.087040,1332.370696,8142.265362
965.932790,4060.306139,1776.494261,7624.121203
965.933105,3677.258390,2072.576638,7624.121203
965.933421,2298.286494,2220.617826,7846.182985
965.933737,2145.067394,1184.329507,8512.368333
965.934053,1302.362347,518.144159,9252.574275
965.934368,689.485948,-74.020594,9474.636058
965.934684,-229.828649,-666.185348,9770.718434
965.935000,-1838.629195,-1036.288319,10066.800811
965.935316,-2451.505594,-1554.432478,11029.068536
965.935632,-2834.553343,-1554.432478,11103.089130
965.935947,-2987.772442,-1184.329507,10955.047942
965.936263,-2834.553343,-1332.370696,10881.027347
965.936579,-2528.115143,-1332.370696,10658.965565
965.936895,-1915.238745,-1332.370696,10584.944971
965.937210,-919.314598,-1406.391290,10436.903782
965.937526,153.219100,-1554.432478,9844.739029
965.937842,1225.752797,-1110.308913,9326.594869
965.938158,2451.505594,-222.061783,8956.491898
965.938474,2528.115143,-0.000000,8364.327145
965.938789,3524.039291,518.144159,8290.306550
965.939105,3753.867940,1332.370696,7920.203579
965.939421,2987.772442,1776.494261,7328.038826
965.939737,2911.162892,1776.494261,7772.162391
965.940053,2528.115143,1036.288319,8364.327145
965.940368,1532.190996,814.226536,8956.491898
965.940684,689.485948,148.041188,9178.553681
965.941000,-153.219100,-222.061783,9474.636058
965.941316,-995.924147,-518.144159,9770.718434
965.941631,-2068.457845,-1110.308913,10288.862594
965.941947,-2374.896044,-1332.370696,10658.965565
965.942263,-2757.943793,-1406.391290,11177.109724
965.942579,-2757.943793,-1480.411884,11029.068536
965.942895,-2834.553343,-1258.350101,10807.006753
965.943210,-2374.896044,-1406.391290,10807.006753
965.943526,-1378.971896,-1628.453072,10584.944971
965.943842,0.000000,-1110.308913,10362.883188
965.944158,842.705048,-962.267725,9992.780217
965.944473,1915.238745,-444.123565,8882.471304
965.944789,2451.505594,-0.000000,8290.306550
965.945105,3524.039291,592.164754,8216.285956
965.945421,4136.915689,1258.350101,7994.224174
965.945737,3907.087040,1554.432478,7476.080014
965.946052,3600.648841,2072.576638,7624.121203
965.946368,3140.991542,1850.514855,7772.162391
965.946684,2604.724693,1184.329507,8438.347739
965.947000,1915.238745,444.123565,9400.615463
965.947315,842.705048,-0.000000,9178.553681
965.947631,-229.828649,-296.082377,9474.636058
965.947947,-1302.362347,-1036.288319,9918.759623
965.948263,-1915.238745,-1258.350101,10881.027347
965.948579,-2298.286494,-1258.350101,11399.171507
965.948894,-2681.334243,-1110.308913,11029.068536
965.949210,-2911.162892,-1258.350101,10881.027347
965.949526,-2757.943793,-1480.411884,10658.965565
965.949842,-2145.067394,-1702.473667,10955.047942
965.950158,-1302.362347,-1776.494261,10584.944971
965.950473,0.000000,-1184.329507,10066.800811
965.950789,1302.362347,-1258.350101,9622.677246
965.951105,1991.848295,-518.144159,8808.450710
965.951421,2987.772442,-0.000000,8660.409521
965.951736,3294.210641,740.205942,8512.368333
965.952052,3753.867940,1628.453072,8068.244768
965.952368,3677.258390,2368.659014,7402.059420
965.952684,3524.039291,2368.659014,7624.121203
965.953000,2681.334243,1184.329507,8364.327145
965.953315,2145.067394,888.247130,8734.430116
965.953631,1225.752797,814.226536,9178.553681
965.953947,0.000000,-0.000000,9474.636058
965.954263,-842.705048,-518.144159,9992.780217
965.954578,-1838.629195,-962.267725,10362.883188
965.954894,-2604.724693,-962.267725,11029.068536
965.955210,-2987.772442,-1258.350101,11177.109724
965.955526,-3217.601092,-1184.329507,11177.109724
965.955842,-3140.991542,-1554.432478,10881.027347
965.956157,-2681.334243,-1480.411884,11103.089130
965.956473,-1685.410096,-1702.473667,10807.006753
965.956789,-612.876398,-1110.308913,10362.883188
965.957105,766.095498,-666.185348,9844.739029
965.957420,1762.019645,-888.247130,8808.450710
965.957736,2681.334243,370.102971,8586.388927
965.958052,3140.991542,666.185348,8290.306550
965.958368,3753.867940,1702.473667,7846.182985
965.958684,4290.134789,2072.576638,7476.080014
965.958999,3753.867940,2368.659014,7031.956449
965.959315,3294.210641,2072.576638,7550.100608
965.959631,2681.334243,1480.411884,8586.388927
965.959947,1915.238745,740.205942,9030.512492
965.960263,919.314598,370.102971,9400.615463
965.960578,0.000000,-518.144159,9770.718434
965.960894,-1532.190996,-1036.288319,10288.862594
965.961210,-2145.067394,-1332.370696,10732.986159
965.961526,-2604.724693,-1406.391290,11177.109724
965.961841,-2451.505594,-1406.391290,11177.109724
965.962157,-3064.381992,-1332.370696,11029.068536
965.962473,-3064.381992,-1332.370696,11029.068536
965.962789,-2221.676944,-1776.494261,10807.006753
965.963105,-1225.752797,-1702.473667,10510.924376
965.963420,0.000000,-1332.370696,9992.780217
965.963736,842.705048,-1036.288319,9252.574275
965.964052,1991.848295,-370.102971,8734.430116
965.964368,2757.943793,-0.000000,8438.347739
965.964683,3600.648841,962.267725,7994.224174
965.964999,3983.696590,2220.617826,7698.141797
965.965315,3830.477490,2368.659014,7254.018232
965.965631,3524.039291,2072.576638,7550.100608
965.965947,2911.162892,1332.370696,8142.265362
965.966262,2298.286494,1110.308913,8660.409521
965.966578,1149.143247,296.082377,8956.491898
965.966894,153.219100,-0.000000,9474.636058
965.967210,-842.705048,-222.061783,9696.697840
965.967526,-1608.800546,-962.267725,10658.965565
965.967841,-2298.286494,-1110.308913,11029.068536
965.968157,-2757.943793,-1406.391290,11177.109724
965.968473,-3217.601092,-1332.370696,11103.089130
965.968789,-3064.381992,-1480.411884,11103.089130
965.969104,-2298.286494,-1850.514855,11103.089130
965.969420,-612.876398,-1554.432478,11029.068536
965.969736,229.828649,-1036.288319,9844.739029
965.970052,919.314598,-1036.288319,9696.697840
965.970368,1991.848295,-222.061783,9030.512492
965.970683,2757.943793,148.041188,8512.368333
965.970999,3600.648841,962.267725,8142.265362
965.971315,4290.134789,1554.432478,8068.244768
965.971631,4290.134789,2072.576638,7476.080014
965.971946,3983.696590,1850.514855,7476.080014
965.972262,3217.601092,1332.370696,7920.203579
965.972578,2528.115143,592.164754,8512.368333
965.972894,2068.457845,444.123565,9030.512492
965.973210,689.485948,-0.000000,9400.615463
965.973525,-536.266849,-740.205942,9622.677246
965.973841,-1762.019645,-962.267725,10436.903782
965.974157,-2145.067394,-1776.494261,10881.027347
965.974473,-2911.162892,-1702.473667,11029.068536
965.974788,-3370.820191,-1406.391290,11103.089130
965.975104,-3447.429741,-1628.453072,11029.068536
965.975420,-2757.943793,-1702.473667,11103.089130
965.975736,-1762.019645,-1998.556043,10732.986159
965.976052,-766.095498,-1332.370696,10362.883188
965.976367,229.828649,-1258.350101,9770.718434
965.976683,1149.143247,-962.267725,9178.553681
965.976999,2145.067394,-370.102971,8956.491898
965.977315,2987.772442,222.061783,8512.368333
965.977631,3677.258390,1184.329507,8068.244768
965.977946,3830.477490,2072.576638,7550.100608
965.978262,3600.648841,2368.659014,7179.997637
965.978578,2987.772442,1998.556043,7550.100608
965.978894,2681.334243,1258.350101,8364.327145
965.979209,1685.410096,814.226536,8808.450710
965.979525,689.485948,148.041188,9178.553681
965.979841,-229.828649,-296.082377,9696.697840
965.980157,-1072.533697,-1110.308913,10214.842000
965.980473,-2145.067394,-1258.350101,10732.986159
965.980788,-2604.724693,-1406.391290,10955.047942
965.981104,-2987.772442,-1332.370696,11251.130318
965.981420,-3140.991542,-1258.350101,11029.068536
965.981736,-2834.553343,-1628.453072,11325.150913
965.982051,-2068.457845,-1776.494261,11177.109724
965.982367,-995.924147,-1702.473667,10658.965565
965.982683,76.609550,-1406.391290,10066.800811
965.982999,1149.143247,-740.205942,9548.656652
965.983315,2374.896044,-444.123565,9252.574275
965.983630,2987.772442,222.061783,8216.285956
965.983946,3907.087040,1406.391290,8068.244768
965.984262,4673.182538,1924.535449,7254.018232
965.984578,3830.477490,2368.659014,7179.997637
965.984893,3830.477490,2738.761985,7846.182985
965.985209,3524.039291,1702.473667,7994.224174
965.985525,2451.505594,740.205942,8512.368333
965.985841,1149.143247,370.102971,9030.512492
965.986157,459.657299,-370.102971,9474.636058
965.986472,-1072.533697,-740.205942,10288.862594
965.986788,-2145.067394,-962.267725,10807.006753
965.987104,-2757.943793,-1184.329507,11103.089130
965.987420,-3217.601092,-1184.329507,11325.150913
965.987736,-3370.820191,-1480.411884,11325.150913
965.988051,-3370.820191,-1480.411884,11029.068536
965.988367,-2757.943793,-1628.453072,11103.089130
965.988683,-1455.581446,-1554.432478,10658.965565
965.988999,-612.876398,-1332.370696,10362.883188
965.989314,612.876398,-1036.288319,9622.677246
965.989630,1685.410096,-518.144159,8956.491898
965.989946,2221.676944,-0.000000,8438.347739
965.990262,3370.820191,888.247130,8290.306550
965.990578,3907.087040,1628.453072,7994.224174
965.990893,3830.477490,2072.576638,7402.059420
965.991209,3217.601092,2368.659014,7476.080014
965.991525,2911.162892,1776.494261,7920.203579
965.991841,2451.505594,666.185348,8512.368333
965.992156,1838.629195,370.102971,9030.512492
965.992472,383.047749,-444.123565,9622.677246
965.992788,-536.266849,-666.185348,10140.821405
965.993104,-1915.238745,-962.267725,10436.903782
965.993420,-2528.115143,-1480.411884,11103.089130
965.993735,-2911.162892,-1258.350101,11103.089130
965.994051,-3064.381992,-1628.453072,11103.089130
965.994367,-3370.820191,-1332.370696,11103.089130
965.994683,-2528.115143,-1332.370696,11029.068536
965.994998,-1532.190996,-1776.494261,10436.903782
965.995314,-459.657299,-1702.473667,10288.862594
965.995630,229.828649,-1258.350101,9918.759623
965.995946,1455.581446,-888.247130,8882.471304
965.996262,2451.505594,-74.020594,8512.368333
965.996577,3753.867940,222.061783,8290.306550
965.996893,4290.134789,1184.329507,7920.203579
965.997209,4443.353888,1776.494261,7328.038826
965.997525,3907.087040,2146.597232,7179.997637
965.997841,3217.601092,1776.494261,7920.203579
965.998156,2757.943793,666.185348,8068.244768
965.998472,1838.629195,518.144159,8882.471304
965.998788,766.095498,-74.020594,8808.450710
965.999104,0.000000,-444.123565,9622.677246
965.999419,-1225.752797,-962.267725,10140.821405
965.999735,-2145.067394,-1480.411884,10807.006753
966.000051,-2681.334243,-1258.350101,11103.089130
966.000367,-2911.162892,-1406.391290,11029.068536
966.000683,-2987.772442,-1406.391290,10955.047942
966.000998,-2681.334243,-1480.411884,11029.068536
966.001314,-2451.505594,-1702.473667,11029.068536
966.001630,-1225.752797,-1702.473667,10510.924376
966.001946,153.219100,-1184.329507,10362.883188
966.002261,1149.143247,-888.247130,9252.574275
966.002577,2145.067394,-592.164754,8734.430116
966.002893,2834.553343,-0.000000,8882.471304
966.003209,3753.867940,962.267725,8216.285956
966.003525,4060.306139,1702.473667,7698.141797
966.003840,4060.306139,2368.659014,7698.141797
966.004156,3140.991542,1924.535449,7179.997637
966.004472,2834.553343,1776.494261,7920.203579
966.004788,2298.286494,962.267725,8882.471304
966.005103,1685.410096,370.102971,9030.512492
966.005419,229.828649,-0.000000,9696.697840
966.005735,-689.485948,-666.185348,10140.821405
966.006051,-1685.410096,-1110.308913,10881.027347
966.006367,-2298.286494,-1258.350101,11251.130318
966.006682,-2604.724693,-1406.391290,11029.068536
966.006998,-2681.334243,-1184.329507,10807.006753
966.007314,-2681.334243,-1258.350101,11103.089130
966.007630,-1838.629195,-1776.494261,10658.965565
966.007946,-995.924147,-1628.453072,10732.986159
966.008261,306.438199,-888.247130,9992.780217
966.008577,1072.533697,-740.205942,9548.656652
966.008893,2451.505594,-592.164754,8660.409521
966.009209,2757.943793,-222.061783,8660.409521
966.009524,3524.039291,666.185348,8142.265362
966.009840,3677.258390,1480.411884,7994.224174
966.010156,3830.477490,1850.514855,7772.162391
966.010471,3524.039291,1776.494261,7698.141797
966.010787,2451.505594,1702.473667,7846.182985
966.011103,1685.410096,740.205942,8512.368333
966.011419,1225.752797,592.164754,9326.594869
966.011734,229.828649,-148.041188,9622.677246
966.012050,-842.705048,-740.205942,10214.842000
966.012366,-1991.848295,-1406.391290,10362.883188
966.012682,-2451.505594,-1554.432478,10807.006753
966.012997,-2681.334243,-1184.329507,11177.109724
966.013313,-3140.991542,-1406.391290,11325.150913
966.013629,-3294.210641,-1406.391290,10881.027347
966.013944,-2681.334243,-1258.350101,10955.047942
966.014260,-1685.410096,-1776.494261,10362.883188
966.014576,-536.266849,-1332.370696,9992.780217
966.014892,612.876398,-962.267725,9918.759623
966.015207,1762.019645,-740.205942,9178.553681
966.015523,2528.115143,-0.000000,8734.430116
966.015839,3217.601092,296.082377,7920.203579
966.016155,3524.039291,1480.411884,8068.244768
966.016470,4060.306139,1924.535449,7846.182985
966.016786,4060.306139,2294.638420,7698.141797
966.017102,2604.724693,1776.494261,7698.141797
966.017417,2068.457845,1036.288319,8660.409521
966.017733,1532.190996,518.144159,9178.553681
966.018049,459.657299,148.041188,9474.636058
966.018365,-383.047749,-740.205942,9696.697840
966.018680,-1532.190996,-1036.288319,10214.842000
966.018996,-2298.286494,-1110.308913,10658.965565
966.019312,-2451.505594,-1332.370696,10807.006753
966.019628,-2834.553343,-1258.350101,10955.047942
966.019943,-2987.772442,-888.247130,10807.006753
966.020259,-2528.115143,-1110.308913,10584.944971
966.020575,-1685.410096,-1332.370696,10510.924376
966.020890,-1072.533697,-1258.350101,10732.986159
966.021206,306.438199,-814.226536,9696.697840
966.021522,1532.190996,-370.102971,9252.574275
966.021838,2221.676944,-148.041188,8660.409521
966.022153,2834.553343,148.041188,8364.327145
966.022469,3600.648841,814.226536,8068.244768
966.022785,3907.087040,1776.494261,7772.162391
966.023101,3830.477490,2220.617826,7550.100608
966.023416,3140.991542,2146.597232,7920.203579
966.023732,2451.505594,1258.350101,8290.306550
966.024048,1685.410096,962.267725,9030.512492
966.024363,919.314598,222.061783,9178.553681
966.024679,-306.438199,-296.082377,9622.677246
966.024995,-919.314598,-962.267725,9844.739029
966.025311,-1915.238745,-1628.453072,10658.965565
966.025626,-2528.115143,-1776.494261,11251.130318
966.025942,-3140.991542,-1184.329507,11103.089130
966.026258,-3140.991542,-1406.391290,10955.047942
966.026574,-2528.115143,-1332.370696,10881.027347
966.026889,-2068.457845,-1332.370696,10807.006753
966.027205,-1225.752797,-1332.370696,10436.903782
966.027521,76.609550,-888.247130,10140.821405
966.027836,919.314598,-518.144159,9474.636058
966.028152,2068.457845,-74.020594,8808.450710
966.028468,2604.724693,296.082377,8586.388927
966.028784,3447.429741,814.226536,8068.244768
966.029099,3677.258390,1554.432478,8068.244768
966.029415,3830.477490,1998.556043,7772.162391
966.029731,3140.991542,2072.576638,8142.265362
966.030047,2528.115143,1258.350101,8142.265362
966.030362,1915.238745,888.247130,8808.450710
966.030678,1149.143247,296.082377,9622.677246
966.030994,229.828649,-0.000000,9918.759623
966.031309,-995.924147,-888.247130,9992.780217
966.031625,-1685.410096,-740.205942,10436.903782
966.031941,-2451.505594,-1184.329507,10881.027347
966.032257,-2681.334243,-1332.370696,10881.027347
966.032572,-2757.943793,-962.267725,10881.027347
966.032888,-2451.505594,-1406.391290,10658.965565
966.033204,-2451.505594,-1110.308913,10510.924376
966.033520,-1532.190996,-1554.432478,10584.944971
966.033835,0.000000,-1184.329507,10214.842000
966.034151,689.485948,-962.267725,9548.656652
966.034467,1915.238745,-518.144159,9030.512492
966.034782,2451.505594,-296.082377,8364.327145
966.035098,3294.210641,444.123565,8438.347739
966.035414,3600.648841,1184.329507,8068.244768
966.035730,3907.087040,1776.494261,7772.162391
966.036045,3600.648841,1998.556043,7476.080014
966.036361,2604.724693,1628.453072,8142.265362
966.036677,2374.896044,962.267725,8512.368333
966.036992,1225.752797,296.082377,9104.533087
966.037308,76.609550,-0.000000,9474.636058
966.037624,-842.705048,-740.205942,9992.780217
966.037940,-1915.238745,-1184.329507,10436.903782
966.038255,-2528.115143,-1332.370696,10881.027347
966.038571,-2681.334243,-1332.370696,10955.047942
966.038887,-2604.724693,-1480.411884,11103.089130
966.039203,-2987.772442,-1110.308913,10658.965565
966.039518,-2221.676944,-1184.329507,10362.883188
966.039834,-1455.581446,-1184.329507,10436.903782
966.040150,-229.828649,-1184.329507,10288.862594
966.040465,689.485948,-888.247130,9474.636058
966.040781,1838.629195,-296.082377,8808.450710
966.041097,2528.115143,-148.041188,8216.285956
966.041413,2987.772442,222.061783,8438.347739
966.041728,3600.648841,962.267725,8364.327145
966.042044,3524.039291,1554.432478,8290.306550
966.042360,3217.601092,1480.411884,7772.162391
966.042676,2374.896044,1258.350101,8068.244768
966.042991,1915.238745,1110.308913,8882.471304
966.043307,1225.752797,-0.000000,9326.594869
966.043623,153.219100,-222.061783,9696.697840
966.043938,-612.876398,-370.102971,9992.780217
966.044254,-1378.971896,-888.247130,10140.821405
966.044570,-2221.676944,-1258.350101,10436.903782
966.044886,-2221.676944,-962.267725,10732.986159
966.045201,-2451.505594,-962.267725,10807.006753
966.045517,-2528.115143,-1036.288319,10584.944971
966.045833,-2221.676944,-962.267725,10584.944971
966.046149,-1532.190996,-1332.370696,10510.924376
966.046464,-306.438199,-1406.391290,10362.883188
966.046780,766.095498,-814.226536,9992.780217
966.047096,1838.629195,-518.144159,9326.594869
966.047411,2298.286494,-74.020594,8660.409521
966.047727,3217.601092,222.061783,8586.388927
966.048043,3753.867940,666.185348,8734.430116
966.048359,3753.867940,1406.391290,7994.224174
966.048674,3677.258390,1924.535449,7772.162391
966.048990,2987.772442,1850.514855,7846.182985
966.049306,2221.676944,1332.370696,8512.368333
966.049622,1072.533697,518.144159,9326.594869
966.049937,766.095498,-0.000000,9622.677246
966.050253,-536.266849,-444.123565,9696.697840
966.050569,-1302.362347,-1110.308913,10066.800811
966.050884,-1762.019645,-1406.391290,10362.883188
966.051200,-2451.505594,-1480.411884,10955.047942
966.051516,-2911.162892,-1480.411884,11029.068536
966.051832,-3064.381992,-962.267725,10584.944971
966.052147,-2528.115143,-888.247130,10362.883188
966.052463,-1915.238745,-814.226536,10214.842000
966.052779,-995.924147,-814.226536,10066.800811
966.053095,383.047749,-740.205942,9474.636058
966.053410,1225.752797,-740.205942,9104.533087
966.053726,2221.676944,-518.144159,8290.306550
966.054042,2528.115143,-0.000000,8216.285956
966.054357,3294.210641,370.102971,8068.244768
966.054673,3524.039291,1110.308913,8290.306550
966.054989,3294.210641,1628.453072,7846.182985
966.055305,2451.505594,1850.514855,7994.224174
966.055620,2068.457845,1184.329507,8364.327145
966.055936,1455.581446,666.185348,9030.512492
966.056252,689.485948,148.041188,9326.594869
966.056568,0.000000,-74.020594,9770.718434
966.056883,-1532.190996,-592.164754,10140.821405
966.057199,-1685.410096,-814.226536,10436.903782
966.057515,-2374.896044,-1184.329507,10658.965565
966.057830,-2451.505594,-1036.288319,10732.986159
966.058146,-2374.896044,-814.226536,10732.986159
966.058462,-2374.896044,-666.185348,10658.965565
966.058778,-1685.410096,-888.247130,10510.924376
966.059093,-919.314598,-888.247130,10436.903782
966.059409,459.657299,-962.267725,9918.759623
966.059725,1225.752797,-370.102971,9548.656652
966.060040,1838.629195,-74.020594,9178.553681
966.060356,2528.115143,222.061783,8438.347739
966.060672,3217.601092,444.123565,8364.327145
966.060988,3524.039291,962.267725,8512.368333
966.061303,3677.258390,1258.350101,8364.327145
966.061619,3753.867940,1480.411884,8216.285956
966.061935,2451.505594,1480.411884,8364.327145
966.062251,1838.629195,666.185348,8660.409521
966.062566,995.924147,296.082377,9326.594869
966.062882,229.828649,-222.061783,9696.697840
966.063198,-612.876398,-666.185348,9992.780217
966.063513,-1685.410096,-1184.329507,10288.862594
966.063829,-2298.286494,-1628.453072,10955.047942
966.064145,-2374.896044,-1554.432478,10955.047942
966.064461,-2451.505594,-1184.329507,11029.068536
966.064776,-2374.896044,-888.247130,10658.965565
966.065092,-2221.676944,-740.205942,10362.883188
966.065408,-995.924147,-1036.288319,10066.800811
966.065724,76.609550,-888.247130,9844.739029
966.066039,1072.533697,-888.247130,9474.636058
966.066355,1991.848295,-592.164754,8808.450710
966.066671,2604.724693,-444.123565,8216.285956
966.066986,3064.381992,-0.000000,8438.347739
966.067302,3524.039291,370.102971,8438.347739
966.067618,3907.087040,1258.350101,8142.265362
966.067934,2987.772442,1702.473667,8364.327145
966.068249,2528.115143,1480.411884,8586.388927
966.068565,1991.848295,888.247130,8808.450710
966.068881,1225.752797,-0.000000,9400.615463
966.069197,766.095498,-666.185348,9474.636058
966.069512,-306.438199,-962.267725,9918.759623
966.069828,-1302.362347,-1332.370696,9992.780217
966.070144,-1762.019645,-1332.370696,10288.862594
966.070459,-2221.676944,-1332.370696,10658.965565
966.070775,-2145.067394,-1036.288319,10881.027347
966.071091,-2374.896044,-962.267725,10658.965565
966.071407,-2068.457845,-666.185348,10140.821405
966.071722,-1378.971896,-888.247130,10214.842000
966.072038,-383.047749,-1184.329507,10214.842000
966.072354,689.485948,-1110.308913,9770.718434
966.072670,1762.019645,-814.226536,9178.553681
966.072985,2451.505594,-148.041188,8808.450710
966.073301,2834.553343,-0.000000,8734.430116
966.073617,3217.601092,444.123565,8290.306550
966.073932,3217.601092,814.226536,7920.203579
966.074248,3294.210641,1110.308913,8364.327145
966.074564,2604.724693,1406.391290,8216.285956
966.074880,2221.676944,1110.308913,8290.306550
966.075195,1532.190996,518.144159,8882.471304
966.075511,766.095498,-74.020594,9178.553681
966.075827,0.000000,-444.123565,9622.677246
966.076143,-1149.143247,-740.205942,9992.780217
966.076458,-1991.848295,-1406.391290,10362.883188
966.076774,-2451.505594,-1406.391290,10807.006753
966.077090,-2451.505594,-1406.391290,10732.986159
966.077405,-2604.724693,-1332.370696,10955.047942
966.077721,-2298.286494,-814.226536,10881.027347
966.078037,-1685.410096,-666.185348,10288.862594
966.078353,-995.924147,-888.247130,10140.821405
966.078668,229.828649,-740.205942,9844.739029
966.078984,1455.581446,-518.144159,9252.574275
966.079300,2451.505594,-296.082377,8512.368333
966.079616,2911.162892,-0.000000,8290.306550
966.079931,3217.601092,370.102971,8438.347739
966.080247,3524.039291,1036.288319,8364.327145
966.080563,3140.991542,1406.391290,7994.224174
966.080878,2987.772442,1628.453072,8438.347739
966.081194,2221.676944,1554.432478,8438.347739
966.081510,1608.800546,296.082377,8734.430116
966.081826,919.314598,296.082377,9548.656652
966.082141,76.609550,-148.041188,9844.739029
966.082457,-842.705048,-518.144159,10288.862594
966.082773,-1685.410096,-1036.288319,10140.821405
966.083088,-2757.943793,-1332.370696,10658.965565
966.083404,-2834.553343,-1110.308913,10732.986159
966.083720,-2681.334243,-740.205942,10732.986159
966.084036,-2374.896044,-444.123565,10436.903782
966.084351,-1991.848295,-370.102971,10510.924376
966.084667,-995.924147,-740.205942,10066.800811
966.084983,0.000000,-888.247130,10214.842000
966.085299,919.314598,-518.144159,9696.697840
966.085614,1762.019645,-148.041188,9252.574275
966.085930,2451.505594,-222.061783,8808.450710
966.086246,2681.334243,-0.000000,9104.533087
966.086561,3294.210641,888.247130,8586.388927
966.086877,3294.210641,1258.350101,7994.224174
966.087193,2987.772442,1850.514855,7994.224174
966.087509,2221.676944,1554.432478,8142.265362
966.087824,1838.629195,1258.350101,8438.347739
966.088140,1072.533697,444.123565,8734.430116
966.088456,306.438199,-0.000000,9474.636058
966.088772,-842.705048,-518.144159,9696.697840
966.089087,-1608.800546,-888.247130,10214.842000
966.089403,-2145.067394,-1258.350101,10658.965565
966.089719,-2604.724693,-1480.411884,10881.027347
966.090034,-2604.724693,-1628.453072,10955.047942
966.090350,-2528.115143,-1332.370696,10807.006753
966.090666,-2221.676944,-1332.370696,10658.965565
966.090982,-1915.238745,-962.267725,10140.821405
966.091297,-459.657299,-666.185348,9918.759623
966.091613,689.485948,-592.164754,9696.697840
966.091929,1915.238745,-444.123565,8956.491898
966.092245,2528.115143,-0.000000,8512.368333
966.092560,2757.943793,370.102971,8216.285956
966.092876,3677.258390,666.185348,8068.244768
966.093192,3370.820191,1036.288319,8364.327145
966.093507,3064.381992,1110.308913,8068.244768
966.093823,2834.553343,1406.391290,8216.285956
966.094139,1838.629195,814.226536,8586.388927
966.094455,995.924147,444.123565,9178.553681
966.094770,536.266849,-74.020594,9548.656652
966.095086,0.000000,-444.123565,9918.759623
966.095402,-1302.362347,-518.144159,9918.759623
966.095718,-1915.238745,-1110.308913,10288.862594
966.096033,-1762.019645,-1258.350101,10510.924376
966.096349,-1991.848295,-1036.288319,10584.944971
966.096665,-2068.457845,-1036.288319,10510.924376
966.096980,-1991.848295,-962.267725,10288.862594
966.097296,-1685.410096,-962.267725,10140.821405
966.097612,-842.705048,-1110.308913,10066.800811
966.097928,612.876398,-1258.350101,10214.842000
966.098243,1225.752797,-666.185348,9696.697840
966.098559,2068.457845,-370.102971,9178.553681
966.098875,2681.334243,-222.061783,8660.409521
966.099191,3677.258390,370.102971,8512.368333
966.099506,3370.820191,666.185348,8364.327145
966.099822,3677.258390,1702.473667,8068.244768
966.100138,2987.772442,1850.514855,7624.121203
966.100453,2451.505594,1776.494261,7994.224174
966.100769,1838.629195,962.267725,8808.450710
966.101085,995.924147,-0.000000,9326.594869
966.101401,536.266849,-370.102971,9622.677246
966.101716,-383.047749,-592.164754,9770.718434
966.102032,-1455.581446,-1036.288319,10362.883188
966.102348,-1991.848295,-1628.453072,10510.924376
966.102664,-2374.896044,-1480.411884,11325.150913
966.102979,-2451.505594,-1332.370696,11103.089130
966.103295,-2451.505594,-740.205942,10732.986159
966.103611,-1915.238745,-962.267725,10658.965565
966.103926,-1302.362347,-1110.308913,10436.903782
966.104242,-612.876398,-1258.350101,9992.780217
966.104558,459.657299,-1036.288319,9548.656652
966.104874,1608.800546,-518.144159,9326.594869
966.105189,2451.505594,-222.061783,8808.450710
966.105505,2987.772442,-0.000000,8512.368333
966.105821,2911.162892,592.164754,8290.306550
966.106137,3294.210641,962.267725,8068.244768
966.106452,3217.601092,1332.370696,8068.244768
966.106768,2604.724693,1480.411884,8142.265362
966.107084,1915.238745,888.247130,8512.368333
966.107399,1455.581446,222.061783,9178.553681
966.107715,842.705048,-0.000000,9400.615463
966.108031,0.000000,-222.061783,9474.636058
966.108347,-766.095498,-740.205942,9622.677246
966.108662,-1838.629195,-1110.308913,10214.842000
966.108978,-1915.238745,-1258.350101,10510.924376
966.109294,-2451.505594,-1110.308913,10732.986159
966.109609,-2374.896044,-962.267725,10807.006753
966.109925,-2298.286494,-666.185348,10436.903782
966.110241,-1378.971896,-888.247130,10436.903782
966.110557,-1302.362347,-1332.370696,10214.842000
966.110873,0.000000,-1036.288319,10140.821405
966.111188,1225.752797,-592.164754,9474.636058
966.111504,1608.800546,-296.082377,8808.450710
966.111820,2451.505594,-0.000000,8660.409521
966.112136,2987.772442,296.082377,8586.388927
966.112451,3217.601092,962.267725,8364.327145
966.112767,3217.601092,1776.494261,7994.224174
966.113083,3064.381992,1998.556043,7846.182985
966.113399,2451.505594,1776.494261,7920.203579
966.113715,1915.238745,962.267725,8438.347739
966.114030,995.924147,518.144159,9104.533087
966.114346,306.438199,-222.061783,9400.615463
966.114662,-536.266849,-740.205942,9844.739029
966.114978,-1378.971896,-1332.370696,10288.862594
966.115294,-2221.676944,-1184.329507,10732.986159
966.115609,-2221.676944,-1184.329507,10881.027347
966.115925,-2528.115143,-1184.329507,10881.027347
966.116241,-2681.334243,-888.247130,10807.006753
966.116557,-1685.410096,-888.247130,11103.089130
966.116872,-1532.190996,-1110.308913,10362.883188
966.117188,-612.876398,-962.267725,10140.821405
966.117504,383.047749,-666.185348,9622.677246
966.117820,1455.581446,-370.102971,9030.512492
966.118136,2451.505594,-74.020594,8734.430116
966.118451,2451.505594,-0.000000,8660.409521
966.118767,2681.334243,740.205942,8660.409521
966.119083,3294.210641,1332.370696,8438.347739
966.119399,2911.162892,1554.432478,8068.244768
966.119715,2681.334243,1480.411884,7920.203579
966.120030,2221.676944,1332.370696,8586.388927
966.120346,1685.410096,740.205942,9178.553681
966.120662,766.095498,222.061783,9400.615463
966.120978,0.000000,-222.061783,9696.697840
966.121293,-1072.533697,-370.102971,10066.800811
966.121609,-1762.019645,-1036.288319,10288.862594
966.121925,-2298.286494,-962.267725,10881.027347
966.122241,-2374.896044,-962.267725,10732.986159
966.122557,-2068.457845,-962.267725,10955.047942
966.122872,-2221.676944,-888.247130,10658.965565
966.123188,-1991.848295,-1258.350101,10732.986159
966.123504,-1072.533697,-1258.350101,10658.965565
966.123820,0.000000,-1332.370696,10362.883188
966.124135,919.314598,-1110.308913,9844.739029
966.124451,1991.848295,-666.185348,9178.553681
966.124767,2528.115143,-0.000000,8808.450710
966.125083,3294.210641,296.082377,8216.285956
966.125399,3677.258390,1184.329507,8142.265362
966.125714,3983.696590,1110.308913,8068.244768
966.126030,3217.601092,1924.535449,7402.059420
966.126346,2757.943793,1480.411884,7846.182985
966.126662,2221.676944,814.226536,8438.347739
966.126978,1225.752797,148.041188,8956.491898
966.127293,383.047749,-518.144159,9622.677246
966.127609,-919.314598,-1036.288319,10066.800811
966.127925,-1838.629195,-1628.453072,10436.903782
966.128241,-2298.286494,-1924.535449,10955.047942
966.128556,-2374.896044,-1702.473667,11103.089130
966.128872,-2451.505594,-1184.329507,10881.027347
966.129188,-2528.115143,-962.267725,10584.944971
966.129504,-2221.676944,-1258.350101,10362.883188
966.129820,-1378.971896,-1406.391290,10510.924376
966.130135,-229.828649,-1702.473667,9918.759623
966.130451,995.924147,-1406.391290,9104.533087
966.130767,1225.752797,-740.205942,8956.491898
966.131083,2068.457845,-296.082377,8290.306550
966.131398,2987.772442,-0.000000,8438.347739
966.131714,3294.210641,1184.329507,8142.265362
966.132030,3677.258390,1554.432478,7698.141797
966.132346,3447.429741,1850.514855,7846.182985
966.132662,2604.724693,1480.411884,7846.182985
966.132977,2221.676944,814.226536,8290.306550
966.133293,1838.629195,518.144159,9252.574275
966.133609,689.485948,74.020594,9104.533087
966.133925,-459.657299,-296.082377,9548.656652
966.134241,-1149.143247,-740.205942,9918.759623
966.134556,-2068.457845,-962.267725,10362.883188
966.134872,-2145.067394,-1258.350101,10584.944971
966.135188,-2451.505594,-888.247130,10732.986159
966.135504,-2604.724693,-1036.288319,10732.986159
966.135819,-2528.115143,-1110.308913,10807.006753
966.136135,-1532.190996,-1554.432478,11029.068536
966.136451,-1149.143247,-1554.432478,10807.006753
966.136767,153.219100,-1332.370696,10140.821405
966.137083,1225.752797,-814.226536,9622.677246
966.137398,2068.457845,-296.082377,8956.491898
966.137714,2528.115143,-0.000000,8660.409521
966.138030,3447.429741,888.247130,8142.265362
966.138346,3983.696590,1924.535449,8142.265362
966.138662,4136.915689,2072.576638,7476.080014
966.138977,3294.210641,2072.576638,7624.121203
966.139293,2528.115143,1480.411884,7994.224174
966.139609,1915.238745,740.205942,8512.368333
966.139925,1838.629195,-0.000000,9104.533087
966.140240,153.219100,-444.123565,9696.697840
966.140556,-919.314598,-1110.308913,10066.800811
966.140872,-2145.067394,-1184.329507,10658.965565
966.141188,-2528.115143,-1850.514855,11325.150913
966.141504,-2834.553343,-1258.350101,11177.109724
966.141819,-3064.381992,-1184.329507,11029.068536
966.142135,-2834.553343,-962.267725,10807.006753
966.142451,-2374.896044,-1184.329507,10510.924376
966.142767,-1378.971896,-1184.329507,10288.862594
966.143082,0.000000,-814.226536,9918.759623
966.143398,842.705048,-518.144159,8882.471304
966.143714,2834.553343,-0.000000,8882.471304
966.144030,2757.943793,222.061783,8364.327145
966.144346,3064.381992,518.144159,8438.347739
966.144661,3524.039291,1110.308913,8142.265362
966.144977,3830.477490,1628.453072,8068.244768
966.145293,3370.820191,1702.473667,7846.182985
966.145609,2757.943793,1702.473667,8216.285956
966.145925,1915.238745,1036.288319,8586.388927
966.146240,1378.971896,592.164754,9400.615463
966.146556,229.828649,-0.000000,9548.656652
966.146872,-919.314598,-518.144159,9548.656652
966.147188,-2068.457845,-1036.288319,10362.883188
966.147503,-2298.286494,-1258.350101,10807.006753
966.147819,-2757.943793,-1036.288319,10955.047942
966.148135,-2451.505594,-1036.288319,10955.047942
966.148451,-3064.381992,-1258.350101,10510.924376
966.148767,-2528.115143,-1184.329507,10436.903782
966.149082,-1991.848295,-1406.391290,10584.944971
966.149398,-612.876398,-1480.411884,10288.862594
966.149714,612.876398,-666.185348,9696.697840
966.150030,1302.362347,-814.226536,9326.594869
966.150346,2374.896044,-148.041188,8660.409521
966.150661,3370.820191,148.041188,8290.306550
966.150977,3830.477490,1036.288319,7920.203579
966.151293,4519.963438,1998.556043,7624.121203
966.151609,3907.087040,2294.638420,7328.038826
966.151924,3294.210641,2294.638420,7550.100608
966.152240,2528.115143,1406.391290,7920.203579
966.152556,1915.238745,370.102971,8808.450710
966.152872,689.485948,296.082377,9622.677246
966.153188,-306.438199,-666.185348,9918.759623
966.153503,-1762.019645,-1554.432478,9992.780217
966.153819,-2834.553343,-1480.411884,11029.068536
966.154135,-3217.601092,-1850.514855,11473.192101
966.154451,-3064.381992,-1110.308913,11325.150913
966.154766,-3217.601092,-1258.350101,11103.089130
966.155082,-2834.553343,-1110.308913,10658.965565
966.155398,-1838.629195,-1258.350101,10510.924376
966.155714,-536.266849,-962.267725,10066.800811
966.156030,995.924147,-444.123565,9622.677246
966.156345,1915.238745,-222.061783,8808.450710
966.156661,2451.505594,148.041188,8290.306550
966.156977,3370.820191,814.226536,8068.244768
966.157293,3753.867940,1110.308913,8216.285956
966.157609,3753.867940,1332.370696,8068.244768
966.157924,3600.648841,1480.411884,8068.244768
966.158240,2834.553343,1258.350101,8438.347739
966.158556,2068.457845,888.247130,8734.430116
966.158872,1685.410096,-0.000000,9548.656652
966.159187,612.876398,-296.082377,9992.780217
966.159503,-536.266849,-518.144159,9992.780217
966.159819,-1608.800546,-888.247130,10214.842000
966.160135,-2145.067394,-1258.350101,10510.924376
966.160451,-2681.334243,-1702.473667,11029.068536
966.160766,-2681.334243,-1184.329507,10955.047942
966.161082,-2528.115143,-814.226536,10807.006753
966.161398,-2374.896044,-814.226536,10658.965565
966.161714,-1532.190996,-1110.308913,10140.821405
966.162029,-842.705048,-1406.391290,10288.862594
966.162345,1072.533697,-888.247130,10066.800811
966.162661,1608.800546,-592.164754,9178.553681
966.162977,2757.943793,-222.061783,8808.450710
966.163293,3294.210641,296.082377,8142.265362
966.163608,3524.039291,370.102971,8068.244768
966.163924,3983.696590,1554.432478,7698.141797
966.164240,3677.258390,1924.535449,7698.141797
966.164556,2987.772442,1998.556043,7550.100608
966.164872,2451.505594,1406.391290,8142.265362
966.165187,1225.752797,444.123565,8734.430116
966.165503,383.047749,-222.061783,9474.636058
966.165819,-689.485948,-888.247130,9918.759623
966.166135,-1532.190996,-1258.350101,10066.800811
966.166450,-1915.238745,-1332.370696,10658.965565
966.166766,-2834.553343,-1924.535449,11103.089130
966.167082,-2757.943793,-1480.411884,11177.109724
966.167398,-2757.943793,-1184.329507,10881.027347
966.167714,-2451.505594,-888.247130,10584.944971
966.168029,-1991.848295,-592.164754,10140.821405
966.168345,-536.266849,-740.205942,9844.739029
966.168661,766.095498,-444.123565,9326.594869
966.168977,1685.410096,-0.000000,8586.388927
966.169293,2451.505594,-0.000000,8142.265362
966.169608,3830.477490,-370.102971,8290.306550
966.169924,3447.429741,518.144159,8216.285956
966.170240,3447.429741,740.205942,8216.285956
966.170556,3064.381992,1110.308913,8142.265362
966.170871,2681.334243,1406.391290,8660.409521
966.171187,1838.629195,814.226536,8882.471304
966.171503,1072.533697,296.082377,9400.615463
966.171819,76.609550,-0.000000,9918.759623
966.172135,-459.657299,-592.164754,9992.780217
966.172450,-1378.971896,-666.185348,10362.883188
966.172766,-1762.019645,-1036.288319,10214.842000
966.173082,-2221.676944,-1258.350101,10510.924376
966.173398,-2374.896044,-962.267725,10807.006753
966.173713,-2451.505594,-962.267725,10362.883188
966.174029,-2068.457845,-962.267725,10732.986159
966.174345,-1915.238745,-592.164754,10140.821405
966.174661,-766.095498,-740.205942,10140.821405
966.174977,229.828649,-666.185348,9844.739029
966.175292,1149.143247,-592.164754,9326.594869
966.175608,2528.115143,-518.144159,8808.450710
966.175924,2681.334243,-0.000000,8512.368333
966.176240,2834.553343,-0.000000,8290.306550
966.176556,3447.429741,370.102971,8512.368333
966.176871,3217.601092,1332.370696,8364.327145
966.177187,2757.943793,1554.432478,8290.306550
966.177503,2145.067394,1776.494261,8290.306550
966.177819,1225.752797,888.247130,8734.430116
966.178134,842.705048,-0.000000,9474.636058
966.178450,919.314598,-222.061783,9696.697840
966.178766,-689.485948,-592.164754,10214.842000
966.179082,-1608.800546,-1110.308913,10436.903782
966.179398,-2221.676944,-1110.308913,10584.944971
966.179713,-2374.896044,-1332.370696,10881.027347
966.180029,-1838.629195,-888.247130,10658.965565
966.180345,-2145.067394,-518.144159,10658.965565
966.180661,-1915.238745,-370.102971,10140.821405
966.180976,-1225.752797,-296.082377,9696.697840
966.181292,-383.047749,-370.102971,9696.697840
966.181608,536.266849,-296.082377,9622.677246
966.181924,1532.190996,-296.082377,9178.553681
966.182240,2374.896044,-74.020594,8438.347739
966.182555,2451.505594,-0.000000,8290.306550
966.182871,2757.943793,222.061783,8586.388927
966.183187,2604.724693,592.164754,8660.409521
966.183503,2451.505594,814.226536,8660.409521
966.183819,1838.629195,1258.350101,8512.368333
966.184134,1225.752797,814.226536,8956.491898
966.184450,919.314598,518.144159,9474.636058
966.184766,536.266849,-74.020594,9548.656652
966.185082,-689.485948,-370.102971,9622.677246
966.185397,-919.314598,-592.164754,9770.718434
966.185713,-1608.800546,-1110.308913,9844.739029
966.186029,-2221.676944,-814.226536,10436.903782
966.186345,-1915.238745,-666.185348,10288.862594
966.186661,-1532.190996,-666.185348,10066.800811
966.186976,-1685.410096,-518.144159,9992.780217
966.187292,-1302.362347,-444.123565,9918.759623
966.187608,-306.438199,-1036.288319,9770.718434
966.187924,383.047749,-1258.350101,9696.697840
966.188240,1302.362347,-666.185348,9400.615463
966.188555,1991.848295,-444.123565,8882.471304
966.188871,2374.896044,-0.000000,8734.430116
966.189187,2987.772442,-0.000000,8660.409521
966.189503,3140.991542,518.144159,8512.368333
966.189818,3064.381992,1110.308913,8364.327145
966.190134,2528.115143,1258.350101,8364.327145
966.190450,1991.848295,1110.308913,8586.388927
966.190766,1225.752797,-0.000000,9104.533087
966.191082,459.657299,-222.061783,9326.594869
966.191397,153.219100,-592.164754,9844.739029
966.191713,-536.266849,-814.226536,9844.739029
966.192029,-1225.752797,-962.267725,10214.842000
966.192345,-1685.410096,-1184.329507,10510.924376
966.192660,-1838.629195,-1332.370696,10807.006753
966.192976,-1838.629195,-962.267725,10732.986159
966.193292,-1685.410096,-814.226536,10436.903782
966.193608,-1455.581446,-370.102971,10288.862594
966.193924,-689.485948,-518.144159,10214.842000
966.194239,76.609550,-518.144159,9918.759623
966.194555,1072.533697,-444.123565,9474.636058
966.194871,1991.848295,-370.102971,9178.553681
966.195187,2298.286494,-148.041188,8586.388927
966.195503,2604.724693,148.041188,8660.409521
966.195818,2987.772442,296.082377,8734.430116
966.196134,3064.381992,518.144159,8808.450710
966.196450,2681.334243,962.267725,8734.430116
966.196766,1378.971896,962.267725,8734.430116
966.197081,1685.410096,592.164754,9252.574275
966.197397,1378.971896,222.061783,9252.574275
966.197713,306.438199,-74.020594,9622.677246
966.198029,0.000000,-222.061783,9696.697840
966.198345,-612.876398,-592.164754,9844.739029
966.198660,-1302.362347,-814.226536,9844.739029
966.198976,-1685.410096,-1036.288319,10140.821405
966.199292,-1685.410096,-666.185348,10362.883188
966.199608,-1149.143247,-814.226536,10510.924376
966.199924,-2145.067394,-518.144159,9844.739029
966.200239,-1302.362347,-962.267725,9844.739029
966.200555,-612.876398,-1184.329507,10066.800811
966.200871,306.438199,-888.247130,9770.718434
966.201187,1302.362347,-592.164754,9252.574275
966.201502,1915.238745,-296.082377,8808.450710
966.201818,2221.676944,-148.041188,8734.430116
966.202134,2528.115143,222.061783,8438.347739
966.202450,2911.162892,962.267725,8512.368333
966.202766,3140.991542,1406.391290,8142.265362
966.203081,2221.676944,1702.473667,8068.244768
966.203397,1991.848295,1258.350101,7994.224174
966.203713,1149.143247,444.123565,8808.450710
966.204029,842.705048,-0.000000,9474.636058
966.204344,459.657299,-444.123565,9474.636058
966.204660,-536.266849,-740.205942,9992.780217
966.204976,-1455.581446,-1110.308913,10140.821405
966.205292,-1762.019645,-1332.370696,10584.944971
966.205608,-1455.581446,-962.267725,10807.006753
966.205923,-1915.238745,-740.205942,10584.944971
966.206239,-2145.067394,-518.144159,10288.862594
966.206555,-1532.190996,-370.102971,10140.821405
966.206871,-919.314598,-666.185348,9918.759623
966.207187,229.828649,-814.226536,9696.697840
966.207502,766.095498,-666.185348,9400.615463
966.207818,1685.410096,-518.144159,9178.553681
966.208134,2068.457845,-74.020594,9030.512492
966.208450,2451.505594,-0.000000,8734.430116
966.208765,2604.724693,666.185348,9178.553681
966.209081,2757.943793,814.226536,8586.388927
966.209397,2681.334243,1332.370696,8660.409521
966.209713,2068.457845,1110.308913,8734.430116
966.210028,1685.410096,444.123565,9178.553681
966.210344,995.924147,-0.000000,9474.636058
966.210660,612.876398,-0.000000,9622.677246
966.210976,-76.609550,-148.041188,9622.677246
966.211291,-766.095498,-444.123565,9770.718434
966.211607,-842.705048,-740.205942,10140.821405
966.211923,-1532.190996,-814.226536,10288.862594
966.212239,-1762.019645,-370.102971,10807.006753
966.212555,-1762.019645,-444.123565,10510.924376
966.212870,-1608.800546,-592.164754,10362.883188
966.213186,-919.314598,-814.226536,10510.924376
966.213502,-995.924147,-1628.453072,10584.944971
966.213818,383.047749,-962.267725,10362.883188
966.214133,1225.752797,-1110.308913,9696.697840
966.214449,1838.629195,-444.123565,9104.533087
966.214765,2374.896044,-148.041188,8512.368333
966.215081,2834.553343,296.082377,8438.347739
966.215396,3217.601092,962.267725,8216.285956
966.215712,3140.991542,1406.391290,7920.203579
966.216028,2604.724693,1258.350101,7846.182985
966.216344,1915.238745,1036.288319,8290.306550
966.216659,1685.410096,444.123565,8512.368333
966.216975,1149.143247,-0.000000,9474.636058
966.217291,0.000000,-444.123565,9622.677246
966.217607,-306.438199,-814.226536,9992.780217
966.217923,-1532.190996,-1332.370696,10066.800811
966.218238,-2451.505594,-1628.453072,10510.924376
966.218554,-2451.505594,-1554.432478,10732.986159
966.218870,-2451.505594,-814.226536,10732.986159
966.219186,-2451.505594,-962.267725,10510.924376
966.219501,-1838.629195,-518.144159,10288.862594
966.219817,-1302.362347,-814.226536,10140.821405
966.220133,-153.219100,-740.205942,9696.697840
966.220449,919.314598,-518.144159,9252.574275
966.220764,766.095498,-0.000000,8586.388927
966.221080,2451.505594,-0.000000,8438.347739
966.221396,2681.334243,296.082377,8364.327145
966.221712,3140.991542,888.247130,8586.388927
966.222027,3294.210641,1332.370696,8512.368333
966.222343,2604.724693,1480.411884,7994.224174
966.222659,2374.896044,1406.391290,8290.306550
966.222975,1685.410096,888.247130,8660.409521
966.223290,1225.752797,370.102971,9104.533087
966.223606,459.657299,-0.000000,9252.574275
966.223922,-536.266849,-444.123565,9696.697840
966.224238,-1302.362347,-592.164754,9992.780217
966.224554,-1915.238745,-888.247130,10214.842000
966.224869,-2298.286494,-962.267725,10436.903782
966.225185,-1915.238745,-814.226536,10584.944971
966.225501,-2528.115143,-740.205942,10732.986159
966.225817,-2221.676944,-888.247130,10436.903782
966.226132,-1685.410096,-1258.350101,10584.944971
966.226448,-536.266849,-1110.308913,10288.862594
966.226764,459.657299,-888.247130,9770.718434
966.227080,1532.190996,-592.164754,9252.574275
966.227395,2451.505594,-0.000000,8956.491898
966.227711,2604.724693,370.102971,8808.450710
966.228027,3447.429741,888.247130,8290.306550
966.228343,3753.867940,1628.453072,7920.203579
966.228658,2987.772442,1998.556043,7920.203579
966.228974,2604.724693,1776.494261,7994.224174
966.229290,1838.629195,1184.329507,8512.368333
966.229606,1608.800546,444.123565,9326.594869
966.229922,536.266849,-74.020594,9770.718434
966.230237,-229.828649,-370.102971,10066.800811
966.230553,-1302.362347,-962.267725,10362.883188
966.230869,-2068.457845,-1480.411884,10658.965565
966.231185,-2451.505594,-1480.411884,11103.089130
966.231500,-2298.286494,-1110.308913,11103.089130
966.231816,-2374.896044,-888.247130,10732.986159
966.232132,-2374.896044,-962.267725,10436.903782
966.232448,-1455.581446,-740.205942,10140.821405
966.232763,-689.485948,-814.226536,9918.759623
966.233079,459.657299,-814.226536,9474.636058
966.233395,1378.971896,-518.144159,9104.533087
966.233711,2451.505594,-296.082377,8808.450710
966.234026,2834.553343,-148.041188,8512.368333
966.234342,3064.381992,-74.020594,8290.306550
966.234658,3140.991542,518.144159,8438.347739
966.234974,3217.601092,962.267725,8438.347739
966.235289,2834.553343,1184.329507,8290.306550
966.235605,2068.457845,962.267725,8142.265362
966.235921,1685.410096,370.102971,9104.533087
966.236237,536.266849,-0.000000,9474.636058
966.236553,-306.438199,-296.082377,9474.636058
966.236868,-1072.533697,-740.205942,9696.697840
966.237184,-1762.019645,-1184.329507,9992.780217
966.237500,-2221.676944,-1184.329507,10436.903782
966.237816,-2604.724693,-1332.370696,10436.903782
966.238131,-2451.505594,-962.267725,10584.944971
966.238447,-2451.505594,-740.205942,10510.924376
966.238763,-2145.067394,-1036.288319,10288.862594
966.239079,-1302.362347,-1258.350101,10658.965565
966.239394,0.000000,-1332.370696,9992.780217
966.239710,1072.533697,-962.267725,9548.656652
966.240026,2221.676944,-592.164754,9030.512492
966.240342,2681.334243,-148.041188,8364.327145
966.240657,3140.991542,370.102971,8142.265362
966.240973,3524.039291,962.267725,8216.285956
966.241289,3753.867940,1776.494261,7772.162391
966.241605,3064.381992,1850.514855,7550.100608
966.241921,2604.724693,1480.411884,8142.265362
966.242236,1608.800546,592.164754,8660.409521
966.242552,1072.533697,-0.000000,9474.636058
966.242868,0.000000,-296.082377,9622.677246
966.243184,-766.095498,-888.247130,10140.821405
966.243499,-1762.019645,-1554.432478,10658.965565
966.243815,-2451.505594,-1628.453072,10732.986159
966.244131,-2604.724693,-1480.411884,11177.109724
966.244447,-2757.943793,-1110.308913,11029.068536
966.244762,-2221.676944,-666.185348,10658.965565
966.245078,-2145.067394,-370.102971,10288.862594
966.245394,-1532.190996,-740.205942,9770.718434
966.245710,-459.657299,-666.185348,9844.739029
966.246025,842.705048,-296.082377,9474.636058
966.246341,1608.800546,-148.041188,9252.574275
966.246657,2451.505594,-0.000000,8808.450710
966.246973,2987.772442,-0.000000,8512.368333
966.247288,3064.381992,370.102971,8660.409521
966.247604,3217.601092,888.247130,8660.409521
966.247920,2834.553343,1184.329507,8364.327145
966.248236,2528.115143,1628.453072,8586.388927
966.248552,1608.800546,962.267725,8734.430116
966.248867,842.705048,666.185348,9326.594869
966.249183,153.219100,444.123565,9622.677246
966.249499,-306.438199,-74.020594,9770.718434
966.249815,-1378.971896,-666.185348,10066.800811
966.250130,-1991.848295,-962.267725,10510.924376
966.250446,-2374.896044,-1036.288319,10807.006753
966.250762,-2145.067394,-1036.288319,10658.965565
966.251078,-2451.505594,-740.205942,10584.944971
966.251393,-2068.457845,-592.164754,10140.821405
966.251709,-1532.190996,-962.267725,10214.842000
966.252025,-689.485948,-814.226536,10436.903782
966.252341,229.828649,-814.226536,9844.739029
966.252656,1532.190996,-370.102971,9622.677246
966.252972,2145.067394,-0.000000,8956.491898
966.253288,2681.334243,-0.000000,8586.388927
966.253604,3294.210641,444.123565,8438.347739
966.253919,3524.039291,888.247130,7994.224174
966.254235,3677.258390,1554.432478,8142.265362
966.254551,3140.991542,1850.514855,7994.224174
966.254867,2221.676944,1184.329507,8290.306550
966.255183,1149.143247,592.164754,8956.491898
966.255498,995.924147,-0.000000,9474.636058
966.255814,76.609550,-518.144159,9696.697840
966.256130,-842.705048,-1184.329507,10066.800811
966.256446,-1838.629195,-1406.391290,10362.883188
966.256761,-2451.505594,-1554.432478,10510.924376
966.257077,-1991.848295,-1332.370696,10732.986159
966.257393,-2374.896044,-962.267725,10510.924376
966.257709,-2298.286494,-740.205942,10288.862594
966.258024,-1838.629195,-814.226536,9918.759623
966.258340,-995.924147,-1110.308913,9844.739029
966.258656,459.657299,-1184.329507,10066.800811
966.258972,1072.533697,-666.185348,9548.656652
966.259287,1991.848295,-666.185348,8808.450710
966.259603,2911.162892,-296.082377,8512.368333
966.259919,3140.991542,-296.082377,8290.306550
966.260235,3524.039291,-0.000000,8290.306550
966.260551,3294.210641,814.226536,8364.327145
966.260866,2911.162892,1184.329507,8512.368333
966.261182,2374.896044,1036.288319,8216.285956
966.261498,1915.238745,592.164754,9104.533087
966.261814,1455.581446,-0.000000,9696.697840
966.262129,689.485948,-222.061783,9474.636058
966.262445,0.000000,-222.061783,9770.718434
966.262761,-1072.533697,-592.164754,9992.780217
966.263077,-1915.238745,-1110.308913,10214.842000
966.263392,-1838.629195,-814.226536,10881.027347
966.263708,-1915.238745,-1036.288319,10436.903782
966.264024,-2145.067394,-592.164754,10288.862594
966.264340,-1915.238745,-814.226536,10214.842000
966.264655,-1378.971896,-1332.370696,10362.883188
966.264971,-536.266849,-1258.350101,10362.883188
966.265287,306.438199,-1036.288319,9844.739029
966.265603,1378.971896,-592.164754,9326.594869
966.265918,1991.848295,-296.082377,8808.450710
966.266234,2528.115143,-0.000000,8364.327145
966.266550,3294.210641,740.205942,8956.491898
966.266866,3524.039291,1184.329507,7920.203579
966.267182,3064.381992,1480.411884,8142.265362
966.267497,2451.505594,1702.473667,8142.265362
966.267813,1838.629195,888.247130,8808.450710
966.268129,995.924147,222.061783,9400.615463
966.268445,306.438199,-296.082377,9326.594869
966.268760,-612.876398,-740.205942,9844.739029
966.269076,-1302.362347,-1110.308913,10214.842000
966.269392,-2145.067394,-1332.370696,10584.944971
966.269708,-2451.505594,-1480.411884,10955.047942
966.270023,-2374.896044,-888.247130,10955.047942
966.270339,-2451.505594,-444.123565,10584.944971
966.270655,-2221.676944,-370.102971,10140.821405
966.270971,-2068.457845,-592.164754,10362.883188
966.271286,-842.705048,-740.205942,9918.759623
966.271602,383.047749,-740.205942,9844.739029
966.271918,1378.971896,-370.102971,9252.574275
966.272234,1762.019645,-0.000000,8882.471304
966.272550,2528.115143,-0.000000,8586.388927
966.272865,2681.334243,222.061783,8882.471304
966.273181,2834.553343,814.226536,8882.471304
966.273497,2987.772442,1036.288319,8364.327145
966.273813,2757.943793,1480.411884,8216.285956
966.274128,2145.067394,1332.370696,8586.388927
966.274444,1685.410096,740.205942,8808.450710
966.274760,919.314598,370.102971,9104.533087
966.275076,459.657299,148.041188,9326.594869
966.275391,-459.657299,-370.102971,9178.553681
966.275707,-1302.362347,-740.205942,9696.697840
966.276023,-1762.019645,-666.185348,10140.821405
966.276339,-2068.457845,-962.267725,10362.883188
966.276654,-2145.067394,-962.267725,10288.862594
966.276970,-2298.286494,-1184.329507,10362.883188
966.277286,-2068.457845,-962.267725,10362.883188
966.277602,-1455.581446,-1258.350101,10436.903782
966.277917,-536.266849,-1036.288319,10214.842000
966.278233,383.047749,-814.226536,9696.697840
966.278549,842.705048,-444.123565,9252.574275
966.278865,1915.238745,-148.041188,8586.388927
966.279181,2757.943793,444.123565,8512.368333
966.279496,3140.991542,888.247130,8512.368333
966.279812,3140.991542,1406.391290,7994.224174
966.280128,3064.381992,1924.535449,7920.203579
966.280444,2451.505594,1554.432478,8216.285956
966.280759,1762.019645,814.226536,8660.409521
966.281075,1072.533697,444.123565,9252.574275
966.281391,0.000000,-592.164754,9474.636058
966.281707,0.000000,-740.205942,9770.718434
966.282022,-1149.143247,-962.267725,10140.821405
966.282338,-1915.238745,-1258.350101,10584.944971
966.282654,-2068.457845,-1332.370696,10732.986159
966.282970,-2068.457845,-1110.308913,11029.068536
966.283285,-2221.676944,-666.185348,10362.883188
966.283601,-2145.067394,-592.164754,10436.903782
966.283917,-1608.800546,-888.247130,10362.883188
966.284233,-612.876398,-1332.370696,10066.800811
966.284549,459.657299,-666.185348,9770.718434
966.284864,1532.190996,-296.082377,9400.615463
966.285180,2145.067394,-148.041188,8882.471304
966.285496,2528.115143,222.061783,8660.409521
966.285812,2987.772442,222.061783,8512.368333
966.286127,3064.381992,888.247130,8660.409521
966.286443,2834.553343,1184.329507,8660.409521
966.286759,2451.505594,1480.411884,8364.327145
966.287075,1838.629195,1036.288319,8512.368333
966.287390,1378.971896,444.123565,9326.594869
966.287706,689.485948,222.061783,9178.553681
966.288022,0.000000,-222.061783,9474.636058
966.288338,-842.705048,-592.164754,9696.697840
966.288653,-1532.190996,-740.205942,10066.800811
966.288969,-2298.286494,-1406.391290,10510.924376
966.289285,-2451.505594,-1332.370696,10584.944971
966.289601,-2528.115143,-1184.329507,10658.965565
966.289916,-2451.505594,-1110.308913,10510.924376
966.290232,-1685.410096,-1332.370696,10510.924376
966.290548,-1149.143247,-1776.494261,10510.924376
966.290864,0.000000,-1480.411884,10140.821405
966.291180,1149.143247,-962.267725,9622.677246
966.291495,1915.238745,-666.185348,8882.471304
966.291811,2528.115143,-0.000000,8586.388927
966.292127,3140.991542,666.185348,8068.244768
966.292443,3753.867940,1036.288319,7994.224174
966.292758,3600.648841,1554.432478,7994.224174
966.293074,3447.429741,1924.535449,7698.141797
966.293390,2528.115143,1554.432478,7846.182985
966.293706,1991.848295,814.226536,8586.388927
966.294021,1302.362347,148.041188,9326.594869
966.294337,229.828649,-444.123565,9474.636058
966.294653,-612.876398,-888.247130,9918.759623
966.294969,-1378.971896,-1184.329507,10436.903782
966.295284,-2068.457845,-1332.370696,10510.924376
966.295600,-2604.724693,-1258.350101,11103.089130
966.295916,-2451.505594,-962.267725,10584.944971
966.296232,-2451.505594,-666.185348,10362.883188
966.296548,-2221.676944,-148.041188,10214.842000
966.296863,-995.924147,-666.185348,10066.800811
966.297179,-229.828649,-666.185348,9770.718434
966.297495,919.314598,-444.123565,9548.656652
966.297811,1685.410096,-222.061783,8956.491898
966.298126,2298.286494,-148.041188,8660.409521
966.298442,2987.772442,-0.000000,8808.450710
966.298758,3600.648841,666.185348,8586.388927
966.299074,3370.820191,1258.350101,8364.327145
966.299389,2987.772442,1554.432478,8216.285956
966.299705,2528.115143,1406.391290,8512.368333
966.300021,1991.848295,888.247130,8808.450710
966.300337,1225.752797,296.082377,9030.512492
966.300652,306.438199,-0.000000,9696.697840
966.300968,-229.828649,-518.144159,9918.759623
966.301284,-1225.752797,-1184.329507,10214.842000
966.301600,-1838.629195,-1110.308913,10362.883188
966.301915,-2298.286494,-1406.391290,10807.006753
966.302231,-2451.505594,-1110.308913,10807.006753
966.302547,-2528.115143,-888.247130,10658.965565
966.302863,-2298.286494,-740.205942,10584.944971
966.303179,-1991.848295,-1036.288319,10584.944971
966.303494,-689.485948,-962.267725,10436.903782
966.303810,306.438199,-592.164754,9844.739029
966.304126,2145.067394,-666.185348,9400.615463
966.304442,2681.334243,-222.061783,8512.368333
966.304757,2528.115143,74.020594,8142.265362
966.305073,3140.991542,296.082377,8364.327145
966.305389,3370.820191,1036.288319,7994.224174
966.305705,3447.429741,1480.411884,7994.224174
966.306020,2528.115143,1924.535449,7920.203579
966.306336,1685.410096,1258.350101,8290.306550
966.306652,1149.143247,148.041188,9252.574275
966.306968,612.876398,-0.000000,9474.636058
966.307283,-459.657299,-444.123565,9770.718434
966.307599,-1225.752797,-740.205942,10510.924376
966.307915,-2145.067394,-1258.350101,10362.883188
966.308231,-2681.334243,-1554.432478,11177.109724
966.308547,-2604.724693,-1184.329507,11029.068536
966.308862,-2374.896044,-814.226536,10658.965565
966.309178,-2221.676944,-592.164754,10362.883188
966.309494,-1762.019645,-592.164754,10066.800811
966.309810,-842.705048,-592.164754,9918.759623
966.310126,229.828649,-296.082377,9696.697840
966.310441,1608.800546,-888.247130,8882.471304
966.310757,2145.067394,-148.041188,8808.450710
966.311073,2604.724693,-148.041188,8660.409521
966.311389,3064.381992,296.082377,8512.368333
966.311705,3294.210641,740.205942,8512.368333
966.312021,3064.381992,888.247130,8512.368333
966.312336,2604.724693,1332.370696,8438.347739
966.312652,1915.238745,1184.329507,8586.388927
966.312968,1532.190996,666.185348,8956.491898
966.313284,766.095498,-0.000000,9252.574275
966.313600,-689.485948,-148.041188,9770.718434
966.313915,-919.314598,-814.226536,9622.677246
966.314231,-1685.410096,-1184.329507,9992.780217
966.314547,-2068.457845,-1554.432478,10881.027347
966.314863,-2451.505594,-1480.411884,10807.006753
966.315179,-2374.896044,-962.267725,10807.006753
966.315495,-2374.896044,-1036.288319,10510.924376
966.315810,-2068.457845,-1110.308913,10436.903782
966.316126,-1149.143247,-814.226536,10362.883188
966.316442,0.000000,-814.226536,9992.780217
966.316758,1149.143247,-666.185348,9326.594869
966.317074,1838.629195,-148.041188,8512.368333
966.317390,2451.505594,-0.000000,8364.327145
966.317705,3064.381992,296.082377,8216.285956
966.318021,3370.820191,740.205942,8364.327145
966.318337,3217.601092,1406.391290,7920.203579
966.318653,2911.162892,1480.411884,8290.306550
966.318969,1915.238745,1258.350101,8438.347739
966.319284,1378.971896,740.205942,8882.471304
966.319600,919.314598,148.041188,9844.739029
966.319916,229.828649,-0.000000,9992.780217
966.320232,-842.705048,-888.247130,9844.739029
966.320548,-1532.190996,-1184.329507,10362.883188
966.320864,-1532.190996,-1406.391290,10584.944971
966.321179,-2145.067394,-1184.329507,10732.986159
966.321495,-2145.067394,-518.144159,10807.006753
966.321811,-1915.238745,-148.041188,10362.883188
966.322127,-1762.019645,-148.041188,9992.780217
966.322443,-1149.143247,-444.123565,10066.800811
966.322759,76.609550,-814.226536,10140.821405
966.323074,1072.533697,-592.164754,9770.718434
966.323390,1915.238745,-444.123565,9030.512492
966.323706,2911.162892,-0.000000,8734.430116
966.324022,2834.553343,-74.020594,8660.409521
966.324338,3064.381992,296.082377,8956.491898
966.324653,2987.772442,666.185348,8586.388927
966.324969,2528.115143,1036.288319,8364.327145
966.325285,2145.067394,962.267725,8364.327145
966.325601,1685.410096,814.226536,8586.388927
966.325917,1149.143247,148.041188,9400.615463
966.326233,76.609550,-148.041188,9844.739029
966.326548,-383.047749,-518.144159,9474.636058
966.326864,-1225.752797,-888.247130,9918.759623
966.327180,-1532.190996,-1406.391290,10140.821405
966.327496,-1991.848295,-1628.453072,10288.862594
966.327812,-1685.410096,-1258.350101,10510.924376
966.328128,-1991.848295,-740.205942,10214.842000
966.328443,-1532.190996,-740.205942,9992.780217
966.328759,-1225.752797,-814.226536,9770.718434
966.329075,-383.047749,-962.267725,10066.800811
966.329391,766.095498,-592.164754,9992.780217
966.329707,1991.848295,-370.102971,9326.594869
966.330023,2221.676944,-74.020594,8956.491898
966.330338,2604.724693,-0.000000,8290.306550
966.330654,2911.162892,-0.000000,8364.327145
966.330970,3294.210641,666.185348,8142.265362
966.331286,2911.162892,1332.370696,8290.306550
966.331602,2298.286494,1406.391290,8512.368333
966.331917,1608.800546,1110.308913,8734.430116
966.332233,995.924147,296.082377,9252.574275
966.332549,459.657299,-444.123565,9696.697840
966.332865,0.000000,-740.205942,9770.718434
966.333181,-612.876398,-962.267725,9918.759623
966.333497,-1455.581446,-1258.350101,10288.862594
966.333812,-1915.238745,-1332.370696,10436.903782
966.334128,-2145.067394,-1036.288319,10584.944971
966.334444,-2145.067394,-888.247130,10362.883188
966.334760,-1532.190996,-444.123565,9918.759623
966.335076,-1455.581446,-222.061783,9992.780217
966.335392,-766.095498,-888.247130,9770.718434
966.335707,153.219100,-740.205942,9622.677246
966.336023,1302.362347,-814.226536,9548.656652
966.336339,1838.629195,-592.164754,8956.491898
966.336655,2374.896044,-370.102971,8808.450710
966.336971,2528.115143,-0.000000,8586.388927
966.337286,2681.334243,296.082377,8956.491898
966.337602,2681.334243,888.247130,8364.327145
966.337918,2374.896044,1184.329507,8438.347739
966.338234,1685.410096,1258.350101,8586.388927
966.338550,1378.971896,888.247130,9030.512492
966.338866,842.705048,296.082377,9252.574275
966.339181,766.095498,148.041188,9474.636058
966.339497,-459.657299,-370.102971,9696.697840
966.339813,-1149.143247,-814.226536,9770.718434
966.340129,-1838.629195,-740.205942,9992.780217
966.340445,-1915.238745,-1036.288319,10510.924376
966.340761,-1915.238745,-592.164754,10510.924376
966.341076,-1915.238745,-518.144159,10510.924376
966.341392,-1991.848295,-296.082377,10140.821405
966.341708,-1225.752797,-518.144159,9992.780217
966.342024,-612.876398,-740.205942,10140.821405
966.342340,306.438199,-370.102971,9770.718434
966.342656,1225.752797,-518.144159,9326.594869
966.342971,2068.457845,-370.102971,8882.471304
966.343287,2374.896044,-148.041188,8808.450710
966.343603,2604.724693,-0.000000,8660.409521
966.343919,2757.943793,962.267725,8512.368333
966.344235,2604.724693,1332.370696,8290.306550
966.344550,2298.286494,1554.432478,8216.285956
966.344866,1762.019645,1184.329507,8586.388927
966.345182,1149.143247,-0.000000,9030.512492
966.345498,536.266849,-74.020594,9474.636058
966.345814,76.609550,-370.102971,9770.718434
966.346130,-766.095498,-888.247130,9918.759623
966.346445,-1302.362347,-1258.350101,10362.883188
966.346761,-1762.019645,-1332.370696,10510.924376
966.347077,-1838.629195,-592.164754,10584.944971
966.347393,-1838.629195,-444.123565,10362.883188
966.347709,-1762.019645,-222.061783,10288.862594
966.348025,-995.924147,-148.041188,9992.780217
966.348340,-383.047749,-740.205942,9622.677246
966.348656,459.657299,-444.123565,9770.718434
966.348972,1072.533697,-518.144159,9400.615463
966.349288,1991.848295,-444.123565,9030.512492
966.349604,1838.629195,-0.000000,8882.471304
966.349919,2604.724693,-0.000000,8734.430116
966.350235,2681.334243,666.185348,8438.347739
966.350551,2681.334243,1184.329507,8586.388927
966.350867,2451.505594,1406.391290,8586.388927
966.351183,1685.410096,1258.350101,8808.450710
966.351499,1378.971896,444.123565,9104.533087
966.351814,689.485948,296.082377,9400.615463
966.352130,459.657299,222.061783,9474.636058
966.352446,-306.438199,-148.041188,9622.677246
966.352762,-766.095498,-888.247130,9696.697840
966.353078,-1532.190996,-888.247130,10140.821405
966.353394,-1532.190996,-666.185348,10658.965565
966.353709,-1838.629195,-518.144159,10510.924376
966.354025,-1838.629195,-444.123565,10436.903782
966.354341,-1762.019645,-740.205942,10362.883188
966.354657,-1532.190996,-814.226536,10140.821405
966.354973,-306.438199,-962.267725,10214.842000
966.355288,306.438199,-888.247130,9770.718434
966.355604,1302.362347,-888.247130,9474.636058
966.355920,2221.676944,-592.164754,8956.491898
966.356236,2298.286494,-296.082377,8660.409521
966.356552,2911.162892,296.082377,8734.430116
966.356868,3064.381992,666.185348,8586.388927
966.357183,2987.772442,1554.432478,8438.347739
966.357499,2604.724693,1480.411884,7920.203579
966.357815,1915.238745,740.205942,8364.327145
966.358131,1378.971896,-0.000000,9030.512492
966.358447,1149.143247,-444.123565,9326.594869
966.358763,76.609550,-740.205942,9548.656652
966.359078,-612.876398,-1036.288319,9844.739029
966.359394,-1762.019645,-1554.432478,10140.821405
966.359710,-2068.457845,-1776.494261,10732.986159
966.360026,-2068.457845,-1258.350101,10584.944971
966.360342,-2374.896044,-888.247130,10658.965565
966.360658,-2374.896044,-740.205942,10288.862594
966.360973,-1838.629195,-814.226536,10066.800811
966.361289,-689.485948,-1036.288319,10066.800811
966.361605,306.438199,-962.267725,9918.759623
966.361921,1072.533697,-518.144159,9178.553681
966.362237,1838.629195,-666.185348,8808.450710
966.362552,2374.896044,-370.102971,8660.409521
966.362868,2911.162892,-0.000000,8586.388927
966.363184,3217.601092,592.164754,8216.285956
966.363500,3217.601092,1110.308913,8290.306550
966.363816,2681.334243,1406.391290,8290.306550
966.364132,2068.457845,1110.308913,8660.409521
966.364447,1685.410096,666.185348,9030.512492
966.364763,1225.752797,-74.020594,9252.574275
966.365079,612.876398,-148.041188,9326.594869
966.365395,-459.657299,-296.082377,9548.656652
966.365711,-1072.533697,-1036.288319,9918.759623
966.366027,-1838.629195,-1110.308913,10510.924376
966.366342,-1838.629195,-1258.350101,10732.986159
966.366658,-1991.848295,-1184.329507,10510.924376
966.366974,-2145.067394,-814.226536,10658.965565
966.367290,-2145.067394,-962.267725,10362.883188
966.367606,-1378.971896,-1036.288319,10288.862594
966.367921,-229.828649,-1110.308913,10214.842000
966.368237,766.095498,-592.164754,9622.677246
966.368553,1608.800546,-370.102971,9178.553681
966.368869,2298.286494,-0.000000,8808.450710
966.369185,2604.724693,-0.000000,8438.347739
966.369501,3294.210641,814.226536,8068.244768
966.369816,3294.210641,1554.432478,8216.285956
966.370132,3217.601092,1480.411884,7920.203579
966.370448,2451.505594,1480.411884,8068.244768
966.370764,1685.410096,962.267725,8734.430116
966.371080,1149.143247,592.164754,9252.574275
966.371396,689.485948,-0.000000,9474.636058
966.371711,-383.047749,-370.102971,9770.718434
966.372027,-1378.971896,-814.226536,10214.842000
966.372343,-1915.238745,-1406.391290,10362.883188
966.372659,-2374.896044,-1184.329507,10807.006753
966.372975,-2528.115143,-666.185348,10881.027347
966.373290,-2528.115143,-666.185348,10584.944971
966.373606,-2374.896044,-444.123565,10362.883188
966.373922,-1685.410096,-814.226536,10510.924376
966.374238,-689.485948,-592.164754,9918.759623
966.374554,153.219100,-740.205942,9548.656652
966.374870,1072.533697,-666.185348,9326.594869
966.375185,1685.410096,-148.041188,8882.471304
966.375501,2834.553343,-0.000000,8586.388927
966.375817,3064.381992,296.082377,8660.409521
966.376133,3370.820191,814.226536,8438.347739
966.376449,3140.991542,1110.308913,8142.265362
966.376765,2681.334243,814.226536,7994.224174
966.377080,2298.286494,1480.411884,8586.388927
966.377396,1302.362347,444.123565,8956.491898
966.377712,612.876398,296.082377,9326.594869
966.378028,0.000000,-0.000000,9474.636058
966.378344,-1378.971896,-814.226536,9770.718434
