#time,accel_x,accel_y,accel_z
1117.084016,689.485948,-370.102971,9252.574275
1117.084332,766.095498,-148.041188,9474.636058
1117.084647,536.266849,-222.061783,9400.615463
1117.084963,459.657299,-74.020594,9400.615463
1117.085279,383.047749,-74.020594,9474.636058
1117.085594,76.609550,-518.144159,9326.594869
1117.085910,383.047749,-296.082377,9474.636058
1117.086226,229.828649,-222.061783,9474.636058
1117.086541,536.266849,-74.020594,9400.615463
1117.086857,612.876398,-148.041188,9474.636058
1117.087173,229.828649,-0.000000,9252.574275
1117.087488,229.828649,-222.061783,9326.594869
1117.087804,383.047749,-222.061783,9548.656652
1117.088120,612.876398,-148.041188,9548.656652
1117.088435,229.828649,-74.020594,9548.656652
1117.088751,536.266849,-222.061783,9474.636058
1117.089067,536.266849,-222.061783,9474.636058
1117.089382,306.438199,-74.020594,9474.636058
1117.089698,306.438199,-0.000000,9548.656652
1117.090014,612.876398,-222.061783,9326.594869
1117.090329,459.657299,-444.123565,9326.594869
1117.090645,306.438199,-370.102971,9326.594869
1117.090961,689.485948,-148.041188,9400.615463
1117.091276,459.657299,-148.041188,9474.636058
1117.091592,689.485948,-74.020594,9326.594869
1117.091908,536.266849,-0.000000,9696.697840
1117.092223,383.047749,-148.041188,9622.677246
1117.092539,536.266849,-0.000000,9474.636058
1117.092855,536.266849,-74.020594,9474.636058
1117.093170,459.657299,-444.123565,9474.636058
1117.093486,76.609550,-444.123565,9400.615463
1117.093802,153.219100,-148.041188,9696.697840
1117.094117,459.657299,-74.020594,9474.636058
1117.094433,383.047749,-148.041188,9326.594869
1117.094749,612.876398,-370.102971,9326.594869
1117.095064,536.266849,-444.123565,9474.636058
1117.095380,612.876398,-296.082377,9474.636058
1117.095696,306.438199,-148.041188,9400.615463
1117.096011,459.657299,-0.000000,9400.615463
1117.096327,689.485948,-296.082377,9400.615463
1117.096643,383.047749,-148.041188,9326.594869
1117.096959,229.828649,-148.041188,9400.615463
1117.097274,153.219100,-296.082377,9696.697840
1117.097590,612.876398,-222.061783,9548.656652
1117.097906,459.657299,-370.102971,9548.656652
1117.098221,306.438199,222.061783,9400.615463
1117.098537,306.438199,518.144159,9474.636058
1117.098853,612.876398,370.102971,9400.615463
1117.099168,383.047749,592.164754,9252.574275
1117.099484,306.438199,518.144159,9400.615463
1117.099800,536.266849,148.041188,9474.636058
1117.100115,689.485948,370.102971,9104.533087
1117.100431,459.657299,222.061783,9622.677246
1117.100747,536.266849,222.061783,9474.636058
1117.101062,842.705048,148.041188,9326.594869
1117.101378,383.047749,370.102971,9400.615463
1117.101694,383.047749,518.144159,9548.656652
1117.102009,383.047749,740.205942,9548.656652
1117.102325,0.000000,888.247130,9326.594869
1117.102641,995.924147,814.226536,9400.615463
1117.102956,153.219100,888.247130,9474.636058
1117.103272,459.657299,1036.288319,9252.574275
1117.103588,0.000000,962.267725,9326.594869
1117.103903,0.000000,814.226536,9252.574275
1117.104219,153.219100,814.226536,9548.656652
1117.104535,-459.657299,1036.288319,9178.553681
1117.104850,-383.047749,1036.288319,9474.636058
1117.105166,-383.047749,1110.308913,9178.553681
1117.105482,-995.924147,1184.329507,9474.636058
1117.105797,-1149.143247,1406.391290,9326.594869
1117.106113,-1378.971896,1332.370696,9474.636058
1117.106429,-1455.581446,1628.453072,9474.636058
1117.106744,-1762.019645,1406.391290,9696.697840
1117.107060,-1685.410096,1406.391290,9770.718434
1117.107376,-2145.067394,1406.391290,9696.697840
1117.107691,-2221.676944,1332.370696,9696.697840
1117.108007,-2068.457845,1406.391290,9622.677246
1117.108323,-1915.238745,1702.473667,9770.718434
1117.108638,-1991.848295,1850.514855,9474.636058
1117.108954,-1838.629195,1998.556043,9178.553681
1117.109270,-1532.190996,1850.514855,9104.533087
1117.109585,-1378.971896,1850.514855,9326.594869
1117.109901,-1455.581446,1850.514855,9474.636058
1117.110217,-1685.410096,1702.473667,9622.677246
1117.110532,-1455.581446,1554.432478,9622.677246
1117.110848,-1149.143247,1924.535449,9696.697840
1117.111164,-1378.971896,1924.535449,9474.636058
1117.111479,-1072.533697,2294.638420,9400.615463
1117.111795,-1302.362347,2220.617826,9326.594869
1117.112111,-1225.752797,2368.659014,9400.615463
1117.112426,-1378.971896,2368.659014,9252.574275
1117.112742,-1455.581446,2146.597232,9400.615463
1117.113058,-1915.238745,1850.514855,9696.697840
1117.113373,-1915.238745,1480.411884,9474.636058
1117.113689,-2221.676944,1258.350101,9696.697840
1117.114005,-2145.067394,1036.288319,10066.800811
1117.114321,-1991.848295,1258.350101,9696.697840
1117.114636,-2221.676944,1258.350101,9770.718434
1117.114952,-2221.676944,1406.391290,9844.739029
1117.115268,-2298.286494,1406.391290,9622.677246
1117.115583,-2221.676944,1332.370696,9622.677246
1117.115899,-2068.457845,1258.350101,9770.718434
1117.116215,-1915.238745,1406.391290,9474.636058
1117.116530,-1838.629195,1480.411884,9474.636058
1117.116846,-1838.629195,1628.453072,9252.574275
1117.117162,-2145.067394,1850.514855,9178.553681
1117.117477,-1915.238745,2072.576638,9030.512492
1117.117793,-2221.676944,2220.617826,8808.450710
1117.118109,-2298.286494,2368.659014,9030.512492
1117.118424,-2604.724693,2220.617826,9178.553681
1117.118740,-2757.943793,1924.535449,9400.615463
1117.119056,-2451.505594,1110.308913,9844.739029
1117.119371,-2681.334243,666.185348,9918.759623
1117.119687,-2681.334243,296.082377,10214.842000
1117.120003,-2451.505594,148.041188,10288.862594
1117.120318,-1532.190996,296.082377,10584.944971
1117.120634,-1608.800546,666.185348,10140.821405
1117.120950,-1072.533697,1036.288319,9548.656652
1117.121265,-536.266849,1776.494261,9252.574275
1117.121581,229.828649,2368.659014,8734.430116
1117.121897,842.705048,2664.741391,8586.388927
1117.122212,459.657299,3182.885551,8142.265362
1117.122528,459.657299,3108.864956,8142.265362
1117.122844,153.219100,2960.823768,8216.285956
1117.123159,-383.047749,2590.720797,8068.244768
1117.123475,-1225.752797,2368.659014,8586.388927
1117.123791,-2221.676944,1998.556043,8956.491898
1117.124106,-2757.943793,1406.391290,9918.759623
1117.124422,-3447.429741,962.267725,10214.842000
1117.124738,-3907.087040,888.247130,10732.986159
1117.125053,-4366.744339,518.144159,11177.109724
1117.125369,-3907.087040,222.061783,11103.089130
1117.125685,-3217.601092,-0.000000,10732.986159
1117.126000,-2528.115143,296.082377,10658.965565
1117.126316,-1455.581446,592.164754,10140.821405
1117.126632,-536.266849,1184.329507,9252.574275
1117.126947,76.609550,1850.514855,8734.430116
1117.127263,842.705048,3034.844362,8216.285956
1117.127579,1149.143247,3775.050304,7846.182985
1117.127894,1685.410096,4589.276840,7328.038826
1117.128210,766.095498,4959.379811,7476.080014
1117.128526,383.047749,4959.379811,7105.977043
1117.128841,-612.876398,4441.235652,7402.059420
1117.129157,-2145.067394,3478.967927,8438.347739
1117.129473,-3064.381992,2294.638420,9844.739029
1117.129788,-4366.744339,962.267725,11177.109724
1117.130104,-5209.449386,-296.082377,11843.295072
1117.130420,-5439.278036,-1110.308913,12583.501014
1117.130735,-5439.278036,-1406.391290,12731.542202
1117.131051,-5209.449386,-1332.370696,12583.501014
1117.131367,-3830.477490,-222.061783,11843.295072
1117.131683,-2374.896044,814.226536,10955.047942
1117.131998,-689.485948,2368.659014,9400.615463
1117.132314,689.485948,3997.112087,7920.203579
1117.132630,995.924147,5181.441594,7105.977043
1117.132945,1915.238745,5847.626942,6143.709319
1117.133261,1915.238745,6069.688724,6291.750507
1117.133577,1302.362347,5329.482782,6587.832884
1117.133892,459.657299,3997.112087,7550.100608
1117.134208,-995.924147,2368.659014,8734.430116
1117.134524,-2681.334243,222.061783,9992.780217
1117.134839,-3753.867940,-1184.329507,11843.295072
1117.135155,-4366.744339,-1628.453072,12657.521608
1117.135471,-4443.353888,-1036.288319,12361.439231
1117.135786,-4596.572988,-592.164754,12065.356855
1117.136102,-4673.182538,370.102971,11251.130318
1117.136418,-3600.648841,1184.329507,10362.883188
1117.136733,-2298.286494,2072.576638,9178.553681
1117.137049,-1532.190996,3256.906145,8734.430116
1117.137365,-459.657299,3330.926739,7994.224174
1117.137680,0.000000,3182.885551,7476.080014
1117.137996,229.828649,2738.761985,7772.162391
1117.138312,612.876398,2886.803174,8142.265362
1117.138627,536.266849,1998.556043,8142.265362
1117.138943,-383.047749,2368.659014,8364.327145
1117.139259,-1225.752797,1998.556043,8882.471304
1117.139574,-1455.581446,1554.432478,9696.697840
1117.139890,-2068.457845,1332.370696,9770.718434
1117.140206,-2451.505594,1406.391290,10066.800811
1117.140521,-3600.648841,1258.350101,9770.718434
1117.140837,-3600.648841,518.144159,10066.800811
1117.141153,-3370.820191,444.123565,10066.800811
1117.141468,-2757.943793,592.164754,9770.718434
1117.141784,-2681.334243,1554.432478,9178.553681
1117.142100,-2451.505594,1480.411884,9104.533087
1117.142415,-2298.286494,1480.411884,9400.615463
1117.142731,-1532.190996,1628.453072,9400.615463
1117.143047,-1608.800546,1998.556043,9622.677246
1117.143362,-1685.410096,2368.659014,9622.677246
1117.143678,-1378.971896,1998.556043,9622.677246
1117.143994,-536.266849,1924.535449,9178.553681
1117.144309,-612.876398,1998.556043,8808.450710
1117.144625,-459.657299,1406.391290,8882.471304
1117.144941,0.000000,1184.329507,9252.574275
1117.145256,-153.219100,962.267725,8956.491898
1117.145572,-766.095498,1332.370696,9030.512492
1117.145888,-842.705048,1554.432478,9696.697840
1117.146203,-766.095498,1628.453072,9770.718434
1117.146519,-842.705048,2368.659014,9326.594869
1117.146835,-1072.533697,2664.741391,9178.553681
1117.147150,-1072.533697,2664.741391,8660.409521
1117.147466,-1302.362347,2368.659014,8956.491898
1117.147782,-1991.848295,1998.556043,9400.615463
1117.148097,-2451.505594,1184.329507,9844.739029
1117.148413,-2834.553343,-0.000000,10436.903782
1117.148729,-3064.381992,-148.041188,11399.171507
1117.149045,-3140.991542,-370.102971,11473.192101
1117.149361,-2757.943793,-222.061783,10510.924376
1117.149677,-2374.896044,-0.000000,10288.862594
1117.149992,-1915.238745,370.102971,10066.800811
1117.150308,-995.924147,666.185348,9548.656652
1117.150624,612.876398,1406.391290,8660.409521
1117.150940,536.266849,2072.576638,8438.347739
1117.151256,1225.752797,2368.659014,7994.224174
1117.151572,1149.143247,2146.597232,7698.141797
1117.151888,766.095498,2368.659014,7920.203579
1117.152203,-306.438199,2516.700203,8586.388927
1117.152519,-1072.533697,2294.638420,8734.430116
1117.152835,-1608.800546,1406.391290,9252.574275
1117.153151,-2374.896044,962.267725,10362.883188
1117.153467,-3294.210641,518.144159,10658.965565
1117.153783,-3217.601092,-444.123565,11177.109724
1117.154099,-3524.039291,-1406.391290,11029.068536
1117.154414,-3830.477490,-1110.308913,11399.171507
1117.154730,-2911.162892,-1184.329507,11399.171507
1117.155046,-1149.143247,-1332.370696,11547.212695
1117.155362,-1225.752797,-444.123565,10288.862594
1117.155678,0.000000,222.061783,9474.636058
1117.155994,1532.190996,888.247130,8142.265362
1117.156310,2451.505594,1998.556043,7994.224174
1117.156625,2911.162892,3034.844362,7624.121203
1117.156941,3370.820191,2664.741391,6957.935855
1117.157257,2528.115143,2516.700203,7254.018232
1117.157573,2221.676944,2072.576638,7846.182985
1117.157889,1532.190996,1406.391290,8068.244768
1117.158205,1072.533697,-0.000000,9474.636058
1117.158521,-766.095498,-444.123565,9918.759623
1117.158836,-1455.581446,-1184.329507,10362.883188
1117.159152,-1455.581446,-2294.638420,11251.130318
1117.159468,-2145.067394,-2368.659014,11473.192101
1117.159784,-2145.067394,-2220.617826,11399.171507
1117.160100,-1302.362347,-2442.679609,10436.903782
1117.160416,-1225.752797,-1702.473667,10288.862594
1117.160732,-459.657299,-740.205942,10066.800811
1117.161047,1302.362347,-0.000000,9178.553681
1117.161363,1762.019645,1258.350101,8364.327145
1117.161679,2068.457845,1924.535449,8438.347739
1117.161995,2451.505594,962.267725,7624.121203
1117.162311,2451.505594,592.164754,7994.224174
1117.162627,1915.238745,1036.288319,8734.430116
1117.162943,2221.676944,-296.082377,9474.636058
1117.163258,2221.676944,-370.102971,9844.739029
1117.163574,1685.410096,-0.000000,9622.677246
1117.163890,1225.752797,-666.185348,9474.636058
1117.164206,1455.581446,-740.205942,9696.697840
1117.164522,306.438199,-666.185348,9844.739029
1117.164838,306.438199,-74.020594,9548.656652
1117.165154,919.314598,-0.000000,9696.697840
1117.165469,306.438199,370.102971,9474.636058
1117.165785,0.000000,222.061783,9178.553681
1117.166101,-306.438199,-666.185348,8808.450710
1117.166417,-842.705048,-74.020594,8882.471304
1117.166733,-766.095498,-296.082377,10066.800811
1117.167049,76.609550,-666.185348,10288.862594
1117.167365,0.000000,-370.102971,10214.842000
1117.167681,229.828649,-740.205942,9474.636058
1117.167996,306.438199,-1184.329507,9474.636058
1117.168312,229.828649,-1776.494261,9844.739029
1117.168628,1149.143247,-962.267725,10140.821405
1117.168944,2068.457845,370.102971,9770.718434
1117.169260,2451.505594,1480.411884,8216.285956
1117.169576,2451.505594,1776.494261,8142.265362
1117.169892,2374.896044,1332.370696,7402.059420
1117.170207,1915.238745,1110.308913,7994.224174
1117.170523,1532.190996,1036.288319,8512.368333
1117.170839,919.314598,1258.350101,9622.677246
1117.171155,536.266849,1036.288319,9622.677246
1117.171471,-536.266849,444.123565,9770.718434
1117.171787,-1149.143247,-296.082377,10140.821405
1117.172103,-2528.115143,-592.164754,10510.924376
1117.172418,-2987.772442,-740.205942,10732.986159
1117.172734,-2528.115143,-740.205942,11769.274478
1117.173050,-1915.238745,-592.164754,11325.150913
1117.173366,-1378.971896,-74.020594,10362.883188
1117.173682,-1302.362347,-222.061783,9104.533087
1117.173998,-919.314598,-0.000000,8956.491898
1117.174314,-459.657299,-0.000000,9178.553681
1117.174629,536.266849,666.185348,9696.697840
1117.174945,1302.362347,1406.391290,9030.512492
1117.175261,1608.800546,1924.535449,8586.388927
1117.175577,1225.752797,1258.350101,7920.203579
1117.175893,1149.143247,296.082377,8068.244768
1117.176209,229.828649,-74.020594,9400.615463
1117.176525,229.828649,-74.020594,10510.924376
1117.176840,153.219100,370.102971,10066.800811
1117.177156,-306.438199,148.041188,10584.944971
1117.177472,-459.657299,-148.041188,9918.759623
1117.177788,-689.485948,-1110.308913,9548.656652
1117.178104,-1455.581446,-1554.432478,10732.986159
1117.178420,-919.314598,-1702.473667,10881.027347
1117.178736,229.828649,-1184.329507,11251.130318
1117.179051,612.876398,-740.205942,10881.027347
1117.179367,689.485948,-296.082377,9474.636058
1117.179683,1149.143247,222.061783,8216.285956
1117.179999,1608.800546,222.061783,8364.327145
1117.180315,1991.848295,148.041188,9326.594869
1117.180631,2451.505594,370.102971,9474.636058
1117.180947,2911.162892,888.247130,8734.430116
1117.181262,2451.505594,814.226536,7846.182985
1117.181578,1838.629195,-0.000000,8290.306550
1117.181894,1532.190996,-370.102971,8808.450710
1117.182210,459.657299,-888.247130,9770.718434
1117.182526,459.657299,-814.226536,10510.924376
1117.182842,383.047749,-814.226536,10362.883188
1117.183158,383.047749,-888.247130,9992.780217
1117.183473,229.828649,-2220.617826,9770.718434
1117.183789,-153.219100,-1480.411884,9918.759623
1117.184105,0.000000,-1258.350101,9918.759623
1117.184421,842.705048,-592.164754,9918.759623
1117.184737,995.924147,222.061783,9400.615463
1117.185053,1378.971896,666.185348,9104.533087
1117.185369,1608.800546,370.102971,8068.244768
1117.185684,1072.533697,-148.041188,8216.285956
1117.186000,612.876398,-444.123565,9030.512492
1117.186316,1302.362347,-814.226536,9474.636058
1117.186632,1225.752797,-518.144159,9918.759623
1117.186948,995.924147,-740.205942,10436.903782
1117.187264,1225.752797,-1036.288319,8956.491898
1117.187580,536.266849,-740.205942,8882.471304
1117.187895,306.438199,-370.102971,9474.636058
1117.188211,842.705048,-740.205942,9696.697840
1117.188527,1608.800546,-962.267725,9548.656652
1117.188843,995.924147,-0.000000,9548.656652
1117.189159,1072.533697,-222.061783,8956.491898
1117.189475,536.266849,-518.144159,8586.388927
1117.189791,0.000000,-444.123565,9104.533087
1117.190106,-459.657299,-518.144159,9400.615463
1117.190422,459.657299,-74.020594,9844.739029
1117.190738,229.828649,-0.000000,9474.636058
1117.191054,-229.828649,-222.061783,9696.697840
1117.191370,-383.047749,-444.123565,9622.677246
1117.191686,-689.485948,-370.102971,9548.656652
1117.192002,-766.095498,-74.020594,9474.636058
1117.192317,0.000000,-444.123565,11103.089130
1117.192633,0.000000,222.061783,9400.615463
1117.192949,306.438199,370.102971,8734.430116
1117.193265,0.000000,296.082377,8512.368333
1117.193581,0.000000,-148.041188,9326.594869
1117.193897,153.219100,444.123565,9474.636058
1117.194213,0.000000,962.267725,9326.594869
1117.194528,306.438199,740.205942,9770.718434
1117.194844,76.609550,222.061783,9992.780217
1117.195160,-383.047749,-74.020594,8882.471304
1117.195476,-842.705048,814.226536,9252.574275
1117.195792,-536.266849,-814.226536,10658.965565
1117.196108,-153.219100,-222.061783,10066.800811
1117.196424,-229.828649,666.185348,9992.780217
1117.196739,0.000000,-0.000000,9548.656652
1117.197055,0.000000,-0.000000,9548.656652
1117.197371,-306.438199,-370.102971,9400.615463
1117.197687,0.000000,-518.144159,9326.594869
1117.198003,0.000000,-592.164754,10510.924376
1117.198319,612.876398,-370.102971,11029.068536
1117.198635,995.924147,-444.123565,9770.718434
1117.198950,1072.533697,-0.000000,9178.553681
1117.199266,842.705048,148.041188,8142.265362
1117.199582,919.314598,444.123565,8956.491898
1117.199898,1225.752797,-0.000000,9400.615463
1117.200214,919.314598,370.102971,9770.718434
1117.200530,536.266849,296.082377,9844.739029
1117.200846,0.000000,-74.020594,9326.594869
1117.201161,0.000000,-592.164754,9474.636058
1117.201477,-306.438199,-1036.288319,9992.780217
1117.201793,229.828649,-962.267725,10436.903782
1117.202109,536.266849,-740.205942,10288.862594
1117.202425,995.924147,-962.267725,10510.924376
1117.202741,842.705048,-370.102971,9030.512492
1117.203057,842.705048,-0.000000,8808.450710
1117.203372,612.876398,-0.000000,9104.533087
1117.203688,995.924147,518.144159,9030.512492
1117.204004,1072.533697,370.102971,9104.533087
1117.204320,995.924147,888.247130,9104.533087
1117.204636,1685.410096,1036.288319,8290.306550
1117.204952,1378.971896,74.020594,8216.285956
1117.205268,536.266849,-0.000000,8142.265362
1117.205583,995.924147,-1258.350101,9844.739029
1117.205899,919.314598,-1110.308913,11029.068536
1117.206215,459.657299,-148.041188,9770.718434
1117.206531,229.828649,-148.041188,9104.533087
1117.206847,536.266849,-962.267725,9474.636058
1117.207163,229.828649,-666.185348,9326.594869
1117.207479,153.219100,-222.061783,9104.533087
1117.207794,689.485948,-74.020594,9918.759623
1117.208110,842.705048,-518.144159,9548.656652
1117.208426,1149.143247,-0.000000,9030.512492
1117.208742,919.314598,148.041188,8512.368333
1117.209058,383.047749,-222.061783,8290.306550
1117.209374,383.047749,-0.000000,9252.574275
1117.209690,459.657299,-370.102971,9474.636058
1117.210006,153.219100,296.082377,10066.800811
1117.210321,459.657299,-666.185348,9474.636058
1117.210637,306.438199,-148.041188,8512.368333
1117.210953,-306.438199,-296.082377,9104.533087
1117.211269,-383.047749,-1258.350101,9770.718434
1117.211585,-153.219100,-592.164754,10658.965565
1117.211901,-383.047749,-444.123565,9844.739029
1117.212217,-383.047749,-518.144159,10140.821405
1117.212532,-459.657299,-888.247130,9622.677246
1117.212848,-766.095498,-0.000000,8438.347739
1117.213164,-1149.143247,-0.000000,9474.636058
1117.213480,-766.095498,-444.123565,10436.903782
1117.213796,-229.828649,-222.061783,10066.800811
1117.214112,-536.266849,740.205942,9844.739029
1117.214428,-766.095498,370.102971,9030.512492
1117.214743,-919.314598,-74.020594,9252.574275
1117.215059,-306.438199,-0.000000,9474.636058
1117.215375,-383.047749,-444.123565,9844.739029
1117.215691,229.828649,-444.123565,10881.027347
1117.216007,842.705048,-518.144159,10436.903782
1117.216323,612.876398,-296.082377,8882.471304
1117.216639,76.609550,-0.000000,9030.512492
1117.216954,536.266849,-296.082377,9548.656652
1117.217270,1378.971896,-592.164754,10066.800811
1117.217586,1302.362347,518.144159,9696.697840
1117.217902,1378.971896,666.185348,10288.862594
1117.218218,1072.533697,370.102971,9030.512492
1117.218534,1149.143247,-0.000000,8512.368333
1117.218850,612.876398,-370.102971,9400.615463
1117.219165,919.314598,-592.164754,10140.821405
1117.219481,766.095498,-370.102971,9992.780217
1117.219797,459.657299,-296.082377,9844.739029
1117.220113,689.485948,-296.082377,9844.739029
1117.220429,306.438199,-592.164754,9326.594869
1117.220745,229.828649,-148.041188,9104.533087
1117.221061,306.438199,-888.247130,9622.677246
1117.221376,536.266849,-1036.288319,10288.862594
1117.221692,1072.533697,-592.164754,9918.759623
1117.222008,1225.752797,-666.185348,8808.450710
1117.222324,1302.362347,-0.000000,8216.285956
1117.222640,766.095498,-0.000000,8290.306550
1117.222956,766.095498,-0.000000,9178.553681
1117.223272,1302.362347,-0.000000,9474.636058
1117.223587,1149.143247,-0.000000,9400.615463
1117.223903,766.095498,444.123565,8882.471304
1117.224219,536.266849,-0.000000,8512.368333
1117.224535,229.828649,-592.164754,9104.533087
1117.224851,536.266849,-148.041188,9696.697840
1117.225167,919.314598,-814.226536,10066.800811
1117.225483,766.095498,-0.000000,9474.636058
1117.225798,459.657299,-148.041188,9474.636058
1117.226114,689.485948,74.020594,8956.491898
1117.226430,383.047749,-0.000000,8808.450710
1117.226746,383.047749,148.041188,9622.677246
1117.227062,919.314598,-0.000000,10066.800811
1117.227378,1072.533697,-148.041188,9992.780217
1117.227694,995.924147,666.185348,9252.574275
1117.228009,766.095498,1184.329507,8956.491898
1117.228325,995.924147,296.082377,8586.388927
1117.228641,459.657299,370.102971,9326.594869
1117.228957,229.828649,-0.000000,9548.656652
1117.229273,612.876398,444.123565,10214.842000
1117.229589,383.047749,370.102971,9918.759623
1117.229905,0.000000,148.041188,9252.574275
1117.230220,229.828649,444.123565,9400.615463
1117.230536,-536.266849,-0.000000,9844.739029
1117.230852,0.000000,592.164754,9696.697840
1117.231168,229.828649,666.185348,9770.718434
1117.231484,-383.047749,-0.000000,10066.800811
1117.231800,0.000000,-0.000000,9696.697840
1117.232116,-383.047749,-518.144159,9252.574275
1117.232431,-612.876398,-296.082377,9178.553681
1117.232747,-306.438199,-0.000000,10362.883188
1117.233063,-76.609550,-370.102971,10288.862594
1117.233379,0.000000,-222.061783,10362.883188
1117.233695,-459.657299,74.020594,9474.636058
1117.234011,-536.266849,-666.185348,9326.594869
1117.234327,-459.657299,-148.041188,9252.574275
1117.234642,0.000000,-962.267725,10066.800811
1117.234958,383.047749,-1036.288319,10066.800811
1117.235274,459.657299,-962.267725,10214.842000
1117.235590,0.000000,-1036.288319,8734.430116
1117.235906,306.438199,-592.164754,9548.656652
1117.236222,0.000000,-1258.350101,9696.697840
1117.236538,383.047749,-592.164754,9474.636058
1117.236853,919.314598,-740.205942,9918.759623
1117.237169,842.705048,-814.226536,9622.677246
1117.237485,1072.533697,-888.247130,9696.697840
1117.237801,612.876398,-666.185348,8808.450710
1117.238117,229.828649,-444.123565,8956.491898
1117.238433,612.876398,-222.061783,9400.615463
1117.238749,919.314598,148.041188,8808.450710
1117.239064,766.095498,444.123565,9104.533087
1117.239380,842.705048,-74.020594,9548.656652
1117.239696,1225.752797,-444.123565,8660.409521
1117.240012,306.438199,-888.247130,8660.409521
1117.240328,689.485948,-888.247130,10140.821405
1117.240644,1378.971896,-1184.329507,10066.800811
1117.240960,1225.752797,-0.000000,9770.718434
1117.241275,1225.752797,-0.000000,9252.574275
1117.241591,1302.362347,-0.000000,8438.347739
1117.241907,1378.971896,222.061783,8290.306550
1117.242223,919.314598,518.144159,8882.471304
1117.242539,1302.362347,-0.000000,9252.574275
1117.242855,1149.143247,370.102971,9918.759623
1117.243171,842.705048,444.123565,8734.430116
1117.243486,536.266849,222.061783,8734.430116
1117.243802,383.047749,-1036.288319,9252.574275
1117.244118,153.219100,-814.226536,9474.636058
1117.244434,229.828649,-1036.288319,9992.780217
1117.244750,766.095498,-1628.453072,10288.862594
1117.245066,612.876398,-1332.370696,10214.842000
1117.245382,612.876398,-740.205942,9178.553681
1117.245697,612.876398,-222.061783,9326.594869
1117.246013,459.657299,-444.123565,9030.512492
1117.246329,766.095498,-74.020594,9474.636058
1117.246645,1225.752797,-0.000000,9844.739029
1117.246961,995.924147,-370.102971,9474.636058
1117.247277,1455.581446,222.061783,9474.636058
1117.247593,842.705048,-74.020594,8512.368333
1117.247908,612.876398,74.020594,9474.636058
1117.248224,919.314598,-0.000000,10658.965565
1117.248540,536.266849,-74.020594,10362.883188
1117.248856,612.876398,1258.350101,9548.656652
1117.249172,0.000000,592.164754,9696.697840
1117.249488,612.876398,518.144159,9030.512492
1117.249804,-306.438199,296.082377,9400.615463
1117.250120,-536.266849,-0.000000,9844.739029
1117.250436,-306.438199,-222.061783,10658.965565
1117.250752,-306.438199,-74.020594,10584.944971
1117.251067,-689.485948,-0.000000,9474.636058
1117.251383,-689.485948,444.123565,9030.512492
1117.251699,-1149.143247,444.123565,9104.533087
1117.252015,-612.876398,148.041188,10214.842000
1117.252331,0.000000,518.144159,9992.780217
1117.252647,229.828649,444.123565,10066.800811
1117.252963,-383.047749,-0.000000,9844.739029
1117.253279,-153.219100,-148.041188,9474.636058
1117.253595,-153.219100,-74.020594,8808.450710
1117.253911,0.000000,-148.041188,9474.636058
1117.254227,306.438199,-296.082377,9770.718434
1117.254543,76.609550,-444.123565,9770.718434
1117.254859,153.219100,-296.082377,10066.800811
1117.255175,383.047749,-518.144159,8882.471304
1117.255490,76.609550,-74.020594,8660.409521
1117.255806,229.828649,-296.082377,9696.697840
1117.256122,612.876398,-888.247130,9622.677246
1117.256438,766.095498,-518.144159,9918.759623
1117.256754,766.095498,-444.123565,9844.739029
1117.257070,766.095498,-1110.308913,9622.677246
1117.257386,459.657299,-962.267725,8956.491898
1117.257702,153.219100,-518.144159,9030.512492
1117.258018,612.876398,-370.102971,9918.759623
1117.258334,919.314598,-296.082377,10066.800811
1117.258650,766.095498,-0.000000,9474.636058
1117.258966,229.828649,-74.020594,8882.471304
1117.259282,689.485948,-592.164754,9030.512492
1117.259598,459.657299,-740.205942,9326.594869
1117.259914,842.705048,-962.267725,9918.759623
1117.260229,1149.143247,-888.247130,9844.739029
1117.260545,1378.971896,-518.144159,9178.553681
1117.260861,1532.190996,-148.041188,9252.574275
1117.261177,919.314598,-222.061783,7846.182985
1117.261493,536.266849,148.041188,8068.244768
1117.261809,1455.581446,-0.000000,9400.615463
1117.262125,842.705048,-0.000000,9474.636058
1117.262441,689.485948,296.082377,9622.677246
1117.262757,612.876398,222.061783,9400.615463
1117.263073,919.314598,-74.020594,8734.430116
1117.263389,76.609550,-0.000000,8808.450710
1117.263705,306.438199,-444.123565,10214.842000
1117.264021,689.485948,-592.164754,10140.821405
1117.264337,766.095498,-148.041188,10510.924376
1117.264653,766.095498,-222.061783,9696.697840
1117.264968,995.924147,-148.041188,9548.656652
1117.265284,919.314598,296.082377,9548.656652
1117.265600,1149.143247,888.247130,8808.450710
1117.265916,1455.581446,666.185348,9770.718434
1117.266232,1378.971896,444.123565,9030.512492
1117.266548,1302.362347,222.061783,9326.594869
1117.266864,995.924147,-0.000000,9252.574275
1117.267180,689.485948,74.020594,8734.430116
1117.267496,536.266849,222.061783,9548.656652
1117.267812,689.485948,-222.061783,9918.759623
1117.268128,153.219100,-296.082377,10140.821405
1117.268444,-229.828649,-370.102971,10510.924376
1117.268760,-306.438199,-444.123565,9992.780217
1117.269076,-689.485948,-148.041188,9696.697840
1117.269392,-919.314598,-0.000000,9770.718434
1117.269707,-383.047749,-0.000000,9548.656652
1117.270023,-306.438199,-0.000000,10066.800811
1117.270339,-689.485948,-148.041188,9918.759623
1117.270655,-612.876398,-222.061783,9178.553681
1117.270971,-995.924147,-0.000000,9178.553681
1117.271287,-919.314598,-0.000000,9548.656652
1117.271603,-536.266849,-370.102971,10140.821405
1117.271919,-383.047749,-0.000000,9918.759623
1117.272235,-383.047749,-0.000000,10140.821405
1117.272551,0.000000,-0.000000,9622.677246
1117.272867,-306.438199,-0.000000,8882.471304
1117.273183,-536.266849,-0.000000,8956.491898
1117.273499,153.219100,-592.164754,9844.739029
1117.273815,229.828649,-148.041188,10214.842000
1117.274131,76.609550,444.123565,9696.697840
1117.274446,153.219100,-148.041188,9474.636058
1117.274762,229.828649,-222.061783,8808.450710
1117.275078,76.609550,-148.041188,9326.594869
1117.275394,0.000000,-592.164754,9696.697840
1117.275710,689.485948,-370.102971,9918.759623
1117.276026,689.485948,-0.000000,9400.615463
1117.276342,766.095498,-518.144159,8956.491898
1117.276658,536.266849,-740.205942,9030.512492
1117.276974,459.657299,-814.226536,9474.636058
1117.277290,995.924147,-740.205942,9474.636058
1117.277606,689.485948,-888.247130,9622.677246
1117.277922,919.314598,-740.205942,10066.800811
1117.278238,1072.533697,-888.247130,9178.553681
1117.278554,1225.752797,-148.041188,7994.224174
1117.278869,842.705048,-296.082377,8364.327145
1117.279185,1225.752797,-666.185348,9104.533087
1117.279501,1762.019645,-370.102971,9696.697840
1117.279817,1608.800546,-0.000000,9696.697840
1117.280133,1532.190996,-0.000000,9178.553681
1117.280449,1225.752797,-74.020594,8290.306550
1117.280765,689.485948,-222.061783,8882.471304
1117.281081,612.876398,-370.102971,9696.697840
1117.281397,1072.533697,-888.247130,9622.677246
1117.281713,919.314598,-370.102971,9992.780217
1117.282029,459.657299,-0.000000,9622.677246
1117.282345,689.485948,-222.061783,8808.450710
1117.282661,306.438199,-0.000000,8660.409521
1117.282977,459.657299,-74.020594,9474.636058
1117.283293,459.657299,-740.205942,9696.697840
1117.283608,919.314598,-444.123565,10436.903782
1117.283924,689.485948,-370.102971,9770.718434
1117.284240,842.705048,-518.144159,9104.533087
1117.284556,1378.971896,-1110.308913,8808.450710
1117.284872,383.047749,-148.041188,9326.594869
1117.285188,1225.752797,-0.000000,9844.739029
1117.285504,1225.752797,-518.144159,9844.739029
1117.285820,1225.752797,518.144159,9548.656652
1117.286136,536.266849,148.041188,8882.471304
1117.286452,766.095498,666.185348,8364.327145
1117.286768,612.876398,148.041188,8956.491898
1117.287084,76.609550,-370.102971,9992.780217
1117.287400,766.095498,-370.102971,10732.986159
1117.287716,229.828649,-518.144159,9844.739029
1117.288032,0.000000,-518.144159,9844.739029
1117.288347,-689.485948,-518.144159,9844.739029
1117.288663,-766.095498,-148.041188,10362.883188
1117.288979,-383.047749,518.144159,9992.780217
1117.289295,0.000000,666.185348,10066.800811
1117.289611,-229.828649,888.247130,10214.842000
1117.289927,0.000000,666.185348,9178.553681
1117.290243,-229.828649,444.123565,8734.430116
1117.290559,-612.876398,222.061783,9030.512492
1117.290875,-306.438199,-222.061783,10288.862594
1117.291191,0.000000,222.061783,10066.800811
1117.291507,-383.047749,296.082377,9474.636058
1117.291823,-383.047749,-148.041188,9696.697840
1117.292139,-459.657299,-444.123565,9622.677246
1117.292455,-612.876398,148.041188,9696.697840
1117.292771,0.000000,-0.000000,9474.636058
1117.293086,0.000000,148.041188,9918.759623
1117.293402,153.219100,-148.041188,9400.615463
1117.293718,459.657299,-0.000000,9104.533087
1117.294034,0.000000,-592.164754,8808.450710
1117.294350,-536.266849,-518.144159,9474.636058
1117.294666,-153.219100,-740.205942,9548.656652
1117.294982,229.828649,-814.226536,9548.656652
1117.295298,306.438199,-962.267725,10140.821405
1117.295614,612.876398,-1036.288319,9992.780217
1117.295930,689.485948,-592.164754,8882.471304
1117.296246,306.438199,-592.164754,9178.553681
1117.296562,995.924147,-370.102971,9252.574275
1117.296878,1685.410096,-0.000000,9400.615463
1117.297194,1455.581446,296.082377,9474.636058
1117.297510,1685.410096,-222.061783,9474.636058
1117.297825,1532.190996,-148.041188,8216.285956
1117.298141,536.266849,-962.267725,8068.244768
1117.298457,842.705048,-1406.391290,9844.739029
1117.298773,1378.971896,-814.226536,9918.759623
1117.299089,1532.190996,-74.020594,9548.656652
1117.299405,1302.362347,444.123565,9326.594869
1117.299721,995.924147,-296.082377,8586.388927
1117.300037,766.095498,-444.123565,8586.388927
1117.300353,536.266849,-888.247130,9474.636058
1117.300669,995.924147,-888.247130,9770.718434
1117.300985,1225.752797,-0.000000,9770.718434
1117.301301,766.095498,370.102971,9030.512492
1117.301617,1149.143247,444.123565,8660.409521
1117.301933,1378.971896,-296.082377,8586.388927
1117.302248,306.438199,-592.164754,9030.512492
1117.302564,766.095498,-370.102971,9696.697840
1117.302880,995.924147,-814.226536,10362.883188
1117.303196,919.314598,-740.205942,9696.697840
1117.303512,1072.533697,-666.185348,9548.656652
1117.303828,919.314598,-370.102971,8734.430116
1117.304144,612.876398,-0.000000,8956.491898
1117.304460,766.095498,-0.000000,9326.594869
1117.304776,1302.362347,370.102971,10066.800811
1117.305092,842.705048,814.226536,9770.718434
1117.305408,842.705048,888.247130,8734.430116
1117.305724,689.485948,-0.000000,8734.430116
1117.306040,0.000000,-222.061783,9474.636058
1117.306356,0.000000,-296.082377,10140.821405
1117.306672,229.828649,148.041188,10288.862594
1117.306987,0.000000,592.164754,9992.780217
1117.307303,0.000000,296.082377,9400.615463
1117.307619,-383.047749,-222.061783,9548.656652
1117.307935,-919.314598,-296.082377,9844.739029
1117.308251,-459.657299,-0.000000,10214.842000
1117.308567,-229.828649,148.041188,10584.944971
1117.308883,-459.657299,222.061783,10436.903782
1117.309199,-383.047749,518.144159,9770.718434
1117.309515,-153.219100,-0.000000,8956.491898
1117.309831,-689.485948,370.102971,9178.553681
1117.310147,-153.219100,-0.000000,9474.636058
1117.310463,0.000000,-222.061783,9844.739029
1117.310779,76.609550,-74.020594,9918.759623
1117.311095,-153.219100,-370.102971,9918.759623
1117.311411,0.000000,-592.164754,9030.512492
1117.311726,-766.095498,-814.226536,9622.677246
1117.312042,-306.438199,-370.102971,9992.780217
1117.312358,-306.438199,-74.020594,9474.636058
1117.312674,0.000000,-74.020594,9844.739029
1117.312990,229.828649,-148.041188,9474.636058
1117.313306,0.000000,-296.082377,8660.409521
1117.313622,-229.828649,-1036.288319,9178.553681
1117.313938,-153.219100,-1480.411884,9622.677246
1117.314254,383.047749,-1110.308913,9770.718434
1117.314570,1072.533697,-296.082377,9844.739029
1117.314886,766.095498,148.041188,9030.512492
1117.315202,995.924147,-592.164754,9030.512492
1117.315518,766.095498,-962.267725,8660.409521
1117.315834,1225.752797,-666.185348,8956.491898
1117.316150,1455.581446,-74.020594,8734.430116
1117.316465,1915.238745,-0.000000,9474.636058
1117.316781,1302.362347,222.061783,8512.368333
1117.317097,919.314598,-370.102971,8734.430116
1117.317413,766.095498,-518.144159,8438.347739
1117.317729,229.828649,-518.144159,9252.574275
1117.318045,766.095498,-296.082377,10140.821405
1117.318361,1072.533697,-740.205942,10288.862594
1117.318677,612.876398,-814.226536,9770.718434
1117.318993,1072.533697,-148.041188,9178.553681
1117.319309,612.876398,-666.185348,8660.409521
1117.319625,536.266849,-666.185348,9400.615463
1117.319941,766.095498,222.061783,9474.636058
1117.320257,1302.362347,370.102971,9104.533087
1117.320573,1378.971896,1184.329507,9474.636058
1117.320889,1072.533697,740.205942,8512.368333
1117.321204,1149.143247,-148.041188,8142.265362
1117.321520,919.314598,-222.061783,9030.512492
1117.321836,612.876398,-888.247130,10436.903782
1117.322152,1072.533697,-518.144159,10066.800811
1117.322468,919.314598,-0.000000,10140.821405
1117.322784,766.095498,-0.000000,9992.780217
1117.323100,919.314598,-222.061783,9326.594869
1117.323416,229.828649,-370.102971,9770.718434
1117.323732,383.047749,-222.061783,10214.842000
1117.324048,919.314598,296.082377,9992.780217
1117.324364,1072.533697,740.205942,9178.553681
1117.324680,1302.362347,962.267725,9252.574275
1117.324996,766.095498,-0.000000,8808.450710
1117.325312,536.266849,-0.000000,9104.533087
1117.325627,76.609550,370.102971,9696.697840
1117.325943,76.609550,-148.041188,10288.862594
1117.326259,459.657299,-444.123565,10214.842000
1117.326575,229.828649,-74.020594,10066.800811
1117.326891,0.000000,-148.041188,9400.615463
1117.327207,-229.828649,-222.061783,9548.656652
1117.327523,229.828649,148.041188,10362.883188
1117.327839,229.828649,666.185348,9474.636058
1117.328155,153.219100,666.185348,9992.780217
1117.328471,-153.219100,740.205942,9474.636058
1117.328787,-536.266849,-0.000000,8956.491898
1117.329103,-766.095498,-444.123565,9030.512492
1117.329419,-995.924147,-666.185348,10214.842000
1117.329735,-842.705048,-666.185348,10066.800811
1117.330051,-689.485948,-0.000000,10140.821405
1117.330366,-306.438199,222.061783,9770.718434
1117.330682,-229.828649,-296.082377,9400.615463
1117.330998,-612.876398,-148.041188,9548.656652
1117.331314,-919.314598,-296.082377,9178.553681
1117.331630,153.219100,-740.205942,9844.739029
1117.331946,459.657299,-518.144159,9474.636058
1117.332262,76.609550,-444.123565,10140.821405
1117.332578,536.266849,-740.205942,9400.615463
1117.332894,459.657299,-592.164754,9030.512492
1117.333210,76.609550,-370.102971,9030.512492
1117.333526,612.876398,-296.082377,9474.636058
1117.333842,1608.800546,-222.061783,9548.656652
1117.334158,919.314598,-148.041188,9696.697840
1117.334474,1072.533697,-740.205942,9770.718434
1117.334790,842.705048,-1258.350101,9178.553681
1117.335105,383.047749,-592.164754,9104.533087
1117.335421,229.828649,-518.144159,9400.615463
1117.335737,1225.752797,-370.102971,10066.800811
1117.336053,919.314598,222.061783,9474.636058
1117.336369,919.314598,-0.000000,8660.409521
1117.336685,919.314598,-666.185348,8808.450710
1117.337001,766.095498,-1258.350101,9400.615463
1117.337317,689.485948,-1258.350101,9178.553681
1117.337633,1378.971896,-666.185348,9844.739029
1117.337949,1378.971896,-444.123565,9474.636058
1117.338265,919.314598,-0.000000,8882.471304
1117.338581,1532.190996,-148.041188,8068.244768
1117.338897,1072.533697,-0.000000,8142.265362
1117.339213,1225.752797,-0.000000,8956.491898
1117.339529,1225.752797,-592.164754,9178.553681
1117.339844,1455.581446,-0.000000,9474.636058
1117.340160,1378.971896,-0.000000,8364.327145
1117.340476,689.485948,-148.041188,8586.388927
1117.340792,0.000000,-444.123565,9474.636058
1117.341108,0.000000,-740.205942,9770.718434
1117.341424,229.828649,-148.041188,9992.780217
1117.341740,229.828649,-0.000000,10066.800811
1117.342056,383.047749,-444.123565,9474.636058
1117.342372,689.485948,-814.226536,9696.697840
1117.342688,612.876398,-666.185348,9474.636058
1117.343004,766.095498,-370.102971,9400.615463
1117.343320,1072.533697,370.102971,9918.759623
1117.343636,1072.533697,814.226536,9992.780217
1117.343952,995.924147,1406.391290,8882.471304
1117.344267,1072.533697,1480.411884,8660.409521
1117.344583,842.705048,370.102971,8808.450710
1117.344899,153.219100,-0.000000,9622.677246
1117.345215,536.266849,-74.020594,10214.842000
1117.345531,0.000000,-148.041188,10362.883188
1117.345847,76.609550,148.041188,10881.027347
1117.346163,0.000000,-0.000000,9770.718434
1117.346479,-1302.362347,370.102971,9548.656652
1117.346795,-1302.362347,-74.020594,10362.883188
1117.347111,-612.876398,-0.000000,10955.047942
1117.347427,-459.657299,296.082377,10140.821405
1117.347743,-612.876398,518.144159,10362.883188
1117.348059,-459.657299,296.082377,9548.656652
1117.348375,-229.828649,-74.020594,9400.615463
1117.348691,-689.485948,666.185348,9326.594869
1117.349006,-1072.533697,296.082377,9844.739029
1117.349322,0.000000,222.061783,10140.821405
1117.349638,229.828649,222.061783,10066.800811
1117.349954,76.609550,296.082377,8882.471304
1117.350270,306.438199,-296.082377,9474.636058
1117.350586,0.000000,-740.205942,9548.656652
1117.350902,0.000000,-222.061783,9844.739029
1117.351218,536.266849,-222.061783,10510.924376
1117.351533,306.438199,296.082377,9474.636058
1117.351849,459.657299,370.102971,9178.553681
1117.352165,383.047749,-296.082377,8956.491898
1117.352481,229.828649,-888.247130,9178.553681
1117.352796,229.828649,-370.102971,9918.759623
1117.353112,612.876398,-592.164754,10140.821405
1117.353428,612.876398,-370.102971,9992.780217
1117.353744,689.485948,-0.000000,9030.512492
1117.354059,919.314598,-74.020594,8734.430116
1117.354375,536.266849,-592.164754,9030.512492
1117.354691,536.266849,-592.164754,9548.656652
1117.355007,1378.971896,-814.226536,9770.718434
1117.355322,766.095498,-740.205942,9252.574275
1117.355638,995.924147,-444.123565,9178.553681
1117.355954,1072.533697,-1184.329507,8586.388927
1117.356270,689.485948,-1258.350101,8364.327145
1117.356585,536.266849,-1258.350101,9178.553681
1117.356901,995.924147,-1110.308913,9622.677246
1117.357217,1225.752797,-1110.308913,9400.615463
1117.357533,919.314598,-1036.288319,9326.594869
1117.357848,919.314598,-962.267725,8808.450710
1117.358164,1072.533697,-1184.329507,8734.430116
1117.358480,689.485948,-666.185348,9326.594869
1117.358796,919.314598,-444.123565,9474.636058
1117.359111,1532.190996,-0.000000,9400.615463
1117.359427,1225.752797,444.123565,8216.285956
1117.359743,1072.533697,148.041188,8586.388927
1117.360059,612.876398,-444.123565,9030.512492
1117.360374,612.876398,-888.247130,9474.636058
1117.360690,612.876398,-370.102971,9770.718434
1117.361006,842.705048,-148.041188,9770.718434
1117.361322,536.266849,-444.123565,9992.780217
1117.361637,1225.752797,-592.164754,8956.491898
1117.361953,995.924147,-444.123565,8586.388927
1117.362269,153.219100,-444.123565,9548.656652
1117.362585,459.657299,-148.041188,9696.697840
1117.362900,766.095498,-888.247130,9548.656652
1117.363216,766.095498,-0.000000,10066.800811
1117.363532,689.485948,666.185348,8734.430116
1117.363848,383.047749,666.185348,8068.244768
1117.364163,0.000000,370.102971,8882.471304
1117.364479,-306.438199,-370.102971,9918.759623
1117.364795,229.828649,-444.123565,10214.842000
1117.365111,459.657299,-148.041188,9844.739029
1117.365426,0.000000,-0.000000,9622.677246
1117.365742,-306.438199,-592.164754,9548.656652
1117.366058,-689.485948,-740.205942,9844.739029
1117.366373,-766.095498,222.061783,10436.903782
1117.366689,-306.438199,666.185348,10214.842000
1117.367005,0.000000,1628.453072,9400.615463
1117.367321,0.000000,1554.432478,8956.491898
1117.367636,-153.219100,296.082377,9474.636058
1117.367952,-383.047749,-0.000000,9326.594869
1117.368268,-689.485948,814.226536,9696.697840
1117.368584,-689.485948,296.082377,9844.739029
1117.368899,-612.876398,-222.061783,10658.965565
1117.369215,-612.876398,148.041188,10288.862594
1117.369531,-766.095498,-222.061783,9474.636058
1117.369847,-1149.143247,-148.041188,9474.636058
1117.370162,-766.095498,-222.061783,10955.047942
1117.370478,0.000000,-666.185348,10584.944971
1117.370794,-306.438199,74.020594,10066.800811
1117.371110,153.219100,370.102971,9770.718434
1117.371425,689.485948,-0.000000,8734.430116
1117.371741,383.047749,74.020594,8734.430116
1117.372057,689.485948,-592.164754,9326.594869
1117.372373,842.705048,-592.164754,9992.780217
1117.372688,1225.752797,-74.020594,9992.780217
1117.373004,1225.752797,-296.082377,9474.636058
1117.373320,1302.362347,-148.041188,9326.594869
1117.373636,1149.143247,-518.144159,8882.471304
1117.373951,842.705048,-0.000000,9326.594869
1117.374267,1532.190996,-148.041188,9770.718434
1117.374583,1532.190996,296.082377,9696.697840
1117.374899,1532.190996,148.041188,8364.327145
1117.375214,1302.362347,-74.020594,8438.347739
1117.375530,919.314598,-814.226536,9104.533087
1117.375846,766.095498,-666.185348,9178.553681
1117.376162,842.705048,-518.144159,9696.697840
1117.376477,919.314598,-592.164754,9992.780217
1117.376793,842.705048,-518.144159,9548.656652
1117.377109,1225.752797,222.061783,8438.347739
1117.377425,919.314598,-0.000000,8290.306550
1117.377740,766.095498,-740.205942,9104.533087
1117.378056,1072.533697,-814.226536,10066.800811
1117.378372,1072.533697,-740.205942,9844.739029
1117.378688,842.705048,-444.123565,9030.512492
1117.379003,612.876398,-296.082377,8808.450710
1117.379319,766.095498,-666.185348,8882.471304
1117.379635,153.219100,-1036.288319,9104.533087
1117.379951,459.657299,-296.082377,9622.677246
1117.380266,459.657299,-0.000000,9474.636058
1117.380582,1072.533697,-370.102971,9474.636058
1117.380898,766.095498,-740.205942,9104.533087
1117.381214,766.095498,-1036.288319,9104.533087
1117.381529,306.438199,-888.247130,9474.636058
1117.381845,229.828649,-740.205942,9474.636058
1117.382161,612.876398,-0.000000,9548.656652
1117.382477,612.876398,444.123565,9770.718434
1117.382792,459.657299,-0.000000,9326.594869
1117.383108,306.438199,-0.000000,8438.347739
1117.383424,0.000000,-444.123565,8956.491898
1117.383740,0.000000,-740.205942,10214.842000
1117.384055,76.609550,-1036.288319,10066.800811
1117.384371,842.705048,-296.082377,10140.821405
1117.384687,229.828649,-222.061783,9326.594869
1117.385003,-306.438199,-518.144159,9400.615463
1117.385318,-306.438199,-148.041188,9400.615463
1117.385634,-536.266849,-222.061783,10140.821405
1117.385950,0.000000,-222.061783,10362.883188
1117.386266,153.219100,222.061783,10066.800811
1117.386581,306.438199,444.123565,9400.615463
1117.386897,0.000000,444.123565,9252.574275
1117.387213,0.000000,-296.082377,8956.491898
1117.387529,76.609550,296.082377,9474.636058
1117.387844,-383.047749,592.164754,9992.780217
1117.388160,-383.047749,296.082377,9622.677246
1117.388476,-383.047749,518.144159,9770.718434
1117.388792,-306.438199,-0.000000,9474.636058
1117.389107,-766.095498,-592.164754,9844.739029
1117.389423,-842.705048,-518.144159,10140.821405
1117.389739,-383.047749,-370.102971,10362.883188
1117.390055,-306.438199,-0.000000,9696.697840
1117.390370,0.000000,-0.000000,9992.780217
1117.390686,766.095498,-444.123565,10288.862594
1117.391002,383.047749,-370.102971,8956.491898
1117.391318,306.438199,-296.082377,9252.574275
1117.391633,689.485948,-592.164754,9622.677246
1117.391949,842.705048,-518.144159,9696.697840
1117.392265,1225.752797,-74.020594,9474.636058
1117.392580,1302.362347,-0.000000,8882.471304
1117.392896,1302.362347,-0.000000,8512.368333
1117.393212,995.924147,-0.000000,8956.491898
1117.393528,1532.190996,-0.000000,9030.512492
1117.393843,1302.362347,-74.020594,9548.656652
1117.394159,1378.971896,-148.041188,9770.718434
1117.394475,1302.362347,-222.061783,9178.553681
1117.394791,1072.533697,-148.041188,8216.285956
1117.395106,459.657299,-518.144159,9400.615463
1117.395422,229.828649,-1258.350101,10066.800811
1117.395738,612.876398,-888.247130,10214.842000
1117.396054,689.485948,-444.123565,9770.718434
1117.396369,689.485948,-0.000000,9400.615463
1117.396685,1225.752797,-0.000000,8956.491898
1117.397001,536.266849,-148.041188,9474.636058
1117.397317,612.876398,-74.020594,9252.574275
1117.397632,306.438199,-222.061783,9622.677246
1117.397948,1302.362347,518.144159,9696.697840
1117.398264,1762.019645,370.102971,8956.491898
1117.398580,1378.971896,-0.000000,8808.450710
1117.398895,766.095498,-0.000000,8956.491898
1117.399211,766.095498,-592.164754,9622.677246
1117.399527,1378.971896,-370.102971,9696.697840
1117.399843,1608.800546,222.061783,9622.677246
1117.400158,1225.752797,518.144159,9252.574275
1117.400474,1302.362347,-0.000000,8808.450710
1117.400790,459.657299,-444.123565,8956.491898
1117.401106,536.266849,-0.000000,9992.780217
1117.401421,383.047749,-148.041188,9474.636058
1117.401737,612.876398,-0.000000,9918.759623
1117.402053,306.438199,148.041188,9696.697840
1117.402369,229.828649,-222.061783,8660.409521
1117.402684,-153.219100,-518.144159,9622.677246
1117.403000,-383.047749,-592.164754,9992.780217
1117.403316,-689.485948,-592.164754,10362.883188
1117.403632,76.609550,-444.123565,10140.821405
1117.403947,-229.828649,-0.000000,9474.636058
1117.404263,0.000000,-0.000000,9030.512492
1117.404579,0.000000,-370.102971,9030.512492
1117.404895,-459.657299,-592.164754,9844.739029
1117.405210,76.609550,-0.000000,9992.780217
1117.405526,76.609550,370.102971,9030.512492
1117.405842,153.219100,444.123565,9400.615463
1117.406158,0.000000,-518.144159,9548.656652
1117.406473,0.000000,-148.041188,8956.491898
1117.406789,-612.876398,-148.041188,9252.574275
1117.407105,-766.095498,-222.061783,9918.759623
1117.407421,0.000000,-222.061783,10436.903782
1117.407736,-306.438199,-74.020594,9548.656652
1117.408052,-306.438199,-148.041188,8956.491898
1117.408368,-612.876398,-666.185348,9548.656652
1117.408684,-459.657299,-1258.350101,9844.739029
1117.408999,-459.657299,-740.205942,9770.718434
1117.409315,-229.828649,-518.144159,10510.924376
1117.409631,766.095498,-296.082377,10066.800811
1117.409947,842.705048,-370.102971,9400.615463
1117.410262,536.266849,-0.000000,8882.471304
1117.410578,1149.143247,-296.082377,8808.450710
1117.410894,1072.533697,-592.164754,9474.636058
1117.411210,1378.971896,-0.000000,9474.636058
1117.411525,1608.800546,148.041188,9548.656652
1117.411841,1608.800546,296.082377,9030.512492
1117.412157,1762.019645,-370.102971,8956.491898
1117.412473,995.924147,-518.144159,9326.594869
1117.412788,919.314598,-222.061783,9696.697840
1117.413104,919.314598,-0.000000,9474.636058
1117.413420,995.924147,370.102971,9474.636058
1117.413736,1072.533697,-222.061783,9918.759623
1117.414051,689.485948,-1036.288319,9474.636058
1117.414367,306.438199,-814.226536,9030.512492
1117.414683,153.219100,-1036.288319,9696.697840
1117.414999,919.314598,-1110.308913,10362.883188
1117.415314,995.924147,-148.041188,9992.780217
1117.415630,995.924147,-0.000000,9104.533087
1117.415946,689.485948,-148.041188,9104.533087
1117.416262,689.485948,-370.102971,8586.388927
1117.416577,536.266849,-148.041188,8586.388927
1117.416893,1072.533697,-296.082377,9696.697840
1117.417209,995.924147,-74.020594,9770.718434
1117.417525,1455.581446,518.144159,8882.471304
1117.417840,995.924147,666.185348,8290.306550
1117.418156,919.314598,-296.082377,9252.574275
1117.418472,0.000000,-370.102971,9770.718434
1117.418787,612.876398,-370.102971,9844.739029
1117.419103,306.438199,-296.082377,9622.677246
1117.419419,153.219100,-148.041188,10214.842000
1117.419735,612.876398,-444.123565,9252.574275
1117.420050,459.657299,-592.164754,8438.347739
1117.420366,0.000000,-444.123565,9474.636058
1117.420682,153.219100,-74.020594,10214.842000
1117.420998,1149.143247,370.102971,9696.697840
1117.421313,153.219100,1110.308913,9178.553681
1117.421629,459.657299,1258.350101,8882.471304
1117.421945,612.876398,-74.020594,8882.471304
1117.422261,153.219100,-222.061783,8586.388927
1117.422576,153.219100,-222.061783,10140.821405
1117.422892,459.657299,-518.144159,10288.862594
1117.423208,229.828649,-0.000000,9622.677246
1117.423524,0.000000,666.185348,9474.636058
1117.423839,0.000000,296.082377,9400.615463
1117.424155,76.609550,-296.082377,9104.533087
1117.424471,-612.876398,592.164754,9844.739029
1117.424787,0.000000,148.041188,9918.759623
1117.425102,0.000000,296.082377,9844.739029
1117.425418,0.000000,222.061783,9622.677246
1117.425734,-612.876398,-0.000000,9474.636058
1117.426050,-689.485948,-222.061783,9622.677246
1117.426365,-612.876398,-0.000000,9844.739029
1117.426681,-459.657299,222.061783,10288.862594
1117.426997,-689.485948,-148.041188,9992.780217
1117.427313,0.000000,-0.000000,9622.677246
1117.427628,0.000000,-148.041188,9252.574275
1117.427944,0.000000,-148.041188,9844.739029
1117.428260,153.219100,-444.123565,10066.800811
1117.428576,536.266849,-0.000000,9474.636058
1117.428891,1225.752797,296.082377,9696.697840
1117.429207,689.485948,148.041188,9252.574275
1117.429523,1149.143247,-296.082377,8586.388927
1117.429839,766.095498,-962.267725,9030.512492
1117.430154,689.485948,-1036.288319,9622.677246
1117.430470,842.705048,-740.205942,9844.739029
1117.430786,995.924147,-518.144159,9622.677246
1117.431102,1072.533697,-370.102971,9548.656652
1117.431417,842.705048,-592.164754,9104.533087
1117.431733,766.095498,-740.205942,9326.594869
1117.432049,459.657299,-888.247130,9918.759623
1117.432365,995.924147,-1036.288319,9918.759623
1117.432680,1302.362347,-592.164754,9548.656652
1117.432996,1225.752797,-296.082377,9474.636058
1117.433312,766.095498,-814.226536,8956.491898
1117.433628,1225.752797,-888.247130,8882.471304
1117.433943,766.095498,-518.144159,9104.533087
1117.434259,1302.362347,-74.020594,9474.636058
1117.434575,1608.800546,-0.000000,9696.697840
1117.434891,1762.019645,-0.000000,9030.512492
1117.435206,1225.752797,-0.000000,8660.409521
1117.435522,1302.362347,-518.144159,8660.409521
1117.435838,689.485948,-1110.308913,9252.574275
1117.436154,766.095498,-666.185348,9918.759623
1117.436469,919.314598,-370.102971,10066.800811
1117.436785,766.095498,-0.000000,9918.759623
1117.437101,459.657299,-0.000000,8808.450710
1117.437417,229.828649,-222.061783,8216.285956
1117.437732,153.219100,-444.123565,9474.636058
1117.438048,383.047749,-888.247130,10288.862594
1117.438364,0.000000,-814.226536,9992.780217
1117.438680,459.657299,-444.123565,9844.739029
1117.438995,689.485948,-518.144159,9252.574275
1117.439311,919.314598,-814.226536,9030.512492
1117.439627,229.828649,-740.205942,9178.553681
1117.439943,383.047749,-518.144159,9696.697840
1117.440258,842.705048,-0.000000,9770.718434
1117.440574,842.705048,518.144159,10066.800811
1117.440890,689.485948,222.061783,9326.594869
1117.441206,689.485948,222.061783,8364.327145
1117.441521,153.219100,-0.000000,8808.450710
1117.441837,383.047749,-444.123565,9844.739029
1117.442153,383.047749,-370.102971,10288.862594
1117.442469,229.828649,-148.041188,9696.697840
1117.442784,0.000000,-0.000000,10066.800811
1117.443100,0.000000,-0.000000,9178.553681
1117.443416,-689.485948,148.041188,9178.553681
1117.443731,-1149.143247,592.164754,9844.739029
1117.444047,-842.705048,148.041188,10066.800811
1117.444363,76.609550,444.123565,10658.965565
1117.444679,-383.047749,740.205942,9104.533087
1117.444994,-536.266849,-148.041188,9104.533087
1117.445310,-459.657299,-962.267725,9696.697840
1117.445626,-689.485948,-592.164754,9696.697840
1117.445942,-612.876398,-148.041188,10066.800811
1117.446257,0.000000,-0.000000,10214.842000
1117.446573,-306.438199,814.226536,9548.656652
1117.446889,0.000000,666.185348,8956.491898
1117.447205,-153.219100,370.102971,8734.430116
1117.447520,383.047749,-74.020594,9696.697840
1117.447836,0.000000,296.082377,9548.656652
1117.448152,383.047749,-74.020594,9844.739029
1117.448468,536.266849,222.061783,9548.656652
1117.448784,536.266849,-222.061783,9400.615463
1117.449099,459.657299,-666.185348,9104.533087
1117.449415,0.000000,-666.185348,9622.677246
1117.449731,229.828649,-592.164754,10436.903782
1117.450047,306.438199,-74.020594,10140.821405
1117.450363,306.438199,-0.000000,9548.656652
1117.450678,766.095498,222.061783,9770.718434
1117.450994,689.485948,-148.041188,9104.533087
1117.451310,612.876398,-370.102971,9104.533087
1117.451626,766.095498,-222.061783,9474.636058
1117.451942,1072.533697,-222.061783,9844.739029
1117.452258,1532.190996,-296.082377,9992.780217
1117.452573,842.705048,-0.000000,8660.409521
1117.452889,229.828649,-592.164754,9030.512492
1117.453205,153.219100,-1184.329507,9622.677246
1117.453521,612.876398,-666.185348,9918.759623
1117.453837,1302.362347,-592.164754,9844.739029
1117.454152,842.705048,74.020594,9918.759623
1117.454468,1072.533697,296.082377,9474.636058
1117.454784,995.924147,-518.144159,8438.347739
1117.455100,612.876398,-0.000000,8586.388927
1117.455416,383.047749,-592.164754,9252.574275
1117.455732,919.314598,-518.144159,9918.759623
1117.456047,842.705048,-0.000000,9622.677246
1117.456363,689.485948,-0.000000,9178.553681
1117.456679,459.657299,592.164754,7994.224174
1117.456995,76.609550,-518.144159,8808.450710
1117.457311,0.000000,-666.185348,9696.697840
1117.457627,536.266849,-962.267725,10140.821405
1117.457942,76.609550,-370.102971,9918.759623
1117.458258,153.219100,-444.123565,9622.677246
1117.458574,383.047749,-740.205942,9030.512492
1117.458890,0.000000,-1036.288319,9326.594869
1117.459206,0.000000,-296.082377,9844.739029
1117.459521,229.828649,-0.000000,9474.636058
1117.459837,1302.362347,-0.000000,9178.553681
1117.460153,536.266849,666.185348,9030.512492
1117.460469,919.314598,296.082377,8734.430116
1117.460785,612.876398,-74.020594,8586.388927
1117.461101,229.828649,-148.041188,8660.409521
1117.461416,1072.533697,-444.123565,9474.636058
1117.461732,612.876398,-444.123565,9770.718434
1117.462048,536.266849,-0.000000,9770.718434
1117.462364,76.609550,-296.082377,9178.553681
1117.462680,0.000000,-222.061783,9178.553681
1117.462995,0.000000,-148.041188,9252.574275
1117.463311,-612.876398,-370.102971,10140.821405
1117.463627,0.000000,-148.041188,10881.027347
1117.463943,-229.828649,592.164754,9400.615463
1117.464259,-306.438199,296.082377,9474.636058
1117.464575,-383.047749,-296.082377,9548.656652
1117.464890,-612.876398,222.061783,9252.574275
1117.465206,-306.438199,-0.000000,9992.780217
1117.465522,-306.438199,-296.082377,10140.821405
1117.465838,76.609550,-296.082377,10881.027347
1117.466154,0.000000,-0.000000,10066.800811
1117.466470,-459.657299,-0.000000,9178.553681
1117.466785,-306.438199,74.020594,9918.759623
1117.467101,383.047749,296.082377,9548.656652
1117.467417,536.266849,740.205942,9474.636058
1117.467733,1072.533697,370.102971,9696.697840
1117.468049,1302.362347,222.061783,9252.574275
1117.468364,689.485948,-74.020594,8882.471304
1117.468680,76.609550,-518.144159,9030.512492
1117.468996,459.657299,-518.144159,9474.636058
1117.469312,229.828649,-740.205942,10362.883188
1117.469628,919.314598,-74.020594,10214.842000
1117.469944,459.657299,-222.061783,9844.739029
1117.470259,459.657299,-148.041188,8956.491898
1117.470575,536.266849,-0.000000,8808.450710
1117.470891,612.876398,-518.144159,9400.615463
1117.471207,842.705048,-370.102971,10066.800811
1117.471523,1149.143247,-74.020594,9844.739029
1117.471838,1378.971896,-0.000000,9326.594869
1117.472154,1378.971896,-0.000000,9030.512492
1117.472470,766.095498,-888.247130,9030.512492
1117.472786,536.266849,-444.123565,9400.615463
1117.473102,995.924147,-0.000000,9622.677246
1117.473418,1225.752797,-148.041188,9918.759623
1117.473733,1608.800546,-0.000000,9622.677246
1117.474049,1608.800546,148.041188,8956.491898
1117.474365,842.705048,-592.164754,8216.285956
1117.474681,536.266849,-444.123565,9030.512492
1117.474997,842.705048,-370.102971,9474.636058
1117.475313,766.095498,-0.000000,9622.677246
1117.475628,536.266849,-0.000000,9548.656652
1117.475944,383.047749,-0.000000,9252.574275
1117.476260,-306.438199,-518.144159,8438.347739
1117.476576,-536.266849,-962.267725,9104.533087
1117.476892,76.609550,-888.247130,9770.718434
1117.477207,229.828649,-888.247130,10288.862594
1117.477523,306.438199,-296.082377,9696.697840
1117.477839,229.828649,-0.000000,9030.512492
1117.478155,153.219100,-740.205942,8734.430116
1117.478471,-306.438199,-740.205942,8956.491898
1117.478787,306.438199,-74.020594,10140.821405
1117.479102,612.876398,-370.102971,9622.677246
1117.479418,766.095498,518.144159,9548.656652
1117.479734,612.876398,296.082377,8956.491898
1117.480050,919.314598,-444.123565,8660.409521
1117.480366,306.438199,-0.000000,8734.430116
1117.480681,459.657299,-222.061783,9400.615463
1117.480997,689.485948,-0.000000,9844.739029
1117.481313,229.828649,-74.020594,10066.800811
1117.481629,229.828649,-296.082377,9548.656652
1117.481945,153.219100,-518.144159,9474.636058
1117.482261,-536.266849,-370.102971,9178.553681
1117.482576,-383.047749,-0.000000,9918.759623
1117.482892,-383.047749,518.144159,9918.759623
1117.483208,-459.657299,148.041188,9696.697840
1117.483524,0.000000,296.082377,9622.677246
1117.483840,-306.438199,-74.020594,9622.677246
1117.484156,-459.657299,-148.041188,9178.553681
1117.484471,-459.657299,-74.020594,9622.677246
1117.484787,-689.485948,-444.123565,9992.780217
1117.485103,0.000000,-296.082377,10732.986159
1117.485419,0.000000,-296.082377,9844.739029
1117.485735,0.000000,-222.061783,9548.656652
1117.486050,-536.266849,-296.082377,9622.677246
1117.486366,0.000000,-296.082377,9474.636058
1117.486682,229.828649,296.082377,10436.903782
1117.486998,842.705048,592.164754,9696.697840
1117.487314,1455.581446,370.102971,9252.574275
1117.487630,1378.971896,-0.000000,8882.471304
1117.487945,536.266849,-814.226536,9252.574275
1117.488261,919.314598,-592.164754,9548.656652
1117.488577,842.705048,-444.123565,9918.759623
1117.488893,1378.971896,-666.185348,10881.027347
1117.489209,1378.971896,-370.102971,10066.800811
1117.489524,1072.533697,-0.000000,9104.533087
1117.489840,689.485948,-148.041188,8882.471304
1117.490156,1149.143247,-592.164754,9696.697840
1117.490472,766.095498,-592.164754,9474.636058
1117.490788,1072.533697,-296.082377,9918.759623
1117.491104,1302.362347,-0.000000,9474.636058
1117.491419,1455.581446,-666.185348,9104.533087
1117.491735,995.924147,-444.123565,8512.368333
1117.492051,766.095498,-666.185348,8882.471304
1117.492367,1149.143247,-518.144159,9696.697840
1117.492683,995.924147,-370.102971,9696.697840
1117.492999,612.876398,-592.164754,9622.677246
1117.493314,1455.581446,-888.247130,9844.739029
1117.493630,766.095498,-1110.308913,8882.471304
1117.493946,306.438199,-222.061783,9104.533087
1117.494262,766.095498,-0.000000,9178.553681
1117.494578,1149.143247,-0.000000,9104.533087
1117.494893,612.876398,888.247130,9548.656652
1117.495209,0.000000,296.082377,8734.430116
1117.495525,459.657299,-148.041188,8364.327145
1117.495841,-153.219100,-296.082377,8956.491898
1117.496157,0.000000,-518.144159,9918.759623
1117.496473,459.657299,-592.164754,9918.759623
1117.496788,229.828649,-518.144159,9770.718434
1117.497104,0.000000,-666.185348,9622.677246
1117.497420,0.000000,-814.226536,9178.553681
1117.497736,766.095498,-592.164754,8808.450710
1117.498052,459.657299,222.061783,9474.636058
1117.498367,76.609550,222.061783,9992.780217
1117.498683,306.438199,148.041188,9622.677246
1117.498999,459.657299,444.123565,9104.533087
1117.499315,0.000000,222.061783,8882.471304
1117.499631,-612.876398,-0.000000,8660.409521
1117.499947,-306.438199,-296.082377,9770.718434
1117.500262,-383.047749,-666.185348,9918.759623
1117.500578,0.000000,-592.164754,10732.986159
1117.500894,-153.219100,-444.123565,10066.800811
1117.501210,-459.657299,-740.205942,9622.677246
1117.501526,-995.924147,-0.000000,9548.656652
1117.501842,-612.876398,148.041188,9400.615463
1117.502157,-229.828649,1036.288319,9474.636058
1117.502473,-229.828649,814.226536,10140.821405
1117.502789,0.000000,-0.000000,10362.883188
1117.503105,229.828649,-370.102971,9622.677246
1117.503421,-306.438199,-222.061783,9326.594869
1117.503736,-153.219100,296.082377,8882.471304
1117.504052,153.219100,222.061783,9770.718434
1117.504368,459.657299,-74.020594,11029.068536
1117.504684,0.000000,148.041188,10510.924376
1117.505000,383.047749,518.144159,9252.574275
1117.505316,-306.438199,296.082377,8660.409521
1117.505631,0.000000,148.041188,9770.718434
1117.505947,536.266849,-74.020594,10288.862594
1117.506263,919.314598,296.082377,9770.718434
1117.506579,689.485948,148.041188,9770.718434
1117.506895,766.095498,-518.144159,9326.594869
1117.507210,536.266849,-888.247130,9252.574275
1117.507526,536.266849,-962.267725,9326.594869
1117.507842,1149.143247,-444.123565,9844.739029
1117.508158,1532.190996,-444.123565,10436.903782
1117.508474,1455.581446,-74.020594,10066.800811
1117.508790,1608.800546,-148.041188,9548.656652
1117.509105,1685.410096,-1184.329507,9030.512492
1117.509421,1378.971896,-444.123565,8734.430116
1117.509737,1302.362347,-370.102971,9030.512492
1117.510053,1991.848295,-0.000000,9696.697840
1117.510369,1838.629195,-0.000000,9474.636058
1117.510685,995.924147,-518.144159,9178.553681
1117.511000,1225.752797,-814.226536,9326.594869
1117.511316,459.657299,-592.164754,9326.594869
1117.511632,536.266849,-444.123565,9400.615463
1117.511948,1225.752797,-814.226536,9918.759623
1117.512264,1455.581446,-962.267725,9992.780217
1117.512579,842.705048,-740.205942,9770.718434
1117.512895,153.219100,-814.226536,8586.388927
1117.513211,383.047749,-814.226536,8956.491898
1117.513527,919.314598,-666.185348,9030.512492
1117.513843,76.609550,-370.102971,9474.636058
1117.514159,459.657299,-0.000000,9992.780217
1117.514474,306.438199,-222.061783,8956.491898
1117.514790,459.657299,-148.041188,8808.450710
1117.515106,229.828649,-296.082377,8216.285956
1117.515422,459.657299,-592.164754,8290.306550
1117.515738,536.266849,-666.185348,9622.677246
1117.516053,383.047749,-592.164754,9844.739029
1117.516369,76.609550,-592.164754,9770.718434
1117.516685,0.000000,-1258.350101,9178.553681
1117.517001,153.219100,-666.185348,9696.697840
1117.517317,-229.828649,-444.123565,9548.656652
1117.517633,0.000000,-74.020594,9178.553681
1117.517948,459.657299,-0.000000,9844.739029
1117.518264,689.485948,740.205942,9326.594869
1117.518580,995.924147,370.102971,8216.285956
1117.518896,0.000000,-0.000000,8364.327145
1117.519212,0.000000,-296.082377,9548.656652
1117.519528,0.000000,-814.226536,9696.697840
1117.519843,-229.828649,-370.102971,10066.800811
1117.520159,-383.047749,-444.123565,10732.986159
1117.520475,0.000000,-740.205942,9696.697840
1117.520791,-459.657299,-0.000000,9030.512492
1117.521107,-766.095498,148.041188,9178.553681
1117.521422,-153.219100,-0.000000,9770.718434
1117.521738,459.657299,666.185348,9844.739029
1117.522054,-306.438199,962.267725,9252.574275
1117.522370,0.000000,296.082377,9474.636058
1117.522686,0.000000,-444.123565,9474.636058
1117.523002,-919.314598,-0.000000,9326.594869
1117.523317,0.000000,444.123565,9548.656652
1117.523633,0.000000,-148.041188,10362.883188
1117.523949,0.000000,666.185348,10362.883188
1117.524265,0.000000,518.144159,9474.636058
1117.524581,-612.876398,-0.000000,9474.636058
1117.524896,-536.266849,-518.144159,9770.718434
1117.525212,-536.266849,-0.000000,10140.821405
1117.525528,76.609550,370.102971,10066.800811
1117.525844,383.047749,74.020594,9992.780217
1117.526160,383.047749,222.061783,10066.800811
1117.526476,1072.533697,-74.020594,9696.697840
1117.526791,766.095498,-444.123565,9178.553681
1117.527107,842.705048,-222.061783,9400.615463
1117.527423,1455.581446,-518.144159,9844.739029
1117.527739,2068.457845,-74.020594,10140.821405
1117.528055,1991.848295,-0.000000,10066.800811
1117.528371,1762.019645,-74.020594,9252.574275
1117.528686,1685.410096,296.082377,8734.430116
1117.529002,1915.238745,444.123565,9252.574275
1117.529318,1991.848295,444.123565,9104.533087
1117.529634,2221.676944,-296.082377,9696.697840
1117.529950,1455.581446,-74.020594,9770.718434
1117.530265,1225.752797,-1036.288319,9400.615463
1117.530581,766.095498,-1184.329507,9400.615463
1117.530897,612.876398,-962.267725,9992.780217
1117.531213,919.314598,-740.205942,9918.759623
1117.531529,919.314598,-592.164754,10066.800811
1117.531845,1072.533697,-296.082377,10066.800811
1117.532160,1455.581446,-592.164754,8882.471304
1117.532476,1455.581446,-444.123565,8882.471304
1117.532792,1149.143247,-222.061783,8956.491898
1117.533108,1149.143247,-0.000000,8956.491898
1117.533424,1302.362347,148.041188,9104.533087
1117.533739,1225.752797,444.123565,9104.533087
1117.534055,1072.533697,-74.020594,9178.553681
1117.534371,383.047749,-592.164754,8586.388927
1117.534687,-153.219100,-74.020594,8882.471304
1117.535003,459.657299,-666.185348,9548.656652
1117.535319,766.095498,-1110.308913,10066.800811
1117.535634,306.438199,-888.247130,9622.677246
1117.535950,536.266849,-1110.308913,9622.677246
1117.536266,76.609550,-1628.453072,8956.491898
1117.536582,-153.219100,-814.226536,9252.574275
1117.536898,0.000000,-0.000000,9252.574275
1117.537214,459.657299,-0.000000,9474.636058
1117.537529,536.266849,-0.000000,9770.718434
1117.537845,229.828649,-0.000000,8586.388927
1117.538161,0.000000,-74.020594,8882.471304
1117.538477,0.000000,-296.082377,8660.409521
1117.538793,0.000000,222.061783,8956.491898
1117.539108,459.657299,-518.144159,9548.656652
1117.539424,0.000000,-370.102971,10066.800811
1117.539740,-536.266849,-740.205942,10436.903782
1117.540056,-842.705048,-1110.308913,9474.636058
1117.540372,-995.924147,-370.102971,9326.594869
1117.540688,-919.314598,-0.000000,9992.780217
1117.541003,-536.266849,296.082377,9696.697840
1117.541319,-612.876398,666.185348,9252.574275
1117.541635,-536.266849,444.123565,9474.636058
1117.541951,-766.095498,-0.000000,8956.491898
1117.542267,-995.924147,-444.123565,8882.471304
1117.542582,-1072.533697,444.123565,9326.594869
1117.542898,-612.876398,-0.000000,10066.800811
1117.543214,-536.266849,-0.000000,10510.924376
1117.543530,-612.876398,-148.041188,9992.780217
1117.543846,-766.095498,-444.123565,9622.677246
1117.544162,-612.876398,-962.267725,9400.615463
1117.544477,-689.485948,-370.102971,9770.718434
1117.544793,-229.828649,-0.000000,10362.883188
1117.545109,919.314598,-0.000000,10214.842000
1117.545425,612.876398,592.164754,9400.615463
1117.545741,612.876398,-0.000000,8956.491898
1117.546057,766.095498,-148.041188,8956.491898
1117.546372,1149.143247,-0.000000,9030.512492
1117.546688,1302.362347,-222.061783,9622.677246
1117.547004,1762.019645,370.102971,10214.842000
1117.547320,1608.800546,518.144159,9992.780217
1117.547636,1915.238745,370.102971,9326.594869
1117.547951,1455.581446,148.041188,9104.533087
1117.548267,1072.533697,222.061783,9474.636058
1117.548583,1225.752797,-74.020594,9770.718434
1117.548899,1455.581446,-148.041188,9992.780217
1117.549215,1455.581446,-0.000000,10362.883188
1117.549531,1532.190996,-296.082377,9474.636058
1117.549846,612.876398,-370.102971,9104.533087
1117.550162,612.876398,-222.061783,9326.594869
1117.550478,919.314598,-0.000000,9696.697840
1117.550794,1378.971896,-0.000000,9696.697840
1117.551110,1455.581446,-0.000000,9844.739029
1117.551426,1225.752797,-0.000000,9844.739029
1117.551742,1149.143247,-888.247130,9030.512492
1117.552057,1225.752797,-370.102971,8882.471304
1117.552373,1378.971896,296.082377,8808.450710
1117.552689,1455.581446,592.164754,9400.615463
1117.553005,919.314598,444.123565,9326.594869
1117.553321,995.924147,444.123565,9030.512492
1117.553637,536.266849,-74.020594,8808.450710
1117.553953,306.438199,-370.102971,8956.491898
1117.554269,229.828649,-370.102971,9104.533087
1117.554584,536.266849,-1184.329507,9548.656652
1117.554900,306.438199,-888.247130,10140.821405
1117.555216,306.438199,-740.205942,10214.842000
1117.555532,459.657299,-888.247130,9178.553681
1117.555848,536.266849,-666.185348,9030.512492
1117.556164,0.000000,-74.020594,9252.574275
1117.556480,766.095498,-222.061783,9474.636058
1117.556795,689.485948,-148.041188,9918.759623
1117.557111,536.266849,518.144159,9474.636058
1117.557427,536.266849,370.102971,8586.388927
1117.557743,766.095498,-370.102971,8142.265362
1117.558059,153.219100,-74.020594,8660.409521
1117.558375,383.047749,-0.000000,9474.636058
1117.558691,459.657299,-370.102971,9918.759623
1117.559007,0.000000,-666.185348,9474.636058
1117.559322,-306.438199,-962.267725,9696.697840
1117.559638,-536.266849,-814.226536,9770.718434
1117.559954,-766.095498,-148.041188,9104.533087
1117.560270,-229.828649,-222.061783,9622.677246
1117.560586,-153.219100,-222.061783,10140.821405
1117.560902,-383.047749,-222.061783,9992.780217
1117.561218,-612.876398,-444.123565,8956.491898
1117.561533,-689.485948,-1036.288319,9326.594869
1117.561849,-995.924147,-296.082377,9696.697840
1117.562165,-459.657299,-74.020594,9178.553681
1117.562481,-766.095498,296.082377,9696.697840
1117.562797,-536.266849,-148.041188,10288.862594
1117.563113,-383.047749,-0.000000,9548.656652
1117.563429,-383.047749,222.061783,9474.636058
1117.563744,-1149.143247,-444.123565,9474.636058
1117.564060,-306.438199,-148.041188,10658.965565
1117.564376,229.828649,-222.061783,10214.842000
1117.564692,306.438199,-0.000000,9548.656652
1117.565008,842.705048,-444.123565,10288.862594
1117.565324,0.000000,-814.226536,9696.697840
1117.565640,229.828649,-222.061783,9474.636058
1117.565956,383.047749,518.144159,9770.718434
1117.566271,612.876398,222.061783,9548.656652
1117.566587,995.924147,222.061783,10362.883188
1117.566903,766.095498,-444.123565,10066.800811
1117.567219,842.705048,-814.226536,9622.677246
1117.567535,766.095498,-518.144159,9400.615463
1117.567851,1225.752797,-370.102971,9252.574275
1117.568167,1762.019645,-518.144159,9992.780217
1117.568482,1915.238745,-148.041188,10140.821405
1117.568798,1838.629195,-74.020594,9474.636058
1117.569114,1762.019645,-370.102971,8882.471304
1117.569430,1302.362347,-740.205942,8660.409521
1117.569746,1302.362347,592.164754,9178.553681
1117.570062,1532.190996,-0.000000,9252.574275
1117.570378,1378.971896,-296.082377,9696.697840
1117.570694,1149.143247,-222.061783,9992.780217
1117.571009,919.314598,-888.247130,8808.450710
1117.571325,842.705048,-666.185348,9104.533087
1117.571641,766.095498,-592.164754,9252.574275
1117.571957,1225.752797,-518.144159,10362.883188
1117.572273,919.314598,888.247130,9252.574275
1117.572589,842.705048,592.164754,9770.718434
1117.572905,536.266849,370.102971,8438.347739
1117.573220,153.219100,444.123565,8216.285956
1117.573536,536.266849,222.061783,9104.533087
1117.573852,689.485948,-222.061783,8734.430116
1117.574168,459.657299,-296.082377,9696.697840
1117.574484,842.705048,-962.267725,10214.842000
1117.574800,383.047749,-1406.391290,9622.677246
1117.575116,229.828649,-296.082377,9104.533087
1117.575432,306.438199,-0.000000,8216.285956
1117.575747,76.609550,444.123565,9252.574275
1117.576063,306.438199,592.164754,9844.739029
1117.576379,0.000000,888.247130,9474.636058
1117.576695,383.047749,592.164754,9030.512492
1117.577011,76.609550,-518.144159,8660.409521
1117.577327,-536.266849,-222.061783,8586.388927
1117.577643,153.219100,-888.247130,9696.697840
1117.577958,0.000000,-1036.288319,10362.883188
1117.578274,-306.438199,-222.061783,10066.800811
1117.578590,-229.828649,-0.000000,9992.780217
1117.578906,-919.314598,-296.082377,9178.553681
1117.579222,-766.095498,222.061783,9622.677246
1117.579538,-306.438199,148.041188,9770.718434
1117.579854,0.000000,370.102971,9400.615463
1117.580170,153.219100,814.226536,9622.677246
1117.580485,383.047749,-0.000000,9178.553681
1117.580801,-229.828649,-444.123565,8734.430116
1117.581117,-612.876398,-0.000000,9696.697840
1117.581433,0.000000,296.082377,9474.636058
1117.581749,0.000000,370.102971,10214.842000
1117.582065,-383.047749,-0.000000,10066.800811
1117.582381,-383.047749,-888.247130,10807.006753
1117.582696,-612.876398,-1110.308913,10140.821405
1117.583012,-306.438199,-666.185348,9548.656652
1117.583328,0.000000,740.205942,10140.821405
1117.583644,306.438199,296.082377,9918.759623
1117.583960,919.314598,444.123565,9844.739029
1117.584276,766.095498,148.041188,9622.677246
1117.584592,383.047749,-592.164754,9104.533087
1117.584907,153.219100,-1258.350101,9326.594869
1117.585223,383.047749,-592.164754,9696.697840
1117.585539,1225.752797,-370.102971,10510.924376
1117.585855,1455.581446,-0.000000,10140.821405
1117.586171,1378.971896,666.185348,9252.574275
1117.586487,1302.362347,-222.061783,8808.450710
1117.586803,1532.190996,-518.144159,9252.574275
1117.587119,1455.581446,-444.123565,8956.491898
1117.587434,1455.581446,-148.041188,8956.491898
1117.587750,1532.190996,-0.000000,9918.759623
1117.588066,1608.800546,-888.247130,9622.677246
1117.588382,919.314598,-814.226536,8142.265362
1117.588698,612.876398,-888.247130,9178.553681
1117.589014,306.438199,-1110.308913,9696.697840
1117.589330,459.657299,-962.267725,9622.677246
1117.589645,766.095498,-0.000000,10362.883188
1117.589961,766.095498,-962.267725,9770.718434
1117.590277,995.924147,-1554.432478,9400.615463
1117.590593,766.095498,-740.205942,8882.471304
1117.590909,459.657299,-666.185348,8808.450710
1117.591225,919.314598,-444.123565,9252.574275
1117.591541,766.095498,148.041188,9474.636058
1117.591857,919.314598,370.102971,8956.491898
1117.592172,995.924147,-0.000000,9178.553681
1117.592488,919.314598,-222.061783,8586.388927
1117.592804,612.876398,-148.041188,7698.141797
1117.593120,1072.533697,-592.164754,9548.656652
1117.593436,995.924147,-962.267725,10288.862594
1117.593752,612.876398,148.041188,9992.780217
1117.594068,766.095498,-296.082377,9030.512492
1117.594383,76.609550,-888.247130,9252.574275
1117.594699,0.000000,-0.000000,9400.615463
1117.595015,76.609550,370.102971,9252.574275
1117.595331,76.609550,148.041188,9548.656652
1117.595647,-153.219100,-0.000000,10066.800811
1117.595963,153.219100,740.205942,9474.636058
1117.596279,76.609550,296.082377,8586.388927
1117.596595,-229.828649,-148.041188,8956.491898
1117.596910,153.219100,-0.000000,9030.512492
1117.597226,383.047749,-666.185348,9326.594869
1117.597542,306.438199,-370.102971,10881.027347
1117.597858,153.219100,-222.061783,10066.800811
1117.598174,0.000000,-148.041188,8734.430116
1117.598490,-306.438199,148.041188,9104.533087
1117.598806,-536.266849,296.082377,9992.780217
1117.599121,229.828649,1184.329507,9252.574275
1117.599437,153.219100,740.205942,9918.759623
1117.599753,-306.438199,-0.000000,9770.718434
1117.600069,-383.047749,-296.082377,9400.615463
1117.600385,-153.219100,-444.123565,9474.636058
1117.600701,-612.876398,-0.000000,9918.759623
1117.601017,-536.266849,-74.020594,10510.924376
1117.601332,-612.876398,222.061783,10436.903782
1117.601648,-459.657299,518.144159,9992.780217
1117.601964,-689.485948,-148.041188,9622.677246
1117.602280,-919.314598,-74.020594,9474.636058
1117.602596,-153.219100,-74.020594,10066.800811
1117.602912,0.000000,-222.061783,9844.739029
1117.603228,536.266849,592.164754,10140.821405
1117.603544,919.314598,814.226536,9992.780217
1117.603859,919.314598,-592.164754,8882.471304
1117.604175,689.485948,-222.061783,9696.697840
1117.604491,536.266849,-0.000000,10066.800811
1117.604807,1149.143247,-0.000000,9252.574275
1117.605123,1302.362347,-0.000000,9622.677246
1117.605439,1072.533697,148.041188,10066.800811
1117.605755,1149.143247,-444.123565,9696.697840
1117.606070,919.314598,-666.185348,8660.409521
1117.606386,842.705048,-296.082377,9326.594869
1117.606702,995.924147,-0.000000,9326.594869
1117.607018,1532.190996,-222.061783,9548.656652
1117.607334,1225.752797,-222.061783,9548.656652
1117.607650,842.705048,-888.247130,9770.718434
1117.607966,1149.143247,-1776.494261,9400.615463
1117.608282,536.266849,-1036.288319,9252.574275
1117.608597,766.095498,-518.144159,9844.739029
1117.608913,1378.971896,-370.102971,9474.636058
1117.609229,1302.362347,148.041188,9400.615463
1117.609545,1072.533697,148.041188,9252.574275
1117.609861,1149.143247,-370.102971,8586.388927
1117.610177,842.705048,-592.164754,8734.430116
1117.610493,612.876398,-518.144159,9252.574275
1117.610808,1072.533697,-222.061783,9326.594869
1117.611124,1149.143247,-444.123565,9104.533087
1117.611440,383.047749,-592.164754,9548.656652
1117.611756,689.485948,-666.185348,8364.327145
1117.612072,153.219100,-666.185348,8734.430116
1117.612388,383.047749,-592.164754,9030.512492
1117.612704,536.266849,-740.205942,9918.759623
1117.613020,919.314598,-444.123565,9548.656652
1117.613335,459.657299,-666.185348,9104.533087
1117.613651,766.095498,-1110.308913,9178.553681
1117.613967,1149.143247,-962.267725,8438.347739
1117.614283,536.266849,-296.082377,8734.430116
1117.614599,995.924147,-74.020594,9104.533087
1117.614915,766.095498,-444.123565,9252.574275
1117.615231,689.485948,-0.000000,9548.656652
1117.615546,229.828649,-296.082377,9030.512492
1117.615862,0.000000,-0.000000,8438.347739
1117.616178,153.219100,148.041188,9252.574275
1117.616494,229.828649,-518.144159,9918.759623
1117.616810,306.438199,-444.123565,10288.862594
1117.617126,-229.828649,-370.102971,10214.842000
1117.617442,-459.657299,-814.226536,9326.594869
1117.617757,-383.047749,-962.267725,9770.718434
1117.618073,-536.266849,-296.082377,9696.697840
1117.618389,-153.219100,740.205942,9400.615463
1117.618705,-306.438199,444.123565,9992.780217
1117.619021,-383.047749,518.144159,9992.780217
1117.619337,-306.438199,148.041188,9252.574275
1117.619653,-459.657299,-444.123565,9252.574275
1117.619969,-536.266849,-0.000000,9548.656652
1117.620284,-153.219100,-148.041188,9622.677246
1117.620600,0.000000,-222.061783,9844.739029
1117.620916,-153.219100,-296.082377,10807.006753
1117.621232,-306.438199,-370.102971,10066.800811
1117.621548,-689.485948,-370.102971,9326.594869
1117.621864,-459.657299,-0.000000,9992.780217
1117.622180,-229.828649,-0.000000,10436.903782
1117.622495,536.266849,-0.000000,10066.800811
1117.622811,536.266849,666.185348,9474.636058
1117.623127,459.657299,148.041188,9548.656652
1117.623443,459.657299,-444.123565,9400.615463
1117.623759,995.924147,-0.000000,9178.553681
1117.624075,1072.533697,74.020594,9474.636058
1117.624391,1072.533697,444.123565,9770.718434
1117.624707,1072.533697,148.041188,9770.718434
1117.625022,766.095498,-74.020594,10214.842000
1117.625338,842.705048,-740.205942,9918.759623
1117.625654,1225.752797,-444.123565,9696.697840
1117.625970,1455.581446,370.102971,8956.491898
1117.626286,1762.019645,666.185348,9400.615463
1117.626602,1608.800546,370.102971,9622.677246
1117.626918,1685.410096,-0.000000,9474.636058
1117.627233,1608.800546,-592.164754,8882.471304
1117.627549,919.314598,-296.082377,8882.471304
1117.627865,919.314598,-148.041188,9622.677246
1117.628181,1302.362347,-592.164754,9474.636058
1117.628497,919.314598,-148.041188,9918.759623
1117.628813,842.705048,-666.185348,10066.800811
1117.629129,842.705048,-1110.308913,8882.471304
1117.629445,383.047749,-148.041188,8660.409521
1117.629760,536.266849,-0.000000,9104.533087
1117.630076,1455.581446,-74.020594,9104.533087
1117.630392,766.095498,296.082377,9104.533087
1117.630708,842.705048,-0.000000,9548.656652
1117.631024,229.828649,-518.144159,8438.347739
1117.631340,459.657299,-814.226536,8734.430116
1117.631656,-153.219100,-370.102971,9030.512492
1117.631971,536.266849,-370.102971,9918.759623
1117.632287,766.095498,222.061783,9474.636058
1117.632603,459.657299,-518.144159,9548.656652
1117.632919,153.219100,-814.226536,9104.533087
1117.633235,689.485948,-740.205942,9252.574275
1117.633551,306.438199,-296.082377,8512.368333
1117.633867,229.828649,-0.000000,9104.533087
1117.634183,383.047749,-0.000000,9770.718434
1117.634498,612.876398,-370.102971,9992.780217
1117.634814,306.438199,-148.041188,9104.533087
1117.635130,0.000000,-0.000000,8734.430116
1117.635446,0.000000,-0.000000,9474.636058
1117.635762,459.657299,-296.082377,9844.739029
1117.636078,76.609550,-74.020594,9622.677246
1117.636394,153.219100,296.082377,9548.656652
1117.636709,229.828649,-592.164754,10066.800811
1117.637025,-229.828649,-444.123565,9474.636058
1117.637341,-536.266849,-74.020594,9622.677246
1117.637657,0.000000,148.041188,9622.677246
1117.637973,0.000000,222.061783,9770.718434
1117.638289,-229.828649,814.226536,9844.739029
1117.638605,0.000000,-0.000000,9474.636058
1117.638920,-306.438199,-444.123565,9252.574275
1117.639236,-766.095498,-222.061783,9474.636058
1117.639552,-383.047749,-0.000000,9844.739029
1117.639868,-306.438199,-74.020594,10214.842000
1117.640184,0.000000,-148.041188,10436.903782
1117.640500,-229.828649,-296.082377,9844.739029
1117.640816,0.000000,-592.164754,9622.677246
1117.641132,-536.266849,-592.164754,9326.594869
1117.641447,0.000000,-222.061783,9918.759623
1117.641763,0.000000,-444.123565,10288.862594
1117.642079,0.000000,-444.123565,10288.862594
1117.642395,459.657299,-0.000000,10066.800811
1117.642711,76.609550,-518.144159,9178.553681
1117.643027,995.924147,-444.123565,9326.594869
1117.643343,612.876398,-296.082377,9696.697840
1117.643658,995.924147,-74.020594,9252.574275
1117.643974,1225.752797,-222.061783,9696.697840
1117.644290,1378.971896,-518.144159,10288.862594
1117.644606,1838.629195,-1036.288319,9326.594869
1117.644922,995.924147,-148.041188,8438.347739
1117.645238,1072.533697,370.102971,8808.450710
1117.645554,1302.362347,-0.000000,9548.656652
1117.645870,1302.362347,-0.000000,9844.739029
1117.646185,1532.190996,-0.000000,9474.636058
1117.646501,919.314598,-888.247130,8660.409521
1117.646817,612.876398,-1036.288319,9252.574275
1117.647133,536.266849,-962.267725,9548.656652
1117.647449,1072.533697,-666.185348,9696.697840
1117.647765,842.705048,-740.205942,9770.718434
1117.648081,842.705048,-74.020594,9548.656652
1117.648396,612.876398,-518.144159,9696.697840
1117.648712,536.266849,-740.205942,8808.450710
1117.649028,612.876398,222.061783,8660.409521
1117.649344,766.095498,222.061783,9400.615463
1117.649660,995.924147,-0.000000,9474.636058
1117.649976,995.924147,444.123565,9474.636058
1117.650292,842.705048,-222.061783,8882.471304
1117.650608,689.485948,-666.185348,8734.430116
1117.650923,306.438199,-296.082377,8882.471304
1117.651239,536.266849,-444.123565,9548.656652
1117.651555,459.657299,-148.041188,9696.697840
1117.651871,306.438199,148.041188,10066.800811
1117.652187,459.657299,-74.020594,10288.862594
1117.652503,0.000000,-666.185348,8956.491898
1117.652818,0.000000,296.082377,8734.430116
1117.653134,536.266849,74.020594,9326.594869
1117.653450,766.095498,296.082377,9474.636058
1117.653766,536.266849,740.205942,9622.677246
1117.654082,612.876398,222.061783,9400.615463
1117.654398,229.828649,-74.020594,8956.491898
1117.654713,-153.219100,-0.000000,8808.450710
1117.655029,-383.047749,370.102971,9252.574275
1117.655345,76.609550,-296.082377,10140.821405
1117.655661,-306.438199,-0.000000,10584.944971
1117.655977,-536.266849,-0.000000,9696.697840
1117.656293,-383.047749,-296.082377,9474.636058
1117.656608,-766.095498,-0.000000,9252.574275
1117.656924,-459.657299,148.041188,10140.821405
1117.657240,-536.266849,740.205942,10140.821405
1117.657556,-153.219100,1110.308913,9400.615463
1117.657872,0.000000,666.185348,9326.594869
1117.658188,-153.219100,-0.000000,9770.718434
1117.658503,-995.924147,-740.205942,9474.636058
1117.658819,-536.266849,370.102971,9844.739029
1117.659135,0.000000,444.123565,9696.697840
1117.659451,0.000000,222.061783,10214.842000
1117.659767,76.609550,518.144159,10807.006753
1117.660083,-306.438199,-74.020594,9696.697840
1117.660398,-229.828649,-444.123565,9178.553681
1117.660714,-306.438199,-0.000000,9770.718434
1117.661030,0.000000,148.041188,9474.636058
1117.661346,0.000000,-0.000000,10436.903782
1117.661662,536.266849,-0.000000,10140.821405
1117.661978,612.876398,-444.123565,9474.636058
1117.662293,0.000000,-962.267725,9622.677246
1117.662609,383.047749,-296.082377,9252.574275
1117.662925,919.314598,-74.020594,9696.697840
1117.663241,1302.362347,222.061783,9030.512492
1117.663557,1455.581446,-444.123565,9696.697840
1117.663873,1302.362347,-888.247130,9770.718434
1117.664188,536.266849,-1110.308913,8808.450710
1117.664504,689.485948,-740.205942,9252.574275
1117.664820,919.314598,-814.226536,9400.615463
1117.665136,1302.362347,-148.041188,9548.656652
1117.665452,1225.752797,-74.020594,9474.636058
1117.665768,766.095498,-518.144159,9252.574275
1117.666083,612.876398,-1850.514855,9030.512492
1117.666399,612.876398,-1184.329507,8882.471304
1117.666715,1072.533697,-370.102971,9252.574275
1117.667031,1378.971896,-0.000000,9474.636058
1117.667347,1532.190996,-0.000000,9104.533087
1117.667663,1532.190996,-666.185348,9178.553681
1117.667979,1302.362347,-1036.288319,8808.450710
1117.668294,612.876398,-592.164754,8956.491898
1117.668610,1302.362347,-0.000000,8586.388927
1117.668926,1302.362347,296.082377,8956.491898
1117.669242,919.314598,-0.000000,9696.697840
1117.669558,536.266849,-296.082377,9622.677246
1117.669874,536.266849,-592.164754,8512.368333
1117.670189,76.609550,-0.000000,7994.224174
1117.670505,-229.828649,-592.164754,9104.533087
1117.670821,306.438199,-962.267725,9844.739029
1117.671137,459.657299,-444.123565,9696.697840
1117.671453,536.266849,-148.041188,9400.615463
1117.671769,153.219100,-1036.288319,9918.759623
1117.672084,306.438199,-888.247130,9252.574275
1117.672400,153.219100,-222.061783,9326.594869
1117.672716,995.924147,148.041188,9474.636058
1117.673032,1072.533697,296.082377,9770.718434
1117.673348,1149.143247,-0.000000,8882.471304
1117.673664,689.485948,-296.082377,8734.430116
1117.673979,459.657299,-0.000000,9474.636058
1117.674295,459.657299,370.102971,9474.636058
1117.674611,383.047749,370.102971,9326.594869
1117.674927,229.828649,444.123565,10140.821405
1117.675243,306.438199,-222.061783,10436.903782
1117.675559,-153.219100,-1036.288319,9178.553681
1117.675874,-536.266849,-1554.432478,10436.903782
1117.676190,-229.828649,-962.267725,10658.965565
1117.676506,459.657299,-0.000000,9844.739029
1117.676822,536.266849,814.226536,9622.677246
1117.677138,229.828649,888.247130,9622.677246
1117.677454,229.828649,-0.000000,9178.553681
1117.677769,-153.219100,370.102971,8586.388927
1117.678085,-459.657299,296.082377,9474.636058
1117.678401,0.000000,-592.164754,9400.615463
1117.678717,-229.828649,-0.000000,10066.800811
1117.679033,-689.485948,296.082377,9844.739029
1117.679349,-689.485948,-592.164754,9770.718434
1117.679664,-612.876398,-1184.329507,9474.636058
1117.679980,-842.705048,-370.102971,9696.697840
1117.680296,-459.657299,370.102971,10140.821405
1117.680612,0.000000,222.061783,9622.677246
1117.680928,0.000000,444.123565,9548.656652
1117.681244,153.219100,-518.144159,9474.636058
1117.681559,0.000000,-1110.308913,9104.533087
1117.681875,306.438199,-444.123565,9474.636058
1117.682191,459.657299,-0.000000,8956.491898
1117.682507,842.705048,370.102971,9622.677246
1117.682823,1838.629195,1036.288319,10066.800811
1117.683139,1532.190996,296.082377,9400.615463
1117.683454,1302.362347,-592.164754,9178.553681
1117.683770,842.705048,-222.061783,9252.574275
1117.684086,1072.533697,222.061783,9474.636058
1117.684402,1762.019645,-74.020594,9400.615463
1117.684718,1608.800546,370.102971,9474.636058
1117.685034,1072.533697,-0.000000,9104.533087
1117.685349,919.314598,-814.226536,8956.491898
1117.685665,689.485948,-814.226536,9178.553681
1117.685981,842.705048,-666.185348,10066.800811
1117.686297,1072.533697,-296.082377,9474.636058
1117.686613,612.876398,-814.226536,9474.636058
1117.686929,689.485948,-814.226536,9918.759623
1117.687245,689.485948,-1406.391290,9696.697840
1117.687560,0.000000,-1406.391290,8808.450710
1117.687876,612.876398,-370.102971,9178.553681
1117.688192,1302.362347,-0.000000,8882.471304
1117.688508,1149.143247,-0.000000,9474.636058
1117.688824,842.705048,-0.000000,9326.594869
1117.689140,1072.533697,-1258.350101,8882.471304
1117.689455,229.828649,-740.205942,8734.430116
1117.689771,536.266849,-0.000000,8808.450710
1117.690087,766.095498,-814.226536,9326.594869
1117.690403,919.314598,-592.164754,9696.697840
1117.690719,689.485948,-74.020594,10288.862594
1117.691035,536.266849,-666.185348,9104.533087
1117.691350,383.047749,-296.082377,8956.491898
1117.691666,459.657299,-0.000000,8808.450710
1117.691982,689.485948,444.123565,9030.512492
1117.692298,995.924147,444.123565,9918.759623
1117.692614,919.314598,-0.000000,9622.677246
1117.692930,919.314598,-74.020594,8956.491898
1117.693245,306.438199,-518.144159,8808.450710
1117.693561,383.047749,-222.061783,9474.636058
1117.693877,383.047749,-370.102971,9252.574275
1117.694193,229.828649,-296.082377,9622.677246
1117.694509,-153.219100,222.061783,10288.862594
1117.694825,0.000000,-814.226536,9844.739029
1117.695140,-612.876398,-814.226536,9104.533087
1117.695456,0.000000,-296.082377,9770.718434
1117.695772,0.000000,-0.000000,9770.718434
1117.696088,0.000000,518.144159,9770.718434
1117.696404,-306.438199,-0.000000,9992.780217
1117.696720,-306.438199,-518.144159,9918.759623
1117.697035,306.438199,-1036.288319,9548.656652
1117.697351,-229.828649,-0.000000,9030.512492
1117.697667,0.000000,814.226536,9548.656652
1117.697983,0.000000,296.082377,9992.780217
1117.698299,306.438199,222.061783,10436.903782
1117.698615,536.266849,-222.061783,9548.656652
1117.698930,0.000000,-222.061783,9252.574275
1117.699246,-536.266849,-0.000000,9400.615463
1117.699562,0.000000,-148.041188,9696.697840
1117.699878,76.609550,-0.000000,9992.780217
1117.700194,689.485948,-0.000000,10066.800811
1117.700510,-306.438199,-296.082377,9918.759623
1117.700825,0.000000,-370.102971,9030.512492
1117.701141,0.000000,-222.061783,8882.471304
1117.701457,383.047749,-74.020594,9400.615463
1117.701773,842.705048,-0.000000,9326.594869
1117.702089,689.485948,-148.041188,9770.718434
1117.702405,689.485948,-814.226536,9548.656652
1117.702720,842.705048,-1480.411884,9400.615463
1117.703036,536.266849,-1036.288319,9326.594869
1117.703352,1072.533697,296.082377,8808.450710
1117.703668,842.705048,888.247130,8808.450710
1117.703984,1302.362347,1184.329507,9178.553681
1117.704300,1149.143247,518.144159,9622.677246
1117.704616,995.924147,-518.144159,9030.512492
1117.704931,536.266849,-370.102971,9178.553681
1117.705247,459.657299,-296.082377,9104.533087
1117.705563,766.095498,-222.061783,9622.677246
1117.705879,383.047749,518.144159,10140.821405
1117.706195,612.876398,444.123565,9622.677246
1117.706511,459.657299,-444.123565,9400.615463
1117.706826,612.876398,-74.020594,9474.636058
1117.707142,153.219100,-0.000000,9252.574275
1117.707458,536.266849,-0.000000,9622.677246
1117.707774,1225.752797,962.267725,9400.615463
1117.708090,1149.143247,222.061783,9622.677246
1117.708406,842.705048,-0.000000,9252.574275
1117.708721,612.876398,-222.061783,8586.388927
1117.709037,383.047749,-444.123565,8586.388927
1117.709353,919.314598,-370.102971,9474.636058
1117.709669,766.095498,-0.000000,10288.862594
1117.709985,766.095498,-814.226536,10140.821405
1117.710301,919.314598,-962.267725,9918.759623
1117.710616,459.657299,-740.205942,9030.512492
1117.710932,153.219100,-222.061783,8660.409521
1117.711248,383.047749,222.061783,9030.512492
1117.711564,612.876398,962.267725,9178.553681
1117.711880,612.876398,444.123565,9548.656652
1117.712196,612.876398,-370.102971,9400.615463
1117.712511,229.828649,-1554.432478,9326.594869
1117.712827,229.828649,-1850.514855,10066.800811
1117.713143,306.438199,-1036.288319,9844.739029
1117.713459,383.047749,-370.102971,10066.800811
1117.713775,229.828649,-0.000000,10140.821405
1117.714091,689.485948,148.041188,9992.780217
1117.714406,842.705048,296.082377,9178.553681
1117.714722,0.000000,444.123565,8808.450710
1117.715038,76.609550,592.164754,9400.615463
1117.715354,536.266849,666.185348,9474.636058
1117.715670,459.657299,666.185348,9918.759623
1117.715986,0.000000,-444.123565,9252.574275
1117.716301,76.609550,-1036.288319,9696.697840
1117.716617,-612.876398,-962.267725,9474.636058
1117.716933,-689.485948,-222.061783,9770.718434
1117.717249,-306.438199,-222.061783,10066.800811
1117.717565,-459.657299,-222.061783,10658.965565
1117.717881,-306.438199,-74.020594,10214.842000
1117.718196,-153.219100,-888.247130,9770.718434
1117.718512,-306.438199,-740.205942,9252.574275
1117.718828,-229.828649,-148.041188,9326.594869
1117.719144,153.219100,-370.102971,9252.574275
1117.719460,842.705048,148.041188,8956.491898
1117.719776,383.047749,-148.041188,9400.615463
1117.720091,459.657299,-1332.370696,9548.656652
1117.720407,459.657299,-962.267725,9178.553681
1117.720723,612.876398,-518.144159,8956.491898
1117.721039,842.705048,-0.000000,8882.471304
1117.721355,1072.533697,-444.123565,9992.780217
1117.721671,1225.752797,-888.247130,9844.739029
1117.721987,995.924147,-962.267725,9030.512492
1117.722302,229.828649,-1480.411884,9548.656652
1117.722618,1072.533697,-518.144159,8956.491898
1117.722934,1072.533697,-0.000000,8586.388927
1117.723250,919.314598,-0.000000,8734.430116
1117.723566,612.876398,-0.000000,10066.800811
1117.723882,766.095498,-666.185348,9548.656652
1117.724197,0.000000,-888.247130,8512.368333
1117.724513,0.000000,-888.247130,9474.636058
1117.724829,459.657299,-740.205942,9696.697840
1117.725145,1149.143247,-222.061783,9400.615463
1117.725461,842.705048,-0.000000,9696.697840
1117.725777,536.266849,-814.226536,9622.677246
1117.726092,459.657299,-1184.329507,9400.615463
1117.726408,229.828649,-518.144159,8882.471304
1117.726724,459.657299,222.061783,9178.553681
1117.727040,1072.533697,296.082377,9548.656652
1117.727356,995.924147,888.247130,9326.594869
1117.727672,459.657299,370.102971,9622.677246
1117.727987,612.876398,-740.205942,9252.574275
1117.728303,459.657299,-518.144159,9178.553681
1117.728619,229.828649,-0.000000,9030.512492
1117.728935,919.314598,-0.000000,9548.656652
1117.729251,995.924147,-0.000000,10362.883188
1117.729567,612.876398,-296.082377,9992.780217
1117.729882,76.609550,-888.247130,10066.800811
1117.730198,229.828649,-1554.432478,10066.800811
1117.730514,229.828649,-0.000000,9548.656652
1117.730830,1225.752797,962.267725,9178.553681
1117.731146,1608.800546,888.247130,9474.636058
1117.731462,842.705048,1036.288319,9104.533087
1117.731777,1072.533697,-0.000000,8956.491898
1117.732093,1072.533697,-444.123565,9178.553681
1117.732409,459.657299,-74.020594,9548.656652
1117.732725,995.924147,592.164754,9178.553681
1117.733041,459.657299,1036.288319,9992.780217
1117.733357,459.657299,296.082377,9844.739029
1117.733672,383.047749,-666.185348,10066.800811
1117.733988,-153.219100,-592.164754,9992.780217
1117.734304,-689.485948,-148.041188,9696.697840
1117.734620,0.000000,-0.000000,9622.677246
1117.734936,0.000000,740.205942,9252.574275
1117.735252,-76.609550,222.061783,9918.759623
1117.735567,0.000000,-592.164754,9844.739029
1117.735883,-306.438199,-370.102971,9252.574275
1117.736199,-306.438199,296.082377,8660.409521
1117.736515,-153.219100,592.164754,8882.471304
1117.736831,229.828649,296.082377,9844.739029
1117.737147,-153.219100,-148.041188,9992.780217
1117.737462,76.609550,-444.123565,9918.759623
1117.737778,-383.047749,-666.185348,9178.553681
1117.738094,0.000000,-444.123565,9696.697840
1117.738410,612.876398,-0.000000,9548.656652
1117.738726,76.609550,-74.020594,9030.512492
1117.739042,536.266849,-74.020594,9918.759623
1117.739357,306.438199,-222.061783,9474.636058
1117.739673,-229.828649,-1332.370696,8956.491898
1117.739989,0.000000,-666.185348,9400.615463
1117.740305,76.609550,-0.000000,9104.533087
1117.740621,459.657299,-148.041188,9474.636058
1117.740937,689.485948,-222.061783,9918.759623
1117.741253,612.876398,-1036.288319,10288.862594
1117.741568,459.657299,-1776.494261,9326.594869
1117.741884,153.219100,-962.267725,8660.409521
1117.742200,919.314598,-518.144159,9548.656652
1117.742516,842.705048,222.061783,9326.594869
1117.742832,0.000000,222.061783,9326.594869
1117.743148,766.095498,-518.144159,9548.656652
1117.743463,459.657299,-148.041188,8734.430116
1117.743779,229.828649,-518.144159,8512.368333
1117.744095,766.095498,-222.061783,9178.553681
1117.744411,229.828649,-518.144159,9770.718434
1117.744727,766.095498,-444.123565,9400.615463
1117.745043,1225.752797,-1036.288319,9770.718434
1117.745358,612.876398,-1258.350101,9548.656652
1117.745674,229.828649,-962.267725,9030.512492
1117.745990,842.705048,-74.020594,8808.450710
1117.746306,689.485948,592.164754,9030.512492
1117.746622,383.047749,518.144159,9696.697840
1117.746938,919.314598,370.102971,9474.636058
1117.747253,76.609550,-296.082377,8808.450710
1117.747569,-306.438199,-1258.350101,9474.636058
1117.747885,0.000000,-888.247130,9178.553681
1117.748201,612.876398,-518.144159,9474.636058
1117.748517,536.266849,-148.041188,9400.615463
1117.748833,689.485948,-0.000000,10140.821405
1117.749148,612.876398,-1184.329507,10214.842000
1117.749464,459.657299,-814.226536,9622.677246
1117.749780,536.266849,222.061783,9474.636058
1117.750096,1225.752797,592.164754,8660.409521
1117.750412,1532.190996,740.205942,9548.656652
1117.750728,1225.752797,296.082377,9844.739029
1117.751043,1225.752797,148.041188,8808.450710
1117.751359,459.657299,-296.082377,8808.450710
1117.751675,0.000000,296.082377,9178.553681
1117.751993,919.314598,-222.061783,9918.759623
1117.752309,536.266849,-518.144159,9844.739029
1117.752624,-153.219100,444.123565,10362.883188
1117.752940,-229.828649,-814.226536,10807.006753
1117.753256,-229.828649,-1258.350101,9992.780217
1117.753572,-306.438199,-0.000000,9622.677246
1117.753888,153.219100,74.020594,9844.739029
1117.754204,766.095498,222.061783,9844.739029
1117.754519,459.657299,888.247130,9770.718434
1117.754835,-229.828649,740.205942,9992.780217
1117.755151,229.828649,-518.144159,9474.636058
1117.755467,-76.609550,-74.020594,8882.471304
1117.755783,76.609550,1110.308913,9030.512492
1117.756098,76.609550,666.185348,9548.656652
1117.756414,306.438199,-0.000000,10510.924376
1117.756730,76.609550,-0.000000,10955.047942
1117.757046,-459.657299,-814.226536,9918.759623
1117.757362,-842.705048,-444.123565,8956.491898
1117.757677,0.000000,-0.000000,9992.780217
1117.757993,459.657299,222.061783,9474.636058
1117.758309,383.047749,148.041188,9844.739029
1117.758625,0.000000,-222.061783,9696.697840
1117.758941,229.828649,-592.164754,9474.636058
1117.759257,306.438199,-740.205942,9252.574275
1117.759572,612.876398,-74.020594,9400.615463
1117.759888,766.095498,444.123565,8808.450710
1117.760204,842.705048,-74.020594,9474.636058
1117.760520,1072.533697,-518.144159,9992.780217
1117.760836,1149.143247,-1110.308913,9770.718434
1117.761151,612.876398,-962.267725,8882.471304
1117.761467,536.266849,148.041188,8512.368333
1117.761783,1225.752797,-0.000000,9178.553681
1117.762099,1378.971896,-0.000000,9252.574275
1117.762415,383.047749,-0.000000,9770.718434
1117.762730,153.219100,-888.247130,9474.636058
1117.763046,0.000000,-1850.514855,9400.615463
1117.763362,0.000000,-518.144159,9844.739029
1117.763678,689.485948,-74.020594,9252.574275
1117.763994,919.314598,222.061783,9030.512492
1117.764310,689.485948,-0.000000,9622.677246
1117.764625,842.705048,-1110.308913,9696.697840
1117.764941,229.828649,-1258.350101,9622.677246
1117.765257,76.609550,-222.061783,9326.594869
1117.765573,612.876398,296.082377,9178.553681
1117.765889,1225.752797,518.144159,9252.574275
1117.766204,919.314598,148.041188,9326.594869
1117.766520,919.314598,-444.123565,9918.759623
1117.766836,306.438199,-1110.308913,9104.533087
1117.767152,153.219100,-740.205942,9400.615463
1117.767468,306.438199,148.041188,9474.636058
1117.767784,1302.362347,148.041188,9326.594869
1117.768099,612.876398,148.041188,9548.656652
1117.768415,612.876398,-518.144159,9548.656652
1117.768731,229.828649,-1406.391290,9104.533087
1117.769047,0.000000,-1332.370696,9474.636058
1117.769363,229.828649,-222.061783,9474.636058
1117.769678,1225.752797,-74.020594,9178.553681
1117.769994,919.314598,74.020594,9992.780217
1117.770310,919.314598,-0.000000,9622.677246
1117.770626,536.266849,-518.144159,9252.574275
1117.770942,919.314598,-518.144159,8956.491898
1117.771257,459.657299,-74.020594,9178.553681
1117.771573,842.705048,666.185348,9326.594869
1117.771889,1149.143247,444.123565,9474.636058
1117.772205,536.266849,296.082377,9770.718434
1117.772521,153.219100,-740.205942,9548.656652
1117.772837,0.000000,-888.247130,9548.656652
1117.773152,76.609550,-148.041188,9696.697840
1117.773468,459.657299,518.144159,9770.718434
1117.773784,536.266849,888.247130,9548.656652
1117.774100,383.047749,592.164754,9178.553681
1117.774416,153.219100,-222.061783,9918.759623
1117.774731,-459.657299,-0.000000,9104.533087
1117.775047,-536.266849,370.102971,9400.615463
1117.775363,76.609550,444.123565,9696.697840
1117.775679,-459.657299,148.041188,10066.800811
1117.775995,-153.219100,222.061783,10584.944971
1117.776310,-995.924147,-962.267725,9474.636058
1117.776626,-995.924147,-1184.329507,9326.594869
1117.776942,-766.095498,-0.000000,10140.821405
1117.777258,-459.657299,-296.082377,9918.759623
1117.777574,-306.438199,888.247130,9400.615463
1117.777890,153.219100,814.226536,9770.718434
1117.778205,306.438199,-222.061783,9030.512492
1117.778521,0.000000,-962.267725,9474.636058
1117.778837,0.000000,-296.082377,9770.718434
1117.779153,536.266849,222.061783,9622.677246
1117.779469,689.485948,444.123565,9474.636058
1117.779784,1072.533697,296.082377,9844.739029
1117.780100,842.705048,-0.000000,9548.656652
1117.780416,919.314598,-518.144159,8808.450710
1117.780732,689.485948,-666.185348,9474.636058
1117.781048,1302.362347,-740.205942,9770.718434
1117.781363,1838.629195,-518.144159,9696.697840
1117.781679,1762.019645,-74.020594,9918.759623
1117.781995,1072.533697,-592.164754,9548.656652
1117.782311,1225.752797,-962.267725,8956.491898
1117.782627,995.924147,-370.102971,8956.491898
1117.782943,1608.800546,-370.102971,8734.430116
1117.783258,1991.848295,-148.041188,9696.697840
1117.783574,1608.800546,-222.061783,8956.491898
1117.783890,842.705048,-1184.329507,9326.594869
1117.784206,306.438199,-1702.473667,9474.636058
1117.784522,0.000000,-1628.453072,9178.553681
1117.784837,0.000000,-1036.288319,9918.759623
1117.785153,-459.657299,-1332.370696,9844.739029
1117.785469,-459.657299,-1480.411884,10584.944971
1117.785785,-612.876398,-1258.350101,10362.883188
1117.786101,-612.876398,-2516.700203,9696.697840
1117.786417,-1225.752797,-2738.761985,9918.759623
1117.786732,-229.828649,-2442.679609,9844.739029
1117.787048,383.047749,-1332.370696,9474.636058
1117.787364,1225.752797,-888.247130,9844.739029
1117.787680,1072.533697,-592.164754,9178.553681
1117.787996,1915.238745,-1036.288319,8808.450710
1117.788311,2068.457845,-1554.432478,8660.409521
1117.788627,1762.019645,-1406.391290,8808.450710
1117.788943,2374.896044,-1184.329507,8808.450710
1117.789259,2604.724693,-1332.370696,8956.491898
1117.789575,2145.067394,-1184.329507,9770.718434
1117.789890,1991.848295,-1702.473667,9622.677246
1117.790206,1685.410096,-2294.638420,9178.553681
1117.790522,1225.752797,-1628.453072,9400.615463
1117.790838,1149.143247,-1702.473667,9548.656652
1117.791154,1915.238745,-1702.473667,10214.842000
1117.791470,1685.410096,-1702.473667,10140.821405
1117.791785,1302.362347,-1776.494261,9178.553681
1117.792101,1455.581446,-2146.597232,9252.574275
1117.792417,1532.190996,-2590.720797,9326.594869
1117.792733,1915.238745,-1628.453072,9474.636058
1117.793049,2221.676944,-740.205942,8734.430116
1117.793364,2528.115143,-518.144159,9178.553681
1117.793680,2298.286494,-740.205942,9326.594869
1117.793996,2145.067394,-1480.411884,9400.615463
1117.794312,2451.505594,-2368.659014,9474.636058
1117.794628,2221.676944,-1850.514855,9474.636058
1117.794943,2374.896044,-592.164754,9104.533087
1117.795259,2681.334243,-740.205942,9696.697840
1117.795575,2757.943793,-1554.432478,10510.924376
1117.795891,2604.724693,-1332.370696,9992.780217
1117.796207,2298.286494,-1924.535449,9474.636058
1117.796523,2451.505594,-2146.597232,9104.533087
1117.796838,2834.553343,-1480.411884,9992.780217
1117.797154,2604.724693,-1554.432478,9252.574275
1117.797470,2834.553343,-1184.329507,9548.656652
1117.797786,2834.553343,-1702.473667,9918.759623
1117.798102,2221.676944,-1998.556043,9548.656652
1117.798417,1838.629195,-1998.556043,9474.636058
1117.798733,2145.067394,-2146.597232,9622.677246
1117.799049,2145.067394,-2146.597232,9844.739029
1117.799365,1991.848295,-2146.597232,10510.924376
1117.799681,2145.067394,-2368.659014,10288.862594
1117.799996,2451.505594,-2442.679609,9770.718434
1117.800312,2451.505594,-2516.700203,10288.862594
1117.800628,2834.553343,-2368.659014,9770.718434
1117.800944,2911.162892,-2146.597232,9622.677246
1117.801260,3753.867940,-2368.659014,9918.759623
1117.801576,4213.525239,-2072.576638,9400.615463
1117.801891,4519.963438,-1628.453072,8808.450710
1117.802207,4519.963438,-1480.411884,8364.327145
1117.802523,4290.134789,-1480.411884,8734.430116
1117.802839,4443.353888,-1036.288319,8808.450710
1117.803155,3753.867940,-814.226536,8512.368333
1117.803470,3140.991542,-1184.329507,8882.471304
1117.803786,2757.943793,-1628.453072,9400.615463
1117.804102,2757.943793,-2072.576638,9178.553681
1117.804418,2145.067394,-1924.535449,9400.615463
1117.804734,1149.143247,-2072.576638,10214.842000
1117.805049,842.705048,-2590.720797,10288.862594
1117.805365,1149.143247,-2664.741391,10288.862594
1117.805681,1149.143247,-2590.720797,9992.780217
1117.805997,1072.533697,-2442.679609,9474.636058
1117.806313,1302.362347,-2516.700203,9178.553681
1117.806629,1991.848295,-2368.659014,9252.574275
1117.806944,2451.505594,-1924.535449,9178.553681
1117.807260,2451.505594,-1628.453072,9104.533087
1117.807576,2145.067394,-1480.411884,9844.739029
1117.807892,2681.334243,-2368.659014,9696.697840
1117.808208,2987.772442,-2220.617826,9400.615463
1117.808523,2757.943793,-1702.473667,8734.430116
1117.808839,2451.505594,-2220.617826,8956.491898
1117.809155,2528.115143,-2220.617826,9326.594869
1117.809471,2451.505594,-1998.556043,9548.656652
1117.809787,2374.896044,-1998.556043,9400.615463
1117.810103,1915.238745,-1924.535449,9326.594869
1117.810418,1838.629195,-2442.679609,10066.800811
1117.810734,1378.971896,-3404.947333,9992.780217
1117.811050,1762.019645,-3552.988522,10140.821405
1117.811366,2068.457845,-3478.967927,10362.883188
1117.811682,1991.848295,-3034.844362,9696.697840
1117.811997,2221.676944,-2368.659014,9178.553681
1117.812313,2145.067394,-1998.556043,9178.553681
1117.812629,2374.896044,-1406.391290,9030.512492
1117.812945,2451.505594,-888.247130,9252.574275
1117.813261,2221.676944,-1036.288319,9474.636058
1117.813576,1991.848295,-1776.494261,10066.800811
1117.813892,2221.676944,-2960.823768,9844.739029
1117.814208,2681.334243,-3627.009116,9992.780217
1117.814524,3140.991542,-3108.864956,9844.739029
1117.814840,3294.210641,-2590.720797,9918.759623
1117.815156,4136.915689,-1850.514855,9400.615463
1117.815471,3600.648841,-2220.617826,9252.574275
1117.815787,3524.039291,-1850.514855,9474.636058
1117.816103,3447.429741,-666.185348,9030.512492
1117.816419,3447.429741,-148.041188,8512.368333
1117.816735,3447.429741,-222.061783,8882.471304
1117.817050,3140.991542,-1258.350101,9178.553681
1117.817366,3294.210641,-2442.679609,9622.677246
1117.817682,3064.381992,-3404.947333,9992.780217
1117.817998,2604.724693,-3923.091493,10214.842000
1117.818314,2374.896044,-3849.070898,10658.965565
1117.818629,2681.334243,-3627.009116,10584.944971
1117.818945,2757.943793,-2812.782580,10436.903782
1117.819261,2604.724693,-1998.556043,9918.759623
1117.819577,2757.943793,-1332.370696,9474.636058
1117.819893,2528.115143,-1480.411884,8734.430116
1117.820209,3294.210641,-1184.329507,8586.388927
1117.820524,3140.991542,-962.267725,8290.306550
1117.820840,2987.772442,-1998.556043,8882.471304
1117.821156,2911.162892,-3552.988522,9622.677246
1117.821472,2604.724693,-4219.173869,9918.759623
1117.821788,1915.238745,-4959.379811,10214.842000
1117.822103,2068.457845,-4737.318029,10584.944971
1117.822419,2298.286494,-4071.132681,10955.047942
1117.822735,2528.115143,-3404.947333,10066.800811
1117.823051,2834.553343,-2368.659014,9844.739029
1117.823367,2834.553343,-1850.514855,9104.533087
1117.823682,3447.429741,-1110.308913,8512.368333
1117.823998,3600.648841,-814.226536,7328.038826
1117.824314,3524.039291,-1036.288319,7402.059420
1117.824630,2604.724693,-1110.308913,7624.121203
1117.824946,2221.676944,-1702.473667,8142.265362
1117.825262,1532.190996,-2294.638420,8956.491898
1117.825577,459.657299,-2738.761985,9400.615463
1117.825893,76.609550,-2738.761985,10066.800811
1117.826209,0.000000,-3330.926739,10732.986159
1117.826525,0.000000,-3849.070898,11103.089130
1117.826841,459.657299,-3701.029710,11103.089130
1117.827156,689.485948,-3627.009116,10436.903782
1117.827472,1762.019645,-3627.009116,10066.800811
1117.827788,2604.724693,-2886.803174,9474.636058
1117.828104,3830.477490,-1850.514855,8808.450710
1117.828420,4519.963438,-740.205942,8142.265362
1117.828735,4903.011187,222.061783,7550.100608
1117.829051,4596.572988,740.205942,7624.121203
1117.829367,4366.744339,888.247130,7772.162391
1117.829683,4366.744339,-74.020594,8068.244768
1117.829999,3753.867940,-1184.329507,8438.347739
1117.830315,3140.991542,-2146.597232,9252.574275
1117.830630,2145.067394,-3108.864956,10436.903782
1117.830946,1149.143247,-4071.132681,11399.171507
1117.831262,689.485948,-4145.153275,11621.233289
1117.831578,383.047749,-3701.029710,11547.212695
1117.831894,76.609550,-3182.885551,11251.130318
1117.832209,306.438199,-2738.761985,10584.944971
1117.832525,995.924147,-2220.617826,10140.821405
1117.832841,1838.629195,-1554.432478,9548.656652
1117.833157,2604.724693,-1110.308913,8882.471304
1117.833473,3217.601092,-962.267725,8512.368333
1117.833789,3677.258390,-1036.288319,8512.368333
1117.834104,3677.258390,-1554.432478,8734.430116
1117.834420,3600.648841,-1924.535449,8882.471304
1117.834736,3140.991542,-2960.823768,9622.677246
1117.835052,2681.334243,-2590.720797,9844.739029
1117.835368,2451.505594,-2516.700203,10214.842000
1117.835683,2145.067394,-1998.556043,10214.842000
1117.835999,2068.457845,-1702.473667,9844.739029
1117.836315,1685.410096,-1480.411884,9918.759623
1117.836631,1838.629195,-1332.370696,9770.718434
1117.836947,2221.676944,-1628.453072,9844.739029
1117.837262,2528.115143,-2220.617826,9696.697840
1117.837578,2757.943793,-1850.514855,9622.677246
1117.837894,2681.334243,-2072.576638,9326.594869
1117.838210,2911.162892,-1776.494261,9326.594869
1117.838526,2987.772442,-1628.453072,9474.636058
1117.838842,2374.896044,-1554.432478,9474.636058
1117.839157,2374.896044,-2072.576638,9474.636058
1117.839473,1915.238745,-1776.494261,9622.677246
1117.839789,2221.676944,-1554.432478,9474.636058
1117.840105,2298.286494,-1332.370696,9400.615463
1117.840421,2145.067394,-1184.329507,9178.553681
1117.840736,2298.286494,-1258.350101,8882.471304
1117.841052,1991.848295,-1110.308913,8586.388927
1117.841368,1685.410096,-1184.329507,8586.388927
1117.841684,1302.362347,-1480.411884,8512.368333
1117.842000,1072.533697,-1258.350101,9178.553681
1117.842315,1455.581446,-1850.514855,9548.656652
1117.842631,995.924147,-2220.617826,9696.697840
1117.842947,1225.752797,-2812.782580,9992.780217
1117.843263,1302.362347,-3034.844362,10214.842000
1117.843579,1685.410096,-3182.885551,10066.800811
1117.843895,2068.457845,-2886.803174,9844.739029
1117.844210,2298.286494,-2516.700203,9696.697840
1117.844526,2604.724693,-1998.556043,9622.677246
1117.844842,2604.724693,-1628.453072,9326.594869
1117.845158,2987.772442,-962.267725,9104.533087
1117.845474,2681.334243,-1258.350101,8734.430116
1117.845789,2911.162892,-1406.391290,9030.512492
1117.846105,3447.429741,-1554.432478,8956.491898
1117.846421,3370.820191,-2146.597232,9030.512492
1117.846737,3447.429741,-2516.700203,9326.594869
1117.847053,3447.429741,-3182.885551,9844.739029
1117.847368,3600.648841,-3552.988522,10214.842000
1117.847684,3447.429741,-3552.988522,10288.862594
1117.848000,3140.991542,-3330.926739,10584.944971
1117.848316,2757.943793,-3034.844362,10732.986159
1117.848632,2681.334243,-3034.844362,10436.903782
1117.848948,2451.505594,-2516.700203,10066.800811
1117.849263,2604.724693,-2442.679609,9844.739029
1117.849579,2757.943793,-2368.659014,9622.677246
1117.849895,3217.601092,-2442.679609,9178.553681
1117.850211,3370.820191,-2664.741391,9178.553681
1117.850527,3600.648841,-3034.844362,9104.533087
1117.850842,3447.429741,-3034.844362,9474.636058
1117.851158,3294.210641,-3182.885551,9622.677246
1117.851474,3217.601092,-3182.885551,9548.656652
1117.851790,3064.381992,-3034.844362,9844.739029
1117.852106,2604.724693,-3701.029710,9992.780217
1117.852422,2681.334243,-3627.009116,9918.759623
1117.852737,2451.505594,-3775.050304,9770.718434
1117.853053,2528.115143,-3330.926739,9474.636058
1117.853369,2911.162892,-2738.761985,9474.636058
1117.853685,3217.601092,-2590.720797,9252.574275
1117.854000,2911.162892,-2368.659014,8734.430116
1117.854316,2757.943793,-2812.782580,8882.471304
1117.854632,2757.943793,-3034.844362,9326.594869
1117.854948,3217.601092,-3478.967927,9474.636058
1117.855263,3217.601092,-3701.029710,9474.636058
1117.855579,2987.772442,-3775.050304,9474.636058
1117.855895,3370.820191,-3997.112087,9400.615463
1117.856211,3217.601092,-3849.070898,9252.574275
1117.856526,3524.039291,-2960.823768,9030.512492
1117.856842,3370.820191,-2072.576638,8660.409521
1117.857158,3140.991542,-1258.350101,8068.244768
1117.857474,2911.162892,-888.247130,8068.244768
1117.857789,2604.724693,-370.102971,8068.244768
1117.858105,1915.238745,-518.144159,7846.182985
1117.858421,689.485948,-740.205942,8216.285956
1117.858737,459.657299,-1924.535449,8956.491898
1117.859052,153.219100,-3182.885551,9548.656652
1117.859368,0.000000,-3775.050304,10214.842000
1117.859684,0.000000,-4219.173869,10955.047942
1117.859999,306.438199,-4515.256246,10881.027347
1117.860315,842.705048,-4515.256246,10955.047942
1117.860631,1455.581446,-3552.988522,10881.027347
1117.860947,2834.553343,-2368.659014,9844.739029
1117.861262,3447.429741,-814.226536,8734.430116
1117.861578,3753.867940,148.041188,7920.203579
1117.861894,4519.963438,888.247130,7105.977043
1117.862210,4519.963438,1332.370696,6957.935855
1117.862525,4213.525239,1480.411884,7031.956449
1117.862841,3294.210641,1110.308913,7624.121203
1117.863157,2374.896044,-0.000000,8438.347739
1117.863473,1455.581446,-1110.308913,9400.615463
1117.863788,0.000000,-2072.576638,10658.965565
1117.864104,-383.047749,-3256.906145,11917.315666
1117.864420,-689.485948,-4441.235652,12731.542202
1117.864736,-459.657299,-4515.256246,13175.665768
1117.865051,0.000000,-4071.132681,12509.480420
1117.865367,842.705048,-3478.967927,12065.356855
1117.865683,2068.457845,-2738.761985,11251.130318
1117.865999,3140.991542,-1258.350101,10436.903782
1117.866314,4519.963438,-370.102971,9030.512492
1117.866630,5515.887586,888.247130,8142.265362
1117.866946,6665.030833,2072.576638,7476.080014
1117.867262,6435.202183,2368.659014,7105.977043
1117.867577,6281.983084,2146.597232,7105.977043
1117.867893,5286.058936,592.164754,8068.244768
1117.868209,4366.744339,-1036.288319,9400.615463
1117.868525,3524.039291,-2738.761985,10510.924376
1117.868840,2374.896044,-3997.112087,11325.150913
1117.869156,1302.362347,-4441.235652,11917.315666
1117.869472,612.876398,-4441.235652,11843.295072
1117.869788,229.828649,-3478.967927,11843.295072
1117.870103,383.047749,-2812.782580,11325.150913
1117.870419,1072.533697,-2368.659014,10881.027347
1117.870735,1685.410096,-1628.453072,9622.677246
1117.871051,2451.505594,-2072.576638,9178.553681
1117.871366,3294.210641,-2368.659014,9178.553681
1117.871682,4136.915689,-2442.679609,8882.471304
1117.871998,4826.401637,-2664.741391,8808.450710
1117.872314,4903.011187,-2886.803174,8734.430116
1117.872629,4903.011187,-3330.926739,8808.450710
1117.872945,4749.792088,-3627.009116,8956.491898
1117.873261,4673.182538,-2664.741391,8734.430116
1117.873577,4596.572988,-1628.453072,8660.409521
1117.873892,4060.306139,-1036.288319,8438.347739
1117.874208,3064.381992,-1258.350101,8438.347739
1117.874524,2604.724693,-2072.576638,9178.553681
1117.874840,2145.067394,-3034.844362,9252.574275
1117.875155,1149.143247,-3404.947333,9030.512492
1117.875471,842.705048,-4219.173869,9474.636058
1117.875787,1149.143247,-5033.400406,9992.780217
1117.876103,1072.533697,-4441.235652,9622.677246
1117.876418,536.266849,-3552.988522,9474.636058
1117.876734,459.657299,-3552.988522,9622.677246
1117.877050,612.876398,-3627.009116,9770.718434
1117.877366,1225.752797,-3330.926739,9918.759623
1117.877681,1532.190996,-3404.947333,9326.594869
1117.877997,2145.067394,-3034.844362,8956.491898
1117.878313,2604.724693,-2960.823768,8808.450710
1117.878629,3370.820191,-2738.761985,8364.327145
1117.878944,3370.820191,-1998.556043,7920.203579
1117.879260,3140.991542,-1554.432478,7550.100608
1117.879576,2987.772442,-1702.473667,8364.327145
1117.879892,2987.772442,-1850.514855,8364.327145
1117.880207,2834.553343,-1924.535449,8438.347739
1117.880523,2604.724693,-1628.453072,9178.553681
1117.880839,2451.505594,-1628.453072,9104.533087
1117.881154,2068.457845,-1850.514855,9030.512492
1117.881470,1149.143247,-1480.411884,9104.533087
1117.881786,1149.143247,-1850.514855,10214.842000
1117.882102,459.657299,-2442.679609,10658.965565
1117.882417,0.000000,-1702.473667,10362.883188
1117.882733,-306.438199,-2442.679609,10140.821405
1117.883049,383.047749,-2738.761985,10732.986159
1117.883365,1302.362347,-2590.720797,10732.986159
1117.883680,1532.190996,-1702.473667,9844.739029
1117.883996,2681.334243,-814.226536,9474.636058
1117.884312,3294.210641,-888.247130,9030.512492
1117.884628,4213.525239,148.041188,8956.491898
1117.884943,5592.497135,-148.041188,8512.368333
1117.885259,5515.887586,-370.102971,8586.388927
1117.885575,4903.011187,296.082377,8882.471304
1117.885891,4213.525239,296.082377,8882.471304
1117.886206,4060.306139,370.102971,9178.553681
1117.886522,3294.210641,666.185348,10066.800811
1117.886838,1915.238745,1110.308913,9622.677246
