#time,accel_x,accel_y,accel_z
1061.372413,229.828649,-296.082377,9474.636058
1061.372729,383.047749,-148.041188,9622.677246
1061.373045,306.438199,-148.041188,9548.656652
1061.373361,306.438199,-74.020594,9400.615463
1061.373677,383.047749,-74.020594,9474.636058
1061.373993,536.266849,-0.000000,9474.636058
1061.374309,459.657299,-0.000000,9474.636058
1061.374625,459.657299,-74.020594,9326.594869
1061.374941,306.438199,-0.000000,9696.697840
1061.375257,459.657299,-0.000000,9474.636058
1061.375573,612.876398,-296.082377,9548.656652
1061.375889,383.047749,-0.000000,9400.615463
1061.376206,306.438199,-74.020594,9696.697840
1061.376522,383.047749,-222.061783,9474.636058
1061.376838,0.000000,-0.000000,9548.656652
1061.377154,459.657299,-0.000000,9400.615463
1061.377470,612.876398,296.082377,9400.615463
1061.377786,536.266849,518.144159,9178.553681
1061.378102,689.485948,518.144159,9252.574275
1061.378418,766.095498,444.123565,9474.636058
1061.378734,383.047749,-0.000000,9548.656652
1061.379050,612.876398,444.123565,9252.574275
1061.379366,536.266849,296.082377,9548.656652
1061.379682,766.095498,-148.041188,9622.677246
1061.379998,383.047749,296.082377,9474.636058
1061.380314,306.438199,148.041188,9400.615463
1061.380630,229.828649,370.102971,9474.636058
1061.380947,689.485948,370.102971,9548.656652
1061.381263,306.438199,1036.288319,9252.574275
1061.381579,459.657299,1036.288319,9252.574275
1061.381895,536.266849,740.205942,9178.553681
1061.382211,383.047749,814.226536,9400.615463
1061.382527,383.047749,1110.308913,9326.594869
1061.382843,153.219100,592.164754,9252.574275
1061.383159,-153.219100,666.185348,9622.677246
1061.383475,-383.047749,740.205942,9548.656652
1061.383791,0.000000,1184.329507,9326.594869
1061.384107,153.219100,1332.370696,9474.636058
1061.384423,-612.876398,1332.370696,9178.553681
1061.384739,-766.095498,1110.308913,8882.471304
1061.385055,-842.705048,1554.432478,9178.553681
1061.385371,-995.924147,1480.411884,9474.636058
1061.385688,-1302.362347,1628.453072,9474.636058
1061.386004,-1455.581446,1406.391290,9992.780217
1061.386320,-2145.067394,1406.391290,9696.697840
1061.386636,-2221.676944,1406.391290,9770.718434
1061.386952,-2374.896044,1258.350101,9696.697840
1061.387268,-2451.505594,1406.391290,9770.718434
1061.387584,-2068.457845,1776.494261,9844.739029
1061.387900,-1991.848295,1998.556043,9474.636058
1061.388216,-2145.067394,1850.514855,9400.615463
1061.388532,-1685.410096,1850.514855,9474.636058
1061.388848,-2068.457845,1850.514855,9326.594869
1061.389164,-1762.019645,1702.473667,9474.636058
1061.389480,-1838.629195,1628.453072,9770.718434
1061.389796,-1532.190996,1480.411884,9844.739029
1061.390112,-1532.190996,1850.514855,9622.677246
1061.390429,-1302.362347,1924.535449,9474.636058
1061.390745,-1608.800546,1776.494261,9474.636058
1061.391061,-1302.362347,2220.617826,9178.553681
1061.391377,-1378.971896,2368.659014,9326.594869
1061.391693,-1378.971896,2368.659014,9252.574275
1061.392009,-1838.629195,2072.576638,9252.574275
1061.392325,-1762.019645,1776.494261,9252.574275
1061.392641,-1991.848295,1480.411884,9548.656652
1061.392957,-2221.676944,1184.329507,9696.697840
1061.393273,-1915.238745,1258.350101,9918.759623
1061.393589,-2221.676944,962.267725,9844.739029
1061.393905,-1991.848295,1258.350101,9992.780217
1061.394221,-2604.724693,1184.329507,9770.718434
1061.394537,-2221.676944,1332.370696,9696.697840
1061.394854,-2068.457845,1480.411884,9770.718434
1061.395170,-1915.238745,1406.391290,9844.739029
1061.395486,-1762.019645,1480.411884,9474.636058
1061.395802,-1532.190996,1406.391290,9326.594869
1061.396118,-1838.629195,1776.494261,9030.512492
1061.396434,-1532.190996,1850.514855,9178.553681
1061.396750,-1378.971896,2146.597232,8734.430116
1061.397066,-1991.848295,2294.638420,8956.491898
1061.397382,-2374.896044,2368.659014,8808.450710
1061.397698,-2145.067394,2294.638420,9178.553681
1061.398014,-2604.724693,1480.411884,9326.594869
1061.398330,-2604.724693,1184.329507,9770.718434
1061.398646,-2451.505594,518.144159,10140.821405
1061.398962,-2221.676944,148.041188,10140.821405
1061.399278,-1991.848295,296.082377,10288.862594
1061.399595,-2145.067394,518.144159,10214.842000
1061.399911,-919.314598,1036.288319,10510.924376
1061.400227,-612.876398,1332.370696,9474.636058
1061.400543,-229.828649,1702.473667,9178.553681
1061.400859,153.219100,2664.741391,8586.388927
1061.401175,766.095498,3330.926739,8512.368333
1061.401491,766.095498,3256.906145,7994.224174
1061.401807,689.485948,3256.906145,7920.203579
1061.402123,0.000000,3182.885551,8216.285956
1061.402439,-689.485948,2886.803174,8290.306550
1061.402755,-1455.581446,2294.638420,8734.430116
1061.403071,-2374.896044,1998.556043,9474.636058
1061.403387,-3140.991542,1406.391290,9992.780217
1061.403703,-3600.648841,1184.329507,10436.903782
1061.404019,-4060.306139,518.144159,10732.986159
1061.404336,-3907.087040,148.041188,11029.068536
1061.404652,-3447.429741,-74.020594,11473.192101
1061.404968,-2834.553343,-0.000000,10955.047942
1061.405284,-2145.067394,370.102971,10436.903782
1061.405600,-1149.143247,962.267725,9844.739029
1061.405916,0.000000,1184.329507,9104.533087
1061.406232,383.047749,2738.761985,8438.347739
1061.406548,766.095498,3404.947333,8068.244768
1061.406864,1072.533697,3775.050304,7698.141797
1061.407180,1072.533697,4885.359217,7624.121203
1061.407496,689.485948,4515.256246,7402.059420
1061.407812,-229.828649,4293.194464,7328.038826
1061.408128,-1532.190996,3330.926739,8438.347739
1061.408444,-2451.505594,2220.617826,9326.594869
1061.408760,-3370.820191,1332.370696,10362.883188
1061.409077,-4519.963438,-296.082377,11769.274478
1061.409393,-4903.011187,-962.267725,12287.418637
1061.409709,-4903.011187,-1406.391290,12509.480420
1061.410025,-4519.963438,-1406.391290,12287.418637
1061.410341,-3753.867940,-1406.391290,12065.356855
1061.410657,-2757.943793,-148.041188,11399.171507
1061.410973,-1378.971896,1406.391290,10066.800811
1061.411289,-153.219100,3256.906145,8290.306550
1061.411605,1302.362347,4589.276840,7105.977043
1061.411921,1532.190996,5699.585753,5995.668130
1061.412237,1608.800546,5847.626942,5995.668130
1061.412553,919.314598,5033.400406,6513.812290
1061.412869,536.266849,3627.009116,7772.162391
1061.413185,-919.314598,1998.556043,8956.491898
1061.413502,-2451.505594,-0.000000,10066.800811
1061.413818,-3753.867940,-962.267725,11621.233289
1061.414134,-4519.963438,-2072.576638,12583.501014
1061.414450,-5056.230287,-1776.494261,12435.459826
1061.414766,-4979.620737,-1184.329507,12287.418637
1061.415082,-4213.525239,-740.205942,11769.274478
1061.415398,-3447.429741,148.041188,10214.842000
1061.415714,-2374.896044,1258.350101,9548.656652
1061.416030,-842.705048,2220.617826,8586.388927
1061.416346,306.438199,2590.720797,8216.285956
1061.416662,1225.752797,3182.885551,7179.997637
1061.416978,1149.143247,2886.803174,7476.080014
1061.417294,995.924147,1850.514855,7994.224174
1061.417610,919.314598,962.267725,8586.388927
1061.417926,689.485948,592.164754,9104.533087
1061.418243,306.438199,-0.000000,9326.594869
1061.418559,-536.266849,444.123565,9770.718434
1061.418875,-1225.752797,-0.000000,9918.759623
1061.419191,-1072.533697,-148.041188,10214.842000
1061.419507,-1455.581446,-74.020594,9992.780217
1061.419823,-1532.190996,-0.000000,9474.636058
1061.420139,-1762.019645,-444.123565,9992.780217
1061.420455,-1532.190996,-1480.411884,9844.739029
1061.420771,-383.047749,-1184.329507,9622.677246
1061.421087,306.438199,-1332.370696,9696.697840
1061.421403,536.266849,-296.082377,9178.553681
1061.421719,536.266849,740.205942,8512.368333
1061.422035,1838.629195,962.267725,8734.430116
1061.422351,1685.410096,1406.391290,8512.368333
1061.422667,1532.190996,1850.514855,8512.368333
1061.422984,1072.533697,1480.411884,8512.368333
1061.423300,919.314598,296.082377,9104.533087
1061.423616,612.876398,-740.205942,9918.759623
1061.423932,919.314598,-1332.370696,10140.821405
1061.424248,306.438199,-1110.308913,9622.677246
1061.424564,0.000000,-1110.308913,9474.636058
1061.424880,-229.828649,-518.144159,9400.615463
1061.425196,383.047749,-444.123565,9548.656652
1061.425512,153.219100,222.061783,9326.594869
1061.425828,0.000000,1184.329507,9400.615463
1061.426144,-383.047749,666.185348,9696.697840
1061.426460,229.828649,-0.000000,9622.677246
1061.426776,383.047749,-0.000000,9474.636058
1061.427092,689.485948,296.082377,9252.574275
1061.427408,612.876398,-74.020594,9400.615463
1061.427725,306.438199,-444.123565,9548.656652
1061.428041,459.657299,-518.144159,9474.636058
1061.428357,153.219100,-1036.288319,9770.718434
1061.428673,0.000000,-148.041188,10362.883188
1061.428989,229.828649,-222.061783,10658.965565
1061.429305,1455.581446,-592.164754,10362.883188
1061.429621,1838.629195,-370.102971,9548.656652
1061.429937,1302.362347,-74.020594,8734.430116
1061.430253,2528.115143,1258.350101,8290.306550
1061.430569,2757.943793,740.205942,7920.203579
1061.430885,2757.943793,1036.288319,8586.388927
1061.431201,1762.019645,962.267725,8956.491898
1061.431517,689.485948,592.164754,9178.553681
1061.431832,0.000000,222.061783,9844.739029
1061.432148,76.609550,-518.144159,10362.883188
1061.432464,0.000000,-370.102971,10362.883188
1061.432780,-383.047749,-296.082377,9918.759623
1061.433096,-689.485948,-592.164754,10140.821405
1061.433412,-229.828649,-888.247130,10658.965565
1061.433728,-689.485948,-814.226536,10066.800811
1061.434044,-919.314598,-666.185348,9918.759623
1061.434360,-842.705048,-222.061783,10288.862594
1061.434676,-229.828649,-296.082377,10066.800811
1061.434991,153.219100,444.123565,9252.574275
1061.435307,383.047749,1258.350101,8660.409521
1061.435623,459.657299,1776.494261,7920.203579
1061.435939,919.314598,1702.473667,8142.265362
1061.436255,842.705048,1628.453072,7698.141797
1061.436571,229.828649,1110.308913,8660.409521
1061.436887,-536.266849,-0.000000,9696.697840
1061.437203,-919.314598,-666.185348,10362.883188
1061.437519,-1149.143247,-1332.370696,11029.068536
1061.437835,-1455.581446,-1332.370696,11029.068536
1061.438151,-1608.800546,-888.247130,10362.883188
1061.438466,-1455.581446,-740.205942,10510.924376
1061.438782,-383.047749,-518.144159,9992.780217
1061.439098,383.047749,-296.082377,9548.656652
1061.439414,842.705048,444.123565,9326.594869
1061.439730,919.314598,444.123565,8660.409521
1061.440046,1378.971896,296.082377,8882.471304
1061.440362,2528.115143,-0.000000,9548.656652
1061.440678,2451.505594,1184.329507,8438.347739
1061.440994,2068.457845,1702.473667,7920.203579
1061.441310,1455.581446,814.226536,8290.306550
1061.441625,1532.190996,296.082377,8882.471304
1061.441941,1072.533697,-518.144159,9548.656652
1061.442257,459.657299,-740.205942,9918.759623
1061.442573,0.000000,-1554.432478,10510.924376
1061.442889,0.000000,-1850.514855,11325.150913
1061.443205,842.705048,-2590.720797,11325.150913
1061.443521,229.828649,-1480.411884,10140.821405
1061.443837,766.095498,-518.144159,9548.656652
1061.444153,1532.190996,-592.164754,9178.553681
1061.444469,1991.848295,-518.144159,9252.574275
1061.444784,1915.238745,296.082377,8512.368333
1061.445100,1685.410096,888.247130,8586.388927
1061.445416,1455.581446,592.164754,8438.347739
1061.445732,1532.190996,-0.000000,9326.594869
1061.446048,1455.581446,-0.000000,9326.594869
1061.446364,1149.143247,148.041188,8660.409521
1061.446680,536.266849,-148.041188,9178.553681
1061.446996,919.314598,-666.185348,9474.636058
1061.447312,536.266849,-1036.288319,9770.718434
1061.447628,0.000000,-962.267725,9696.697840
1061.447944,-229.828649,-1406.391290,10807.006753
1061.448259,-842.705048,-2146.597232,10881.027347
1061.448575,-536.266849,-1628.453072,10584.944971
1061.448891,-229.828649,-888.247130,10066.800811
1061.449207,0.000000,-444.123565,9474.636058
1061.449523,383.047749,-148.041188,8734.430116
1061.449839,995.924147,296.082377,8660.409521
1061.450155,995.924147,518.144159,8216.285956
1061.450471,536.266849,592.164754,8438.347739
1061.450787,459.657299,296.082377,8956.491898
1061.451103,-689.485948,-0.000000,9252.574275
1061.451418,-306.438199,-1036.288319,9992.780217
1061.451734,-229.828649,-740.205942,9696.697840
1061.452050,-536.266849,-444.123565,9326.594869
1061.452366,-153.219100,-666.185348,9622.677246
1061.452682,459.657299,-740.205942,9770.718434
1061.452998,306.438199,-740.205942,9474.636058
1061.453314,153.219100,-0.000000,9252.574275
1061.453630,229.828649,-444.123565,9548.656652
1061.453946,612.876398,-814.226536,9474.636058
1061.454262,1149.143247,-0.000000,9696.697840
1061.454577,536.266849,888.247130,8734.430116
1061.454893,689.485948,888.247130,8882.471304
1061.455209,995.924147,740.205942,8882.471304
1061.455525,766.095498,962.267725,8882.471304
1061.455841,383.047749,962.267725,8734.430116
1061.456157,0.000000,666.185348,9178.553681
1061.456473,0.000000,-74.020594,9844.739029
1061.456789,0.000000,-444.123565,10362.883188
1061.457105,-459.657299,-296.082377,10066.800811
1061.457421,-306.438199,-148.041188,10140.821405
1061.457737,-612.876398,-74.020594,10066.800811
1061.458052,-153.219100,-370.102971,10066.800811
1061.458368,229.828649,370.102971,9474.636058
1061.458684,0.000000,814.226536,9252.574275
1061.459000,153.219100,592.164754,9770.718434
1061.459316,536.266849,296.082377,9918.759623
1061.459632,842.705048,-0.000000,9252.574275
1061.459948,459.657299,1036.288319,9104.533087
1061.460264,766.095498,1036.288319,9326.594869
1061.460580,536.266849,444.123565,9326.594869
1061.460896,766.095498,592.164754,9252.574275
1061.461211,0.000000,592.164754,9474.636058
1061.461527,153.219100,296.082377,9696.697840
1061.461843,-995.924147,-222.061783,9992.780217
1061.462159,-306.438199,-518.144159,10362.883188
1061.462475,0.000000,-444.123565,9992.780217
1061.462791,-229.828649,-444.123565,9992.780217
1061.463107,0.000000,-444.123565,9622.677246
1061.463423,306.438199,-444.123565,9918.759623
1061.463739,1225.752797,-444.123565,9474.636058
1061.464055,229.828649,-0.000000,9252.574275
1061.464370,383.047749,370.102971,9326.594869
1061.464686,766.095498,-148.041188,9770.718434
1061.465002,1685.410096,-148.041188,9622.677246
1061.465318,842.705048,222.061783,9104.533087
1061.465634,1072.533697,222.061783,9178.553681
1061.465950,995.924147,222.061783,8956.491898
1061.466266,1378.971896,-0.000000,9178.553681
1061.466582,1149.143247,296.082377,8808.450710
1061.466898,459.657299,-0.000000,9326.594869
1061.467214,306.438199,-296.082377,9474.636058
1061.467530,383.047749,-962.267725,10510.924376
1061.467845,306.438199,-888.247130,10214.842000
1061.468161,306.438199,-296.082377,9400.615463
1061.468477,153.219100,-0.000000,9104.533087
1061.468793,383.047749,-370.102971,9400.615463
1061.469109,689.485948,-222.061783,9400.615463
1061.469425,459.657299,-222.061783,9622.677246
1061.469741,-153.219100,-518.144159,9696.697840
1061.470057,153.219100,-962.267725,9696.697840
1061.470373,536.266849,-1036.288319,9918.759623
1061.470689,536.266849,-740.205942,9548.656652
1061.471004,612.876398,-518.144159,9178.553681
1061.471320,919.314598,-740.205942,9326.594869
1061.471636,995.924147,-814.226536,9178.553681
1061.471952,1149.143247,-740.205942,8882.471304
1061.472268,766.095498,-444.123565,9178.553681
1061.472584,306.438199,-888.247130,8956.491898
1061.472900,612.876398,-1332.370696,10140.821405
1061.473216,383.047749,-1258.350101,9770.718434
1061.473532,0.000000,-1110.308913,9104.533087
1061.473848,0.000000,-740.205942,9104.533087
1061.474163,229.828649,-1332.370696,9326.594869
1061.474479,153.219100,-1110.308913,9252.574275
1061.474795,76.609550,-888.247130,9696.697840
1061.475111,-306.438199,-1184.329507,10066.800811
1061.475427,-229.828649,-1480.411884,9918.759623
1061.475743,76.609550,-1406.391290,9992.780217
1061.476059,689.485948,-1184.329507,9992.780217
1061.476375,383.047749,-962.267725,8956.491898
1061.476691,995.924147,-518.144159,9178.553681
1061.477007,1378.971896,-148.041188,8956.491898
1061.477323,1378.971896,-148.041188,8660.409521
1061.477638,1072.533697,444.123565,8512.368333
1061.477954,995.924147,592.164754,8512.368333
1061.478270,766.095498,-74.020594,9178.553681
1061.478586,766.095498,-370.102971,9474.636058
1061.478902,919.314598,-0.000000,9104.533087
1061.479218,76.609550,148.041188,8956.491898
1061.479534,459.657299,-0.000000,9030.512492
1061.479850,536.266849,148.041188,9474.636058
1061.480166,229.828649,-0.000000,9474.636058
1061.480482,-459.657299,-222.061783,9622.677246
1061.480797,-536.266849,-222.061783,10436.903782
1061.481113,0.000000,-222.061783,10436.903782
1061.481429,76.609550,-296.082377,10288.862594
1061.481745,229.828649,370.102971,9770.718434
1061.482061,689.485948,888.247130,9104.533087
1061.482377,1149.143247,1258.350101,8660.409521
1061.482693,1608.800546,814.226536,9252.574275
1061.483009,1302.362347,1258.350101,8956.491898
1061.483325,919.314598,1554.432478,9030.512492
1061.483641,612.876398,962.267725,9326.594869
1061.483956,612.876398,296.082377,10140.821405
1061.484272,536.266849,296.082377,9918.759623
1061.484588,153.219100,518.144159,9474.636058
1061.484904,-306.438199,148.041188,9622.677246
1061.485220,0.000000,-0.000000,10362.883188
1061.485536,76.609550,-148.041188,10214.842000
1061.485852,-383.047749,-222.061783,10066.800811
1061.486168,0.000000,-518.144159,10584.944971
1061.486484,0.000000,-666.185348,10584.944971
1061.486800,306.438199,-0.000000,9918.759623
1061.487116,459.657299,-148.041188,9622.677246
1061.487431,689.485948,444.123565,9326.594869
1061.487747,842.705048,740.205942,9104.533087
1061.488063,1149.143247,222.061783,9326.594869
1061.488379,1302.362347,888.247130,9104.533087
1061.488695,306.438199,814.226536,9030.512492
1061.489011,459.657299,296.082377,9770.718434
1061.489327,612.876398,-814.226536,10066.800811
1061.489643,229.828649,-444.123565,9770.718434
1061.489959,0.000000,296.082377,9252.574275
1061.490275,76.609550,-0.000000,9252.574275
1061.490590,153.219100,-518.144159,9696.697840
1061.490906,153.219100,222.061783,9622.677246
1061.491222,229.828649,-74.020594,9400.615463
1061.491538,0.000000,-666.185348,9918.759623
1061.491854,-612.876398,-148.041188,10066.800811
1061.492170,536.266849,-962.267725,10140.821405
1061.492486,1072.533697,-1110.308913,9400.615463
1061.492802,612.876398,370.102971,8882.471304
1061.493118,689.485948,-444.123565,8734.430116
1061.493434,1685.410096,-0.000000,8660.409521
1061.493749,1302.362347,-74.020594,8882.471304
1061.494065,383.047749,222.061783,8734.430116
1061.494381,842.705048,-0.000000,9252.574275
1061.494697,459.657299,-888.247130,9474.636058
1061.495013,536.266849,-1184.329507,9918.759623
1061.495329,612.876398,-1258.350101,9326.594869
1061.495645,76.609550,-1184.329507,9400.615463
1061.495961,612.876398,-962.267725,9548.656652
1061.496277,766.095498,-1036.288319,9548.656652
1061.496593,383.047749,-1036.288319,9326.594869
1061.496909,-229.828649,-1110.308913,9696.697840
1061.497224,0.000000,-1480.411884,9844.739029
1061.497540,306.438199,-1332.370696,10140.821405
1061.497856,459.657299,-1184.329507,9326.594869
1061.498172,306.438199,-888.247130,8660.409521
1061.498488,919.314598,-444.123565,9252.574275
1061.498804,1532.190996,-1036.288319,8882.471304
1061.499120,1225.752797,-666.185348,8660.409521
1061.499436,919.314598,-74.020594,8808.450710
1061.499752,842.705048,-518.144159,8956.491898
1061.500068,459.657299,-962.267725,9918.759623
1061.500383,689.485948,-1110.308913,9770.718434
1061.500699,306.438199,-962.267725,9178.553681
1061.501015,76.609550,-740.205942,9104.533087
1061.501331,306.438199,-1110.308913,9178.553681
1061.501647,536.266849,-444.123565,9474.636058
1061.501963,612.876398,-518.144159,10066.800811
1061.502279,0.000000,-74.020594,9622.677246
1061.502595,0.000000,-74.020594,9548.656652
1061.502911,536.266849,-666.185348,9770.718434
1061.503227,842.705048,-74.020594,9622.677246
1061.503542,766.095498,370.102971,9326.594869
1061.503858,919.314598,296.082377,9104.533087
1061.504174,1225.752797,666.185348,9252.574275
1061.504490,1302.362347,666.185348,9178.553681
1061.504806,995.924147,1036.288319,8438.347739
1061.505122,383.047749,1480.411884,8882.471304
1061.505438,153.219100,592.164754,9770.718434
1061.505754,306.438199,-0.000000,10140.821405
1061.506070,76.609550,-74.020594,9844.739029
1061.506386,0.000000,-222.061783,9474.636058
1061.506702,0.000000,-74.020594,9992.780217
1061.507017,306.438199,-74.020594,9770.718434
1061.507333,229.828649,444.123565,9770.718434
1061.507649,-76.609550,814.226536,9992.780217
1061.507965,0.000000,666.185348,9918.759623
1061.508281,306.438199,370.102971,10584.944971
1061.508597,306.438199,444.123565,9992.780217
1061.508913,459.657299,592.164754,9622.677246
1061.509229,306.438199,814.226536,9400.615463
1061.509545,1149.143247,814.226536,9548.656652
1061.509861,1225.752797,1036.288319,9474.636058
1061.510176,766.095498,1406.391290,8808.450710
1061.510492,229.828649,1110.308913,9400.615463
1061.510808,306.438199,592.164754,10362.883188
1061.511124,0.000000,-296.082377,10436.903782
1061.511440,0.000000,-0.000000,9770.718434
1061.511756,-536.266849,370.102971,9696.697840
1061.512072,-459.657299,-0.000000,10140.821405
1061.512388,-459.657299,-296.082377,10510.924376
1061.512704,0.000000,-0.000000,9474.636058
1061.513020,-536.266849,592.164754,9326.594869
1061.513335,-689.485948,148.041188,9918.759623
1061.513651,76.609550,-444.123565,10066.800811
1061.513967,306.438199,-592.164754,10140.821405
1061.514283,459.657299,-296.082377,9474.636058
1061.514599,536.266849,148.041188,9104.533087
1061.514915,842.705048,-0.000000,8512.368333
1061.515231,919.314598,-74.020594,9030.512492
1061.515547,1532.190996,-0.000000,9548.656652
1061.515863,459.657299,444.123565,8808.450710
1061.516179,153.219100,296.082377,9030.512492
1061.516495,229.828649,-444.123565,9622.677246
1061.516810,383.047749,-592.164754,9622.677246
1061.517126,153.219100,-296.082377,9474.636058
1061.517442,-229.828649,-296.082377,9474.636058
1061.517758,0.000000,-370.102971,9474.636058
1061.518074,0.000000,-518.144159,9326.594869
1061.518390,-536.266849,-370.102971,9400.615463
1061.518706,-612.876398,-888.247130,9622.677246
1061.519022,-383.047749,-1184.329507,9918.759623
1061.519338,0.000000,-1110.308913,9400.615463
1061.519654,0.000000,-1184.329507,9178.553681
1061.519969,536.266849,-1036.288319,9474.636058
1061.520285,766.095498,-740.205942,9104.533087
1061.520601,612.876398,-148.041188,8808.450710
1061.520917,919.314598,-0.000000,8882.471304
1061.521233,766.095498,-0.000000,8364.327145
1061.521549,1149.143247,-0.000000,8882.471304
1061.521865,1072.533697,-962.267725,9400.615463
1061.522181,1149.143247,-1480.411884,9030.512492
1061.522497,766.095498,-888.247130,9030.512492
1061.522813,612.876398,-1110.308913,8734.430116
1061.523128,459.657299,-1110.308913,9474.636058
1061.523444,689.485948,-1480.411884,10140.821405
1061.523760,76.609550,-1258.350101,9400.615463
1061.524076,0.000000,-814.226536,9770.718434
1061.524392,-153.219100,-1776.494261,10214.842000
1061.524708,536.266849,-1702.473667,10214.842000
1061.525024,536.266849,-1184.329507,9844.739029
1061.525340,766.095498,-1036.288319,9326.594869
1061.525656,1072.533697,-296.082377,9474.636058
1061.525972,1225.752797,-444.123565,9178.553681
1061.526288,2068.457845,-592.164754,9104.533087
1061.526603,1225.752797,-0.000000,9178.553681
1061.526919,1378.971896,-0.000000,9252.574275
1061.527235,1072.533697,-0.000000,9770.718434
1061.527551,1302.362347,-370.102971,9918.759623
1061.527867,1302.362347,-222.061783,9400.615463
1061.528183,995.924147,148.041188,9400.615463
1061.528499,1072.533697,-148.041188,9474.636058
1061.528815,766.095498,-148.041188,9770.718434
1061.529131,842.705048,-0.000000,10140.821405
1061.529447,689.485948,-0.000000,9992.780217
1061.529762,0.000000,-148.041188,9918.759623
1061.530078,229.828649,-666.185348,10584.944971
1061.530394,459.657299,-222.061783,10140.821405
1061.530710,0.000000,-74.020594,9474.636058
1061.531026,459.657299,-0.000000,9252.574275
1061.531342,995.924147,296.082377,9400.615463
1061.531657,1225.752797,370.102971,9252.574275
1061.531973,1149.143247,666.185348,9178.553681
1061.532289,766.095498,740.205942,8956.491898
1061.532604,536.266849,370.102971,9474.636058
1061.532920,689.485948,-0.000000,9474.636058
1061.533236,612.876398,-296.082377,9178.553681
1061.533551,459.657299,-0.000000,9178.553681
1061.533867,536.266849,-0.000000,9030.512492
1061.534183,306.438199,296.082377,9400.615463
1061.534498,76.609550,222.061783,9252.574275
1061.534814,-459.657299,518.144159,9474.636058
1061.535129,-536.266849,222.061783,9622.677246
1061.535445,-612.876398,-444.123565,9992.780217
1061.535761,-459.657299,-518.144159,9918.759623
1061.536076,0.000000,-74.020594,9548.656652
1061.536392,0.000000,444.123565,9474.636058
1061.536708,0.000000,592.164754,9030.512492
1061.537023,383.047749,222.061783,9030.512492
1061.537339,229.828649,592.164754,9178.553681
1061.537655,76.609550,962.267725,9252.574275
1061.537970,0.000000,740.205942,9178.553681
1061.538286,459.657299,-222.061783,9474.636058
1061.538601,-153.219100,-444.123565,9696.697840
1061.538917,153.219100,296.082377,9178.553681
1061.539233,306.438199,370.102971,9104.533087
1061.539548,459.657299,-0.000000,9474.636058
1061.539864,229.828649,296.082377,9696.697840
1061.540180,0.000000,444.123565,9548.656652
1061.540495,-612.876398,296.082377,9696.697840
1061.540811,-383.047749,-296.082377,10214.842000
1061.541127,229.828649,-666.185348,10066.800811
1061.541442,459.657299,-444.123565,10066.800811
1061.541758,306.438199,-0.000000,9548.656652
1061.542074,842.705048,222.061783,9104.533087
1061.542389,995.924147,296.082377,9104.533087
1061.542705,612.876398,148.041188,9696.697840
1061.543020,612.876398,444.123565,9474.636058
1061.543336,153.219100,370.102971,9548.656652
1061.543652,229.828649,-222.061783,10140.821405
1061.543967,536.266849,-370.102971,9770.718434
1061.544283,689.485948,-296.082377,9252.574275
1061.544599,459.657299,-518.144159,9548.656652
1061.544914,689.485948,-592.164754,9696.697840
1061.545230,689.485948,-444.123565,9622.677246
1061.545546,689.485948,-370.102971,9548.656652
1061.545861,229.828649,-592.164754,10140.821405
1061.546177,153.219100,-740.205942,10066.800811
1061.546493,76.609550,-1110.308913,10288.862594
1061.546808,383.047749,-814.226536,9770.718434
1061.547124,459.657299,-370.102971,9326.594869
1061.547439,536.266849,-518.144159,9474.636058
1061.547755,919.314598,-518.144159,9326.594869
1061.548071,919.314598,-444.123565,9326.594869
1061.548386,766.095498,-444.123565,9474.636058
1061.548702,536.266849,-370.102971,9474.636058
1061.549018,383.047749,-1110.308913,9770.718434
1061.549333,612.876398,-1554.432478,9918.759623
1061.549649,689.485948,-1332.370696,9992.780217
1061.549965,459.657299,-814.226536,9474.636058
1061.550280,995.924147,-518.144159,9252.574275
1061.550596,1455.581446,-740.205942,9474.636058
1061.550912,1302.362347,-74.020594,9030.512492
1061.551227,995.924147,-74.020594,9104.533087
1061.551543,995.924147,-444.123565,9400.615463
1061.551858,919.314598,-1332.370696,10140.821405
1061.552174,1302.362347,-1628.453072,10214.842000
1061.552490,689.485948,-444.123565,9400.615463
1061.552805,612.876398,-370.102971,9178.553681
1061.553121,1302.362347,-666.185348,9326.594869
1061.553437,995.924147,-148.041188,8882.471304
1061.553752,306.438199,-74.020594,8808.450710
1061.554068,76.609550,-444.123565,9400.615463
1061.554384,306.438199,-814.226536,9844.739029
1061.554699,459.657299,-666.185348,9548.656652
1061.555015,536.266849,-444.123565,9178.553681
1061.555331,842.705048,-370.102971,9400.615463
1061.555646,689.485948,-518.144159,9326.594869
1061.555962,842.705048,-592.164754,9252.574275
1061.556277,766.095498,-370.102971,8734.430116
1061.556593,383.047749,-74.020594,9326.594869
1061.556909,459.657299,-0.000000,9252.574275
1061.557224,306.438199,-74.020594,9400.615463
1061.557540,842.705048,-74.020594,9548.656652
1061.557856,383.047749,148.041188,9030.512492
1061.558171,383.047749,666.185348,8734.430116
1061.558487,536.266849,-0.000000,9326.594869
1061.558803,766.095498,-0.000000,9252.574275
1061.559118,0.000000,592.164754,8956.491898
1061.559434,-459.657299,592.164754,9252.574275
1061.559749,-612.876398,-0.000000,9474.636058
1061.560065,-612.876398,-592.164754,10214.842000
1061.560381,-383.047749,-0.000000,9918.759623
1061.560696,-766.095498,222.061783,9474.636058
1061.561012,-536.266849,222.061783,9474.636058
1061.561328,0.000000,-0.000000,9474.636058
1061.561643,0.000000,-74.020594,9622.677246
1061.561959,153.219100,370.102971,9844.739029
1061.562275,-306.438199,518.144159,9622.677246
1061.562590,-383.047749,222.061783,9844.739029
1061.562906,306.438199,-0.000000,10140.821405
1061.563222,383.047749,-0.000000,9400.615463
1061.563537,229.828649,962.267725,9104.533087
1061.563853,536.266849,962.267725,9178.553681
1061.564168,995.924147,740.205942,9474.636058
1061.564484,459.657299,888.247130,9548.656652
1061.564800,76.609550,370.102971,9474.636058
1061.565115,0.000000,370.102971,9844.739029
1061.565431,153.219100,-222.061783,10510.924376
1061.565747,0.000000,-222.061783,10288.862594
1061.566062,0.000000,-0.000000,10066.800811
1061.566378,0.000000,-74.020594,10362.883188
1061.566694,306.438199,-148.041188,9992.780217
1061.567009,536.266849,-74.020594,10140.821405
1061.567325,459.657299,222.061783,9918.759623
1061.567641,612.876398,370.102971,9770.718434
1061.567956,612.876398,370.102971,9548.656652
1061.568272,1225.752797,296.082377,10066.800811
1061.568587,1455.581446,148.041188,9178.553681
1061.568903,919.314598,370.102971,9030.512492
1061.569219,842.705048,-0.000000,9696.697840
1061.569534,1302.362347,-296.082377,9252.574275
1061.569850,995.924147,-74.020594,9474.636058
1061.570166,0.000000,-0.000000,9178.553681
1061.570481,0.000000,-222.061783,9622.677246
1061.570797,536.266849,-814.226536,10436.903782
1061.571113,76.609550,-962.267725,10288.862594
1061.571428,153.219100,-296.082377,9252.574275
1061.571744,0.000000,-740.205942,9030.512492
1061.572060,153.219100,-888.247130,9104.533087
1061.572375,229.828649,-1036.288319,9622.677246
1061.572691,306.438199,-1110.308913,9844.739029
1061.573006,0.000000,-592.164754,9178.553681
1061.573322,76.609550,-888.247130,9474.636058
1061.573638,766.095498,-1036.288319,9326.594869
1061.573953,689.485948,-666.185348,8956.491898
1061.574269,612.876398,-0.000000,9030.512492
1061.574585,919.314598,-0.000000,8734.430116
1061.574900,1072.533697,-666.185348,8586.388927
1061.575216,995.924147,-592.164754,8586.388927
1061.575532,306.438199,-666.185348,8734.430116
1061.575847,0.000000,-1184.329507,9400.615463
1061.576163,76.609550,-1480.411884,9770.718434
1061.576479,76.609550,-1332.370696,9622.677246
1061.576794,0.000000,-888.247130,9178.553681
1061.577110,0.000000,-888.247130,9104.533087
1061.577425,459.657299,-1406.391290,9178.553681
1061.577741,536.266849,-1184.329507,9104.533087
1061.578057,689.485948,-888.247130,9400.615463
1061.578372,383.047749,-1036.288319,9326.594869
1061.578688,766.095498,-888.247130,9252.574275
1061.579004,76.609550,-1184.329507,9696.697840
1061.579319,1225.752797,-740.205942,9622.677246
1061.579635,1302.362347,-370.102971,9104.533087
1061.579951,1149.143247,444.123565,8808.450710
1061.580266,1532.190996,222.061783,8808.450710
1061.580582,1455.581446,148.041188,8734.430116
1061.580898,995.924147,444.123565,9326.594869
1061.581213,229.828649,148.041188,9400.615463
1061.581529,459.657299,-518.144159,9622.677246
1061.581844,383.047749,-888.247130,10362.883188
1061.582160,689.485948,-518.144159,9844.739029
1061.582476,76.609550,-444.123565,9548.656652
1061.582791,0.000000,-518.144159,10140.821405
1061.583107,383.047749,-222.061783,10214.842000
1061.583423,76.609550,-518.144159,10140.821405
1061.583738,-536.266849,-0.000000,10214.842000
1061.584054,0.000000,222.061783,10214.842000
1061.584370,306.438199,-0.000000,9770.718434
1061.584685,842.705048,-0.000000,9992.780217
1061.585001,766.095498,370.102971,9252.574275
1061.585316,842.705048,962.267725,9326.594869
1061.585632,995.924147,592.164754,9178.553681
1061.585948,919.314598,370.102971,9252.574275
1061.586263,459.657299,592.164754,9474.636058
1061.586579,76.609550,-0.000000,9548.656652
1061.586895,0.000000,-74.020594,9548.656652
1061.587210,76.609550,-0.000000,10288.862594
1061.587526,76.609550,296.082377,9992.780217
1061.587842,0.000000,444.123565,9696.697840
1061.588157,0.000000,222.061783,9400.615463
1061.588473,0.000000,-0.000000,9696.697840
1061.588789,0.000000,-222.061783,9696.697840
1061.589104,-153.219100,148.041188,9918.759623
1061.589420,-153.219100,-222.061783,10066.800811
1061.589735,0.000000,-444.123565,10288.862594
1061.590051,0.000000,-370.102971,9992.780217
1061.590367,306.438199,296.082377,9178.553681
1061.590682,459.657299,1036.288319,8660.409521
1061.590998,766.095498,1036.288319,8808.450710
1061.591314,1072.533697,888.247130,8882.471304
1061.591629,1149.143247,962.267725,8438.347739
1061.591945,612.876398,666.185348,9030.512492
1061.592261,306.438199,370.102971,9178.553681
1061.592576,383.047749,-370.102971,9622.677246
1061.592892,383.047749,-444.123565,9622.677246
1061.593208,76.609550,-74.020594,9622.677246
1061.593523,153.219100,-0.000000,9178.553681
1061.593839,153.219100,-0.000000,9178.553681
1061.594154,459.657299,-222.061783,9770.718434
1061.594470,153.219100,-370.102971,9252.574275
1061.594786,-153.219100,370.102971,9400.615463
1061.595101,76.609550,-518.144159,9696.697840
1061.595417,153.219100,-814.226536,9918.759623
1061.595733,229.828649,-222.061783,9474.636058
1061.596048,0.000000,-0.000000,8956.491898
1061.596364,229.828649,296.082377,8586.388927
1061.596680,459.657299,148.041188,8956.491898
1061.596995,766.095498,370.102971,9178.553681
1061.597311,76.609550,-0.000000,9252.574275
1061.597627,76.609550,-0.000000,9400.615463
1061.597942,0.000000,-444.123565,9844.739029
1061.598258,153.219100,-814.226536,9918.759623
1061.598573,0.000000,-370.102971,9548.656652
1061.598889,0.000000,-0.000000,9104.533087
1061.599205,383.047749,-222.061783,9622.677246
1061.599520,536.266849,-222.061783,9548.656652
1061.599836,0.000000,-370.102971,9474.636058
1061.600152,0.000000,-222.061783,9844.739029
1061.600467,0.000000,-518.144159,10214.842000
1061.600783,0.000000,-1258.350101,10288.862594
1061.601099,459.657299,-740.205942,9844.739029
1061.601414,919.314598,-296.082377,9696.697840
1061.601730,766.095498,-444.123565,9252.574275
1061.602046,1378.971896,-0.000000,8956.491898
1061.602361,1455.581446,-0.000000,8808.450710
1061.602677,1149.143247,-0.000000,9030.512492
1061.602992,459.657299,-0.000000,9326.594869
1061.603308,612.876398,-740.205942,9844.739029
1061.603624,383.047749,-1110.308913,10066.800811
1061.603939,459.657299,-1332.370696,9548.656652
1061.604255,306.438199,-962.267725,9474.636058
1061.604571,459.657299,-1184.329507,9474.636058
1061.604886,612.876398,-1480.411884,9770.718434
1061.605202,766.095498,-962.267725,9696.697840
1061.605518,306.438199,-888.247130,9548.656652
1061.605833,459.657299,-1184.329507,10066.800811
1061.606149,383.047749,-1110.308913,9992.780217
1061.606465,842.705048,-962.267725,9622.677246
1061.606780,766.095498,-296.082377,9030.512492
1061.607096,995.924147,-148.041188,9104.533087
1061.607411,1149.143247,-148.041188,8882.471304
1061.607727,1455.581446,-148.041188,8956.491898
1061.608043,995.924147,-0.000000,9104.533087
1061.608358,612.876398,-0.000000,8956.491898
1061.608674,229.828649,-518.144159,9474.636058
1061.608990,383.047749,-1110.308913,10362.883188
1061.609305,153.219100,-1110.308913,10066.800811
1061.609621,0.000000,-370.102971,9622.677246
1061.609937,459.657299,-222.061783,9178.553681
1061.610252,536.266849,-666.185348,9474.636058
1061.610568,842.705048,-0.000000,9474.636058
1061.610883,536.266849,148.041188,8882.471304
1061.611199,383.047749,-222.061783,9326.594869
1061.611515,536.266849,-740.205942,9918.759623
1061.611830,766.095498,-740.205942,9696.697840
1061.612146,842.705048,-0.000000,9252.574275
1061.612462,689.485948,148.041188,8882.471304
1061.612777,766.095498,370.102971,8882.471304
1061.613093,766.095498,296.082377,8734.430116
1061.613409,612.876398,666.185348,9030.512492
1061.613724,0.000000,592.164754,8956.491898
1061.614040,153.219100,444.123565,9252.574275
1061.614356,0.000000,-296.082377,9770.718434
1061.614671,0.000000,-222.061783,9918.759623
1061.614987,0.000000,-222.061783,9030.512492
1061.615302,-383.047749,-0.000000,9030.512492
1061.615618,0.000000,-222.061783,9474.636058
1061.615934,153.219100,-222.061783,9548.656652
1061.616249,0.000000,-0.000000,9622.677246
1061.616565,-229.828649,444.123565,9696.697840
1061.616881,76.609550,-74.020594,10214.842000
1061.617196,459.657299,296.082377,9844.739029
1061.617512,459.657299,370.102971,9104.533087
1061.617828,306.438199,888.247130,9252.574275
1061.618143,459.657299,740.205942,9474.636058
1061.618459,842.705048,592.164754,9104.533087
1061.618775,306.438199,888.247130,9252.574275
1061.619090,0.000000,666.185348,9400.615463
1061.619406,-229.828649,518.144159,9992.780217
1061.619721,-306.438199,370.102971,9992.780217
1061.620037,-229.828649,-74.020594,10362.883188
1061.620353,-306.438199,-148.041188,10066.800811
1061.620668,-383.047749,-370.102971,9696.697840
1061.620984,0.000000,-74.020594,9770.718434
1061.621300,689.485948,-74.020594,10214.842000
1061.621615,459.657299,-0.000000,9548.656652
1061.621931,153.219100,296.082377,9844.739029
1061.622247,459.657299,-0.000000,10066.800811
1061.622562,689.485948,-74.020594,9696.697840
1061.622878,919.314598,222.061783,9696.697840
1061.623194,995.924147,296.082377,9474.636058
1061.623509,842.705048,592.164754,9400.615463
1061.623825,919.314598,444.123565,9474.636058
1061.624140,1149.143247,-148.041188,9178.553681
1061.624456,612.876398,296.082377,9474.636058
1061.624772,76.609550,-0.000000,9326.594869
1061.625087,153.219100,-370.102971,10214.842000
1061.625403,383.047749,-962.267725,10584.944971
1061.625719,76.609550,-518.144159,9622.677246
1061.626034,-229.828649,-296.082377,9474.636058
1061.626350,-229.828649,-592.164754,9474.636058
1061.626666,995.924147,-1110.308913,9696.697840
1061.626981,995.924147,-740.205942,9474.636058
1061.627297,306.438199,-444.123565,9474.636058
1061.627613,153.219100,-1036.288319,9474.636058
1061.627928,919.314598,-1406.391290,9696.697840
1061.628244,919.314598,-1036.288319,9104.533087
1061.628559,1225.752797,-444.123565,8734.430116
1061.628875,1302.362347,-74.020594,8438.347739
1061.629192,1302.362347,-148.041188,8808.450710
1061.629508,1608.800546,-518.144159,8882.471304
1061.629823,1302.362347,-296.082377,8882.471304
1061.630139,306.438199,-370.102971,8660.409521
1061.630455,689.485948,-814.226536,9252.574275
1061.630771,229.828649,-1332.370696,9400.615463
1061.631086,0.000000,-1406.391290,9400.615463
1061.631402,0.000000,-1258.350101,9178.553681
1061.631718,0.000000,-1480.411884,9104.533087
1061.632034,229.828649,-1406.391290,9400.615463
1061.632349,459.657299,-1480.411884,9326.594869
1061.632665,76.609550,-1258.350101,9548.656652
1061.632981,0.000000,-1110.308913,9474.636058
1061.633297,536.266849,-1110.308913,9252.574275
1061.633612,919.314598,-1110.308913,9474.636058
1061.633928,1225.752797,-666.185348,9104.533087
1061.634244,1378.971896,-0.000000,8808.450710
1061.634560,1302.362347,-222.061783,8882.471304
1061.634876,1762.019645,-592.164754,9030.512492
1061.635191,1455.581446,370.102971,8882.471304
1061.635507,766.095498,370.102971,9104.533087
1061.635823,229.828649,148.041188,9326.594869
1061.636139,229.828649,-518.144159,10214.842000
1061.636454,0.000000,-592.164754,9918.759623
1061.636770,-383.047749,-444.123565,9622.677246
1061.637086,-306.438199,-592.164754,9918.759623
1061.637402,0.000000,-814.226536,10140.821405
1061.637717,153.219100,-370.102971,10288.862594
1061.638033,76.609550,-0.000000,9992.780217
1061.638349,0.000000,-0.000000,9992.780217
1061.638665,612.876398,-296.082377,9844.739029
1061.638980,689.485948,148.041188,9918.759623
1061.639296,995.924147,592.164754,9548.656652
1061.639612,919.314598,888.247130,9178.553681
1061.639928,1072.533697,962.267725,9178.553681
1061.640243,1608.800546,592.164754,9400.615463
1061.640559,842.705048,1036.288319,8956.491898
1061.640875,306.438199,1110.308913,9178.553681
1061.641191,153.219100,666.185348,9474.636058
1061.641506,229.828649,-0.000000,10436.903782
1061.641822,306.438199,-0.000000,9992.780217
1061.642138,-383.047749,-0.000000,9622.677246
1061.642454,-459.657299,-296.082377,9844.739029
1061.642769,0.000000,-74.020594,10214.842000
1061.643085,0.000000,-0.000000,10140.821405
1061.643401,0.000000,518.144159,9474.636058
1061.643717,-229.828649,444.123565,9844.739029
1061.644032,-153.219100,148.041188,9770.718434
1061.644348,689.485948,-74.020594,9918.759623
1061.644664,842.705048,444.123565,9326.594869
1061.644980,919.314598,518.144159,9326.594869
1061.645295,995.924147,1184.329507,8734.430116
1061.645611,1225.752797,1110.308913,8512.368333
1061.645927,919.314598,1036.288319,8512.368333
1061.646243,383.047749,296.082377,9104.533087
1061.646559,153.219100,592.164754,9844.739029
1061.646874,0.000000,-370.102971,9992.780217
1061.647190,0.000000,-222.061783,9844.739029
1061.647506,0.000000,-222.061783,9770.718434
1061.647822,0.000000,-0.000000,9252.574275
1061.648137,306.438199,-74.020594,9252.574275
1061.648453,229.828649,-148.041188,9548.656652
1061.648769,306.438199,-222.061783,9474.636058
1061.649085,153.219100,-148.041188,9326.594869
1061.649400,0.000000,-222.061783,9548.656652
1061.649716,536.266849,-666.185348,9844.739029
1061.650032,842.705048,-296.082377,9252.574275
1061.650348,766.095498,370.102971,8956.491898
1061.650663,1225.752797,296.082377,8660.409521
1061.650979,536.266849,-0.000000,8142.265362
1061.651295,1225.752797,-0.000000,8882.471304
1061.651611,612.876398,-0.000000,8956.491898
1061.651926,0.000000,-296.082377,9400.615463
1061.652242,0.000000,-888.247130,9992.780217
1061.652558,153.219100,-1480.411884,10140.821405
1061.652874,-229.828649,-962.267725,9992.780217
1061.653189,-459.657299,-518.144159,9548.656652
1061.653505,-612.876398,-888.247130,9474.636058
1061.653821,0.000000,-814.226536,9696.697840
1061.654137,306.438199,-592.164754,9400.615463
1061.654452,0.000000,-444.123565,9548.656652
1061.654768,-383.047749,-740.205942,9918.759623
1061.655084,229.828649,-1332.370696,10584.944971
1061.655400,459.657299,-1406.391290,9770.718434
1061.655715,689.485948,-592.164754,8882.471304
1061.656031,76.609550,-74.020594,9252.574275
1061.656347,842.705048,-148.041188,9252.574275
1061.656663,1072.533697,-444.123565,9252.574275
1061.656979,919.314598,-148.041188,8882.471304
1061.657294,536.266849,-74.020594,9104.533087
1061.657610,229.828649,-814.226536,9474.636058
1061.657926,612.876398,-1258.350101,9696.697840
1061.658242,383.047749,-1036.288319,9548.656652
1061.658557,229.828649,-1184.329507,9622.677246
1061.658873,153.219100,-1036.288319,9696.697840
1061.659189,383.047749,-1332.370696,9622.677246
1061.659505,536.266849,-1036.288319,9770.718434
1061.659820,536.266849,-518.144159,9474.636058
1061.660136,383.047749,-592.164754,9400.615463
1061.660452,459.657299,-666.185348,9992.780217
1061.660768,766.095498,-814.226536,9770.718434
1061.661083,919.314598,-444.123565,9178.553681
1061.661399,766.095498,-222.061783,8882.471304
1061.661715,919.314598,-74.020594,8956.491898
1061.662031,1302.362347,-148.041188,9030.512492
1061.662346,1072.533697,-148.041188,9400.615463
1061.662662,689.485948,-222.061783,9548.656652
1061.662978,383.047749,-0.000000,9474.636058
1061.663294,689.485948,-296.082377,9474.636058
1061.663609,919.314598,-296.082377,9548.656652
1061.663925,766.095498,-0.000000,9400.615463
1061.664241,459.657299,-74.020594,9474.636058
1061.664557,689.485948,-222.061783,9178.553681
1061.664872,842.705048,-222.061783,9844.739029
1061.665188,612.876398,-74.020594,9474.636058
1061.665504,153.219100,-0.000000,9474.636058
1061.665820,0.000000,-444.123565,9844.739029
1061.666135,689.485948,-666.185348,10214.842000
1061.666451,919.314598,-444.123565,9548.656652
1061.666767,842.705048,296.082377,9326.594869
1061.667083,766.095498,740.205942,9104.533087
1061.667399,919.314598,888.247130,8734.430116
1061.667714,1225.752797,1036.288319,8660.409521
1061.668030,766.095498,1036.288319,8808.450710
1061.668346,0.000000,518.144159,9474.636058
1061.668662,76.609550,-222.061783,10140.821405
1061.668977,-306.438199,-444.123565,10288.862594
1061.669293,-459.657299,-148.041188,9770.718434
1061.669609,-536.266849,-148.041188,9622.677246
1061.669925,-383.047749,148.041188,9548.656652
1061.670240,-153.219100,296.082377,9992.780217
1061.670556,-229.828649,740.205942,9696.697840
1061.670872,-459.657299,888.247130,9474.636058
1061.671188,-153.219100,370.102971,10066.800811
1061.671503,229.828649,-0.000000,10140.821405
1061.671819,459.657299,-0.000000,9548.656652
1061.672135,383.047749,296.082377,9104.533087
1061.672451,383.047749,666.185348,9326.594869
1061.672766,842.705048,444.123565,9252.574275
1061.673082,1072.533697,1036.288319,8956.491898
1061.673398,383.047749,1406.391290,8734.430116
1061.673714,0.000000,1184.329507,9548.656652
1061.674029,229.828649,592.164754,9696.697840
1061.674345,76.609550,-0.000000,10066.800811
1061.674661,-229.828649,-74.020594,10066.800811
1061.674977,-306.438199,-296.082377,9844.739029
1061.675292,0.000000,-814.226536,9622.677246
1061.675608,76.609550,-666.185348,9918.759623
1061.675924,0.000000,-814.226536,9918.759623
1061.676240,0.000000,-740.205942,9844.739029
1061.676555,-229.828649,-962.267725,10436.903782
1061.676871,76.609550,-1036.288319,10362.883188
1061.677187,766.095498,-518.144159,9622.677246
1061.677503,766.095498,-0.000000,8808.450710
1061.677818,1149.143247,370.102971,8512.368333
1061.678134,1302.362347,296.082377,8660.409521
1061.678450,1685.410096,296.082377,8660.409521
1061.678766,1072.533697,-0.000000,8660.409521
1061.679082,612.876398,-74.020594,9400.615463
1061.679397,153.219100,-740.205942,9770.718434
1061.679713,229.828649,-1184.329507,9770.718434
1061.680029,-153.219100,-1406.391290,10510.924376
1061.680345,0.000000,-1036.288319,10214.842000
1061.680660,0.000000,-370.102971,9474.636058
1061.680976,229.828649,-444.123565,9326.594869
1061.681292,842.705048,-1036.288319,9178.553681
1061.681608,76.609550,-740.205942,9326.594869
1061.681923,-229.828649,-1036.288319,9696.697840
1061.682239,229.828649,-1406.391290,9918.759623
1061.682555,766.095498,-1110.308913,9992.780217
1061.682871,1072.533697,-962.267725,9030.512492
1061.683186,842.705048,-518.144159,8734.430116
1061.683502,1072.533697,-370.102971,8734.430116
1061.683818,1378.971896,-222.061783,8882.471304
1061.684134,1455.581446,296.082377,8882.471304
1061.684449,689.485948,-0.000000,8734.430116
1061.684765,995.924147,-444.123565,8734.430116
1061.685081,995.924147,-888.247130,9770.718434
1061.685397,536.266849,-1628.453072,9548.656652
1061.685712,153.219100,-1258.350101,9474.636058
1061.686028,383.047749,-1998.556043,9474.636058
1061.686344,306.438199,-1628.453072,9844.739029
1061.686660,536.266849,-1406.391290,9770.718434
1061.686975,306.438199,-444.123565,9326.594869
1061.687291,-306.438199,-666.185348,9844.739029
1061.687607,153.219100,-1332.370696,10362.883188
1061.687923,1225.752797,-962.267725,9844.739029
1061.688238,689.485948,-296.082377,9548.656652
1061.688554,1455.581446,-0.000000,9030.512492
1061.688870,1378.971896,444.123565,8660.409521
1061.689186,1532.190996,296.082377,9252.574275
1061.689502,1608.800546,-0.000000,8882.471304
1061.689817,689.485948,444.123565,9030.512492
1061.690133,229.828649,148.041188,9622.677246
1061.690449,306.438199,-814.226536,10362.883188
1061.690765,536.266849,-814.226536,9918.759623
1061.691080,76.609550,-592.164754,9548.656652
1061.691396,0.000000,-222.061783,9548.656652
1061.691712,306.438199,-370.102971,9844.739029
1061.692028,306.438199,-296.082377,9548.656652
1061.692343,0.000000,-74.020594,9400.615463
1061.692659,-383.047749,-148.041188,9622.677246
1061.692975,-153.219100,-444.123565,10140.821405
1061.693291,0.000000,-444.123565,9918.759623
1061.693606,76.609550,-0.000000,9622.677246
1061.693922,76.609550,666.185348,8882.471304
1061.694238,459.657299,1184.329507,8882.471304
1061.694554,1072.533697,1184.329507,8734.430116
1061.694869,1072.533697,1332.370696,8734.430116
1061.695185,766.095498,1480.411884,9104.533087
1061.695501,76.609550,888.247130,9252.574275
1061.695817,0.000000,592.164754,9844.739029
1061.696132,0.000000,-74.020594,10288.862594
1061.696448,0.000000,-0.000000,9696.697840
1061.696764,-536.266849,222.061783,9548.656652
1061.697080,-229.828649,740.205942,9326.594869
1061.697395,0.000000,444.123565,9474.636058
1061.697711,153.219100,518.144159,9548.656652
1061.698027,0.000000,222.061783,9548.656652
1061.698343,0.000000,-148.041188,9992.780217
1061.698658,383.047749,-444.123565,10140.821405
1061.698974,383.047749,-74.020594,9696.697840
1061.699290,153.219100,592.164754,9178.553681
1061.699606,536.266849,444.123565,8956.491898
1061.699921,919.314598,740.205942,9252.574275
1061.700237,1455.581446,1036.288319,8882.471304
1061.700553,536.266849,1110.308913,8512.368333
1061.700869,842.705048,666.185348,9030.512492
1061.701185,689.485948,-0.000000,9770.718434
1061.701500,536.266849,-592.164754,9844.739029
1061.701816,229.828649,-518.144159,9992.780217
1061.702132,-153.219100,-296.082377,9696.697840
1061.702448,0.000000,-370.102971,9622.677246
1061.702763,383.047749,-666.185348,10066.800811
1061.703079,612.876398,-222.061783,9548.656652
1061.703395,0.000000,-0.000000,9474.636058
1061.703711,0.000000,-444.123565,10584.944971
1061.704026,76.609550,-814.226536,10658.965565
1061.704342,842.705048,-666.185348,9992.780217
1061.704658,612.876398,-222.061783,9104.533087
1061.704974,612.876398,222.061783,9104.533087
1061.705289,612.876398,-444.123565,9178.553681
1061.705605,1072.533697,-74.020594,9548.656652
1061.705921,536.266849,-0.000000,9326.594869
1061.706237,0.000000,-296.082377,9104.533087
1061.706552,153.219100,-222.061783,9548.656652
1061.706868,306.438199,-518.144159,10214.842000
1061.707184,229.828649,-666.185348,9844.739029
1061.707500,306.438199,-74.020594,9252.574275
1061.707815,153.219100,-370.102971,9104.533087
1061.708131,153.219100,-814.226536,9696.697840
1061.708447,153.219100,-1258.350101,9844.739029
1061.708763,306.438199,-1036.288319,9622.677246
1061.709078,-153.219100,-962.267725,9474.636058
1061.709394,76.609550,-888.247130,9918.759623
1061.709710,766.095498,-1258.350101,9992.780217
1061.710026,1532.190996,-814.226536,9400.615463
1061.710341,612.876398,-370.102971,8660.409521
1061.710657,995.924147,-222.061783,8882.471304
1061.710973,1072.533697,-296.082377,8364.327145
1061.711289,1302.362347,-296.082377,8512.368333
1061.711605,919.314598,-592.164754,9104.533087
1061.711920,383.047749,-1036.288319,9326.594869
1061.712236,383.047749,-962.267725,9252.574275
1061.712552,612.876398,-1036.288319,9548.656652
1061.712868,153.219100,-888.247130,9326.594869
1061.713183,0.000000,-888.247130,9104.533087
1061.713499,383.047749,-888.247130,9474.636058
1061.713815,919.314598,-1036.288319,9474.636058
1061.714131,842.705048,-814.226536,9326.594869
1061.714446,689.485948,-1258.350101,9696.697840
1061.714762,459.657299,-1332.370696,10066.800811
1061.715078,919.314598,-1406.391290,9918.759623
1061.715394,1072.533697,-666.185348,9474.636058
1061.715709,995.924147,-518.144159,9030.512492
1061.716025,1532.190996,-296.082377,9400.615463
1061.716341,1915.238745,-0.000000,8586.388927
1061.716657,1225.752797,222.061783,8438.347739
1061.716972,842.705048,888.247130,8882.471304
1061.717288,766.095498,222.061783,9474.636058
1061.717604,459.657299,148.041188,9918.759623
1061.717920,459.657299,-444.123565,9844.739029
1061.718235,306.438199,-370.102971,9474.636058
1061.718551,0.000000,-518.144159,9622.677246
1061.718867,76.609550,-518.144159,9622.677246
1061.719183,459.657299,-888.247130,10214.842000
1061.719498,306.438199,-518.144159,10214.842000
1061.719814,-536.266849,-148.041188,9696.697840
1061.720130,0.000000,-222.061783,10066.800811
1061.720446,153.219100,-444.123565,10140.821405
1061.720761,689.485948,814.226536,9844.739029
1061.721077,766.095498,740.205942,9104.533087
1061.721393,842.705048,814.226536,9400.615463
1061.721709,842.705048,518.144159,8956.491898
1061.722025,842.705048,370.102971,9104.533087
1061.722340,689.485948,1332.370696,8882.471304
1061.722656,76.609550,1258.350101,9326.594869
1061.722972,0.000000,740.205942,10214.842000
1061.723288,153.219100,222.061783,9696.697840
1061.723603,-153.219100,296.082377,9770.718434
1061.723919,0.000000,-0.000000,9770.718434
1061.724235,0.000000,-0.000000,9474.636058
1061.724551,229.828649,-0.000000,9622.677246
1061.724866,153.219100,296.082377,9548.656652
1061.725182,-229.828649,-0.000000,9844.739029
1061.725498,-383.047749,-0.000000,9770.718434
1061.725814,0.000000,-0.000000,9696.697840
1061.726129,76.609550,74.020594,9622.677246
1061.726445,306.438199,518.144159,9400.615463
1061.726761,766.095498,592.164754,9030.512492
1061.727077,1072.533697,888.247130,8956.491898
1061.727392,1072.533697,814.226536,8734.430116
1061.727708,842.705048,814.226536,8512.368333
1061.728024,383.047749,888.247130,9104.533087
1061.728340,459.657299,370.102971,9622.677246
1061.728655,76.609550,-0.000000,9918.759623
1061.728971,76.609550,-0.000000,9474.636058
1061.729287,-459.657299,-296.082377,9474.636058
1061.729603,-383.047749,-0.000000,9474.636058
1061.729918,229.828649,-592.164754,10140.821405
1061.730234,383.047749,-444.123565,9770.718434
1061.730550,0.000000,-74.020594,9548.656652
1061.730866,-153.219100,-74.020594,9918.759623
1061.731181,76.609550,-222.061783,9992.780217
1061.731497,383.047749,-296.082377,9622.677246
1061.731813,306.438199,-0.000000,9178.553681
1061.732129,459.657299,74.020594,9326.594869
1061.732444,919.314598,-0.000000,8586.388927
1061.732760,766.095498,-0.000000,9178.553681
1061.733076,995.924147,-0.000000,9030.512492
1061.733392,766.095498,592.164754,9030.512492
1061.733708,306.438199,148.041188,9178.553681
1061.734024,229.828649,-444.123565,9622.677246
1061.734339,229.828649,-740.205942,9844.739029
1061.734655,0.000000,-74.020594,9474.636058
1061.734971,306.438199,-370.102971,9474.636058
1061.735287,689.485948,-814.226536,9548.656652
1061.735603,536.266849,-814.226536,9696.697840
1061.735918,0.000000,-740.205942,9474.636058
1061.736234,0.000000,-740.205942,9918.759623
1061.736550,153.219100,-1110.308913,10362.883188
1061.736866,459.657299,-962.267725,10140.821405
1061.737182,689.485948,-592.164754,9696.697840
1061.737498,842.705048,-740.205942,9474.636058
1061.737813,1225.752797,-444.123565,8882.471304
1061.738129,1455.581446,-0.000000,8956.491898
1061.738445,1685.410096,-222.061783,8882.471304
1061.738761,1072.533697,-0.000000,8956.491898
1061.739077,1149.143247,-74.020594,9326.594869
1061.739393,536.266849,-814.226536,9844.739029
1061.739708,689.485948,-1110.308913,9696.697840
1061.740024,536.266849,-1036.288319,9400.615463
1061.740340,306.438199,-1406.391290,9548.656652
1061.740656,459.657299,-1110.308913,9548.656652
1061.740972,842.705048,-962.267725,9844.739029
1061.741288,766.095498,-814.226536,9770.718434
1061.741603,383.047749,-296.082377,9400.615463
1061.741919,459.657299,-888.247130,9844.739029
1061.742235,842.705048,-1406.391290,9474.636058
1061.742551,842.705048,-1036.288319,9548.656652
1061.742867,842.705048,-740.205942,9548.656652
1061.743183,919.314598,-518.144159,9178.553681
1061.743498,2221.676944,-370.102971,9030.512492
1061.743814,1225.752797,-148.041188,8734.430116
1061.744130,995.924147,518.144159,8512.368333
1061.744446,306.438199,-0.000000,9400.615463
1061.744762,536.266849,-518.144159,9622.677246
1061.745078,689.485948,-444.123565,9474.636058
1061.745393,383.047749,-222.061783,9474.636058
1061.745709,76.609550,-222.061783,8956.491898
1061.746025,0.000000,-666.185348,9326.594869
1061.746341,0.000000,-888.247130,9918.759623
1061.746657,-229.828649,-296.082377,9844.739029
1061.746973,-229.828649,-222.061783,9696.697840
1061.747288,-383.047749,-222.061783,9844.739029
1061.747604,-229.828649,-666.185348,9844.739029
1061.747920,536.266849,-0.000000,9918.759623
1061.748236,0.000000,-0.000000,9326.594869
1061.748552,306.438199,296.082377,9030.512492
1061.748868,1072.533697,666.185348,8956.491898
1061.749183,919.314598,888.247130,8808.450710
1061.749499,306.438199,888.247130,9178.553681
1061.749815,383.047749,962.267725,9178.553681
1061.750131,229.828649,518.144159,9474.636058
1061.750447,383.047749,296.082377,9696.697840
1061.750763,306.438199,-0.000000,9844.739029
1061.751078,76.609550,518.144159,9770.718434
1061.751394,0.000000,148.041188,9400.615463
1061.751710,306.438199,-0.000000,9844.739029
1061.752026,76.609550,296.082377,9770.718434
1061.752342,0.000000,518.144159,9844.739029
1061.752658,-612.876398,-0.000000,10140.821405
1061.752973,0.000000,-0.000000,10584.944971
1061.753289,0.000000,-148.041188,9992.780217
1061.753605,0.000000,370.102971,9548.656652
1061.753921,306.438199,518.144159,9696.697840
1061.754237,612.876398,666.185348,10066.800811
1061.754553,766.095498,370.102971,9400.615463
1061.754868,919.314598,814.226536,9548.656652
1061.755184,689.485948,1184.329507,9326.594869
1061.755500,383.047749,1036.288319,9030.512492
1061.755816,536.266849,518.144159,9844.739029
1061.756132,612.876398,-0.000000,9474.636058
1061.756448,306.438199,296.082377,9400.615463
1061.756763,306.438199,-222.061783,9326.594869
1061.757079,153.219100,-740.205942,9844.739029
1061.757395,612.876398,-518.144159,9992.780217
1061.757711,0.000000,-148.041188,9992.780217
1061.758027,-306.438199,-0.000000,9992.780217
1061.758343,-229.828649,-444.123565,10288.862594
1061.758658,0.000000,-444.123565,10362.883188
1061.758974,383.047749,-592.164754,9696.697840
1061.759290,536.266849,-148.041188,9030.512492
1061.759606,612.876398,-444.123565,9178.553681
1061.759922,919.314598,-296.082377,9252.574275
1061.760237,689.485948,-74.020594,8660.409521
1061.760553,306.438199,-0.000000,8882.471304
1061.760869,229.828649,-148.041188,9400.615463
1061.761185,612.876398,-444.123565,9104.533087
1061.761501,612.876398,-370.102971,9400.615463
1061.761817,76.609550,-666.185348,9104.533087
1061.762132,153.219100,-888.247130,9548.656652
1061.762448,459.657299,-962.267725,8956.491898
1061.762764,689.485948,-888.247130,9696.697840
1061.763080,0.000000,-592.164754,9326.594869
1061.763396,-306.438199,-1110.308913,9622.677246
1061.763712,-919.314598,-740.205942,10140.821405
1061.764027,-229.828649,-1628.453072,10436.903782
1061.764343,76.609550,-740.205942,9918.759623
1061.764659,229.828649,-296.082377,9178.553681
1061.764975,306.438199,-740.205942,9030.512492
1061.765291,1225.752797,-1258.350101,9030.512492
1061.765607,1225.752797,-148.041188,8808.450710
1061.765922,459.657299,-74.020594,8586.388927
1061.766238,612.876398,-370.102971,9104.533087
1061.766554,689.485948,-740.205942,9474.636058
1061.766870,1378.971896,-74.020594,9696.697840
1061.767186,612.876398,-666.185348,8734.430116
1061.767502,612.876398,-740.205942,9178.553681
1061.767817,919.314598,-370.102971,9252.574275
1061.768133,919.314598,-1110.308913,9326.594869
1061.768449,459.657299,-814.226536,9770.718434
1061.768765,229.828649,-814.226536,9696.697840
1061.769081,0.000000,-1036.288319,9696.697840
1061.769397,459.657299,-1258.350101,10288.862594
1061.769712,689.485948,-1480.411884,9696.697840
1061.770028,306.438199,-740.205942,9622.677246
1061.770344,229.828649,-740.205942,9474.636058
1061.770660,612.876398,-592.164754,9696.697840
1061.770976,1378.971896,-0.000000,9252.574275
1061.771292,1072.533697,148.041188,8956.491898
1061.771607,842.705048,296.082377,9326.594869
1061.771923,689.485948,-444.123565,9400.615463
1061.772239,1149.143247,-518.144159,9696.697840
1061.772555,995.924147,-222.061783,9696.697840
1061.772871,536.266849,-148.041188,9252.574275
1061.773187,1149.143247,-74.020594,9474.636058
1061.773502,1072.533697,-0.000000,9474.636058
1061.773818,536.266849,-148.041188,9918.759623
1061.774134,153.219100,370.102971,9770.718434
1061.774450,-229.828649,148.041188,10214.842000
1061.774766,0.000000,-296.082377,10288.862594
1061.775082,306.438199,-148.041188,10066.800811
1061.775397,0.000000,222.061783,9252.574275
1061.775713,153.219100,370.102971,9622.677246
1061.776029,536.266849,296.082377,9474.636058
1061.776345,919.314598,370.102971,9474.636058
1061.776661,766.095498,1036.288319,9178.553681
1061.776977,0.000000,740.205942,9252.574275
1061.777292,0.000000,444.123565,9918.759623
1061.777608,229.828649,-74.020594,9918.759623
1061.777924,229.828649,444.123565,9474.636058
1061.778240,0.000000,740.205942,9326.594869
1061.778556,306.438199,518.144159,9178.553681
1061.778872,612.876398,296.082377,9474.636058
1061.779187,995.924147,370.102971,9622.677246
1061.779503,0.000000,740.205942,9474.636058
1061.779819,153.219100,740.205942,9252.574275
1061.780135,153.219100,148.041188,9918.759623
1061.780451,459.657299,-0.000000,9844.739029
1061.780767,153.219100,-0.000000,9474.636058
1061.781082,76.609550,296.082377,9252.574275
1061.781398,306.438199,370.102971,9104.533087
1061.781714,383.047749,592.164754,9326.594869
1061.782030,153.219100,666.185348,9400.615463
1061.782346,-536.266849,370.102971,9252.574275
1061.782662,0.000000,222.061783,9548.656652
1061.782977,383.047749,-74.020594,9918.759623
1061.783293,0.000000,-666.185348,9770.718434
1061.783609,0.000000,-444.123565,9400.615463
1061.783925,0.000000,-0.000000,9548.656652
1061.784241,536.266849,-0.000000,9326.594869
1061.784556,766.095498,-148.041188,9252.574275
1061.784872,536.266849,-0.000000,9326.594869
1061.785188,0.000000,-0.000000,9474.636058
1061.785504,0.000000,-370.102971,9622.677246
1061.785820,612.876398,-518.144159,9770.718434
1061.786136,612.876398,-666.185348,9474.636058
1061.786451,0.000000,-148.041188,9326.594869
1061.786767,459.657299,-0.000000,9030.512492
1061.787083,842.705048,-740.205942,9030.512492
1061.787399,919.314598,-222.061783,9400.615463
1061.787715,0.000000,-222.061783,9622.677246
1061.788031,-306.438199,-444.123565,9770.718434
1061.788346,76.609550,-888.247130,10066.800811
1061.788662,459.657299,-1184.329507,9992.780217
1061.788978,229.828649,-518.144159,8882.471304
1061.789294,0.000000,-222.061783,8808.450710
1061.789610,306.438199,-666.185348,9400.615463
1061.789926,459.657299,-592.164754,9622.677246
1061.790241,689.485948,-370.102971,9474.636058
1061.790557,76.609550,-370.102971,9548.656652
1061.790873,306.438199,-592.164754,9474.636058
1061.791189,612.876398,-962.267725,9770.718434
1061.791505,766.095498,-888.247130,9696.697840
1061.791821,612.876398,-444.123565,9770.718434
1061.792136,919.314598,-518.144159,9104.533087
1061.792452,995.924147,-444.123565,9252.574275
1061.792768,1149.143247,-592.164754,9326.594869
1061.793084,919.314598,-148.041188,8956.491898
1061.793400,536.266849,-370.102971,9104.533087
1061.793716,689.485948,-592.164754,9622.677246
1061.794031,689.485948,-814.226536,9474.636058
1061.794347,766.095498,-814.226536,9030.512492
1061.794663,612.876398,-814.226536,8956.491898
1061.794979,995.924147,-666.185348,9474.636058
1061.795295,919.314598,-1184.329507,9474.636058
1061.795611,919.314598,-592.164754,9474.636058
1061.795926,0.000000,-740.205942,9548.656652
1061.796242,689.485948,-518.144159,9474.636058
1061.796558,612.876398,-888.247130,9622.677246
1061.796874,229.828649,-962.267725,9696.697840
1061.797190,153.219100,-740.205942,9252.574275
1061.797506,536.266849,-444.123565,9326.594869
1061.797821,766.095498,-666.185348,9178.553681
1061.798137,842.705048,-592.164754,9696.697840
1061.798453,689.485948,-0.000000,9326.594869
1061.798769,689.485948,-0.000000,9104.533087
1061.799085,459.657299,222.061783,9252.574275
1061.799401,919.314598,-148.041188,10066.800811
1061.799716,612.876398,222.061783,9326.594869
1061.800032,306.438199,148.041188,9104.533087
1061.800348,383.047749,-222.061783,9326.594869
1061.800664,612.876398,-222.061783,9548.656652
1061.800980,306.438199,-0.000000,9326.594869
1061.801296,153.219100,296.082377,9474.636058
1061.801611,-76.609550,-296.082377,9548.656652
1061.801927,0.000000,-222.061783,9992.780217
1061.802243,76.609550,-222.061783,10066.800811
1061.802559,459.657299,-0.000000,9770.718434
1061.802875,0.000000,222.061783,9400.615463
1061.803191,536.266849,148.041188,9474.636058
1061.803506,919.314598,592.164754,9252.574275
1061.803822,536.266849,962.267725,8882.471304
1061.804138,-383.047749,888.247130,9030.512492
1061.804454,0.000000,222.061783,9622.677246
1061.804770,383.047749,-0.000000,10288.862594
1061.805086,76.609550,-0.000000,9400.615463
1061.805401,76.609550,-0.000000,8956.491898
1061.805717,76.609550,-0.000000,9474.636058
1061.806033,383.047749,-0.000000,9548.656652
1061.806349,306.438199,592.164754,9622.677246
1061.806665,76.609550,1110.308913,9474.636058
1061.806981,-229.828649,1332.370696,9252.574275
1061.807296,76.609550,592.164754,9918.759623
1061.807612,383.047749,-0.000000,10066.800811
1061.807928,0.000000,-148.041188,9696.697840
1061.808244,0.000000,-0.000000,9474.636058
1061.808560,536.266849,-148.041188,9326.594869
1061.808875,536.266849,444.123565,9474.636058
1061.809191,689.485948,814.226536,9326.594869
1061.809507,153.219100,1332.370696,9104.533087
1061.809823,0.000000,962.267725,9252.574275
1061.810139,306.438199,-222.061783,9918.759623
1061.810455,459.657299,-370.102971,9918.759623
1061.810770,76.609550,-0.000000,9548.656652
1061.811086,153.219100,-74.020594,9474.636058
1061.811402,383.047749,-74.020594,9548.656652
1061.811718,766.095498,-148.041188,9770.718434
1061.812034,229.828649,296.082377,9400.615463
1061.812350,0.000000,-0.000000,9844.739029
1061.812665,153.219100,-296.082377,10288.862594
1061.812981,459.657299,-1332.370696,10658.965565
1061.813297,383.047749,-592.164754,9992.780217
1061.813613,536.266849,-0.000000,9030.512492
1061.813929,919.314598,-0.000000,8956.491898
1061.814245,1149.143247,-74.020594,9252.574275
1061.814560,1302.362347,-0.000000,9178.553681
1061.814876,306.438199,-0.000000,9178.553681
1061.815192,76.609550,-0.000000,9178.553681
1061.815508,229.828649,-518.144159,9770.718434
1061.815824,153.219100,-1036.288319,9918.759623
1061.816140,153.219100,-814.226536,9400.615463
1061.816455,0.000000,-444.123565,9104.533087
1061.816771,306.438199,-740.205942,9474.636058
1061.817087,689.485948,-962.267725,9400.615463
1061.817403,842.705048,-666.185348,9622.677246
1061.817719,612.876398,-666.185348,9178.553681
1061.818035,76.609550,-1110.308913,9770.718434
1061.818350,842.705048,-1554.432478,9770.718434
1061.818666,612.876398,-888.247130,9252.574275
1061.818982,919.314598,-444.123565,9326.594869
1061.819298,842.705048,-0.000000,8364.327145
1061.819614,1378.971896,296.082377,8438.347739
1061.819930,1455.581446,-0.000000,8216.285956
1061.820245,1225.752797,-592.164754,8734.430116
1061.820561,842.705048,-1554.432478,9178.553681
1061.820877,76.609550,-1258.350101,9622.677246
1061.821193,383.047749,-1776.494261,9992.780217
1061.821509,0.000000,-1702.473667,9696.697840
1061.821825,0.000000,-962.267725,9622.677246
1061.822140,306.438199,-888.247130,9400.615463
1061.822456,459.657299,-666.185348,9326.594869
1061.822772,842.705048,-592.164754,9326.594869
1061.823088,612.876398,-740.205942,9178.553681
1061.823404,689.485948,-888.247130,9326.594869
1061.823720,1072.533697,-1036.288319,9474.636058
1061.824035,1149.143247,-962.267725,9548.656652
1061.824351,995.924147,-888.247130,8956.491898
1061.824667,919.314598,-740.205942,9252.574275
1061.824983,1762.019645,-296.082377,8956.491898
1061.825299,1455.581446,-0.000000,8882.471304
1061.825615,842.705048,296.082377,9104.533087
1061.825930,229.828649,-0.000000,9326.594869
1061.826246,229.828649,-444.123565,9844.739029
1061.826562,306.438199,-740.205942,10288.862594
1061.826878,229.828649,-592.164754,9918.759623
1061.827194,0.000000,-296.082377,9400.615463
1061.827510,0.000000,-370.102971,9622.677246
1061.827825,459.657299,-740.205942,9918.759623
1061.828141,689.485948,-74.020594,10362.883188
1061.828457,153.219100,296.082377,9770.718434
1061.828773,153.219100,370.102971,9696.697840
1061.829089,306.438199,518.144159,9770.718434
1061.829405,689.485948,222.061783,9770.718434
1061.829720,1225.752797,296.082377,9252.574275
1061.830036,919.314598,518.144159,8956.491898
1061.830352,689.485948,444.123565,9178.553681
1061.830668,919.314598,444.123565,9474.636058
1061.830984,766.095498,518.144159,9326.594869
1061.831299,229.828649,-74.020594,9770.718434
1061.831615,-383.047749,518.144159,10140.821405
1061.831931,-229.828649,-222.061783,10066.800811
1061.832247,-229.828649,-0.000000,9696.697840
1061.832562,0.000000,370.102971,9696.697840
1061.832878,-306.438199,370.102971,9474.636058
1061.833194,306.438199,518.144159,9326.594869
1061.833510,306.438199,296.082377,9696.697840
1061.833825,153.219100,740.205942,9770.718434
1061.834141,-153.219100,592.164754,9548.656652
1061.834457,-76.609550,-0.000000,9992.780217
1061.834772,153.219100,-296.082377,9844.739029
1061.835088,76.609550,-222.061783,9770.718434
1061.835404,76.609550,370.102971,9474.636058
1061.835720,229.828649,592.164754,9548.656652
1061.836035,689.485948,1036.288319,9030.512492
1061.836351,842.705048,888.247130,8808.450710
1061.836667,459.657299,1332.370696,8808.450710
1061.836983,76.609550,888.247130,8882.471304
1061.837298,229.828649,-74.020594,9696.697840
1061.837614,-229.828649,-1036.288319,9770.718434
1061.837930,-153.219100,-444.123565,9696.697840
1061.838246,0.000000,-296.082377,9474.636058
1061.838561,76.609550,-370.102971,9548.656652
1061.838877,459.657299,-370.102971,9770.718434
1061.839193,536.266849,-0.000000,9474.636058
1061.839508,0.000000,296.082377,9696.697840
1061.839824,-459.657299,-74.020594,9844.739029
1061.840140,229.828649,-518.144159,9696.697840
1061.840456,306.438199,-592.164754,9326.594869
1061.840771,842.705048,-666.185348,9030.512492
1061.841087,689.485948,-74.020594,9104.533087
1061.841403,1225.752797,-74.020594,9252.574275
1061.841719,1225.752797,-0.000000,8586.388927
1061.842034,995.924147,-74.020594,9030.512492
1061.842350,383.047749,-888.247130,9548.656652
1061.842666,459.657299,-1036.288319,9918.759623
1061.842982,689.485948,-1036.288319,9622.677246
1061.843297,612.876398,-444.123565,9400.615463
1061.843613,612.876398,-0.000000,9178.553681
1061.843929,766.095498,-0.000000,8956.491898
1061.844245,842.705048,-518.144159,9178.553681
1061.844560,612.876398,-814.226536,9474.636058
1061.844876,0.000000,-740.205942,9474.636058
1061.845192,-306.438199,-1036.288319,9992.780217
1061.845507,0.000000,-1480.411884,10140.821405
1061.845823,0.000000,-1776.494261,10288.862594
1061.846139,306.438199,-962.267725,9326.594869
1061.846455,306.438199,-518.144159,9104.533087
1061.846770,689.485948,-592.164754,9178.553681
1061.847086,1149.143247,-518.144159,9400.615463
1061.847402,919.314598,-296.082377,8956.491898
1061.847718,383.047749,-222.061783,8956.491898
1061.848033,536.266849,-814.226536,9326.594869
1061.848349,919.314598,-1184.329507,9844.739029
1061.848665,536.266849,-888.247130,9622.677246
1061.848981,536.266849,-888.247130,9104.533087
1061.849296,689.485948,-740.205942,9178.553681
1061.849612,1225.752797,-666.185348,9326.594869
1061.849928,1608.800546,-518.144159,9474.636058
1061.850243,842.705048,-222.061783,9548.656652
1061.850559,459.657299,-370.102971,9548.656652
1061.850875,536.266849,-592.164754,10066.800811
1061.851191,1072.533697,-1110.308913,10214.842000
1061.851506,306.438199,-740.205942,9474.636058
1061.851822,612.876398,-296.082377,9252.574275
1061.852138,689.485948,-0.000000,9178.553681
1061.852454,1149.143247,-222.061783,9104.533087
1061.852769,1072.533697,148.041188,9178.553681
1061.853085,153.219100,222.061783,8882.471304
1061.853401,0.000000,-222.061783,9696.697840
1061.853717,0.000000,-592.164754,10288.862594
1061.854032,0.000000,-370.102971,10066.800811
1061.854348,-306.438199,-296.082377,9770.718434
1061.854664,-306.438199,-296.082377,9622.677246
1061.854979,229.828649,-222.061783,9622.677246
1061.855295,229.828649,-74.020594,9474.636058
1061.855611,153.219100,296.082377,9326.594869
1061.855927,383.047749,-0.000000,9326.594869
1061.856242,459.657299,-74.020594,9844.739029
1061.856558,536.266849,-370.102971,9696.697840
1061.856874,229.828649,-0.000000,9622.677246
1061.857190,612.876398,666.185348,8956.491898
1061.857505,919.314598,1110.308913,8808.450710
1061.857821,995.924147,888.247130,9252.574275
1061.858137,919.314598,1110.308913,9252.574275
1061.858453,0.000000,888.247130,9030.512492
1061.858768,-383.047749,370.102971,9474.636058
1061.859084,0.000000,-592.164754,10066.800811
1061.859400,-153.219100,-666.185348,10436.903782
1061.859715,-766.095498,-0.000000,9844.739029
1061.860031,-536.266849,-74.020594,9474.636058
1061.860347,0.000000,-296.082377,9918.759623
1061.860663,0.000000,-0.000000,9992.780217
1061.860978,0.000000,592.164754,9030.512492
1061.861294,0.000000,962.267725,9178.553681
1061.861610,76.609550,592.164754,9474.636058
1061.861926,383.047749,-0.000000,9696.697840
1061.862241,536.266849,370.102971,9548.656652
1061.862557,612.876398,-0.000000,9326.594869
1061.862873,689.485948,296.082377,9252.574275
1061.863189,1149.143247,444.123565,9030.512492
1061.863504,766.095498,962.267725,9178.553681
1061.863820,689.485948,1258.350101,8882.471304
1061.864136,153.219100,1184.329507,9400.615463
1061.864451,76.609550,666.185348,9844.739029
1061.864767,536.266849,-148.041188,9992.780217
1061.865083,383.047749,-0.000000,9548.656652
1061.865399,76.609550,-0.000000,9622.677246
1061.865714,0.000000,-518.144159,9622.677246
1061.866030,229.828649,-666.185348,10140.821405
1061.866346,689.485948,-296.082377,10288.862594
1061.866662,76.609550,296.082377,9622.677246
1061.866977,612.876398,296.082377,9696.697840
1061.867293,689.485948,-74.020594,9918.759623
1061.867609,1149.143247,-0.000000,9770.718434
1061.867925,1455.581446,444.123565,9178.553681
1061.868240,612.876398,296.082377,9030.512492
1061.868556,689.485948,-0.000000,9326.594869
1061.868872,1149.143247,-148.041188,9104.533087
1061.869187,612.876398,-0.000000,9030.512492
1061.869503,459.657299,-148.041188,9548.656652
1061.869819,-153.219100,-888.247130,10362.883188
1061.870135,0.000000,-1332.370696,10362.883188
1061.870450,-153.219100,-1184.329507,9844.739029
1061.870766,-383.047749,-962.267725,9918.759623
1061.871082,0.000000,-1332.370696,9918.759623
1061.871398,459.657299,-962.267725,9400.615463
1061.871713,306.438199,-666.185348,9326.594869
1061.872029,536.266849,-370.102971,9326.594869
1061.872345,383.047749,-740.205942,9474.636058
1061.872661,76.609550,-1036.288319,9918.759623
1061.872976,766.095498,-1406.391290,9696.697840
1061.873292,995.924147,-740.205942,9178.553681
1061.873608,766.095498,-518.144159,8882.471304
1061.873923,1149.143247,-740.205942,9030.512492
1061.874239,1455.581446,-592.164754,8734.430116
1061.874555,995.924147,-0.000000,8660.409521
1061.874871,153.219100,-74.020594,9104.533087
1061.875186,153.219100,-444.123565,9474.636058
1061.875502,0.000000,-1332.370696,9622.677246
1061.875818,-612.876398,-1258.350101,9770.718434
1061.876134,0.000000,-1702.473667,9770.718434
1061.876449,76.609550,-1924.535449,9548.656652
1061.876765,153.219100,-888.247130,9178.553681
1061.877081,153.219100,-1036.288319,9622.677246
1061.877397,919.314598,-518.144159,8956.491898
1061.877712,383.047749,-0.000000,9252.574275
1061.878028,383.047749,-148.041188,9400.615463
1061.878344,1072.533697,-740.205942,9400.615463
1061.878659,995.924147,-814.226536,9178.553681
1061.878975,1149.143247,-592.164754,8882.471304
1061.879291,1225.752797,-370.102971,8808.450710
1061.879607,1225.752797,-222.061783,8956.491898
1061.879922,1072.533697,-74.020594,8882.471304
1061.880238,153.219100,-0.000000,9178.553681
1061.880554,0.000000,-148.041188,9770.718434
1061.880870,229.828649,-444.123565,9992.780217
1061.881185,229.828649,-370.102971,9622.677246
1061.881501,229.828649,-444.123565,9696.697840
1061.881817,306.438199,-740.205942,9622.677246
1061.882133,919.314598,-0.000000,9548.656652
1061.882448,1225.752797,-0.000000,9400.615463
1061.882764,842.705048,370.102971,9474.636058
1061.883080,689.485948,222.061783,9400.615463
1061.883395,612.876398,74.020594,9770.718434
1061.883711,1072.533697,-0.000000,10362.883188
1061.884027,459.657299,-74.020594,9696.697840
1061.884343,766.095498,1036.288319,9326.594869
1061.884658,766.095498,592.164754,8956.491898
1061.884974,1225.752797,518.144159,9326.594869
1061.885290,612.876398,1332.370696,9326.594869
1061.885606,0.000000,1184.329507,9474.636058
1061.885921,-459.657299,666.185348,9844.739029
1061.886237,-306.438199,-0.000000,10140.821405
1061.886553,-383.047749,-296.082377,10066.800811
1061.886869,0.000000,-148.041188,10362.883188
1061.887184,-536.266849,-0.000000,9622.677246
1061.887500,-459.657299,296.082377,9474.636058
1061.887816,76.609550,666.185348,9918.759623
1061.888131,0.000000,814.226536,9474.636058
1061.888447,153.219100,1110.308913,9474.636058
1061.888763,76.609550,592.164754,9770.718434
1061.889079,0.000000,-0.000000,10066.800811
1061.889394,612.876398,-74.020594,9918.759623
1061.889710,383.047749,370.102971,9104.533087
1061.890026,0.000000,370.102971,8882.471304
1061.890342,612.876398,296.082377,9178.553681
1061.890657,766.095498,962.267725,9030.512492
1061.890973,229.828649,962.267725,9178.553681
1061.891289,-153.219100,518.144159,9622.677246
1061.891605,-229.828649,-0.000000,9696.697840
1061.891920,229.828649,-370.102971,9844.739029
1061.892236,0.000000,-518.144159,9548.656652
1061.892552,153.219100,-370.102971,9548.656652
1061.892868,229.828649,-592.164754,9474.636058
1061.893183,536.266849,-888.247130,9252.574275
1061.893499,76.609550,-0.000000,9474.636058
1061.893815,0.000000,-74.020594,9622.677246
1061.894130,-229.828649,-0.000000,9548.656652
1061.894446,612.876398,-444.123565,9548.656652
1061.894762,689.485948,-1036.288319,9770.718434
1061.895078,919.314598,-0.000000,9252.574275
1061.895393,842.705048,-0.000000,8438.347739
1061.895709,1455.581446,-296.082377,8808.450710
1061.896025,1532.190996,-148.041188,8956.491898
1061.896341,919.314598,-148.041188,8734.430116
1061.896656,153.219100,296.082377,9252.574275
1061.896972,0.000000,-592.164754,9474.636058
1061.897288,76.609550,-962.267725,9992.780217
1061.897604,76.609550,-962.267725,9696.697840
1061.897919,-383.047749,-592.164754,9474.636058
1061.898235,0.000000,-222.061783,9696.697840
1061.898551,612.876398,-814.226536,9326.594869
1061.898866,459.657299,-518.144159,9474.636058
1061.899182,612.876398,-296.082377,9400.615463
1061.899498,0.000000,-1184.329507,9696.697840
1061.899814,459.657299,-1036.288319,9844.739029
1061.900129,459.657299,-1332.370696,9696.697840
1061.900445,766.095498,-518.144159,9252.574275
1061.900761,1072.533697,-0.000000,9030.512492
1061.901077,1455.581446,-814.226536,8586.388927
1061.901392,1915.238745,-296.082377,9104.533087
1061.901708,1378.971896,-222.061783,8956.491898
1061.902024,995.924147,-148.041188,8660.409521
1061.902340,689.485948,-592.164754,9400.615463
1061.902655,153.219100,-962.267725,9770.718434
1061.902971,689.485948,-1110.308913,9918.759623
1061.903287,153.219100,-888.247130,9326.594869
1061.903602,153.219100,-740.205942,9474.636058
1061.903918,459.657299,-814.226536,9696.697840
1061.904234,995.924147,-888.247130,9474.636058
1061.904550,383.047749,-740.205942,9844.739029
1061.904865,76.609550,-888.247130,9992.780217
1061.905181,536.266849,-962.267725,10066.800811
1061.905497,689.485948,-962.267725,10140.821405
1061.905813,842.705048,-518.144159,9474.636058
1061.906128,995.924147,-0.000000,9252.574275
1061.906444,1378.971896,518.144159,8882.471304
1061.906760,1608.800546,666.185348,8734.430116
1061.907076,2068.457845,666.185348,8734.430116
1061.907391,1072.533697,740.205942,8956.491898
1061.907707,612.876398,222.061783,9474.636058
1061.908023,306.438199,-296.082377,9918.759623
1061.908338,383.047749,-592.164754,9992.780217
1061.908654,76.609550,-740.205942,9622.677246
1061.908970,-766.095498,-666.185348,9844.739029
1061.909286,-229.828649,-592.164754,10288.862594
1061.909601,0.000000,-0.000000,9844.739029
1061.909917,0.000000,-0.000000,9696.697840
1061.910233,-1149.143247,-0.000000,9770.718434
1061.910549,-612.876398,-296.082377,10214.842000
1061.910864,0.000000,-592.164754,10214.842000
1061.911180,459.657299,-0.000000,9548.656652
1061.911496,536.266849,222.061783,9474.636058
1061.911812,612.876398,740.205942,9400.615463
1061.912127,1225.752797,666.185348,8660.409521
1061.912443,919.314598,518.144159,8808.450710
1061.912759,459.657299,888.247130,8882.471304
1061.913074,0.000000,888.247130,8808.450710
1061.913390,0.000000,-148.041188,9474.636058
1061.913706,76.609550,-74.020594,10140.821405
1061.914022,0.000000,-296.082377,9622.677246
1061.914337,-306.438199,-0.000000,9178.553681
1061.914653,-383.047749,-74.020594,9474.636058
1061.914969,306.438199,-666.185348,9918.759623
1061.915285,229.828649,222.061783,9844.739029
1061.915600,0.000000,370.102971,9696.697840
1061.915916,0.000000,-0.000000,9474.636058
1061.916232,689.485948,-370.102971,9844.739029
1061.916548,536.266849,-74.020594,9622.677246
1061.916863,612.876398,444.123565,9252.574275
1061.917179,766.095498,888.247130,8586.388927
1061.917495,1149.143247,740.205942,8586.388927
1061.917810,1072.533697,962.267725,8438.347739
1061.918126,689.485948,888.247130,8660.409521
1061.918442,536.266849,962.267725,8956.491898
1061.918758,229.828649,222.061783,9696.697840
1061.919073,153.219100,-296.082377,9918.759623
1061.919389,0.000000,-444.123565,9918.759623
1061.919705,153.219100,-0.000000,9548.656652
1061.920021,229.828649,-370.102971,9622.677246
1061.920336,383.047749,-296.082377,9474.636058
1061.920652,459.657299,-0.000000,9696.697840
1061.920968,229.828649,222.061783,9622.677246
1061.921284,76.609550,-74.020594,10510.924376
1061.921599,689.485948,-222.061783,9770.718434
1061.921915,766.095498,-74.020594,9696.697840
1061.922231,766.095498,-0.000000,9030.512492
1061.922546,689.485948,370.102971,9104.533087
1061.922862,919.314598,222.061783,9400.615463
1061.923178,919.314598,-74.020594,9474.636058
1061.923494,689.485948,222.061783,9474.636058
1061.923809,229.828649,-0.000000,9622.677246
1061.924125,0.000000,-592.164754,9622.677246
1061.924441,0.000000,-1036.288319,10584.944971
1061.924757,229.828649,-888.247130,10066.800811
1061.925072,0.000000,-740.205942,9622.677246
1061.925388,0.000000,-888.247130,9548.656652
1061.925704,459.657299,-962.267725,9548.656652
1061.926020,842.705048,-814.226536,9400.615463
1061.926335,229.828649,-370.102971,9252.574275
1061.926651,0.000000,-740.205942,9474.636058
1061.926967,76.609550,-888.247130,10214.842000
1061.927282,536.266849,-1184.329507,10288.862594
1061.927598,689.485948,-888.247130,9400.615463
1061.927914,842.705048,-740.205942,9030.512492
1061.928230,995.924147,-814.226536,9030.512492
1061.928545,1455.581446,-666.185348,9178.553681
1061.928861,995.924147,-74.020594,8882.471304
1061.929177,536.266849,-0.000000,8882.471304
1061.929493,612.876398,-148.041188,9252.574275
1061.929808,1072.533697,-740.205942,9474.636058
1061.930124,612.876398,-962.267725,9474.636058
1061.930440,459.657299,-1184.329507,9474.636058
1061.930756,536.266849,-888.247130,9474.636058
1061.931071,842.705048,-1036.288319,9474.636058
1061.931387,1072.533697,-1110.308913,9326.594869
1061.931703,459.657299,-444.123565,9252.574275
1061.932018,153.219100,-518.144159,9252.574275
1061.932334,306.438199,-888.247130,9770.718434
1061.932650,536.266849,-1110.308913,10288.862594
1061.932966,383.047749,-740.205942,9696.697840
1061.933281,766.095498,-370.102971,8734.430116
1061.933597,612.876398,-296.082377,8808.450710
1061.933913,1149.143247,-370.102971,8808.450710
1061.934228,1302.362347,-0.000000,9030.512492
1061.934544,1072.533697,296.082377,8882.471304
1061.934860,306.438199,-0.000000,9178.553681
1061.935176,459.657299,-740.205942,9548.656652
1061.935491,383.047749,-518.144159,9696.697840
1061.935807,229.828649,-296.082377,9548.656652
1061.936123,76.609550,-518.144159,9474.636058
1061.936438,306.438199,-518.144159,9622.677246
1061.936754,306.438199,-592.164754,9770.718434
1061.937070,0.000000,-740.205942,9622.677246
1061.937386,-229.828649,-74.020594,9474.636058
1061.937701,-306.438199,-740.205942,10140.821405
1061.938017,-229.828649,-740.205942,10140.821405
1061.938333,383.047749,-74.020594,9844.739029
1061.938648,383.047749,148.041188,9400.615463
1061.938964,612.876398,148.041188,9252.574275
1061.939280,919.314598,592.164754,9178.553681
1061.939596,1302.362347,962.267725,8660.409521
1061.939911,689.485948,1184.329507,8808.450710
1061.940227,229.828649,814.226536,9252.574275
1061.940543,229.828649,518.144159,9770.718434
1061.940858,153.219100,-0.000000,9844.739029
1061.941174,76.609550,-74.020594,9918.759623
1061.941490,-306.438199,296.082377,9474.636058
1061.941806,0.000000,-0.000000,9622.677246
1061.942121,0.000000,148.041188,9992.780217
1061.942437,-153.219100,592.164754,9474.636058
1061.942753,-383.047749,518.144159,9918.759623
1061.943068,-459.657299,-0.000000,10362.883188
1061.943384,-153.219100,222.061783,10214.842000
1061.943700,0.000000,-0.000000,10288.862594
1061.944016,153.219100,-0.000000,9918.759623
1061.944331,383.047749,666.185348,9400.615463
1061.944647,1302.362347,814.226536,9178.553681
1061.944963,1225.752797,962.267725,8808.450710
1061.945278,1225.752797,740.205942,9178.553681
1061.945594,536.266849,1258.350101,9400.615463
1061.945910,229.828649,962.267725,9474.636058
1061.946225,306.438199,222.061783,10066.800811
1061.946541,306.438199,-0.000000,9918.759623
1061.946857,0.000000,222.061783,9696.697840
1061.947173,0.000000,-296.082377,10214.842000
1061.947488,536.266849,-370.102971,9770.718434
1061.947804,536.266849,-148.041188,9622.677246
1061.948120,0.000000,-0.000000,9474.636058
1061.948435,76.609550,-370.102971,10362.883188
1061.948751,229.828649,-666.185348,10288.862594
1061.949067,689.485948,-444.123565,9918.759623
1061.949383,536.266849,-296.082377,9474.636058
1061.949698,689.485948,-74.020594,9178.553681
1061.950014,1302.362347,-370.102971,8882.471304
1061.950330,1532.190996,-74.020594,8956.491898
1061.950645,1225.752797,-0.000000,8586.388927
1061.950961,766.095498,370.102971,8586.388927
1061.951277,689.485948,-0.000000,9030.512492
1061.951593,612.876398,-962.267725,9474.636058
1061.951908,536.266849,-592.164754,9770.718434
1061.952224,229.828649,-666.185348,9474.636058
1061.952540,76.609550,-1036.288319,9622.677246
1061.952855,0.000000,-1258.350101,9548.656652
1061.953171,459.657299,-1258.350101,9178.553681
1061.953487,306.438199,-888.247130,8956.491898
1061.953803,-306.438199,-1184.329507,9770.718434
1061.954118,-229.828649,-1110.308913,9992.780217
1061.954434,76.609550,-888.247130,9770.718434
1061.954750,612.876398,-370.102971,9252.574275
1061.955065,459.657299,-0.000000,9030.512492
1061.955381,919.314598,-0.000000,8734.430116
1061.955697,1149.143247,-222.061783,8438.347739
1061.956013,995.924147,-296.082377,8660.409521
1061.956328,919.314598,-222.061783,9178.553681
1061.956644,766.095498,-518.144159,8882.471304
1061.956960,842.705048,-666.185348,9178.553681
1061.957275,306.438199,-1036.288319,9770.718434
1061.957591,76.609550,-1036.288319,9474.636058
1061.957907,153.219100,-1406.391290,9104.533087
1061.958223,383.047749,-962.267725,9474.636058
1061.958538,919.314598,-1036.288319,9474.636058
1061.958854,536.266849,-666.185348,9548.656652
1061.959170,153.219100,-1184.329507,9696.697840
1061.959485,919.314598,-814.226536,10140.821405
1061.959801,383.047749,-1628.453072,10288.862594
1061.960117,919.314598,-1184.329507,9474.636058
1061.960432,766.095498,-296.082377,9326.594869
1061.960748,995.924147,-444.123565,9252.574275
1061.961064,1608.800546,-222.061783,9178.553681
1061.961380,1608.800546,518.144159,9178.553681
1061.961695,995.924147,814.226536,9104.533087
1061.962011,766.095498,-0.000000,9474.636058
1061.962327,383.047749,-148.041188,9918.759623
1061.962642,766.095498,-592.164754,10362.883188
1061.962958,766.095498,-370.102971,9770.718434
1061.963274,76.609550,-518.144159,9548.656652
1061.963590,153.219100,-592.164754,9696.697840
1061.963905,612.876398,-592.164754,9918.759623
1061.964221,612.876398,-592.164754,10214.842000
1061.964537,0.000000,148.041188,9696.697840
1061.964852,0.000000,-0.000000,10214.842000
1061.965168,76.609550,-74.020594,9918.759623
1061.965484,459.657299,-0.000000,9918.759623
1061.965800,612.876398,-0.000000,9030.512492
1061.966115,689.485948,148.041188,9326.594869
1061.966431,995.924147,592.164754,9178.553681
1061.966747,1072.533697,444.123565,8956.491898
1061.967062,536.266849,962.267725,8512.368333
1061.967378,306.438199,1036.288319,9474.636058
1061.967694,76.609550,814.226536,9326.594869
1061.968010,306.438199,370.102971,9548.656652
1061.968325,0.000000,-0.000000,9770.718434
1061.968641,-229.828649,-148.041188,9844.739029
1061.968957,0.000000,-0.000000,9844.739029
1061.969272,76.609550,-0.000000,9844.739029
1061.969588,76.609550,296.082377,9548.656652
1061.969904,-306.438199,444.123565,9622.677246
1061.970220,-536.266849,296.082377,9844.739029
1061.970535,-612.876398,-0.000000,10436.903782
1061.970851,306.438199,-0.000000,9474.636058
1061.971167,612.876398,296.082377,8956.491898
1061.971482,612.876398,370.102971,8956.491898
1061.971798,1072.533697,740.205942,9178.553681
1061.972114,995.924147,370.102971,8734.430116
1061.972429,1225.752797,962.267725,8438.347739
1061.972745,153.219100,1036.288319,8734.430116
1061.973061,229.828649,518.144159,9622.677246
1061.973377,229.828649,-148.041188,9622.677246
1061.973692,0.000000,-74.020594,9992.780217
1061.974008,-536.266849,-148.041188,9696.697840
1061.974324,0.000000,-592.164754,9918.759623
1061.974639,76.609550,-370.102971,9548.656652
1061.974955,0.000000,-74.020594,9696.697840
1061.975271,229.828649,-0.000000,9770.718434
1061.975587,-459.657299,-296.082377,9696.697840
1061.975902,-536.266849,-74.020594,10140.821405
1061.976218,383.047749,-666.185348,9992.780217
1061.976534,0.000000,-592.164754,9696.697840
1061.976849,0.000000,-0.000000,9696.697840
1061.977165,536.266849,-0.000000,9252.574275
1061.977481,1149.143247,222.061783,9178.553681
1061.977797,842.705048,592.164754,9178.553681
1061.978112,842.705048,962.267725,8882.471304
1061.978428,153.219100,-0.000000,9474.636058
1061.978744,0.000000,-222.061783,9548.656652
1061.979059,229.828649,-962.267725,9696.697840
1061.979375,0.000000,-1036.288319,9770.718434
1061.979691,-229.828649,-814.226536,9844.739029
1061.980007,229.828649,-962.267725,9252.574275
1061.980322,153.219100,-444.123565,9696.697840
1061.980638,0.000000,-296.082377,10066.800811
1061.980954,-306.438199,-592.164754,9844.739029
1061.981269,76.609550,-666.185348,10066.800811
1061.981585,306.438199,-1110.308913,10288.862594
1061.981901,689.485948,-1332.370696,9400.615463
1061.982217,612.876398,-444.123565,9400.615463
1061.982532,995.924147,-444.123565,9104.533087
1061.982848,1455.581446,-296.082377,8808.450710
1061.983164,1532.190996,-74.020594,9104.533087
1061.983479,919.314598,296.082377,8808.450710
1061.983795,689.485948,-222.061783,8956.491898
1061.984111,1072.533697,-444.123565,9400.615463
1061.984427,1225.752797,-1110.308913,9622.677246
1061.984742,689.485948,-962.267725,9474.636058
1061.985058,459.657299,-592.164754,9696.697840
1061.985374,766.095498,-740.205942,8956.491898
1061.985689,842.705048,-962.267725,9400.615463
1061.986005,689.485948,-888.247130,9548.656652
1061.986321,612.876398,-962.267725,9696.697840
1061.986636,612.876398,-1258.350101,10140.821405
1061.986952,459.657299,-1258.350101,9992.780217
1061.987268,842.705048,-1110.308913,9326.594869
1061.987584,1225.752797,-1036.288319,9548.656652
1061.987899,1302.362347,-296.082377,9178.553681
1061.988215,1608.800546,-222.061783,8956.491898
1061.988531,2068.457845,-0.000000,9030.512492
1061.988846,1302.362347,296.082377,8660.409521
1061.989162,919.314598,296.082377,9104.533087
1061.989478,689.485948,-222.061783,9400.615463
1061.989794,612.876398,-740.205942,9474.636058
1061.990109,383.047749,-444.123565,9400.615463
1061.990425,0.000000,-518.144159,9474.636058
1061.990741,383.047749,-888.247130,9918.759623
1061.991056,536.266849,-444.123565,10140.821405
1061.991372,229.828649,-148.041188,9474.636058
1061.991688,0.000000,-148.041188,9622.677246
1061.992004,0.000000,-444.123565,10066.800811
1061.992319,0.000000,-740.205942,10288.862594
1061.992635,459.657299,-592.164754,9992.780217
1061.992951,459.657299,-0.000000,9252.574275
1061.993266,536.266849,666.185348,9178.553681
1061.993582,766.095498,814.226536,8882.471304
1061.993898,919.314598,962.267725,8882.471304
1061.994214,76.609550,962.267725,8882.471304
1061.994529,0.000000,740.205942,8882.471304
1061.994845,-229.828649,666.185348,9548.656652
1061.995161,-229.828649,-0.000000,9844.739029
1061.995476,0.000000,-0.000000,9696.697840
1061.995792,-229.828649,296.082377,9474.636058
1061.996108,-153.219100,-74.020594,9474.636058
1061.996424,0.000000,-0.000000,9474.636058
1061.996739,-306.438199,-0.000000,9696.697840
1061.997055,-536.266849,222.061783,9844.739029
1061.997371,-383.047749,592.164754,9844.739029
1061.997686,-536.266849,-370.102971,10362.883188
1061.998002,0.000000,370.102971,10288.862594
1061.998318,383.047749,370.102971,9696.697840
1061.998634,-76.609550,962.267725,8882.471304
1061.998949,1072.533697,888.247130,8956.491898
1061.999265,919.314598,888.247130,9178.553681
1061.999581,995.924147,740.205942,8882.471304
1061.999896,153.219100,888.247130,9104.533087
1062.000212,0.000000,370.102971,9622.677246
1062.000528,306.438199,370.102971,10510.924376
1062.000843,383.047749,-148.041188,9844.739029
1062.001159,-153.219100,296.082377,9622.677246
1062.001475,0.000000,444.123565,9474.636058
1062.001791,383.047749,-148.041188,9474.636058
1062.002106,612.876398,-74.020594,9918.759623
1062.002422,229.828649,-222.061783,9178.553681
1062.002738,0.000000,-0.000000,9918.759623
1062.003053,-306.438199,-814.226536,10807.006753
1062.003369,153.219100,-1036.288319,10584.944971
1062.003685,229.828649,-222.061783,9104.533087
1062.004001,383.047749,-0.000000,9400.615463
1062.004316,842.705048,296.082377,9178.553681
1062.004632,1302.362347,370.102971,9104.533087
1062.004948,1378.971896,296.082377,8808.450710
1062.005263,919.314598,592.164754,8734.430116
1062.005579,612.876398,-74.020594,9326.594869
1062.005895,995.924147,-888.247130,10066.800811
1062.006211,612.876398,-1036.288319,9844.739029
1062.006526,612.876398,-962.267725,9548.656652
1062.006842,689.485948,-444.123565,9030.512492
1062.007158,459.657299,-444.123565,8808.450710
1062.007473,919.314598,-592.164754,9326.594869
1062.007789,612.876398,-0.000000,9474.636058
1062.008105,306.438199,-222.061783,9400.615463
1062.008421,153.219100,-592.164754,9622.677246
1062.008736,383.047749,-888.247130,9696.697840
1062.009052,536.266849,-1184.329507,9622.677246
1062.009368,1072.533697,-888.247130,9400.615463
1062.009683,689.485948,-1036.288319,9400.615463
1062.009999,1378.971896,-592.164754,9178.553681
1062.010315,1149.143247,-222.061783,9030.512492
1062.010631,842.705048,-0.000000,8882.471304
1062.010946,383.047749,-74.020594,9030.512492
1062.011262,383.047749,-444.123565,9548.656652
1062.011578,689.485948,-814.226536,9474.636058
1062.011893,612.876398,-1036.288319,9178.553681
1062.012209,459.657299,-888.247130,8956.491898
1062.012525,153.219100,-1110.308913,9474.636058
1062.012840,1072.533697,-962.267725,9326.594869
1062.013156,689.485948,-518.144159,8882.471304
1062.013472,76.609550,-1036.288319,9548.656652
1062.013788,0.000000,-1036.288319,9696.697840
1062.014103,76.609550,-1332.370696,9918.759623
1062.014419,459.657299,-1036.288319,9696.697840
1062.014735,459.657299,-666.185348,9252.574275
1062.015050,536.266849,-592.164754,9178.553681
1062.015366,1225.752797,-740.205942,9400.615463
1062.015682,995.924147,-518.144159,9474.636058
1062.015998,766.095498,-0.000000,9104.533087
1062.016313,383.047749,-74.020594,9104.533087
1062.016629,306.438199,-518.144159,9622.677246
1062.016945,459.657299,-444.123565,9918.759623
1062.017260,612.876398,-444.123565,9030.512492
1062.017576,76.609550,-148.041188,9252.574275
1062.017892,229.828649,-74.020594,9474.636058
1062.018208,459.657299,-0.000000,9400.615463
1062.018523,612.876398,-0.000000,9326.594869
1062.018839,459.657299,296.082377,9696.697840
1062.019155,0.000000,-0.000000,9918.759623
1062.019470,306.438199,-148.041188,10066.800811
1062.019786,0.000000,-148.041188,10140.821405
1062.020102,306.438199,-74.020594,9844.739029
1062.020418,383.047749,-0.000000,8882.471304
1062.020733,536.266849,666.185348,9400.615463
1062.021049,842.705048,592.164754,9252.574275
1062.021365,842.705048,888.247130,8882.471304
1062.021680,229.828649,962.267725,9178.553681
1062.021996,306.438199,518.144159,9770.718434
1062.022312,459.657299,-148.041188,9844.739029
1062.022628,153.219100,370.102971,9474.636058
1062.022943,0.000000,518.144159,9770.718434
1062.023259,-536.266849,-0.000000,9622.677246
1062.023575,153.219100,296.082377,9474.636058
1062.023890,306.438199,222.061783,9622.677246
1062.024206,0.000000,888.247130,9474.636058
1062.024522,-306.438199,666.185348,9770.718434
1062.024838,0.000000,444.123565,10288.862594
1062.025153,153.219100,148.041188,10140.821405
1062.025469,459.657299,518.144159,9474.636058
1062.025785,612.876398,592.164754,9400.615463
1062.026100,766.095498,592.164754,9326.594869
1062.026416,1532.190996,222.061783,9474.636058
1062.026732,1225.752797,814.226536,9326.594869
1062.027047,459.657299,814.226536,9030.512492
1062.027363,229.828649,592.164754,9622.677246
1062.027679,0.000000,296.082377,9696.697840
1062.027995,459.657299,-0.000000,9548.656652
1062.028310,459.657299,-148.041188,9326.594869
1062.028626,306.438199,-148.041188,9326.594869
1062.028942,76.609550,-518.144159,9696.697840
1062.029257,612.876398,-962.267725,9844.739029
1062.029573,0.000000,-0.000000,9252.574275
1062.029889,-383.047749,-296.082377,9770.718434
1062.030205,0.000000,-592.164754,10288.862594
1062.030520,306.438199,-1110.308913,10214.842000
1062.030836,153.219100,-888.247130,10288.862594
1062.031152,689.485948,-370.102971,9474.636058
1062.031467,612.876398,-74.020594,8808.450710
1062.031783,1378.971896,-0.000000,9400.615463
1062.032099,995.924147,-0.000000,9252.574275
1062.032415,1225.752797,814.226536,8586.388927
1062.032730,536.266849,518.144159,8956.491898
1062.033046,229.828649,-74.020594,9696.697840
1062.033362,306.438199,-962.267725,9770.718434
1062.033678,229.828649,-814.226536,9770.718434
1062.033993,0.000000,-666.185348,9400.615463
1062.034309,0.000000,-1036.288319,9474.636058
1062.034625,459.657299,-1036.288319,9400.615463
1062.034941,536.266849,-740.205942,9548.656652
1062.035257,0.000000,-740.205942,9474.636058
1062.035572,-306.438199,-814.226536,9992.780217
1062.035888,-153.219100,-1702.473667,9696.697840
1062.036204,229.828649,-1406.391290,9770.718434
1062.036520,383.047749,-1036.288319,9400.615463
1062.036836,229.828649,-962.267725,8808.450710
1062.037151,689.485948,-962.267725,8956.491898
1062.037467,919.314598,-814.226536,8956.491898
1062.037783,995.924147,-592.164754,8660.409521
1062.038099,766.095498,-74.020594,8956.491898
1062.038415,383.047749,-888.247130,9400.615463
1062.038730,842.705048,-1036.288319,9548.656652
1062.039046,459.657299,-962.267725,9326.594869
1062.039362,612.876398,-592.164754,9104.533087
1062.039678,766.095498,-666.185348,9030.512492
1062.039994,919.314598,-888.247130,9326.594869
1062.040309,766.095498,-444.123565,9030.512492
1062.040625,306.438199,-296.082377,9474.636058
1062.040941,153.219100,-666.185348,9844.739029
1062.041257,0.000000,-1036.288319,9992.780217
1062.041573,-383.047749,-1406.391290,10436.903782
1062.041888,306.438199,-1036.288319,9622.677246
1062.042204,459.657299,-74.020594,9400.615463
1062.042520,766.095498,222.061783,9326.594869
1062.042836,1378.971896,444.123565,8882.471304
1062.043152,1149.143247,592.164754,8660.409521
1062.043467,995.924147,148.041188,9104.533087
1062.043783,383.047749,-148.041188,9622.677246
1062.044099,459.657299,-592.164754,10140.821405
1062.044415,766.095498,-592.164754,9622.677246
1062.044731,842.705048,-148.041188,9696.697840
1062.045047,689.485948,-222.061783,9474.636058
1062.045362,995.924147,-74.020594,9918.759623
1062.045678,1072.533697,222.061783,9326.594869
1062.045994,536.266849,592.164754,9104.533087
1062.046310,153.219100,296.082377,9474.636058
1062.046626,459.657299,-0.000000,10066.800811
1062.046941,612.876398,-148.041188,10140.821405
1062.047257,153.219100,370.102971,9474.636058
1062.047573,76.609550,222.061783,9474.636058
1062.047889,766.095498,-0.000000,9178.553681
1062.048205,612.876398,-0.000000,9252.574275
1062.048520,76.609550,296.082377,9400.615463
1062.048836,-306.438199,296.082377,9400.615463
1062.049152,-229.828649,-0.000000,9992.780217
1062.049468,-383.047749,-74.020594,10510.924376
1062.049784,0.000000,-0.000000,9622.677246
1062.050099,-306.438199,592.164754,9252.574275
1062.050415,-306.438199,592.164754,9548.656652
1062.050731,459.657299,296.082377,9474.636058
1062.051047,766.095498,296.082377,9326.594869
1062.051363,0.000000,592.164754,9252.574275
1062.051678,0.000000,444.123565,9252.574275
1062.051994,0.000000,148.041188,9622.677246
1062.052310,229.828649,-0.000000,9992.780217
1062.052626,229.828649,296.082377,9548.656652
1062.052942,0.000000,592.164754,9400.615463
1062.053257,153.219100,222.061783,9178.553681
1062.053573,842.705048,148.041188,9178.553681
1062.053889,766.095498,518.144159,8956.491898
1062.054205,229.828649,888.247130,9178.553681
1062.054521,229.828649,-0.000000,9474.636058
1062.054836,76.609550,-74.020594,9992.780217
1062.055152,229.828649,-296.082377,9696.697840
1062.055468,0.000000,-0.000000,9400.615463
1062.055784,0.000000,-296.082377,9474.636058
1062.056100,229.828649,-370.102971,9474.636058
1062.056415,612.876398,-148.041188,9918.759623
1062.056731,459.657299,-0.000000,9400.615463
1062.057047,229.828649,222.061783,9400.615463
1062.057363,0.000000,-370.102971,9918.759623
1062.057679,536.266849,-444.123565,10066.800811
1062.057994,766.095498,-370.102971,9696.697840
1062.058310,459.657299,-0.000000,9252.574275
1062.058626,1072.533697,-0.000000,9622.677246
1062.058942,1455.581446,-296.082377,9474.636058
1062.059258,1455.581446,148.041188,9178.553681
1062.059573,919.314598,-0.000000,9104.533087
1062.059889,229.828649,-222.061783,9104.533087
1062.060205,383.047749,-222.061783,9918.759623
1062.060521,536.266849,-740.205942,10436.903782
1062.060837,306.438199,-1036.288319,9474.636058
1062.061152,-229.828649,-740.205942,9622.677246
1062.061468,0.000000,-1332.370696,9622.677246
1062.061784,1149.143247,-1554.432478,9178.553681
1062.062100,383.047749,-666.185348,9252.574275
1062.062416,-76.609550,-74.020594,9252.574275
1062.062731,-383.047749,-740.205942,9474.636058
1062.063047,76.609550,-962.267725,9992.780217
1062.063363,459.657299,-814.226536,9696.697840
1062.063679,383.047749,-444.123565,9400.615463
1062.063995,689.485948,-814.226536,8882.471304
1062.064311,689.485948,-1110.308913,9252.574275
1062.064626,995.924147,-962.267725,9622.677246
1062.064942,1072.533697,-592.164754,9326.594869
1062.065258,383.047749,-0.000000,9252.574275
1062.065574,306.438199,-0.000000,9326.594869
1062.065890,612.876398,-0.000000,9326.594869
1062.066205,1455.581446,-296.082377,9104.533087
1062.066521,76.609550,-370.102971,9030.512492
1062.066837,536.266849,-740.205942,9474.636058
1062.067153,1149.143247,-1184.329507,9474.636058
1062.067469,919.314598,-592.164754,9474.636058
1062.067784,689.485948,-592.164754,9178.553681
1062.068100,383.047749,-666.185348,9696.697840
1062.068416,306.438199,-1036.288319,9992.780217
1062.068732,459.657299,-1036.288319,9844.739029
1062.069048,306.438199,-666.185348,9548.656652
1062.069363,459.657299,-814.226536,9400.615463
1062.069679,1149.143247,-74.020594,8808.450710
1062.069995,1455.581446,222.061783,9030.512492
1062.070311,1225.752797,-0.000000,8882.471304
1062.070627,689.485948,-148.041188,9474.636058
1062.070942,536.266849,-148.041188,9622.677246
1062.071258,459.657299,-148.041188,9622.677246
1062.071574,612.876398,-0.000000,9548.656652
1062.071890,306.438199,-0.000000,9400.615463
1062.072206,306.438199,-222.061783,9474.636058
1062.072521,612.876398,-370.102971,9696.697840
1062.072837,536.266849,-0.000000,9770.718434
1062.073153,0.000000,148.041188,9474.636058
1062.073469,0.000000,-0.000000,9696.697840
1062.073785,76.609550,-148.041188,10066.800811
1062.074100,-306.438199,-74.020594,10066.800811
1062.074416,229.828649,370.102971,9474.636058
1062.074732,153.219100,296.082377,9548.656652
1062.075048,536.266849,222.061783,9696.697840
1062.075364,766.095498,666.185348,9252.574275
1062.075679,1072.533697,962.267725,9030.512492
1062.075995,536.266849,888.247130,9326.594869
1062.076311,306.438199,740.205942,9400.615463
1062.076627,306.438199,-0.000000,9770.718434
1062.076943,536.266849,-0.000000,9770.718434
1062.077258,383.047749,444.123565,9326.594869
1062.077574,76.609550,592.164754,9104.533087
1062.077890,229.828649,444.123565,9400.615463
1062.078206,536.266849,148.041188,9474.636058
1062.078522,229.828649,666.185348,9474.636058
1062.078837,0.000000,-0.000000,9474.636058
1062.079153,-612.876398,-0.000000,9918.759623
1062.079469,229.828649,-74.020594,9918.759623
1062.079785,0.000000,-148.041188,9622.677246
1062.080101,153.219100,-0.000000,9400.615463
1062.080416,153.219100,222.061783,9326.594869
1062.080732,383.047749,370.102971,9326.594869
1062.081048,536.266849,666.185348,9474.636058
1062.081364,0.000000,740.205942,9400.615463
1062.081680,0.000000,148.041188,9992.780217
1062.081995,459.657299,-0.000000,9844.739029
1062.082311,612.876398,-370.102971,9548.656652
1062.082627,383.047749,-148.041188,9622.677246
1062.082943,383.047749,-0.000000,9474.636058
1062.083259,1455.581446,-74.020594,9474.636058
1062.083575,1072.533697,222.061783,9030.512492
1062.083890,919.314598,296.082377,9400.615463
1062.084206,459.657299,-0.000000,9696.697840
1062.084522,153.219100,-518.144159,9992.780217
1062.084838,153.219100,-592.164754,10214.842000
1062.085154,383.047749,-888.247130,9918.759623
1062.085469,229.828649,-740.205942,9918.759623
1062.085785,229.828649,-444.123565,9548.656652
1062.086101,459.657299,-296.082377,9400.615463
1062.086417,766.095498,-148.041188,9400.615463
1062.086733,0.000000,-0.000000,9104.533087
1062.087048,0.000000,-74.020594,9474.636058
1062.087364,0.000000,-888.247130,9992.780217
1062.087680,306.438199,-1480.411884,9770.718434
1062.087996,0.000000,-1110.308913,9622.677246
1062.088312,306.438199,-666.185348,9474.636058
1062.088627,383.047749,-518.144159,9252.574275
1062.088943,689.485948,-74.020594,9178.553681
1062.089259,459.657299,222.061783,8882.471304
1062.089575,229.828649,-0.000000,9030.512492
1062.089891,0.000000,-666.185348,9622.677246
1062.090206,306.438199,-1184.329507,9918.759623
1062.090522,842.705048,-1110.308913,9696.697840
1062.090838,459.657299,-888.247130,9252.574275
1062.091154,536.266849,-296.082377,9400.615463
1062.091470,919.314598,-370.102971,9104.533087
1062.091785,1149.143247,-0.000000,8882.471304
1062.092101,689.485948,444.123565,9030.512492
1062.092417,306.438199,-74.020594,8734.430116
1062.092733,0.000000,-962.267725,9548.656652
1062.093049,536.266849,-1406.391290,10140.821405
1062.093364,459.657299,-1184.329507,9548.656652
1062.093680,459.657299,-1110.308913,9326.594869
1062.093996,612.876398,-740.205942,9252.574275
1062.094312,1149.143247,-740.205942,9326.594869
1062.094628,1072.533697,-222.061783,9030.512492
1062.094943,459.657299,444.123565,8882.471304
1062.095259,612.876398,-592.164754,9696.697840
1062.095575,536.266849,-888.247130,9844.739029
1062.095891,919.314598,-888.247130,9548.656652
1062.096207,1072.533697,-666.185348,9474.636058
1062.096522,995.924147,-296.082377,9326.594869
1062.096838,1915.238745,-0.000000,8808.450710
1062.097154,1378.971896,296.082377,8734.430116
1062.097470,1072.533697,814.226536,8882.471304
1062.097786,459.657299,370.102971,9252.574275
1062.098101,306.438199,-74.020594,9474.636058
1062.098417,459.657299,-518.144159,10140.821405
1062.098733,153.219100,-814.226536,10140.821405
1062.099049,383.047749,-222.061783,9770.718434
1062.099365,153.219100,-0.000000,9474.636058
1062.099680,766.095498,-74.020594,9770.718434
1062.099996,536.266849,-74.020594,9918.759623
1062.100312,229.828649,370.102971,9252.574275
1062.100628,0.000000,148.041188,9918.759623
1062.100944,0.000000,-370.102971,10140.821405
1062.101259,229.828649,-666.185348,10288.862594
1062.101575,76.609550,-444.123565,9992.780217
1062.101891,0.000000,-296.082377,9696.697840
1062.102207,536.266849,-0.000000,9474.636058
1062.102523,842.705048,666.185348,9252.574275
1062.102839,612.876398,1036.288319,9030.512492
1062.103154,612.876398,1110.308913,8734.430116
1062.103470,0.000000,592.164754,9252.574275
1062.103786,0.000000,-0.000000,9918.759623
1062.104102,0.000000,-518.144159,10288.862594
1062.104418,-306.438199,-0.000000,9622.677246
1062.104733,76.609550,-370.102971,9548.656652
1062.105049,-153.219100,148.041188,9548.656652
1062.105365,229.828649,222.061783,9548.656652
1062.105681,153.219100,296.082377,9548.656652
1062.105997,-306.438199,148.041188,9622.677246
1062.106312,0.000000,148.041188,9992.780217
1062.106628,0.000000,-74.020594,9474.636058
1062.106944,0.000000,-0.000000,9696.697840
1062.107260,0.000000,222.061783,9548.656652
1062.107576,229.828649,444.123565,9474.636058
1062.107891,689.485948,370.102971,9252.574275
1062.108207,612.876398,444.123565,9104.533087
1062.108523,536.266849,888.247130,9400.615463
1062.108839,0.000000,666.185348,9326.594869
1062.109155,229.828649,-0.000000,9770.718434
1062.109470,995.924147,-740.205942,9548.656652
1062.109786,229.828649,-592.164754,9548.656652
1062.110102,-76.609550,444.123565,9178.553681
1062.110418,229.828649,-296.082377,9474.636058
1062.110734,1149.143247,-666.185348,10362.883188
1062.111049,689.485948,296.082377,9326.594869
1062.111365,0.000000,-0.000000,8586.388927
1062.111681,229.828649,-370.102971,9844.739029
1062.111997,306.438199,-888.247130,10066.800811
1062.112313,612.876398,-592.164754,9326.594869
1062.112628,766.095498,-222.061783,9178.553681
1062.112944,0.000000,-222.061783,9252.574275
1062.113260,536.266849,-888.247130,9474.636058
1062.113576,536.266849,-592.164754,9400.615463
1062.113892,536.266849,-296.082377,9178.553681
1062.114207,0.000000,-148.041188,9474.636058
1062.114523,76.609550,-962.267725,9918.759623
1062.114839,306.438199,-1406.391290,10214.842000
1062.115155,459.657299,-74.020594,9326.594869
1062.115471,306.438199,-0.000000,8956.491898
1062.115786,842.705048,-296.082377,9104.533087
1062.116102,995.924147,-814.226536,9474.636058
1062.116418,766.095498,-444.123565,9474.636058
1062.116734,459.657299,-0.000000,9326.594869
1062.117050,306.438199,-518.144159,9770.718434
1062.117365,995.924147,-666.185348,9992.780217
1062.117681,383.047749,-888.247130,10066.800811
1062.117997,766.095498,-222.061783,9252.574275
1062.118313,229.828649,-222.061783,9104.533087
1062.118629,842.705048,-592.164754,9474.636058
1062.118944,1149.143247,-962.267725,9474.636058
1062.119260,459.657299,-370.102971,8956.491898
1062.119576,459.657299,-296.082377,9844.739029
1062.119892,383.047749,-666.185348,9696.697840
1062.120208,383.047749,-666.185348,9696.697840
1062.120523,689.485948,-814.226536,9326.594869
1062.120839,612.876398,-740.205942,9178.553681
1062.121155,995.924147,-962.267725,9474.636058
1062.121471,995.924147,-1036.288319,9178.553681
1062.121787,1455.581446,-888.247130,9252.574275
1062.122103,995.924147,-740.205942,9474.636058
1062.122418,689.485948,-518.144159,9326.594869
1062.122734,689.485948,-518.144159,9548.656652
1062.123050,919.314598,-740.205942,9696.697840
1062.123366,842.705048,-740.205942,9252.574275
1062.123682,1225.752797,-370.102971,9474.636058
1062.123997,1072.533697,-444.123565,9326.594869
1062.124313,1149.143247,-518.144159,9474.636058
1062.124629,995.924147,-0.000000,8956.491898
1062.124945,1225.752797,148.041188,9178.553681
1062.125261,76.609550,-148.041188,9474.636058
1062.125576,229.828649,-444.123565,9918.759623
1062.125892,76.609550,-444.123565,9474.636058
1062.126208,229.828649,-74.020594,9400.615463
1062.126524,0.000000,-0.000000,9474.636058
1062.126840,76.609550,-370.102971,9548.656652
1062.127155,842.705048,-592.164754,9548.656652
1062.127471,0.000000,-148.041188,9992.780217
1062.127787,-459.657299,-0.000000,9474.636058
1062.128103,0.000000,-0.000000,10140.821405
1062.128419,153.219100,-296.082377,9992.780217
1062.128734,229.828649,-0.000000,9252.574275
1062.129050,76.609550,518.144159,9104.533087
1062.129366,0.000000,-0.000000,9178.553681
1062.129682,689.485948,296.082377,9400.615463
1062.129998,689.485948,740.205942,9030.512492
1062.130313,459.657299,888.247130,9030.512492
1062.130629,-153.219100,518.144159,9326.594869
1062.130945,153.219100,-0.000000,9622.677246
1062.131261,229.828649,-0.000000,9770.718434
1062.131577,0.000000,-0.000000,9548.656652
1062.131892,-229.828649,296.082377,9400.615463
1062.132208,0.000000,370.102971,9474.636058
1062.132524,459.657299,-0.000000,9844.739029
1062.132840,76.609550,592.164754,9178.553681
1062.133156,0.000000,592.164754,9696.697840
1062.133471,383.047749,-74.020594,9474.636058
1062.133787,306.438199,-444.123565,10214.842000
1062.134103,689.485948,-444.123565,9770.718434
1062.134419,919.314598,296.082377,9178.553681
1062.134735,995.924147,666.185348,8660.409521
1062.135050,1225.752797,962.267725,9252.574275
1062.135366,1378.971896,888.247130,8808.450710
1062.135682,842.705048,1110.308913,8882.471304
1062.135998,459.657299,666.185348,9326.594869
1062.136313,306.438199,-0.000000,9696.697840
1062.136629,459.657299,-222.061783,10140.821405
1062.136945,229.828649,-518.144159,9548.656652
1062.137261,306.438199,-592.164754,9400.615463
1062.137577,0.000000,-148.041188,9696.697840
1062.137892,229.828649,-592.164754,9992.780217
1062.138208,306.438199,-0.000000,9770.718434
1062.138524,-229.828649,444.123565,9622.677246
1062.138840,-383.047749,222.061783,9696.697840
1062.139155,76.609550,-370.102971,10140.821405
1062.139471,153.219100,-666.185348,9992.780217
1062.139787,306.438199,-74.020594,9548.656652
1062.140103,76.609550,-296.082377,9400.615463
1062.140418,612.876398,-592.164754,9548.656652
1062.140734,842.705048,-0.000000,9252.574275
1062.141050,383.047749,148.041188,9104.533087
1062.141366,0.000000,296.082377,9474.636058
1062.141682,0.000000,-148.041188,9770.718434
1062.141997,0.000000,-740.205942,10066.800811
1062.142313,536.266849,-444.123565,9992.780217
1062.142629,0.000000,-518.144159,9178.553681
1062.142945,306.438199,-148.041188,9326.594869
1062.143260,766.095498,-592.164754,9326.594869
1062.143576,689.485948,-444.123565,9400.615463
1062.143892,383.047749,-222.061783,9474.636058
1062.144208,153.219100,-592.164754,9474.636058
1062.144524,306.438199,-962.267725,9992.780217
1062.144839,306.438199,-962.267725,9918.759623
1062.145155,153.219100,-888.247130,9178.553681
1062.145471,459.657299,-740.205942,9400.615463
1062.145787,766.095498,-740.205942,8660.409521
1062.146102,1149.143247,-148.041188,8734.430116
1062.146418,689.485948,-444.123565,8808.450710
1062.146734,766.095498,-74.020594,8438.347739
1062.147050,153.219100,-296.082377,9178.553681
1062.147365,383.047749,-1184.329507,9474.636058
1062.147681,459.657299,-1110.308913,9844.739029
1062.147997,153.219100,-814.226536,9696.697840
1062.148313,229.828649,-592.164754,9252.574275
1062.148629,766.095498,-518.144159,9104.533087
1062.148944,459.657299,-814.226536,9326.594869
1062.149260,612.876398,-666.185348,9474.636058
1062.149576,0.000000,-592.164754,9548.656652
1062.149892,306.438199,-962.267725,9992.780217
1062.150207,536.266849,-888.247130,9474.636058
1062.150523,536.266849,-296.082377,9030.512492
1062.150839,1072.533697,-370.102971,9104.533087
1062.151155,766.095498,-148.041188,8882.471304
1062.151470,1149.143247,222.061783,9104.533087
1062.151786,1225.752797,-296.082377,8956.491898
1062.152102,766.095498,-0.000000,8882.471304
1062.152418,536.266849,-0.000000,9326.594869
1062.152734,919.314598,-666.185348,10214.842000
1062.153049,995.924147,-592.164754,10140.821405
1062.153365,536.266849,-0.000000,9474.636058
1062.153681,612.876398,-148.041188,9400.615463
1062.153997,612.876398,-592.164754,9992.780217
1062.154312,995.924147,-148.041188,9770.718434
1062.154628,459.657299,222.061783,9474.636058
1062.154944,383.047749,-0.000000,9696.697840
1062.155260,229.828649,-370.102971,10214.842000
1062.155576,459.657299,-518.144159,9992.780217
1062.155891,612.876398,-148.041188,9474.636058
1062.156207,612.876398,370.102971,9326.594869
1062.156523,766.095498,222.061783,9030.512492
1062.156839,1532.190996,370.102971,9030.512492
1062.157154,1225.752797,666.185348,9252.574275
1062.157470,612.876398,888.247130,9104.533087
1062.157786,229.828649,370.102971,9326.594869
1062.158102,0.000000,-74.020594,9696.697840
1062.158417,383.047749,222.061783,9844.739029
1062.158733,153.219100,-222.061783,9252.574275
1062.159049,-306.438199,222.061783,9252.574275
1062.159365,0.000000,-74.020594,9696.697840
1062.159681,76.609550,-0.000000,9770.718434
1062.159996,0.000000,222.061783,9548.656652
1062.160312,-76.609550,962.267725,9030.512492
1062.160628,-229.828649,370.102971,9622.677246
1062.160944,-229.828649,148.041188,10140.821405
1062.161259,0.000000,-222.061783,9770.718434
1062.161575,-383.047749,-0.000000,9252.574275
1062.161891,-306.438199,296.082377,9400.615463
1062.162207,76.609550,148.041188,9252.574275
1062.162523,536.266849,518.144159,9474.636058
1062.162838,383.047749,962.267725,8956.491898
1062.163154,0.000000,740.205942,9104.533087
1062.163470,-229.828649,-0.000000,9844.739029
1062.163786,76.609550,-518.144159,10362.883188
1062.164101,0.000000,-444.123565,9770.718434
1062.164417,153.219100,-148.041188,9474.636058
1062.164733,0.000000,-444.123565,9474.636058
1062.165049,383.047749,-592.164754,10066.800811
1062.165364,229.828649,-74.020594,9622.677246
1062.165680,229.828649,-0.000000,9474.636058
1062.165996,0.000000,-74.020594,9844.739029
1062.166312,229.828649,-296.082377,9992.780217
1062.166628,459.657299,-592.164754,9622.677246
1062.166943,689.485948,-444.123565,9104.533087
1062.167259,306.438199,-222.061783,9252.574275
1062.167575,919.314598,-814.226536,9474.636058
1062.167891,306.438199,-296.082377,8882.471304
1062.168206,612.876398,-0.000000,9252.574275
1062.168522,306.438199,-0.000000,9104.533087
1062.168838,229.828649,-444.123565,9548.656652
1062.169154,306.438199,-444.123565,9770.718434
1062.169470,536.266849,-1258.350101,9474.636058
1062.169785,306.438199,-740.205942,9178.553681
1062.170101,383.047749,-888.247130,9326.594869
1062.170417,612.876398,-740.205942,9252.574275
1062.170733,1072.533697,-444.123565,9474.636058
1062.171048,842.705048,222.061783,9400.615463
1062.171364,612.876398,-74.020594,9326.594869
1062.171680,612.876398,-666.185348,9770.718434
1062.171996,766.095498,-740.205942,9696.697840
1062.172311,689.485948,-222.061783,9326.594869
1062.172627,1072.533697,-592.164754,8808.450710
1062.172943,995.924147,-222.061783,9400.615463
1062.173259,1149.143247,-296.082377,9326.594869
1062.173575,1225.752797,222.061783,8512.368333
1062.173890,842.705048,222.061783,8808.450710
1062.174206,306.438199,-444.123565,9104.533087
1062.174522,229.828649,-1036.288319,9548.656652
1062.174838,383.047749,-1184.329507,10214.842000
1062.175153,153.219100,-1184.329507,9696.697840
1062.175469,306.438199,-1258.350101,9474.636058
1062.175785,842.705048,-666.185348,10214.842000
1062.176101,766.095498,-370.102971,9400.615463
1062.176416,459.657299,-444.123565,9400.615463
1062.176732,306.438199,-74.020594,9770.718434
1062.177048,842.705048,-814.226536,9696.697840
1062.177364,459.657299,-740.205942,9992.780217
1062.177680,1302.362347,-296.082377,9474.636058
1062.177995,1149.143247,-518.144159,8660.409521
1062.178311,1225.752797,-74.020594,9400.615463
1062.178627,1532.190996,-74.020594,9252.574275
1062.178943,1072.533697,296.082377,9252.574275
1062.179258,766.095498,666.185348,8808.450710
1062.179574,0.000000,148.041188,9400.615463
1062.179890,229.828649,-666.185348,9918.759623
1062.180206,0.000000,-888.247130,9992.780217
1062.180522,-612.876398,-888.247130,10807.006753
1062.180837,-383.047749,-518.144159,10436.903782
1062.181153,-153.219100,-444.123565,9844.739029
1062.181469,459.657299,-148.041188,9918.759623
1062.181785,0.000000,518.144159,9548.656652
1062.182100,153.219100,814.226536,9326.594869
1062.182416,383.047749,-0.000000,9992.780217
1062.182732,459.657299,-814.226536,9918.759623
1062.183048,689.485948,-370.102971,9770.718434
1062.183363,536.266849,148.041188,8734.430116
1062.183679,1072.533697,444.123565,9104.533087
1062.183995,1072.533697,814.226536,8512.368333
1062.184311,612.876398,1332.370696,8956.491898
1062.184627,76.609550,1776.494261,8586.388927
