#time,accel_x,accel_y,accel_z
1030.794956,-766.095498,1258.350101,9400.615463
1030.795272,-766.095498,1184.329507,9474.636058
1030.795588,-383.047749,888.247130,9474.636058
1030.795904,-766.095498,1406.391290,9474.636058
1030.796220,-1072.533697,1406.391290,9326.594869
1030.796536,-842.705048,666.185348,9474.636058
1030.796852,-383.047749,962.267725,10066.800811
1030.797168,-612.876398,1332.370696,9992.780217
1030.797484,-689.485948,962.267725,9696.697840
1030.797800,-306.438199,1184.329507,9696.697840
1030.798116,-383.047749,1480.411884,9696.697840
1030.798432,-306.438199,1184.329507,9770.718434
1030.798748,0.000000,1776.494261,9844.739029
1030.799064,-229.828649,2220.617826,9696.697840
1030.799380,-306.438199,1850.514855,9474.636058
1030.799696,-383.047749,1998.556043,9252.574275
1030.800012,-536.266849,1776.494261,9104.533087
1030.800328,-995.924147,2072.576638,9400.615463
1030.800644,-1149.143247,2072.576638,9400.615463
1030.800960,-1608.800546,1924.535449,9548.656652
1030.801276,-2145.067394,1924.535449,9474.636058
1030.801592,-2374.896044,1776.494261,10066.800811
1030.801908,-2911.162892,1850.514855,9770.718434
1030.802224,-3064.381992,2146.597232,9844.739029
1030.802540,-3064.381992,2294.638420,9696.697840
1030.802856,-2681.334243,2368.659014,9622.677246
1030.803172,-2834.553343,2442.679609,9548.656652
1030.803488,-3217.601092,2516.700203,9474.636058
1030.803804,-3064.381992,2664.741391,9400.615463
1030.804121,-2757.943793,2590.720797,9400.615463
1030.804437,-2911.162892,2368.659014,9326.594869
1030.804753,-2834.553343,2368.659014,9474.636058
1030.805069,-2451.505594,2368.659014,9030.512492
1030.805385,-2374.896044,2516.700203,9252.574275
1030.805701,-1915.238745,2886.803174,9178.553681
1030.806017,-1608.800546,2886.803174,9178.553681
1030.806333,-2068.457845,2960.823768,8586.388927
1030.806649,-1991.848295,2738.761985,9104.533087
1030.806965,-2068.457845,3108.864956,8734.430116
1030.807281,-2298.286494,3182.885551,8808.450710
1030.807597,-2374.896044,2886.803174,9326.594869
1030.807913,-2987.772442,2738.761985,9548.656652
1030.808229,-2757.943793,2368.659014,9548.656652
1030.808545,-3064.381992,2220.617826,9844.739029
1030.808861,-2987.772442,2368.659014,9992.780217
1030.809177,-3140.991542,2220.617826,9844.739029
1030.809493,-2834.553343,2220.617826,9918.759623
1030.809809,-2834.553343,2146.597232,9770.718434
1030.810125,-2451.505594,2738.761985,9548.656652
1030.810441,-2298.286494,3034.844362,9474.636058
1030.810757,-2451.505594,3182.885551,8956.491898
1030.811073,-2221.676944,3552.988522,9030.512492
1030.811389,-1685.410096,3627.009116,8882.471304
1030.811705,-1991.848295,3330.926739,9252.574275
1030.812021,-1991.848295,3034.844362,9400.615463
1030.812337,-2298.286494,2294.638420,9622.677246
1030.812653,-2221.676944,2146.597232,10066.800811
1030.812969,-2374.896044,1776.494261,10584.944971
1030.813286,-2221.676944,1628.453072,10584.944971
1030.813602,-1532.190996,1480.411884,10362.883188
1030.813918,-1608.800546,1406.391290,10214.842000
1030.814234,-1072.533697,1258.350101,10436.903782
1030.814550,-306.438199,1406.391290,10140.821405
1030.814866,76.609550,1554.432478,9696.697840
1030.815182,153.219100,1850.514855,9696.697840
1030.815498,612.876398,1850.514855,9474.636058
1030.815814,766.095498,1258.350101,9474.636058
1030.816130,1072.533697,1776.494261,9104.533087
1030.816446,383.047749,1776.494261,8808.450710
1030.816762,306.438199,1998.556043,8882.471304
1030.817078,0.000000,2146.597232,8734.430116
1030.817394,-842.705048,1924.535449,8882.471304
1030.817710,-1532.190996,1184.329507,9400.615463
1030.818026,-2374.896044,592.164754,9844.739029
1030.818342,-2681.334243,-740.205942,10140.821405
1030.818658,-2681.334243,-1998.556043,10732.986159
1030.818974,-2757.943793,-2886.803174,11399.171507
1030.819290,-2374.896044,-2886.803174,11473.192101
1030.819606,-1991.848295,-2590.720797,10881.027347
1030.819922,-1838.629195,-1776.494261,10584.944971
1030.820238,-612.876398,-888.247130,9918.759623
1030.820554,76.609550,296.082377,8734.430116
1030.820870,612.876398,1998.556043,7994.224174
1030.821186,995.924147,2294.638420,7031.956449
1030.821502,1072.533697,2442.679609,6365.771101
1030.821818,536.266849,2368.659014,6735.874072
1030.822133,153.219100,2220.617826,7402.059420
1030.822449,-153.219100,1036.288319,7994.224174
1030.822765,-1532.190996,-148.041188,9030.512492
1030.823081,-2528.115143,-1480.411884,10140.821405
1030.823397,-3600.648841,-2664.741391,10807.006753
1030.823713,-3830.477490,-3256.906145,11769.274478
1030.824029,-3983.696590,-3478.967927,11769.274478
1030.824344,-3217.601092,-2590.720797,11621.233289
1030.824660,-2298.286494,-1628.453072,10510.924376
1030.824976,-1302.362347,-148.041188,9326.594869
1030.825292,0.000000,814.226536,7994.224174
1030.825608,612.876398,2146.597232,6661.853478
1030.825924,1072.533697,2664.741391,6439.791695
1030.826240,1685.410096,2886.803174,6513.812290
1030.826555,1685.410096,2368.659014,7254.018232
1030.826871,1149.143247,1258.350101,7624.121203
1030.827187,689.485948,-74.020594,8586.388927
1030.827503,-306.438199,-1110.308913,9770.718434
1030.827819,-766.095498,-1628.453072,10955.047942
1030.828135,-1225.752797,-1776.494261,11473.192101
1030.828450,-1149.143247,-1184.329507,11843.295072
1030.828766,-1225.752797,-296.082377,10658.965565
1030.829082,-842.705048,296.082377,9992.780217
1030.829398,-612.876398,740.205942,9326.594869
1030.829714,0.000000,1924.535449,8956.491898
1030.830030,383.047749,2220.617826,8438.347739
1030.830346,383.047749,2220.617826,8216.285956
1030.830661,536.266849,1850.514855,8882.471304
1030.830977,536.266849,814.226536,9326.594869
1030.831293,306.438199,-0.000000,9696.697840
1030.831609,459.657299,-296.082377,10658.965565
1030.831925,995.924147,-1036.288319,11473.192101
1030.832241,536.266849,222.061783,11029.068536
1030.832557,536.266849,1036.288319,10288.862594
1030.832872,689.485948,1924.535449,10214.842000
1030.833188,1072.533697,1998.556043,9178.553681
1030.833504,1455.581446,2590.720797,8882.471304
1030.833820,1685.410096,2368.659014,9030.512492
1030.834136,1838.629195,1628.453072,9326.594869
1030.834452,1915.238745,592.164754,9400.615463
1030.834768,1838.629195,-0.000000,9770.718434
1030.835083,1378.971896,-444.123565,10510.924376
1030.835399,1685.410096,296.082377,10584.944971
1030.835715,1685.410096,666.185348,10140.821405
1030.836031,1455.581446,1480.411884,9918.759623
1030.836347,1532.190996,2368.659014,9770.718434
1030.836663,1455.581446,2516.700203,9474.636058
1030.836979,1532.190996,2738.761985,9326.594869
1030.837294,1225.752797,1554.432478,9400.615463
1030.837610,842.705048,518.144159,9696.697840
1030.837926,536.266849,-518.144159,10066.800811
1030.838242,612.876398,-1702.473667,10658.965565
1030.838558,689.485948,-2220.617826,10732.986159
1030.838874,842.705048,-1406.391290,10362.883188
1030.839190,919.314598,-962.267725,9992.780217
1030.839505,1149.143247,-0.000000,9844.739029
1030.839821,1378.971896,1110.308913,9104.533087
1030.840137,1225.752797,2294.638420,8290.306550
1030.840453,1455.581446,2294.638420,7994.224174
1030.840769,995.924147,1406.391290,8068.244768
1030.841085,766.095498,296.082377,8660.409521
1030.841401,-459.657299,-1406.391290,9178.553681
1030.841716,-1072.533697,-2960.823768,10584.944971
1030.842032,-842.705048,-3330.926739,10881.027347
1030.842348,-1532.190996,-2960.823768,10288.862594
1030.842664,-1762.019645,-2590.720797,10066.800811
1030.842980,-1302.362347,-1628.453072,9696.697840
1030.843296,-919.314598,-740.205942,9474.636058
1030.843612,-229.828649,-148.041188,9178.553681
1030.843927,229.828649,666.185348,8512.368333
1030.844243,536.266849,222.061783,7994.224174
1030.844559,459.657299,-814.226536,7920.203579
1030.844875,536.266849,-1628.453072,8512.368333
1030.845191,459.657299,-2516.700203,9030.512492
1030.845507,612.876398,-2368.659014,9104.533087
1030.845823,-229.828649,-1998.556043,9474.636058
1030.846138,-612.876398,-1332.370696,9104.533087
1030.846454,-842.705048,-666.185348,9326.594869
1030.846770,-612.876398,-370.102971,9474.636058
1030.847086,76.609550,-74.020594,9474.636058
1030.847402,76.609550,-0.000000,8734.430116
1030.847718,229.828649,-518.144159,8290.306550
1030.848034,0.000000,-1258.350101,9104.533087
1030.848349,153.219100,-2590.720797,9696.697840
1030.848665,229.828649,-2442.679609,9844.739029
1030.848981,383.047749,-2072.576638,9474.636058
1030.849297,689.485948,-1184.329507,9030.512492
1030.849613,459.657299,-296.082377,8734.430116
1030.849929,306.438199,518.144159,8734.430116
1030.850245,842.705048,888.247130,9030.512492
1030.850560,1072.533697,1850.514855,8660.409521
1030.850876,689.485948,1406.391290,8808.450710
1030.851192,459.657299,222.061783,8808.450710
1030.851508,153.219100,-1332.370696,9696.697840
1030.851824,766.095498,-2590.720797,10584.944971
1030.852140,766.095498,-2738.761985,11325.150913
1030.852456,689.485948,-1924.535449,10881.027347
1030.852771,842.705048,-962.267725,10140.821405
1030.853087,536.266849,444.123565,9992.780217
1030.853403,1302.362347,1406.391290,9400.615463
1030.853719,1762.019645,2516.700203,8956.491898
1030.854035,1838.629195,2886.803174,8364.327145
1030.854351,1685.410096,2516.700203,8882.471304
1030.854666,1685.410096,962.267725,9030.512492
1030.854982,995.924147,-444.123565,9548.656652
1030.855298,766.095498,-1332.370696,10955.047942
1030.855614,536.266849,-1850.514855,11103.089130
1030.855930,766.095498,-1258.350101,10881.027347
1030.856246,-383.047749,-444.123565,10955.047942
1030.856562,-153.219100,370.102971,10955.047942
1030.856877,0.000000,1036.288319,10140.821405
1030.857193,383.047749,2146.597232,9844.739029
1030.857509,919.314598,2146.597232,9252.574275
1030.857825,1225.752797,1554.432478,9030.512492
1030.858141,1532.190996,888.247130,9030.512492
1030.858457,1302.362347,-74.020594,9474.636058
1030.858773,1532.190996,-740.205942,10066.800811
1030.859088,995.924147,-740.205942,9622.677246
1030.859404,612.876398,296.082377,9400.615463
1030.859720,0.000000,518.144159,9474.636058
1030.860036,-229.828649,814.226536,9844.739029
1030.860352,-536.266849,1850.514855,9474.636058
1030.860668,-459.657299,2368.659014,9252.574275
1030.860984,0.000000,2220.617826,8586.388927
1030.861299,-383.047749,592.164754,8956.491898
1030.861615,-536.266849,-444.123565,9696.697840
1030.861931,-229.828649,-2220.617826,10066.800811
1030.862247,-689.485948,-2442.679609,10362.883188
1030.862563,-766.095498,-1850.514855,9992.780217
1030.862879,-919.314598,-1406.391290,9622.677246
1030.863195,-1072.533697,-74.020594,9474.636058
1030.863510,-459.657299,814.226536,9400.615463
1030.863826,-689.485948,1850.514855,8734.430116
1030.864142,0.000000,2442.679609,8512.368333
1030.864458,536.266849,1702.473667,7994.224174
1030.864774,536.266849,444.123565,8290.306550
1030.865090,229.828649,-1036.288319,8808.450710
1030.865406,153.219100,-2220.617826,9474.636058
1030.865721,153.219100,-2368.659014,9992.780217
1030.866037,0.000000,-1924.535449,9696.697840
1030.866353,-383.047749,-1406.391290,9770.718434
1030.866669,-383.047749,-518.144159,9918.759623
1030.866985,-306.438199,518.144159,9178.553681
1030.867301,76.609550,1406.391290,8808.450710
1030.867617,689.485948,1480.411884,8734.430116
1030.867932,995.924147,740.205942,8290.306550
1030.868248,995.924147,-518.144159,8734.430116
1030.868564,612.876398,-1628.453072,9474.636058
1030.868880,612.876398,-2664.741391,10214.842000
1030.869196,536.266849,-2368.659014,10362.883188
1030.869512,0.000000,-1628.453072,9696.697840
1030.869828,-459.657299,-814.226536,10066.800811
1030.870143,-383.047749,-148.041188,10214.842000
1030.870459,306.438199,592.164754,9622.677246
1030.870775,766.095498,1184.329507,9400.615463
1030.871091,2221.676944,1258.350101,8956.491898
1030.871407,1915.238745,-0.000000,8586.388927
1030.871723,1838.629195,-962.267725,9178.553681
1030.872039,2221.676944,-2072.576638,9770.718434
1030.872354,2298.286494,-2220.617826,10584.944971
1030.872670,2298.286494,-1702.473667,9918.759623
1030.872986,995.924147,-666.185348,9400.615463
1030.873302,689.485948,-148.041188,9844.739029
1030.873618,459.657299,592.164754,9696.697840
1030.873934,612.876398,1406.391290,9696.697840
1030.874250,1072.533697,1628.453072,9548.656652
1030.874565,919.314598,1036.288319,9030.512492
1030.874881,766.095498,-296.082377,9252.574275
1030.875197,842.705048,-1702.473667,10214.842000
1030.875513,842.705048,-2516.700203,10362.883188
1030.875829,459.657299,-2072.576638,10732.986159
1030.876145,0.000000,-1850.514855,9918.759623
1030.876461,0.000000,-666.185348,10214.842000
1030.876776,0.000000,-0.000000,9696.697840
1030.877092,0.000000,1110.308913,9178.553681
1030.877408,0.000000,1628.453072,9178.553681
1030.877724,919.314598,1406.391290,8660.409521
1030.878040,1225.752797,666.185348,8290.306550
1030.878356,995.924147,-0.000000,8882.471304
1030.878672,919.314598,-1480.411884,9548.656652
1030.878987,1072.533697,-1924.535449,9474.636058
1030.879303,76.609550,-1332.370696,10288.862594
1030.879619,-459.657299,-814.226536,9844.739029
1030.879935,-995.924147,-222.061783,10066.800811
1030.880251,-1225.752797,-0.000000,9844.739029
1030.880567,-995.924147,370.102971,9474.636058
1030.880882,-536.266849,1184.329507,9400.615463
1030.881198,-153.219100,666.185348,8808.450710
1030.881514,153.219100,148.041188,8586.388927
1030.881830,842.705048,-444.123565,9252.574275
1030.882146,842.705048,-1332.370696,9696.697840
1030.882462,919.314598,-1554.432478,9474.636058
1030.882778,229.828649,-1332.370696,9474.636058
1030.883093,-153.219100,-888.247130,9474.636058
1030.883409,-153.219100,-0.000000,9252.574275
1030.883725,-766.095498,888.247130,9252.574275
1030.884041,0.000000,1406.391290,9252.574275
1030.884357,306.438199,1480.411884,9030.512492
1030.884673,689.485948,1258.350101,8586.388927
1030.884989,842.705048,222.061783,8808.450710
1030.885304,842.705048,-1036.288319,9326.594869
1030.885620,1225.752797,-1776.494261,9696.697840
1030.885936,612.876398,-1924.535449,10140.821405
1030.886252,383.047749,-1406.391290,9844.739029
1030.886568,0.000000,-814.226536,10066.800811
1030.886884,-229.828649,296.082377,9474.636058
1030.887200,0.000000,888.247130,9474.636058
1030.887515,153.219100,1702.473667,9252.574275
1030.887831,1072.533697,1850.514855,8956.491898
1030.888147,1225.752797,1258.350101,8586.388927
1030.888463,1225.752797,-222.061783,8956.491898
1030.888779,1225.752797,-1332.370696,9844.739029
1030.889095,1532.190996,-1776.494261,9918.759623
1030.889411,1072.533697,-1702.473667,10362.883188
1030.889726,306.438199,-962.267725,10066.800811
1030.890042,0.000000,-0.000000,10140.821405
1030.890358,-459.657299,222.061783,9918.759623
1030.890674,76.609550,888.247130,10066.800811
1030.890990,612.876398,1554.432478,9548.656652
1030.891306,1608.800546,1184.329507,9104.533087
1030.891622,1685.410096,370.102971,8586.388927
1030.891937,1608.800546,-666.185348,9622.677246
1030.892253,1685.410096,-1480.411884,9696.697840
1030.892569,2068.457845,-1776.494261,10214.842000
1030.892885,1072.533697,-1110.308913,9622.677246
1030.893201,306.438199,-592.164754,9696.697840
1030.893517,76.609550,-0.000000,10066.800811
1030.893833,-153.219100,740.205942,9474.636058
1030.894148,-306.438199,1036.288319,9770.718434
1030.894464,229.828649,1258.350101,9252.574275
1030.894780,842.705048,814.226536,9178.553681
1030.895096,1072.533697,-74.020594,9104.533087
1030.895412,919.314598,-1184.329507,9474.636058
1030.895728,689.485948,-1776.494261,9992.780217
1030.896044,766.095498,-1850.514855,10066.800811
1030.896359,153.219100,-1110.308913,9770.718434
1030.896675,-536.266849,-370.102971,9622.677246
1030.896991,-536.266849,222.061783,9696.697840
1030.897307,-689.485948,740.205942,9474.636058
1030.897623,-536.266849,1480.411884,9252.574275
1030.897939,459.657299,1628.453072,8808.450710
1030.898255,612.876398,592.164754,8290.306550
1030.898570,919.314598,-518.144159,9030.512492
1030.898886,1149.143247,-1554.432478,9326.594869
1030.899202,919.314598,-2072.576638,9696.697840
1030.899518,612.876398,-1628.453072,9992.780217
1030.899834,0.000000,-962.267725,9400.615463
1030.900150,-459.657299,-0.000000,9622.677246
1030.900466,-383.047749,740.205942,9400.615463
1030.900781,0.000000,1184.329507,9030.512492
1030.901097,153.219100,1554.432478,8808.450710
1030.901413,842.705048,1184.329507,9030.512492
1030.901729,842.705048,74.020594,8660.409521
1030.902045,919.314598,-1036.288319,9326.594869
1030.902361,459.657299,-1924.535449,9770.718434
1030.902677,459.657299,-2294.638420,10066.800811
1030.902992,536.266849,-1332.370696,9770.718434
1030.903308,-229.828649,-222.061783,9844.739029
1030.903624,-919.314598,222.061783,9844.739029
1030.903940,-689.485948,518.144159,9548.656652
1030.904256,0.000000,1036.288319,9474.636058
1030.904572,919.314598,1332.370696,9548.656652
1030.904888,842.705048,1036.288319,8438.347739
1030.905203,1302.362347,-0.000000,8734.430116
1030.905519,1532.190996,-962.267725,9400.615463
1030.905835,1608.800546,-1776.494261,9622.677246
1030.906151,1302.362347,-1480.411884,9992.780217
1030.906467,766.095498,-444.123565,9992.780217
1030.906783,0.000000,-74.020594,9400.615463
1030.907098,-459.657299,592.164754,9844.739029
1030.907414,-306.438199,1036.288319,9622.677246
1030.907730,153.219100,1480.411884,9548.656652
1030.908046,459.657299,1702.473667,8882.471304
1030.908362,612.876398,666.185348,8734.430116
1030.908678,919.314598,-444.123565,9252.574275
1030.908994,919.314598,-1332.370696,9696.697840
1030.909309,383.047749,-1998.556043,10288.862594
1030.909625,612.876398,-1332.370696,10362.883188
1030.909941,76.609550,-518.144159,9918.759623
1030.910257,-612.876398,222.061783,9622.677246
1030.910573,-689.485948,666.185348,9844.739029
1030.910889,-383.047749,1332.370696,9474.636058
1030.911205,153.219100,2072.576638,9326.594869
1030.911520,842.705048,1406.391290,8734.430116
1030.911836,1072.533697,-0.000000,8734.430116
1030.912152,1072.533697,-814.226536,9178.553681
1030.912468,1225.752797,-1776.494261,9400.615463
1030.912784,919.314598,-2294.638420,10288.862594
1030.913100,153.219100,-1258.350101,9844.739029
1030.913416,-536.266849,-592.164754,9622.677246
1030.913731,-689.485948,74.020594,9770.718434
1030.914047,-536.266849,370.102971,9622.677246
1030.914363,-689.485948,1184.329507,9474.636058
1030.914679,153.219100,1332.370696,9252.574275
1030.914995,459.657299,370.102971,9030.512492
1030.915311,766.095498,-592.164754,9030.512492
1030.915627,1072.533697,-1554.432478,9252.574275
1030.915942,1225.752797,-2368.659014,9696.697840
1030.916258,919.314598,-2072.576638,9992.780217
1030.916574,536.266849,-1184.329507,9696.697840
1030.916890,-76.609550,-296.082377,9326.594869
1030.917206,-459.657299,222.061783,9400.615463
1030.917522,76.609550,740.205942,9252.574275
1030.917838,612.876398,962.267725,8808.450710
1030.918153,1149.143247,518.144159,9030.512492
1030.918469,1455.581446,-296.082377,8512.368333
1030.918785,1532.190996,-1480.411884,8956.491898
1030.919101,1378.971896,-2220.617826,9326.594869
1030.919417,1225.752797,-2738.761985,9844.739029
1030.919733,842.705048,-2072.576638,10140.821405
1030.920049,229.828649,-962.267725,9622.677246
1030.920364,-229.828649,-370.102971,9474.636058
1030.920680,-306.438199,518.144159,9770.718434
1030.920996,76.609550,888.247130,9030.512492
1030.921312,919.314598,1332.370696,9030.512492
1030.921628,1072.533697,740.205942,8882.471304
1030.921944,1378.971896,-148.041188,8586.388927
1030.922260,1685.410096,-1332.370696,9030.512492
1030.922576,1608.800546,-2072.576638,9844.739029
1030.922891,1149.143247,-2294.638420,10214.842000
1030.923207,536.266849,-1702.473667,9622.677246
1030.923523,383.047749,-444.123565,9622.677246
1030.923839,0.000000,-370.102971,9696.697840
1030.924155,0.000000,1036.288319,9548.656652
1030.924471,0.000000,1258.350101,9326.594869
1030.924787,1072.533697,1258.350101,9104.533087
1030.925103,1072.533697,1110.308913,8882.471304
1030.925419,1532.190996,-296.082377,9104.533087
1030.925735,1378.971896,-1110.308913,9178.553681
1030.926050,1225.752797,-1776.494261,9770.718434
1030.926366,995.924147,-1702.473667,9918.759623
1030.926682,689.485948,-962.267725,9622.677246
1030.926998,-306.438199,-148.041188,9622.677246
1030.927314,-536.266849,1110.308913,9622.677246
1030.927630,-536.266849,814.226536,9770.718434
1030.927946,689.485948,1332.370696,9770.718434
1030.928262,0.000000,2146.597232,8660.409521
1030.928578,689.485948,296.082377,8808.450710
1030.928893,1072.533697,-148.041188,9400.615463
1030.929209,766.095498,-1480.411884,9844.739029
1030.929525,383.047749,-1628.453072,10140.821405
1030.929841,306.438199,-1258.350101,10362.883188
1030.930157,-459.657299,-444.123565,10288.862594
1030.930473,-689.485948,666.185348,9992.780217
1030.930789,-919.314598,1110.308913,9474.636058
1030.931105,-536.266849,1406.391290,9918.759623
1030.931421,76.609550,1924.535449,9548.656652
1030.931737,689.485948,1406.391290,8660.409521
1030.932052,919.314598,370.102971,8956.491898
1030.932368,766.095498,-740.205942,9622.677246
1030.932684,995.924147,-1554.432478,10066.800811
1030.933000,995.924147,-1480.411884,10214.842000
1030.933316,842.705048,-1036.288319,9770.718434
1030.933632,0.000000,-0.000000,9622.677246
1030.933948,-1072.533697,740.205942,9474.636058
1030.934264,-306.438199,962.267725,9474.636058
1030.934580,-229.828649,1406.391290,9548.656652
1030.934896,689.485948,1702.473667,9326.594869
1030.935211,919.314598,1036.288319,8364.327145
1030.935527,1149.143247,-148.041188,9252.574275
1030.935843,1225.752797,-1110.308913,9622.677246
1030.936159,1302.362347,-1628.453072,9622.677246
1030.936475,919.314598,-1184.329507,10214.842000
1030.936791,459.657299,-962.267725,9696.697840
1030.937107,-459.657299,-296.082377,9474.636058
1030.937423,-459.657299,592.164754,9770.718434
1030.937739,0.000000,814.226536,9178.553681
1030.938054,536.266849,962.267725,9622.677246
1030.938370,1225.752797,962.267725,8882.471304
1030.938686,1608.800546,-0.000000,8364.327145
1030.939002,1455.581446,-592.164754,8808.450710
1030.939318,1455.581446,-1258.350101,9548.656652
1030.939634,1762.019645,-1554.432478,9474.636058
1030.939950,1455.581446,-888.247130,9770.718434
1030.940266,459.657299,-370.102971,9400.615463
1030.940582,-306.438199,370.102971,9326.594869
1030.940898,-383.047749,148.041188,9622.677246
1030.941213,0.000000,444.123565,9622.677246
1030.941529,383.047749,1036.288319,9104.533087
1030.941845,306.438199,888.247130,8808.450710
1030.942161,612.876398,-296.082377,8734.430116
1030.942477,1072.533697,-1184.329507,9400.615463
1030.942793,536.266849,-2368.659014,9770.718434
1030.943109,1225.752797,-2220.617826,10807.006753
1030.943425,229.828649,-1702.473667,9770.718434
1030.943741,-612.876398,-1036.288319,9326.594869
1030.944056,-1149.143247,-0.000000,9548.656652
1030.944372,-536.266849,296.082377,9400.615463
1030.944688,0.000000,888.247130,8956.491898
1030.945004,76.609550,962.267725,9178.553681
1030.945320,383.047749,370.102971,8660.409521
1030.945636,995.924147,-814.226536,8734.430116
1030.945952,766.095498,-1554.432478,9400.615463
1030.946268,919.314598,-2072.576638,9992.780217
1030.946584,536.266849,-1776.494261,10362.883188
1030.946900,0.000000,-1036.288319,9844.739029
1030.947215,-766.095498,-296.082377,9770.718434
1030.947531,-919.314598,370.102971,9770.718434
1030.947847,-766.095498,1184.329507,9844.739029
1030.948163,76.609550,1480.411884,9400.615463
1030.948479,689.485948,1406.391290,8882.471304
1030.948795,766.095498,666.185348,8734.430116
1030.949111,1149.143247,-740.205942,9104.533087
1030.949427,536.266849,-1776.494261,9548.656652
1030.949743,689.485948,-2072.576638,10362.883188
1030.950059,229.828649,-1406.391290,10362.883188
1030.950374,0.000000,-888.247130,9992.780217
1030.950690,-306.438199,-296.082377,9918.759623
1030.951006,-306.438199,444.123565,9696.697840
1030.951322,0.000000,666.185348,9400.615463
1030.951638,689.485948,1258.350101,9326.594869
1030.951954,689.485948,666.185348,8956.491898
1030.952270,1378.971896,-0.000000,8660.409521
1030.952586,1608.800546,-740.205942,9400.615463
1030.952902,1608.800546,-1628.453072,9696.697840
1030.953217,1532.190996,-1776.494261,10214.842000
1030.953533,1072.533697,-1258.350101,9844.739029
1030.953849,306.438199,-666.185348,9474.636058
1030.954165,0.000000,-0.000000,9844.739029
1030.954481,0.000000,444.123565,9918.759623
1030.954797,383.047749,962.267725,9326.594869
1030.955113,995.924147,1480.411884,9104.533087
1030.955429,919.314598,1110.308913,8808.450710
1030.955745,1532.190996,-222.061783,9030.512492
1030.956061,1302.362347,-1110.308913,9474.636058
1030.956376,1149.143247,-1924.535449,9844.739029
1030.956692,1149.143247,-2146.597232,9918.759623
1030.957008,612.876398,-1406.391290,9622.677246
1030.957324,-459.657299,-444.123565,9548.656652
1030.957640,-536.266849,370.102971,9992.780217
1030.957956,0.000000,814.226536,9622.677246
1030.958272,229.828649,1406.391290,9474.636058
1030.958588,689.485948,1554.432478,8586.388927
1030.958904,1072.533697,666.185348,8586.388927
1030.959219,1149.143247,-370.102971,8660.409521
1030.959535,1072.533697,-1110.308913,9400.615463
1030.959851,1455.581446,-1850.514855,9844.739029
1030.960167,612.876398,-1702.473667,9696.697840
1030.960483,153.219100,-740.205942,9770.718434
1030.960799,-383.047749,-222.061783,9622.677246
1030.961115,-842.705048,444.123565,10066.800811
1030.961431,-766.095498,962.267725,9548.656652
1030.961747,0.000000,1924.535449,8882.471304
1030.962063,459.657299,1554.432478,8512.368333
1030.962378,842.705048,518.144159,8660.409521
1030.962694,995.924147,-222.061783,9400.615463
1030.963010,459.657299,-1480.411884,9474.636058
1030.963326,536.266849,-1776.494261,9918.759623
1030.963642,0.000000,-1406.391290,10066.800811
1030.963958,-766.095498,-444.123565,9844.739029
1030.964274,-1378.971896,518.144159,9992.780217
1030.964590,-919.314598,962.267725,9844.739029
1030.964906,-459.657299,1554.432478,9326.594869
1030.965222,153.219100,1480.411884,8956.491898
1030.965537,459.657299,740.205942,8808.450710
1030.965853,689.485948,-444.123565,9104.533087
1030.966169,842.705048,-1332.370696,9252.574275
1030.966485,995.924147,-1998.556043,9844.739029
1030.966801,612.876398,-1554.432478,10066.800811
1030.967117,459.657299,-740.205942,9844.739029
1030.967433,-612.876398,-666.185348,9844.739029
1030.967749,-919.314598,-0.000000,9770.718434
1030.968065,-459.657299,814.226536,9696.697840
1030.968380,76.609550,1332.370696,9400.615463
1030.968696,612.876398,1480.411884,8956.491898
1030.969012,1149.143247,518.144159,8586.388927
1030.969328,766.095498,-444.123565,9030.512492
1030.969644,842.705048,-1332.370696,9918.759623
1030.969960,995.924147,-1850.514855,10362.883188
1030.970276,1072.533697,-1184.329507,9770.718434
1030.970592,0.000000,-1258.350101,9918.759623
1030.970908,-536.266849,-370.102971,10140.821405
1030.971224,-536.266849,74.020594,9844.739029
1030.971539,76.609550,740.205942,9474.636058
1030.971855,995.924147,1258.350101,9326.594869
1030.972171,1378.971896,1258.350101,9030.512492
1030.972487,1838.629195,370.102971,8660.409521
1030.972803,1685.410096,-370.102971,8956.491898
1030.973119,1685.410096,-1480.411884,9696.697840
1030.973435,1762.019645,-1702.473667,9992.780217
1030.973751,1608.800546,-1184.329507,9770.718434
1030.974067,459.657299,-592.164754,9548.656652
1030.974382,0.000000,222.061783,10140.821405
1030.974698,-229.828649,740.205942,9770.718434
1030.975014,-153.219100,1628.453072,9474.636058
1030.975330,536.266849,1776.494261,8882.471304
1030.975646,1072.533697,962.267725,8734.430116
1030.975962,919.314598,-518.144159,9030.512492
1030.976278,1072.533697,-1406.391290,9696.697840
1030.976594,1149.143247,-2220.617826,9696.697840
1030.976910,842.705048,-1776.494261,9770.718434
1030.977226,153.219100,-962.267725,9474.636058
1030.977541,-383.047749,-518.144159,9548.656652
1030.977857,-612.876398,-74.020594,9844.739029
1030.978173,-383.047749,1036.288319,9918.759623
1030.978489,76.609550,1480.411884,9326.594869
1030.978805,536.266849,1332.370696,8734.430116
1030.979121,612.876398,444.123565,8512.368333
1030.979437,842.705048,-962.267725,8734.430116
1030.979753,536.266849,-1998.556043,9474.636058
1030.980069,536.266849,-2220.617826,9992.780217
1030.980385,612.876398,-1480.411884,9696.697840
1030.980700,76.609550,-518.144159,9400.615463
1030.981016,-459.657299,222.061783,9622.677246
1030.981332,-842.705048,518.144159,9548.656652
1030.981648,-536.266849,1110.308913,9400.615463
1030.981964,153.219100,1480.411884,9104.533087
1030.982280,0.000000,888.247130,9030.512492
1030.982596,383.047749,-0.000000,8882.471304
1030.982912,536.266849,-1036.288319,9178.553681
1030.983228,383.047749,-1776.494261,9696.697840
1030.983543,536.266849,-1776.494261,10362.883188
1030.983859,306.438199,-1184.329507,10140.821405
1030.984175,-76.609550,-592.164754,9252.574275
1030.984491,-766.095498,-74.020594,9770.718434
1030.984807,-536.266849,148.041188,9770.718434
1030.985123,0.000000,962.267725,9474.636058
1030.985439,842.705048,1110.308913,9178.553681
1030.985755,1455.581446,740.205942,8956.491898
1030.986071,1149.143247,-148.041188,8660.409521
1030.986387,1455.581446,-962.267725,9252.574275
1030.986702,1685.410096,-1776.494261,9770.718434
1030.987018,1532.190996,-1628.453072,9918.759623
1030.987334,612.876398,-740.205942,9844.739029
1030.987650,153.219100,-148.041188,9474.636058
1030.987966,0.000000,222.061783,10214.842000
1030.988282,0.000000,444.123565,9770.718434
1030.988598,76.609550,1110.308913,9474.636058
1030.988914,612.876398,962.267725,9474.636058
1030.989230,842.705048,592.164754,8882.471304
1030.989545,1378.971896,-518.144159,9104.533087
1030.989861,1149.143247,-1480.411884,9992.780217
1030.990177,1225.752797,-1998.556043,10362.883188
1030.990493,1225.752797,-1554.432478,10066.800811
1030.990809,459.657299,-666.185348,9770.718434
1030.991125,0.000000,-296.082377,9474.636058
1030.991441,0.000000,296.082377,10362.883188
1030.991757,306.438199,814.226536,9548.656652
1030.992073,1149.143247,1406.391290,9252.574275
1030.992389,1378.971896,1110.308913,8882.471304
1030.992704,1762.019645,-0.000000,8660.409521
1030.993020,1532.190996,-1036.288319,9400.615463
1030.993336,1455.581446,-1776.494261,9770.718434
1030.993652,1455.581446,-1850.514855,10140.821405
1030.993968,919.314598,-1184.329507,9770.718434
1030.994284,76.609550,-592.164754,9252.574275
1030.994600,-459.657299,-444.123565,9992.780217
1030.994916,-919.314598,370.102971,9918.759623
1030.995232,-229.828649,1110.308913,9252.574275
1030.995548,153.219100,1332.370696,9104.533087
1030.995863,229.828649,444.123565,8734.430116
1030.996179,229.828649,-518.144159,8660.409521
1030.996495,536.266849,-1184.329507,9252.574275
1030.996811,689.485948,-1998.556043,9696.697840
1030.997127,459.657299,-1702.473667,9918.759623
1030.997443,-229.828649,-814.226536,9474.636058
1030.997759,-766.095498,-222.061783,9400.615463
1030.998075,-1149.143247,296.082377,9548.656652
1030.998391,-612.876398,666.185348,9474.636058
1030.998706,-306.438199,1406.391290,9178.553681
1030.999022,229.828649,1406.391290,8882.471304
1030.999338,842.705048,444.123565,8586.388927
1030.999654,1072.533697,-148.041188,8882.471304
1030.999970,919.314598,-1110.308913,9326.594869
1031.000286,919.314598,-1406.391290,9918.759623
1031.000602,536.266849,-518.144159,9548.656652
1031.000918,-229.828649,-148.041188,9252.574275
1031.001234,-536.266849,-0.000000,9474.636058
1031.001550,-689.485948,296.082377,9918.759623
1031.001865,-612.876398,740.205942,9770.718434
1031.002181,-229.828649,1036.288319,9770.718434
1031.002497,612.876398,888.247130,9400.615463
1031.002813,383.047749,222.061783,9030.512492
1031.003129,919.314598,-592.164754,9326.594869
1031.003445,842.705048,-1184.329507,9844.739029
1031.003761,995.924147,-1480.411884,10288.862594
1031.004077,459.657299,-814.226536,9696.697840
1031.004393,153.219100,-370.102971,9474.636058
1031.004708,-153.219100,-222.061783,10066.800811
1031.005024,-229.828649,370.102971,9918.759623
1031.005340,383.047749,1184.329507,9918.759623
1031.005656,612.876398,1258.350101,9252.574275
1031.005972,919.314598,666.185348,8808.450710
1031.006288,1608.800546,-0.000000,9474.636058
1031.006604,1608.800546,-666.185348,9400.615463
1031.006920,1762.019645,-1480.411884,9474.636058
1031.007236,1378.971896,-1554.432478,10362.883188
1031.007552,842.705048,-518.144159,9622.677246
1031.007867,0.000000,-74.020594,9548.656652
1031.008183,-383.047749,222.061783,10214.842000
1031.008499,-383.047749,592.164754,9844.739029
1031.008815,-229.828649,962.267725,9992.780217
1031.009131,536.266849,1036.288319,9474.636058
1031.009447,459.657299,370.102971,8808.450710
1031.009763,612.876398,-592.164754,9548.656652
1031.010079,689.485948,-1258.350101,9770.718434
1031.010395,842.705048,-1554.432478,10066.800811
1031.010711,766.095498,-1332.370696,9844.739029
1031.011026,0.000000,-666.185348,9474.636058
1031.011342,-459.657299,-518.144159,9918.759623
1031.011658,-383.047749,222.061783,9474.636058
1031.011974,0.000000,888.247130,9474.636058
1031.012290,536.266849,1480.411884,9030.512492
1031.012606,995.924147,444.123565,8512.368333
1031.012922,1302.362347,-148.041188,8586.388927
1031.013238,1225.752797,-1332.370696,9252.574275
1031.013554,1149.143247,-1850.514855,9548.656652
1031.013869,919.314598,-1554.432478,10066.800811
1031.014185,536.266849,-740.205942,9474.636058
1031.014501,-153.219100,-666.185348,9030.512492
1031.014817,-612.876398,-0.000000,9400.615463
1031.015133,-689.485948,296.082377,9474.636058
1031.015449,-459.657299,444.123565,9178.553681
1031.015765,0.000000,814.226536,9178.553681
1031.016081,-229.828649,-222.061783,9030.512492
1031.016397,612.876398,-1258.350101,9104.533087
1031.016713,612.876398,-1554.432478,9400.615463
1031.017028,383.047749,-2072.576638,9770.718434
1031.017344,612.876398,-1554.432478,9918.759623
1031.017660,689.485948,-518.144159,9474.636058
1031.017976,0.000000,-0.000000,9104.533087
1031.018292,-383.047749,-0.000000,9548.656652
1031.018608,76.609550,444.123565,9474.636058
1031.018924,306.438199,1258.350101,8956.491898
1031.019240,1072.533697,740.205942,9178.553681
1031.019556,1455.581446,-222.061783,8512.368333
1031.019871,1149.143247,-962.267725,9326.594869
1031.020187,995.924147,-1850.514855,9622.677246
1031.020503,1838.629195,-2294.638420,10362.883188
1031.020819,919.314598,-1258.350101,9992.780217
1031.021135,459.657299,-518.144159,9548.656652
1031.021451,0.000000,-148.041188,9696.697840
1031.021767,-229.828649,148.041188,9844.739029
1031.022083,0.000000,740.205942,9622.677246
1031.022399,383.047749,888.247130,9474.636058
1031.022714,919.314598,666.185348,8882.471304
1031.023030,1225.752797,-148.041188,9104.533087
1031.023346,1225.752797,-1184.329507,9696.697840
1031.023662,1532.190996,-1480.411884,9844.739029
1031.023978,1455.581446,-1776.494261,10140.821405
1031.024293,1225.752797,-740.205942,9696.697840
1031.024609,153.219100,-74.020594,9548.656652
1031.024925,-306.438199,296.082377,9696.697840
1031.025241,842.705048,592.164754,9474.636058
1031.025557,153.219100,1332.370696,9622.677246
1031.025872,842.705048,1480.411884,9252.574275
1031.026188,1302.362347,740.205942,8734.430116
1031.026504,1225.752797,-148.041188,9104.533087
1031.026820,1149.143247,-1184.329507,9474.636058
1031.027136,1378.971896,-1702.473667,9918.759623
1031.027451,1225.752797,-1258.350101,10288.862594
1031.027767,459.657299,-518.144159,9548.656652
1031.028083,0.000000,370.102971,9252.574275
1031.028399,0.000000,592.164754,9844.739029
1031.028715,0.000000,888.247130,9104.533087
1031.029030,76.609550,1332.370696,8956.491898
1031.029346,229.828649,888.247130,9104.533087
1031.029662,919.314598,-296.082377,9326.594869
1031.029978,229.828649,-814.226536,9622.677246
1031.030294,383.047749,-1406.391290,9844.739029
1031.030609,76.609550,-1924.535449,9918.759623
1031.030925,0.000000,-1332.370696,9918.759623
1031.031241,-536.266849,-592.164754,9326.594869
1031.031557,-919.314598,-0.000000,9474.636058
1031.031873,-995.924147,518.144159,9696.697840
1031.032188,-536.266849,888.247130,9178.553681
1031.032504,76.609550,1554.432478,8734.430116
1031.032820,689.485948,740.205942,9104.533087
1031.033136,766.095498,-0.000000,8808.450710
1031.033452,766.095498,-740.205942,8808.450710
1031.033767,919.314598,-1184.329507,9548.656652
1031.034083,1225.752797,-1184.329507,9770.718434
1031.034399,612.876398,-592.164754,9548.656652
1031.034715,229.828649,148.041188,9474.636058
1031.035031,-459.657299,666.185348,9696.697840
1031.035346,-536.266849,814.226536,9622.677246
1031.035662,0.000000,1332.370696,9622.677246
1031.035978,306.438199,1406.391290,9030.512492
1031.036294,842.705048,888.247130,8882.471304
1031.036610,459.657299,-222.061783,8956.491898
1031.036925,1149.143247,-1554.432478,9844.739029
1031.037241,689.485948,-2220.617826,10214.842000
1031.037557,1072.533697,-1480.411884,10362.883188
1031.037873,383.047749,-592.164754,9474.636058
1031.038189,0.000000,-74.020594,9178.553681
1031.038504,-383.047749,222.061783,9548.656652
1031.038820,76.609550,740.205942,9548.656652
1031.039136,689.485948,1258.350101,9696.697840
1031.039452,1225.752797,1110.308913,8882.471304
1031.039768,1225.752797,370.102971,8808.450710
1031.040083,1762.019645,-814.226536,9326.594869
1031.040399,1149.143247,-1776.494261,9548.656652
1031.040715,1762.019645,-1998.556043,10066.800811
1031.041031,995.924147,-1110.308913,9992.780217
1031.041347,536.266849,-444.123565,9696.697840
1031.041662,0.000000,-0.000000,9770.718434
1031.041978,76.609550,666.185348,9992.780217
1031.042294,229.828649,1258.350101,9400.615463
1031.042610,536.266849,1480.411884,9326.594869
1031.042926,766.095498,888.247130,8882.471304
1031.043241,1072.533697,-148.041188,9252.574275
1031.043557,459.657299,-1258.350101,9400.615463
1031.043873,383.047749,-2072.576638,9918.759623
1031.044189,612.876398,-1776.494261,10066.800811
1031.044505,153.219100,-1628.453072,10214.842000
1031.044820,-919.314598,-888.247130,9844.739029
1031.045136,-919.314598,-444.123565,10436.903782
1031.045452,-383.047749,148.041188,9770.718434
1031.045768,383.047749,1036.288319,9326.594869
1031.046084,842.705048,1480.411884,8734.430116
1031.046399,1072.533697,518.144159,8142.265362
1031.046715,1608.800546,-518.144159,8882.471304
1031.047031,1455.581446,-1332.370696,9252.574275
1031.047347,1455.581446,-1924.535449,9622.677246
1031.047663,1225.752797,-1480.411884,9770.718434
1031.047979,766.095498,-1110.308913,9178.553681
1031.048294,-229.828649,-444.123565,9326.594869
1031.048610,-306.438199,-0.000000,9548.656652
1031.048926,-229.828649,740.205942,9178.553681
1031.049242,-229.828649,1258.350101,8734.430116
1031.049558,0.000000,444.123565,8586.388927
1031.049873,0.000000,-518.144159,8882.471304
1031.050189,229.828649,-1406.391290,9178.553681
1031.050505,76.609550,-2294.638420,9622.677246
1031.050821,0.000000,-2664.741391,10214.842000
1031.051137,0.000000,-1924.535449,9770.718434
1031.051452,-306.438199,-888.247130,9252.574275
1031.051768,-612.876398,148.041188,9474.636058
1031.052084,-306.438199,518.144159,9548.656652
1031.052400,76.609550,1332.370696,9104.533087
1031.052716,1149.143247,1628.453072,9030.512492
1031.053031,1378.971896,1258.350101,8290.306550
1031.053347,1302.362347,-0.000000,8216.285956
1031.053663,1608.800546,-740.205942,9326.594869
1031.053979,1302.362347,-1554.432478,9474.636058
1031.054295,842.705048,-1554.432478,10510.924376
1031.054610,459.657299,-962.267725,9918.759623
1031.054926,0.000000,-148.041188,9400.615463
1031.055242,-306.438199,296.082377,9918.759623
1031.055558,0.000000,592.164754,10066.800811
1031.055874,0.000000,1258.350101,9548.656652
1031.056189,459.657299,1776.494261,9104.533087
1031.056505,689.485948,1110.308913,8734.430116
1031.056821,766.095498,-0.000000,9326.594869
1031.057137,689.485948,-814.226536,9696.697840
1031.057453,842.705048,-1554.432478,10066.800811
1031.057768,919.314598,-1184.329507,10436.903782
1031.058084,153.219100,-666.185348,9992.780217
1031.058400,-306.438199,-148.041188,9770.718434
1031.058716,-459.657299,370.102971,10288.862594
1031.059032,0.000000,888.247130,10362.883188
1031.059347,229.828649,1554.432478,9474.636058
1031.059663,766.095498,1554.432478,9178.553681
1031.059979,1608.800546,814.226536,8882.471304
1031.060295,1608.800546,-370.102971,9178.553681
1031.060611,1608.800546,-1480.411884,9252.574275
1031.060926,1838.629195,-1628.453072,10214.842000
1031.061242,1072.533697,-888.247130,9622.677246
1031.061558,153.219100,-296.082377,9326.594869
1031.061874,-383.047749,148.041188,9992.780217
1031.062190,-919.314598,296.082377,9992.780217
1031.062505,-536.266849,1110.308913,9696.697840
1031.062821,0.000000,1110.308913,9326.594869
1031.063137,383.047749,666.185348,9030.512492
1031.063453,153.219100,-222.061783,9178.553681
1031.063769,536.266849,-1110.308913,9622.677246
1031.064084,459.657299,-1776.494261,9844.739029
1031.064400,306.438199,-1850.514855,10140.821405
1031.064716,0.000000,-962.267725,9622.677246
1031.065032,-459.657299,-592.164754,9622.677246
1031.065348,-689.485948,-0.000000,9696.697840
1031.065663,-612.876398,518.144159,9400.615463
1031.065979,0.000000,1258.350101,8808.450710
1031.066295,536.266849,1332.370696,8956.491898
1031.066611,766.095498,444.123565,8956.491898
1031.066927,919.314598,-444.123565,8808.450710
1031.067242,1072.533697,-1554.432478,9400.615463
1031.067558,919.314598,-1924.535449,9844.739029
1031.067874,689.485948,-1628.453072,9548.656652
1031.068190,0.000000,-962.267725,9548.656652
1031.068506,-459.657299,-222.061783,9548.656652
1031.068821,0.000000,370.102971,9696.697840
1031.069137,-306.438199,444.123565,9252.574275
1031.069453,306.438199,1036.288319,8956.491898
1031.069769,689.485948,1036.288319,8660.409521
1031.070085,919.314598,296.082377,8364.327145
1031.070400,995.924147,-888.247130,8808.450710
1031.070716,919.314598,-1924.535449,9474.636058
1031.071032,1149.143247,-2220.617826,10288.862594
1031.071348,689.485948,-2072.576638,9992.780217
1031.071664,0.000000,-1184.329507,9400.615463
1031.071979,0.000000,-148.041188,9622.677246
1031.072295,0.000000,222.061783,9548.656652
1031.072611,229.828649,1480.411884,9400.615463
1031.072927,919.314598,1184.329507,9030.512492
1031.073243,1302.362347,740.205942,8512.368333
1031.073558,1455.581446,-370.102971,8438.347739
1031.073874,1302.362347,-1554.432478,9178.553681
1031.074190,1378.971896,-2664.741391,9844.739029
1031.074506,1685.410096,-1924.535449,10214.842000
1031.074822,1149.143247,-814.226536,9622.677246
1031.075137,229.828649,-370.102971,8956.491898
1031.075453,0.000000,-0.000000,9622.677246
1031.075769,-229.828649,518.144159,9326.594869
1031.076085,383.047749,1406.391290,9030.512492
1031.076401,689.485948,1554.432478,9030.512492
1031.076716,842.705048,814.226536,8734.430116
1031.077032,766.095498,-222.061783,8882.471304
1031.077348,536.266849,-1776.494261,9696.697840
1031.077664,383.047749,-2368.659014,10066.800811
1031.077980,76.609550,-1776.494261,10140.821405
1031.078295,0.000000,-1036.288319,9770.718434
1031.078611,-842.705048,-222.061783,10066.800811
1031.078927,-536.266849,518.144159,9770.718434
1031.079243,0.000000,1184.329507,9622.677246
1031.079559,0.000000,1628.453072,9104.533087
1031.079874,766.095498,1184.329507,8808.450710
1031.080190,1149.143247,740.205942,8660.409521
1031.080506,1225.752797,-518.144159,9252.574275
1031.080822,1149.143247,-1184.329507,9696.697840
1031.081138,1225.752797,-1258.350101,9918.759623
1031.081453,459.657299,-1184.329507,9178.553681
1031.081769,-229.828649,-222.061783,9696.697840
1031.082085,-842.705048,148.041188,10214.842000
1031.082401,-995.924147,814.226536,10140.821405
1031.082717,-536.266849,1332.370696,9918.759623
1031.083032,0.000000,1850.514855,9548.656652
1031.083348,229.828649,1184.329507,9104.533087
1031.083664,306.438199,222.061783,9474.636058
1031.083980,459.657299,-740.205942,9622.677246
1031.084296,689.485948,-1924.535449,9770.718434
1031.084611,842.705048,-1776.494261,10288.862594
1031.084927,153.219100,-1554.432478,9844.739029
1031.085243,-229.828649,-962.267725,9474.636058
1031.085559,-612.876398,-148.041188,9622.677246
1031.085875,-229.828649,518.144159,9622.677246
1031.086190,229.828649,962.267725,9474.636058
1031.086506,842.705048,1406.391290,8660.409521
1031.086822,1302.362347,888.247130,8290.306550
1031.087138,1302.362347,-592.164754,9104.533087
1031.087454,1378.971896,-1480.411884,9326.594869
1031.087769,1608.800546,-1702.473667,10362.883188
1031.088085,1225.752797,-1480.411884,9844.739029
1031.088401,612.876398,-518.144159,9474.636058
1031.088717,153.219100,370.102971,9474.636058
1031.089033,-229.828649,666.185348,9622.677246
1031.089348,153.219100,1036.288319,9548.656652
1031.089664,536.266849,1850.514855,9178.553681
1031.089980,1072.533697,1850.514855,8808.450710
1031.090296,1149.143247,296.082377,8808.450710
1031.090612,1225.752797,-1184.329507,9326.594869
1031.090927,1225.752797,-1776.494261,9844.739029
1031.091243,919.314598,-1998.556043,10214.842000
1031.091559,383.047749,-1406.391290,10140.821405
1031.091875,0.000000,-814.226536,9622.677246
1031.092191,-536.266849,-518.144159,9474.636058
1031.092506,-536.266849,-0.000000,9770.718434
1031.092822,76.609550,444.123565,9548.656652
1031.093138,689.485948,814.226536,8808.450710
1031.093454,1378.971896,148.041188,8290.306550
1031.093770,1149.143247,-518.144159,8586.388927
1031.094085,1685.410096,-1258.350101,9178.553681
1031.094401,1608.800546,-1850.514855,9400.615463
1031.094717,1302.362347,-1554.432478,9474.636058
1031.095033,536.266849,-1036.288319,9474.636058
1031.095349,-229.828649,-518.144159,9400.615463
1031.095664,-689.485948,-518.144159,9548.656652
1031.095980,-689.485948,296.082377,9622.677246
1031.096296,-383.047749,1110.308913,9548.656652
1031.096612,153.219100,1184.329507,8956.491898
1031.096928,306.438199,222.061783,9030.512492
1031.097243,229.828649,-740.205942,8808.450710
1031.097559,229.828649,-1480.411884,9770.718434
1031.097875,459.657299,-1998.556043,10066.800811
1031.098191,229.828649,-1702.473667,9992.780217
1031.098507,-229.828649,-740.205942,9992.780217
1031.098822,-766.095498,-0.000000,9548.656652
1031.099138,-842.705048,814.226536,9696.697840
1031.099454,-229.828649,1480.411884,9252.574275
1031.099770,229.828649,1924.535449,9030.512492
1031.100086,536.266849,1628.453072,8882.471304
1031.100401,1072.533697,-0.000000,8808.450710
1031.100717,995.924147,-592.164754,9474.636058
1031.101033,612.876398,-1480.411884,9918.759623
1031.101349,689.485948,-1850.514855,10214.842000
1031.101665,536.266849,-1406.391290,10214.842000
1031.101980,-229.828649,-592.164754,9844.739029
1031.102296,-766.095498,222.061783,9770.718434
1031.102612,-612.876398,814.226536,9696.697840
1031.102928,0.000000,1332.370696,9548.656652
1031.103244,612.876398,1776.494261,9104.533087
1031.103559,536.266849,1184.329507,8734.430116
1031.103875,842.705048,222.061783,9030.512492
1031.104191,536.266849,-1036.288319,9770.718434
1031.104507,689.485948,-1850.514855,10140.821405
1031.104823,536.266849,-1480.411884,10658.965565
1031.105138,536.266849,-888.247130,10066.800811
1031.105454,76.609550,-296.082377,9622.677246
1031.105770,0.000000,370.102971,10066.800811
1031.106086,76.609550,814.226536,9918.759623
1031.106402,536.266849,1702.473667,9326.594869
1031.106717,1225.752797,1850.514855,8734.430116
1031.107033,1762.019645,1110.308913,8512.368333
1031.107349,1532.190996,-444.123565,8734.430116
1031.107665,1762.019645,-1258.350101,9474.636058
1031.107981,2068.457845,-2146.597232,10066.800811
1031.108296,1455.581446,-1628.453072,10066.800811
1031.108612,766.095498,-814.226536,9696.697840
1031.108928,76.609550,-148.041188,9548.656652
1031.109244,0.000000,592.164754,9548.656652
1031.109560,0.000000,1036.288319,9548.656652
1031.109875,0.000000,1702.473667,8882.471304
1031.110191,306.438199,1332.370696,8808.450710
1031.110507,536.266849,-0.000000,8882.471304
1031.110823,612.876398,-1332.370696,9400.615463
1031.111139,459.657299,-2516.700203,9474.636058
1031.111454,459.657299,-2368.659014,10140.821405
1031.111770,306.438199,-1776.494261,9918.759623
1031.112086,0.000000,-740.205942,9326.594869
1031.112402,-459.657299,296.082377,9400.615463
1031.112718,-306.438199,814.226536,9622.677246
1031.113033,0.000000,1554.432478,9326.594869
1031.113349,766.095498,1776.494261,8882.471304
1031.113665,1149.143247,1110.308913,8364.327145
1031.113981,842.705048,-74.020594,8660.409521
1031.114297,842.705048,-1110.308913,9326.594869
1031.114612,1149.143247,-1998.556043,9696.697840
1031.114928,842.705048,-1628.453072,9992.780217
1031.115244,229.828649,-1258.350101,9992.780217
1031.115560,-459.657299,-518.144159,9474.636058
1031.115876,-766.095498,-296.082377,9770.718434
1031.116191,-229.828649,666.185348,9548.656652
1031.116507,0.000000,1184.329507,9030.512492
1031.116823,612.876398,1258.350101,8808.450710
1031.117139,459.657299,-0.000000,8882.471304
1031.117455,689.485948,-592.164754,9030.512492
1031.117770,689.485948,-1702.473667,9548.656652
1031.118086,842.705048,-2368.659014,10066.800811
1031.118402,383.047749,-1998.556043,10140.821405
1031.118718,-153.219100,-1332.370696,9844.739029
1031.119034,-995.924147,-592.164754,9696.697840
1031.119349,-1149.143247,-0.000000,10140.821405
1031.119665,-612.876398,518.144159,9918.759623
1031.119981,383.047749,1036.288319,9474.636058
1031.120297,919.314598,814.226536,8660.409521
1031.120613,1532.190996,-0.000000,8882.471304
1031.120928,1685.410096,-962.267725,9400.615463
1031.121244,1991.848295,-1776.494261,9474.636058
1031.121560,1838.629195,-1924.535449,10140.821405
1031.121876,1532.190996,-1406.391290,9770.718434
1031.122191,995.924147,-222.061783,9104.533087
1031.122507,612.876398,296.082377,9474.636058
1031.122823,0.000000,740.205942,9400.615463
1031.123139,612.876398,1184.329507,9622.677246
1031.123455,766.095498,1554.432478,8956.491898
1031.123770,919.314598,1258.350101,8660.409521
1031.124086,1225.752797,-74.020594,9474.636058
1031.124402,995.924147,-1554.432478,9696.697840
1031.124718,612.876398,-2368.659014,10066.800811
1031.125033,766.095498,-1998.556043,10214.842000
1031.125349,76.609550,-1406.391290,9992.780217
1031.125665,-383.047749,-592.164754,9918.759623
1031.125981,-612.876398,296.082377,9918.759623
1031.126296,612.876398,888.247130,9400.615463
1031.126612,306.438199,1406.391290,9030.512492
1031.126928,919.314598,1258.350101,8734.430116
1031.127244,1532.190996,518.144159,8364.327145
1031.127560,1685.410096,-518.144159,8882.471304
1031.127875,1608.800546,-888.247130,9178.553681
1031.128191,1838.629195,-1480.411884,9770.718434
1031.128507,1225.752797,-1184.329507,9548.656652
1031.128823,229.828649,-444.123565,9178.553681
1031.129138,-536.266849,-0.000000,9400.615463
1031.129454,-1225.752797,296.082377,9696.697840
1031.129770,-612.876398,888.247130,9474.636058
1031.130086,0.000000,1258.350101,9104.533087
1031.130401,306.438199,1110.308913,8956.491898
1031.130717,689.485948,-370.102971,8882.471304
1031.131033,612.876398,-1036.288319,9474.636058
1031.131349,536.266849,-1554.432478,9474.636058
1031.131665,306.438199,-1628.453072,9992.780217
1031.131980,76.609550,-740.205942,9844.739029
1031.132296,-842.705048,-148.041188,9548.656652
1031.132612,-842.705048,296.082377,9622.677246
1031.132928,-919.314598,814.226536,9474.636058
1031.133243,-536.266849,1480.411884,9400.615463
1031.133559,229.828649,1480.411884,8882.471304
1031.133875,536.266849,888.247130,8882.471304
1031.134191,995.924147,222.061783,9104.533087
1031.134506,1225.752797,-518.144159,9474.636058
1031.134822,1225.752797,-1480.411884,9844.739029
1031.135138,689.485948,-1110.308913,10658.965565
1031.135454,536.266849,-592.164754,9844.739029
1031.135770,0.000000,-0.000000,9696.697840
1031.136085,-459.657299,666.185348,9918.759623
1031.136401,-306.438199,1406.391290,9548.656652
1031.136717,0.000000,1776.494261,9252.574275
1031.137033,383.047749,1628.453072,9030.512492
1031.137348,459.657299,666.185348,8882.471304
1031.137664,536.266849,-222.061783,9622.677246
1031.137980,153.219100,-1554.432478,10214.842000
1031.138296,306.438199,-1850.514855,10955.047942
1031.138612,383.047749,-1850.514855,10436.903782
1031.138927,-459.657299,-1184.329507,10066.800811
1031.139243,-536.266849,-444.123565,10362.883188
1031.139559,-612.876398,222.061783,10140.821405
1031.139875,76.609550,1036.288319,9326.594869
1031.140190,842.705048,2220.617826,8808.450710
1031.140506,1685.410096,1776.494261,8068.244768
1031.140822,1915.238745,592.164754,8216.285956
1031.141138,2145.067394,-592.164754,8734.430116
1031.141453,2068.457845,-2146.597232,9326.594869
1031.141769,2145.067394,-1776.494261,9844.739029
1031.142085,1072.533697,-1332.370696,9918.759623
1031.142401,459.657299,-740.205942,9548.656652
1031.142717,76.609550,-666.185348,9548.656652
1031.143032,-383.047749,-0.000000,9844.739029
1031.143348,-229.828649,962.267725,9474.636058
1031.143664,383.047749,1332.370696,8808.450710
1031.143980,383.047749,592.164754,8586.388927
1031.144295,612.876398,-370.102971,9178.553681
1031.144611,919.314598,-1406.391290,9326.594869
1031.144927,919.314598,-2368.659014,9770.718434
1031.145243,459.657299,-2516.700203,10140.821405
1031.145558,0.000000,-1480.411884,10066.800811
1031.145874,-153.219100,-1258.350101,9696.697840
1031.146190,-536.266849,-74.020594,9474.636058
1031.146506,-536.266849,592.164754,9622.677246
1031.146822,76.609550,1332.370696,8956.491898
1031.147137,1225.752797,1258.350101,8586.388927
1031.147453,1149.143247,444.123565,8512.368333
1031.147769,1302.362347,-444.123565,8734.430116
1031.148085,1532.190996,-1702.473667,8956.491898
1031.148400,1378.971896,-1850.514855,9770.718434
1031.148716,1072.533697,-1702.473667,9918.759623
1031.149032,459.657299,-1258.350101,9548.656652
1031.149348,-459.657299,-666.185348,9474.636058
1031.149663,-766.095498,-74.020594,9770.718434
1031.149979,-383.047749,592.164754,9918.759623
1031.150295,229.828649,1332.370696,9252.574275
1031.150611,306.438199,1036.288319,8734.430116
1031.150927,1149.143247,-0.000000,8882.471304
1031.151242,842.705048,-1036.288319,8882.471304
1031.151558,689.485948,-2146.597232,9770.718434
1031.151874,536.266849,-2368.659014,10436.903782
1031.152190,536.266849,-1554.432478,9992.780217
1031.152505,-229.828649,-592.164754,9696.697840
1031.152821,-612.876398,-222.061783,9844.739029
1031.153137,-383.047749,370.102971,9696.697840
1031.153453,153.219100,1258.350101,9548.656652
1031.153768,0.000000,1332.370696,9548.656652
1031.154084,1225.752797,1110.308913,9030.512492
1031.154400,1225.752797,-0.000000,8882.471304
1031.154716,1532.190996,-962.267725,9400.615463
1031.155032,1378.971896,-1258.350101,9918.759623
1031.155347,1455.581446,-1258.350101,9844.739029
1031.155663,766.095498,-666.185348,9770.718434
1031.155979,229.828649,-222.061783,9992.780217
1031.156295,0.000000,444.123565,9918.759623
1031.156610,0.000000,1110.308913,9622.677246
1031.156926,306.438199,1258.350101,9622.677246
1031.157242,536.266849,1628.453072,9104.533087
1031.157558,919.314598,888.247130,8734.430116
1031.157873,1072.533697,-74.020594,9178.553681
1031.158189,919.314598,-1480.411884,9918.759623
1031.158505,766.095498,-2146.597232,10436.903782
1031.158821,612.876398,-1702.473667,10214.842000
1031.159137,306.438199,-666.185348,9992.780217
1031.159452,-229.828649,-148.041188,9696.697840
1031.159768,-306.438199,592.164754,9622.677246
1031.160084,-153.219100,962.267725,9474.636058
1031.160400,306.438199,1406.391290,9104.533087
1031.160715,919.314598,1628.453072,8808.450710
1031.161031,1302.362347,518.144159,8586.388927
1031.161347,1149.143247,-814.226536,9030.512492
1031.161663,1302.362347,-1702.473667,9622.677246
1031.161978,1378.971896,-1850.514855,9992.780217
1031.162294,689.485948,-1258.350101,9474.636058
1031.162610,0.000000,-888.247130,9252.574275
1031.162926,-766.095498,-148.041188,9622.677246
1031.163242,-459.657299,296.082377,9770.718434
1031.163557,-306.438199,962.267725,9400.615463
1031.163873,229.828649,1628.453072,8734.430116
1031.164189,153.219100,814.226536,8808.450710
1031.164505,536.266849,-0.000000,8808.450710
1031.164820,459.657299,-814.226536,9104.533087
1031.165136,383.047749,-1554.432478,9844.739029
1031.165452,229.828649,-1480.411884,9992.780217
1031.165768,-306.438199,-814.226536,9696.697840
1031.166083,-612.876398,-74.020594,9548.656652
1031.166399,-306.438199,-0.000000,9844.739029
1031.166715,-459.657299,666.185348,9844.739029
1031.167031,-229.828649,1628.453072,9326.594869
1031.167347,306.438199,2072.576638,8660.409521
1031.167662,689.485948,1258.350101,8364.327145
1031.167978,995.924147,-0.000000,9030.512492
1031.168294,1072.533697,-666.185348,9400.615463
1031.168610,1455.581446,-1480.411884,9992.780217
1031.168925,766.095498,-1258.350101,9992.780217
1031.169241,0.000000,-814.226536,9622.677246
1031.169557,-689.485948,-370.102971,10066.800811
1031.169873,-612.876398,-0.000000,10214.842000
1031.170188,-536.266849,888.247130,9770.718434
1031.170504,0.000000,1332.370696,9326.594869
1031.170820,689.485948,1036.288319,8956.491898
1031.171136,995.924147,222.061783,8660.409521
1031.171452,766.095498,-444.123565,9326.594869
1031.171767,995.924147,-1998.556043,9770.718434
1031.172083,1378.971896,-2294.638420,9918.759623
1031.172399,842.705048,-1998.556043,9696.697840
1031.172715,76.609550,-1110.308913,9400.615463
1031.173030,229.828649,-592.164754,9622.677246
1031.173346,0.000000,-0.000000,9844.739029
1031.173662,229.828649,1184.329507,9178.553681
1031.173978,919.314598,2072.576638,8808.450710
1031.174293,1455.581446,1184.329507,8512.368333
1031.174609,1838.629195,-74.020594,9104.533087
1031.174925,1455.581446,-1554.432478,9474.636058
1031.175241,1532.190996,-2220.617826,9844.739029
1031.175557,1455.581446,-2072.576638,10214.842000
1031.175872,1302.362347,-1554.432478,9844.739029
1031.176188,153.219100,-814.226536,9622.677246
1031.176504,-383.047749,-0.000000,9844.739029
1031.176820,0.000000,592.164754,9844.739029
1031.177135,76.609550,1480.411884,9326.594869
1031.177451,689.485948,1702.473667,9030.512492
1031.177767,995.924147,592.164754,8660.409521
1031.178083,1072.533697,-592.164754,9030.512492
1031.178398,1225.752797,-1702.473667,9770.718434
1031.178714,842.705048,-2294.638420,9844.739029
1031.179030,766.095498,-1998.556043,9548.656652
1031.179346,0.000000,-1184.329507,9622.677246
1031.179662,-306.438199,-518.144159,9844.739029
1031.179977,-612.876398,222.061783,9696.697840
1031.180293,-536.266849,1036.288319,9474.636058
1031.180609,0.000000,1480.411884,8882.471304
1031.180925,306.438199,1110.308913,8586.388927
1031.181240,766.095498,-0.000000,8882.471304
1031.181556,689.485948,-1036.288319,9252.574275
1031.181872,689.485948,-1776.494261,9696.697840
1031.182188,612.876398,-2294.638420,9844.739029
1031.182503,153.219100,-1554.432478,9548.656652
1031.182819,-153.219100,-592.164754,9474.636058
1031.183135,-842.705048,-0.000000,9622.677246
1031.183451,-995.924147,296.082377,9696.697840
1031.183767,-306.438199,1258.350101,9696.697840
1031.184082,0.000000,1924.535449,9252.574275
1031.184398,459.657299,1036.288319,8734.430116
1031.184714,766.095498,-0.000000,8882.471304
1031.185030,1072.533697,-1110.308913,9326.594869
1031.185345,689.485948,-1998.556043,9548.656652
1031.185661,995.924147,-1998.556043,9548.656652
1031.185977,76.609550,-1332.370696,9844.739029
1031.186293,-459.657299,-370.102971,9770.718434
1031.186608,-919.314598,-0.000000,9770.718434
1031.186924,0.000000,1036.288319,9844.739029
1031.187240,153.219100,1628.453072,9104.533087
1031.187556,766.095498,1850.514855,8734.430116
1031.187872,995.924147,814.226536,8660.409521
1031.188187,1302.362347,-740.205942,8660.409521
1031.188503,1302.362347,-1628.453072,9400.615463
1031.188819,1225.752797,-2368.659014,9992.780217
1031.189135,919.314598,-1776.494261,10214.842000
1031.189450,383.047749,-962.267725,9770.718434
1031.189766,-229.828649,-370.102971,9992.780217
1031.190082,-536.266849,-0.000000,9918.759623
1031.190398,0.000000,1332.370696,9770.718434
1031.190713,842.705048,1702.473667,9104.533087
1031.191029,1225.752797,1776.494261,8586.388927
1031.191345,1762.019645,592.164754,8364.327145
1031.191661,1608.800546,-296.082377,8882.471304
1031.191977,1225.752797,-1702.473667,9696.697840
1031.192292,1455.581446,-1480.411884,9918.759623
1031.192608,919.314598,-1110.308913,9918.759623
1031.192924,0.000000,-888.247130,9548.656652
1031.193240,-766.095498,-518.144159,9992.780217
1031.193555,-383.047749,296.082377,9992.780217
1031.193871,306.438199,888.247130,9474.636058
1031.194187,612.876398,1480.411884,9252.574275
1031.194503,1302.362347,1184.329507,8956.491898
1031.194818,1608.800546,-296.082377,8956.491898
1031.195134,919.314598,-1332.370696,9474.636058
1031.195450,842.705048,-2072.576638,9992.780217
1031.195766,1149.143247,-1998.556043,9844.739029
1031.196082,536.266849,-1036.288319,9622.677246
1031.196397,-153.219100,-444.123565,9252.574275
1031.196713,-612.876398,74.020594,9622.677246
1031.197029,-459.657299,962.267725,9548.656652
1031.197345,0.000000,1702.473667,9326.594869
1031.197660,459.657299,1628.453072,8808.450710
1031.197976,536.266849,296.082377,8808.450710
1031.198292,536.266849,-592.164754,9104.533087
1031.198608,459.657299,-1850.514855,9844.739029
1031.198924,612.876398,-1998.556043,10066.800811
1031.199239,383.047749,-1850.514855,9918.759623
1031.199555,0.000000,-888.247130,9474.636058
1031.199871,-766.095498,-444.123565,9548.656652
1031.200187,-766.095498,666.185348,9844.739029
1031.200502,-459.657299,1184.329507,9474.636058
1031.200818,306.438199,1480.411884,9252.574275
1031.201134,612.876398,1258.350101,8882.471304
1031.201450,842.705048,444.123565,8734.430116
1031.201765,919.314598,-666.185348,9104.533087
1031.202081,919.314598,-1554.432478,9696.697840
1031.202397,842.705048,-1850.514855,9844.739029
1031.202713,383.047749,-1036.288319,9770.718434
1031.203029,0.000000,-444.123565,9474.636058
1031.203344,-306.438199,148.041188,9696.697840
1031.203660,-383.047749,1036.288319,9400.615463
1031.203976,-153.219100,1258.350101,9474.636058
1031.204292,459.657299,1628.453072,9104.533087
1031.204607,536.266849,1110.308913,8660.409521
1031.204923,689.485948,-0.000000,8882.471304
1031.205239,766.095498,-1332.370696,9622.677246
1031.205555,766.095498,-1998.556043,9992.780217
1031.205870,766.095498,-2146.597232,10066.800811
1031.206186,229.828649,-1184.329507,10214.842000
1031.206502,-153.219100,-666.185348,9696.697840
1031.206818,-766.095498,-296.082377,9548.656652
1031.207134,-229.828649,888.247130,9770.718434
1031.207449,0.000000,1480.411884,9770.718434
1031.207765,459.657299,1406.391290,9326.594869
1031.208081,919.314598,592.164754,8438.347739
1031.208397,842.705048,-666.185348,9104.533087
1031.208712,1302.362347,-1406.391290,9548.656652
1031.209028,1608.800546,-1850.514855,9770.718434
1031.209344,1532.190996,-1258.350101,9770.718434
1031.209660,919.314598,-592.164754,9326.594869
1031.209975,383.047749,-222.061783,9474.636058
1031.210291,0.000000,592.164754,9696.697840
1031.210607,229.828649,1406.391290,9400.615463
1031.210923,612.876398,1850.514855,9030.512492
1031.211239,1149.143247,1480.411884,8734.430116
1031.211554,995.924147,148.041188,8808.450710
1031.211870,919.314598,-1036.288319,9400.615463
1031.212186,459.657299,-2146.597232,9770.718434
1031.212502,842.705048,-2220.617826,10436.903782
1031.212817,-229.828649,-1480.411884,10288.862594
1031.213133,-536.266849,-962.267725,9770.718434
1031.213449,-689.485948,-222.061783,9992.780217
1031.213765,-689.485948,444.123565,9622.677246
1031.214080,-383.047749,1258.350101,9326.594869
1031.214396,536.266849,1628.453072,8734.430116
1031.214712,689.485948,1184.329507,8438.347739
1031.215028,1149.143247,-148.041188,8734.430116
1031.215344,1302.362347,-1110.308913,9178.553681
1031.215659,1455.581446,-2146.597232,9030.512492
1031.215975,1225.752797,-1998.556043,10066.800811
1031.216291,459.657299,-1184.329507,9622.677246
1031.216607,0.000000,-444.123565,9474.636058
1031.216922,-459.657299,222.061783,9844.739029
1031.217238,-229.828649,962.267725,10140.821405
1031.217554,-306.438199,1406.391290,9400.615463
1031.217870,306.438199,1480.411884,9104.533087
1031.218185,689.485948,592.164754,8734.430116
1031.218501,689.485948,-592.164754,9104.533087
1031.218817,842.705048,-1480.411884,9844.739029
1031.219133,766.095498,-2220.617826,10140.821405
1031.219449,536.266849,-1702.473667,10066.800811
1031.219764,0.000000,-888.247130,9992.780217
1031.220080,-766.095498,-0.000000,9696.697840
1031.220396,-536.266849,148.041188,9770.718434
1031.220712,0.000000,1554.432478,9622.677246
1031.221027,536.266849,1554.432478,9104.533087
1031.221343,919.314598,1332.370696,8660.409521
1031.221659,1302.362347,-0.000000,8734.430116
1031.221975,1608.800546,-1036.288319,8956.491898
1031.222291,1455.581446,-1776.494261,9548.656652
1031.222606,1455.581446,-1924.535449,10140.821405
1031.222922,919.314598,-1628.453072,9770.718434
1031.223238,459.657299,-888.247130,9696.697840
1031.223554,76.609550,-370.102971,9696.697840
1031.223870,-229.828649,444.123565,9844.739029
1031.224186,0.000000,1184.329507,9474.636058
1031.224501,612.876398,1702.473667,9178.553681
1031.224817,536.266849,1110.308913,9030.512492
1031.225133,1378.971896,-148.041188,8956.491898
1031.225449,1149.143247,-888.247130,9622.677246
1031.225765,1532.190996,-1702.473667,9844.739029
1031.226081,1072.533697,-1924.535449,10066.800811
1031.226396,459.657299,-1332.370696,9548.656652
1031.226712,-153.219100,-518.144159,9844.739029
1031.227028,-383.047749,-74.020594,10214.842000
1031.227344,-229.828649,814.226536,9622.677246
1031.227660,76.609550,1554.432478,9400.615463
1031.227976,1302.362347,814.226536,8660.409521
1031.228291,1072.533697,296.082377,8364.327145
1031.228607,1302.362347,-370.102971,8956.491898
1031.228923,1072.533697,-1480.411884,9326.594869
1031.229239,1072.533697,-1702.473667,9474.636058
1031.229555,919.314598,-1480.411884,9400.615463
1031.229871,0.000000,-962.267725,9548.656652
1031.230186,-536.266849,-666.185348,9400.615463
1031.230502,-612.876398,-148.041188,9548.656652
1031.230818,-766.095498,962.267725,9326.594869
1031.231134,-536.266849,1406.391290,8956.491898
1031.231450,153.219100,1184.329507,8438.347739
1031.231766,383.047749,296.082377,8808.450710
1031.232081,459.657299,-592.164754,9178.553681
1031.232397,536.266849,-1628.453072,9622.677246
1031.232713,689.485948,-1924.535449,9844.739029
1031.233029,76.609550,-1110.308913,9992.780217
1031.233345,-306.438199,-592.164754,9696.697840
1031.233661,-689.485948,222.061783,9992.780217
1031.233976,-842.705048,1110.308913,9548.656652
1031.234292,-306.438199,1554.432478,9178.553681
1031.234608,76.609550,1998.556043,9178.553681
1031.234924,536.266849,1406.391290,8956.491898
1031.235240,689.485948,148.041188,9252.574275
1031.235556,766.095498,-1184.329507,9474.636058
1031.235871,995.924147,-1110.308913,10288.862594
1031.236187,1225.752797,-1258.350101,10140.821405
1031.236503,459.657299,-666.185348,9844.739029
1031.236819,0.000000,148.041188,9696.697840
1031.237135,-459.657299,740.205942,9696.697840
1031.237451,-306.438199,1554.432478,9474.636058
1031.237766,153.219100,2294.638420,9178.553681
1031.238082,689.485948,1924.535449,9104.533087
1031.238398,919.314598,962.267725,8808.450710
1031.238714,1072.533697,-370.102971,9400.615463
1031.239030,842.705048,-2072.576638,9770.718434
1031.239346,919.314598,-1998.556043,10140.821405
1031.239661,536.266849,-1850.514855,10288.862594
1031.239977,0.000000,-1110.308913,10362.883188
1031.240293,-1072.533697,-222.061783,10288.862594
1031.240609,-919.314598,740.205942,10214.842000
1031.240925,-383.047749,1480.411884,9474.636058
1031.241241,536.266849,1998.556043,9178.553681
1031.241556,995.924147,1480.411884,8808.450710
1031.241872,1915.238745,-0.000000,8882.471304
1031.242188,1915.238745,-1184.329507,9474.636058
1031.242504,1685.410096,-1850.514855,9770.718434
1031.242820,1838.629195,-1850.514855,9844.739029
1031.243136,1608.800546,-1110.308913,9844.739029
1031.243451,0.000000,-222.061783,9622.677246
1031.243767,-229.828649,-0.000000,9548.656652
1031.244083,-153.219100,592.164754,9918.759623
1031.244399,-306.438199,1036.288319,9326.594869
1031.244715,766.095498,1110.308913,8512.368333
1031.245031,689.485948,592.164754,8512.368333
1031.245346,919.314598,-592.164754,8882.471304
1031.245662,842.705048,-1850.514855,9622.677246
1031.245978,919.314598,-2368.659014,9918.759623
1031.246294,383.047749,-1850.514855,9844.739029
1031.246610,0.000000,-1184.329507,9696.697840
1031.246925,-306.438199,-666.185348,9622.677246
1031.247241,-842.705048,-222.061783,9622.677246
1031.247557,-612.876398,518.144159,9474.636058
1031.247873,153.219100,1184.329507,8956.491898
1031.248189,766.095498,1332.370696,8734.430116
1031.248505,1072.533697,592.164754,8290.306550
1031.248820,919.314598,-666.185348,8660.409521
1031.249136,1072.533697,-1702.473667,9178.553681
1031.249452,459.657299,-2368.659014,9622.677246
1031.249768,459.657299,-2220.617826,9770.718434
1031.250084,0.000000,-1480.411884,9696.697840
1031.250400,-766.095498,-888.247130,9770.718434
1031.250715,-612.876398,222.061783,9696.697840
1031.251031,-306.438199,1110.308913,9178.553681
1031.251347,459.657299,1776.494261,8808.450710
1031.251663,229.828649,1184.329507,8808.450710
1031.251979,689.485948,-148.041188,8660.409521
1031.252295,689.485948,-1480.411884,9104.533087
1031.252610,689.485948,-2294.638420,9992.780217
1031.252926,689.485948,-2442.679609,10436.903782
1031.253242,383.047749,-1554.432478,10140.821405
1031.253558,-459.657299,-740.205942,9622.677246
1031.253874,-842.705048,370.102971,9770.718434
1031.254190,-536.266849,1184.329507,9622.677246
1031.254505,-229.828649,1850.514855,9178.553681
1031.254821,536.266849,1628.453072,9030.512492
1031.255137,1378.971896,296.082377,8882.471304
1031.255453,1225.752797,-740.205942,9030.512492
1031.255769,1302.362347,-1332.370696,9622.677246
1031.256085,1762.019645,-2072.576638,10066.800811
1031.256400,1225.752797,-1776.494261,9992.780217
1031.256716,383.047749,-1036.288319,9770.718434
1031.257032,229.828649,-0.000000,9844.739029
1031.257348,0.000000,740.205942,9918.759623
1031.257664,76.609550,1110.308913,9548.656652
1031.257980,383.047749,1702.473667,9474.636058
1031.258295,1072.533697,1406.391290,8512.368333
1031.258611,1149.143247,444.123565,9178.553681
1031.258927,1225.752797,-518.144159,9474.636058
1031.259243,995.924147,-1406.391290,9844.739029
1031.259559,1302.362347,-1998.556043,9918.759623
1031.259875,842.705048,-1628.453072,10510.924376
1031.260190,76.609550,-962.267725,9844.739029
1031.260506,-383.047749,-296.082377,10066.800811
1031.260822,0.000000,-0.000000,9844.739029
1031.261138,-306.438199,1184.329507,9548.656652
1031.261454,766.095498,2072.576638,9252.574275
1031.261770,1455.581446,1406.391290,8808.450710
1031.262085,1455.581446,518.144159,8290.306550
1031.262401,1838.629195,-370.102971,8512.368333
1031.262717,1762.019645,-1332.370696,9104.533087
1031.263033,1455.581446,-1776.494261,9844.739029
1031.263349,995.924147,-1332.370696,9770.718434
1031.263665,0.000000,-666.185348,9622.677246
1031.263980,-689.485948,-0.000000,9622.677246
1031.264296,-689.485948,592.164754,9918.759623
1031.264612,-612.876398,1628.453072,9104.533087
1031.264928,0.000000,1776.494261,8808.450710
1031.265244,766.095498,1110.308913,8734.430116
1031.265560,612.876398,-592.164754,9104.533087
1031.265875,536.266849,-1406.391290,9400.615463
1031.266191,536.266849,-1998.556043,9844.739029
1031.266507,153.219100,-1776.494261,9992.780217
1031.266823,-229.828649,-962.267725,9622.677246
1031.267139,-995.924147,-148.041188,9622.677246
1031.267455,-995.924147,814.226536,9770.718434
1031.267770,-995.924147,1110.308913,9400.615463
1031.268086,-383.047749,1850.514855,8882.471304
1031.268402,229.828649,1554.432478,8956.491898
1031.268718,919.314598,518.144159,8734.430116
1031.269034,842.705048,-592.164754,9030.512492
1031.269350,919.314598,-1480.411884,9548.656652
1031.269665,919.314598,-1998.556043,9992.780217
1031.269981,842.705048,-1480.411884,10140.821405
1031.270297,153.219100,-370.102971,9622.677246
1031.270613,-459.657299,-0.000000,9696.697840
1031.270929,-306.438199,592.164754,9474.636058
1031.271245,-383.047749,1258.350101,9252.574275
1031.271560,0.000000,1850.514855,8808.450710
1031.271876,612.876398,1184.329507,8734.430116
1031.272192,1072.533697,-370.102971,8512.368333
1031.272508,1072.533697,-1110.308913,9178.553681
1031.272824,1072.533697,-1998.556043,9992.780217
1031.273140,995.924147,-2294.638420,10436.903782
1031.273455,229.828649,-1776.494261,10214.842000
1031.273771,459.657299,-1184.329507,9770.718434
1031.274087,-383.047749,-444.123565,9992.780217
1031.274403,-459.657299,370.102971,9696.697840
1031.274719,383.047749,1258.350101,9474.636058
1031.275035,919.314598,1850.514855,8808.450710
1031.275350,1378.971896,1036.288319,8660.409521
1031.275666,1838.629195,-0.000000,8882.471304
1031.275982,2145.067394,-1110.308913,8882.471304
1031.276298,1838.629195,-1702.473667,9696.697840
1031.276614,2068.457845,-1554.432478,9918.759623
1031.276929,612.876398,-814.226536,9548.656652
1031.277245,0.000000,-444.123565,9992.780217
1031.277561,-536.266849,-0.000000,9770.718434
1031.277877,-229.828649,666.185348,9992.780217
1031.278193,0.000000,1480.411884,9474.636058
1031.278509,766.095498,1332.370696,9326.594869
1031.278824,842.705048,222.061783,8956.491898
1031.279140,995.924147,-962.267725,9252.574275
1031.279456,1072.533697,-1924.535449,9474.636058
1031.279772,1302.362347,-2442.679609,9770.718434
1031.280088,842.705048,-1776.494261,9992.780217
1031.280404,76.609550,-1036.288319,9474.636058
1031.280719,-612.876398,-592.164754,9548.656652
1031.281035,-689.485948,518.144159,9622.677246
1031.281351,-842.705048,962.267725,8956.491898
1031.281667,306.438199,1480.411884,9326.594869
1031.281983,766.095498,666.185348,8882.471304
1031.282299,766.095498,-296.082377,8660.409521
1031.282614,842.705048,-1628.453072,9326.594869
1031.282930,1072.533697,-2072.576638,9474.636058
1031.283246,995.924147,-2072.576638,10140.821405
1031.283562,383.047749,-1184.329507,9548.656652
1031.283878,-306.438199,-962.267725,9548.656652
1031.284194,-919.314598,-0.000000,9548.656652
1031.284509,-995.924147,370.102971,9548.656652
1031.284825,-536.266849,962.267725,9326.594869
1031.285141,76.609550,1406.391290,9030.512492
1031.285457,612.876398,814.226536,8734.430116
1031.285773,842.705048,-296.082377,8956.491898
1031.286089,1149.143247,-1480.411884,9252.574275
1031.286404,1455.581446,-1850.514855,9548.656652
1031.286720,689.485948,-1702.473667,9770.718434
1031.287036,306.438199,-1110.308913,9548.656652
1031.287352,-536.266849,-148.041188,9770.718434
1031.287668,-612.876398,296.082377,10066.800811
1031.287984,-306.438199,1258.350101,9474.636058
1031.288299,459.657299,2072.576638,8882.471304
1031.288615,766.095498,1924.535449,8660.409521
1031.288931,1455.581446,-0.000000,8586.388927
1031.289247,1455.581446,-814.226536,9400.615463
1031.289563,1532.190996,-1924.535449,9548.656652
1031.289879,1225.752797,-1998.556043,10140.821405
1031.290194,689.485948,-1258.350101,9992.780217
1031.290510,612.876398,-592.164754,10362.883188
1031.290826,-536.266849,-0.000000,9844.739029
1031.291142,-536.266849,1258.350101,9400.615463
1031.291458,-383.047749,1776.494261,9474.636058
1031.291774,459.657299,1850.514855,9178.553681
1031.292089,612.876398,1036.288319,8956.491898
1031.292405,919.314598,-0.000000,9252.574275
1031.292721,689.485948,-1554.432478,9400.615463
1031.293037,842.705048,-1850.514855,9918.759623
1031.293353,995.924147,-1998.556043,10584.944971
1031.293669,459.657299,-1332.370696,10510.924376
1031.293984,-459.657299,-370.102971,9918.759623
1031.294300,-766.095498,444.123565,9770.718434
1031.294616,-306.438199,1036.288319,9622.677246
1031.294932,153.219100,1702.473667,9474.636058
1031.295248,1072.533697,2220.617826,8438.347739
1031.295564,1302.362347,1036.288319,8216.285956
1031.295879,1072.533697,-518.144159,9326.594869
1031.296195,1072.533697,-1258.350101,9548.656652
1031.296511,1149.143247,-1924.535449,9622.677246
1031.296827,766.095498,-1480.411884,10140.821405
1031.297143,153.219100,-740.205942,9696.697840
1031.297459,-383.047749,-222.061783,9918.759623
1031.297774,-766.095498,370.102971,9770.718434
1031.298090,-536.266849,962.267725,9474.636058
1031.298406,229.828649,1850.514855,9326.594869
1031.298722,383.047749,1480.411884,8512.368333
1031.299038,689.485948,518.144159,8364.327145
1031.299354,766.095498,-740.205942,9252.574275
1031.299669,842.705048,-1332.370696,9178.553681
1031.299985,842.705048,-1628.453072,9622.677246
1031.300301,612.876398,-1184.329507,9770.718434
1031.300617,0.000000,-888.247130,9548.656652
1031.300933,-689.485948,-296.082377,9844.739029
1031.301249,-842.705048,444.123565,9696.697840
1031.301564,-612.876398,962.267725,9474.636058
1031.301880,0.000000,1332.370696,9178.553681
1031.302196,689.485948,1406.391290,8808.450710
1031.302512,1149.143247,-0.000000,8956.491898
1031.302828,1072.533697,-1036.288319,9104.533087
1031.303144,1225.752797,-1776.494261,9770.718434
1031.303459,1072.533697,-2220.617826,9992.780217
1031.303775,766.095498,-1110.308913,10066.800811
1031.304091,76.609550,-444.123565,9696.697840
1031.304407,-229.828649,-0.000000,9474.636058
1031.304723,-306.438199,888.247130,9548.656652
1031.305039,153.219100,1554.432478,9252.574275
1031.305354,689.485948,1702.473667,8808.450710
1031.305670,1608.800546,962.267725,8734.430116
1031.305986,1302.362347,-222.061783,8660.409521
1031.306302,1302.362347,-1406.391290,9844.739029
1031.306618,995.924147,-1998.556043,9770.718434
1031.306933,995.924147,-2294.638420,10066.800811
1031.307249,153.219100,-1184.329507,10066.800811
1031.307565,-612.876398,-666.185348,9918.759623
1031.307881,-766.095498,-0.000000,10214.842000
1031.308197,-383.047749,666.185348,9918.759623
1031.308513,459.657299,1184.329507,9178.553681
1031.308828,919.314598,1480.411884,9326.594869
1031.309144,1455.581446,592.164754,8660.409521
1031.309460,1532.190996,-222.061783,8808.450710
1031.309776,1532.190996,-1258.350101,9474.636058
1031.310092,1455.581446,-1850.514855,10066.800811
1031.310408,1225.752797,-1110.308913,9844.739029
1031.310723,306.438199,-518.144159,9474.636058
1031.311039,-306.438199,-74.020594,9474.636058
1031.311355,-536.266849,444.123565,9844.739029
1031.311671,153.219100,1184.329507,9474.636058
1031.311987,153.219100,1628.453072,9104.533087
1031.312303,459.657299,1480.411884,8956.491898
1031.312618,459.657299,-0.000000,8882.471304
1031.312934,383.047749,-1036.288319,9400.615463
1031.313250,383.047749,-2220.617826,10140.821405
1031.313566,306.438199,-1998.556043,9992.780217
1031.313882,0.000000,-1480.411884,9992.780217
1031.314198,-842.705048,-592.164754,9918.759623
1031.314513,-1302.362347,-444.123565,10140.821405
1031.314829,-1149.143247,814.226536,9844.739029
1031.315145,-153.219100,1480.411884,9252.574275
1031.315461,76.609550,1702.473667,8512.368333
1031.315777,536.266849,740.205942,8660.409521
1031.316093,1072.533697,-148.041188,8882.471304
1031.316408,1302.362347,-1554.432478,8956.491898
1031.316724,1072.533697,-1998.556043,9770.718434
1031.317040,766.095498,-1628.453072,9696.697840
1031.317356,153.219100,-888.247130,9548.656652
1031.317672,-383.047749,-296.082377,9474.636058
1031.317988,-1149.143247,296.082377,9696.697840
1031.318303,-766.095498,962.267725,9770.718434
1031.318619,-306.438199,1628.453072,9326.594869
1031.318935,76.609550,1406.391290,8734.430116
1031.319251,306.438199,296.082377,8660.409521
1031.319567,76.609550,-666.185348,9326.594869
1031.319883,459.657299,-1480.411884,9696.697840
1031.320198,459.657299,-2146.597232,10066.800811
1031.320514,459.657299,-1554.432478,10214.842000
1031.320830,76.609550,-814.226536,10066.800811
1031.321146,0.000000,-148.041188,10066.800811
1031.321462,153.219100,814.226536,9474.636058
1031.321778,536.266849,1480.411884,9252.574275
1031.322093,1302.362347,1850.514855,8808.450710
1031.322409,1302.362347,1554.432478,8438.347739
1031.322725,1991.848295,518.144159,8660.409521
1031.323041,2298.286494,-666.185348,9178.553681
1031.323357,1991.848295,-1406.391290,9622.677246
1031.323672,1762.019645,-1554.432478,9918.759623
1031.323988,1225.752797,-666.185348,9844.739029
1031.324304,459.657299,-740.205942,9844.739029
1031.324620,-306.438199,296.082377,10436.903782
1031.324936,-459.657299,592.164754,10066.800811
1031.325251,0.000000,1480.411884,9696.697840
1031.325567,306.438199,1924.535449,8882.471304
1031.325883,919.314598,740.205942,9104.533087
1031.326199,1072.533697,-148.041188,9474.636058
1031.326515,612.876398,-1184.329507,9770.718434
1031.326830,1455.581446,-1776.494261,10066.800811
1031.327146,1149.143247,-1850.514855,10362.883188
1031.327462,459.657299,-1406.391290,10214.842000
1031.327778,0.000000,-666.185348,9696.697840
1031.328094,-229.828649,222.061783,9844.739029
1031.328409,229.828649,666.185348,9474.636058
1031.328725,459.657299,1480.411884,8808.450710
1031.329041,919.314598,1554.432478,8512.368333
1031.329357,1149.143247,444.123565,8586.388927
1031.329673,1149.143247,-518.144159,9030.512492
1031.329988,1149.143247,-1776.494261,9770.718434
1031.330304,1072.533697,-2294.638420,9770.718434
1031.330620,383.047749,-2072.576638,9918.759623
1031.330936,-306.438199,-1554.432478,9770.718434
1031.331252,-995.924147,-814.226536,9918.759623
1031.331567,-766.095498,-0.000000,9992.780217
1031.331883,-612.876398,1110.308913,9474.636058
1031.332199,0.000000,1776.494261,8586.388927
1031.332515,229.828649,1480.411884,8438.347739
1031.332830,612.876398,-0.000000,8586.388927
1031.333146,689.485948,-1184.329507,9178.553681
1031.333462,153.219100,-1628.453072,9326.594869
1031.333778,0.000000,-2368.659014,9992.780217
1031.334094,76.609550,-1628.453072,9844.739029
1031.334409,-1225.752797,-740.205942,9622.677246
1031.334725,-1532.190996,-148.041188,9844.739029
1031.335041,-1225.752797,444.123565,9918.759623
1031.335357,-842.705048,1332.370696,9474.636058
1031.335673,0.000000,1702.473667,8660.409521
1031.335988,842.705048,1184.329507,8438.347739
1031.336304,919.314598,-0.000000,9030.512492
1031.336620,1378.971896,-888.247130,9252.574275
1031.336936,1225.752797,-1406.391290,9474.636058
1031.337252,1455.581446,-1332.370696,9770.718434
1031.337567,766.095498,-518.144159,9474.636058
1031.337883,0.000000,-0.000000,9548.656652
1031.338199,153.219100,592.164754,9770.718434
1031.338515,383.047749,962.267725,9696.697840
1031.338831,842.705048,1850.514855,9548.656652
1031.339146,995.924147,1480.411884,8734.430116
1031.339462,995.924147,740.205942,8808.450710
1031.339778,1302.362347,-296.082377,9326.594869
1031.340094,995.924147,-1406.391290,10140.821405
1031.340410,1762.019645,-1850.514855,10436.903782
1031.340725,842.705048,-1554.432478,9992.780217
1031.341041,-76.609550,-962.267725,9992.780217
1031.341357,-536.266849,-518.144159,10288.862594
1031.341673,-536.266849,148.041188,10362.883188
1031.341989,0.000000,962.267725,9992.780217
1031.342304,766.095498,1702.473667,9252.574275
1031.342620,1149.143247,1332.370696,8956.491898
1031.342936,1608.800546,444.123565,8956.491898
1031.343252,1685.410096,-666.185348,9030.512492
1031.343568,1991.848295,-1184.329507,9844.739029
1031.343883,1838.629195,-1480.411884,9696.697840
1031.344199,1378.971896,-888.247130,9548.656652
1031.344515,612.876398,-296.082377,9622.677246
1031.344831,306.438199,-0.000000,10066.800811
1031.345146,0.000000,370.102971,9696.697840
1031.345462,0.000000,1480.411884,9326.594869
1031.345778,612.876398,1554.432478,9252.574275
1031.346094,536.266849,888.247130,8882.471304
1031.346410,306.438199,-370.102971,9252.574275
1031.346725,0.000000,-1924.535449,9770.718434
1031.347041,536.266849,-1998.556043,10066.800811
1031.347357,229.828649,-1924.535449,9918.759623
1031.347673,-306.438199,-1184.329507,9844.739029
1031.347989,-766.095498,-666.185348,9770.718434
1031.348304,-995.924147,-0.000000,9992.780217
1031.348620,-689.485948,888.247130,9622.677246
1031.348936,0.000000,1776.494261,9252.574275
1031.349252,689.485948,1258.350101,8586.388927
1031.349568,919.314598,370.102971,8290.306550
1031.349883,1225.752797,-666.185348,8808.450710
1031.350199,1225.752797,-1406.391290,9178.553681
1031.350515,1532.190996,-1554.432478,9622.677246
1031.350831,995.924147,-1110.308913,9548.656652
1031.351147,306.438199,-888.247130,9474.636058
1031.351462,-383.047749,-148.041188,9474.636058
1031.351778,-842.705048,666.185348,9474.636058
1031.352094,-689.485948,1110.308913,9548.656652
1031.352410,-383.047749,1110.308913,9030.512492
1031.352726,0.000000,592.164754,8882.471304
1031.353041,-229.828649,-814.226536,9030.512492
1031.353357,76.609550,-1776.494261,9696.697840
1031.353673,0.000000,-2368.659014,9992.780217
1031.353989,229.828649,-2442.679609,10140.821405
1031.354305,229.828649,-1924.535449,10362.883188
1031.354620,-459.657299,-1036.288319,9548.656652
1031.354936,-766.095498,-518.144159,9622.677246
1031.355252,-306.438199,-0.000000,9696.697840
1031.355568,306.438199,1406.391290,8956.491898
1031.355884,919.314598,1628.453072,8734.430116
1031.356199,1685.410096,962.267725,8364.327145
1031.356515,1838.629195,-222.061783,8586.388927
1031.356831,1762.019645,-1258.350101,8882.471304
1031.357147,2068.457845,-1924.535449,9622.677246
1031.357463,2374.896044,-1702.473667,9918.759623
1031.357778,842.705048,-1258.350101,9844.739029
1031.358094,76.609550,-370.102971,9696.697840
1031.358410,-229.828649,-0.000000,9992.780217
1031.358726,0.000000,814.226536,9844.739029
1031.359041,153.219100,1406.391290,9474.636058
1031.359357,689.485948,1406.391290,9104.533087
1031.359673,1149.143247,592.164754,8882.471304
1031.359989,1225.752797,-814.226536,9474.636058
1031.360305,1302.362347,-1406.391290,9918.759623
1031.360620,1455.581446,-1406.391290,10288.862594
1031.360936,1149.143247,-1036.288319,9844.739029
1031.361252,689.485948,-518.144159,9622.677246
1031.361568,0.000000,-0.000000,10066.800811
1031.361884,689.485948,518.144159,9844.739029
1031.362199,229.828649,1184.329507,9844.739029
1031.362515,842.705048,1554.432478,9178.553681
1031.362831,1378.971896,1406.391290,9104.533087
1031.363147,1608.800546,296.082377,8882.471304
1031.363463,1608.800546,-740.205942,9400.615463
1031.363778,1685.410096,-1184.329507,9844.739029
1031.364094,1532.190996,-1258.350101,9622.677246
1031.364410,689.485948,-740.205942,9696.697840
1031.364726,-229.828649,-370.102971,9474.636058
1031.365042,-306.438199,-0.000000,9696.697840
1031.365357,-766.095498,444.123565,9770.718434
1031.365673,-612.876398,1332.370696,9474.636058
1031.365989,0.000000,1406.391290,8808.450710
1031.366305,76.609550,666.185348,8882.471304
1031.366621,153.219100,-592.164754,9622.677246
1031.366936,229.828649,-1702.473667,9918.759623
1031.367252,689.485948,-1850.514855,9770.718434
1031.367568,153.219100,-1628.453072,9622.677246
1031.367884,0.000000,-1110.308913,9622.677246
1031.368200,-919.314598,-518.144159,9548.656652
1031.368515,-919.314598,148.041188,9474.636058
1031.368831,-536.266849,962.267725,9252.574275
1031.369147,0.000000,1998.556043,8882.471304
1031.369463,536.266849,1850.514855,8364.327145
1031.369779,842.705048,518.144159,8290.306550
1031.370094,919.314598,-666.185348,8956.491898
1031.370410,1072.533697,-1332.370696,9474.636058
1031.370726,1072.533697,-1480.411884,9622.677246
1031.371042,383.047749,-1036.288319,9696.697840
1031.371358,0.000000,-814.226536,9918.759623
1031.371673,-995.924147,-74.020594,9696.697840
1031.371989,-1225.752797,814.226536,9918.759623
1031.372305,-689.485948,1110.308913,9474.636058
1031.372621,0.000000,1480.411884,9178.553681
1031.372936,459.657299,1332.370696,9178.553681
1031.373252,919.314598,-148.041188,8956.491898
1031.373568,1072.533697,-814.226536,9474.636058
1031.373884,1455.581446,-1406.391290,9622.677246
1031.374200,1378.971896,-1702.473667,9844.739029
1031.374515,995.924147,-740.205942,9770.718434
1031.374831,76.609550,-296.082377,9474.636058
1031.375147,-229.828649,814.226536,9770.718434
1031.375463,0.000000,888.247130,9696.697840
1031.375779,766.095498,1554.432478,9474.636058
1031.376094,842.705048,1110.308913,9252.574275
1031.376410,1072.533697,222.061783,8734.430116
1031.376726,1455.581446,-740.205942,9252.574275
1031.377042,1455.581446,-1332.370696,9548.656652
1031.377358,1685.410096,-1776.494261,9918.759623
1031.377673,1225.752797,-1924.535449,9992.780217
1031.377989,766.095498,-888.247130,9622.677246
1031.378305,153.219100,-370.102971,9474.636058
1031.378621,0.000000,222.061783,9696.697840
1031.378937,0.000000,444.123565,9844.739029
1031.379252,306.438199,1110.308913,9474.636058
1031.379568,766.095498,962.267725,9178.553681
1031.379884,689.485948,-0.000000,9030.512492
1031.380200,536.266849,-962.267725,9474.636058
1031.380516,1149.143247,-1924.535449,9622.677246
1031.380831,995.924147,-1850.514855,10066.800811
1031.381147,536.266849,-1480.411884,9918.759623
1031.381463,-153.219100,-888.247130,9696.697840
1031.381779,-689.485948,-592.164754,9770.718434
1031.382095,-766.095498,-0.000000,9770.718434
1031.382410,-536.266849,1110.308913,9400.615463
1031.382726,153.219100,1406.391290,8956.491898
1031.383042,689.485948,962.267725,8882.471304
1031.383358,995.924147,-222.061783,9326.594869
1031.383674,919.314598,-888.247130,9326.594869
1031.383989,919.314598,-1628.453072,9844.739029
1031.384305,1149.143247,-1554.432478,9622.677246
1031.384621,1072.533697,-962.267725,9326.594869
1031.384937,-153.219100,-222.061783,9400.615463
1031.385253,-689.485948,222.061783,9696.697840
1031.385568,-689.485948,740.205942,9548.656652
1031.385884,-612.876398,1702.473667,9474.636058
1031.386200,153.219100,1332.370696,8956.491898
1031.386516,306.438199,222.061783,8808.450710
1031.386831,536.266849,-962.267725,9178.553681
1031.387147,689.485948,-1924.535449,9844.739029
1031.387463,1302.362347,-2220.617826,9918.759623
1031.387779,536.266849,-1850.514855,9992.780217
1031.388095,536.266849,-1036.288319,9474.636058
1031.388410,0.000000,-148.041188,9474.636058
1031.388726,-153.219100,444.123565,9622.677246
1031.389042,0.000000,1110.308913,9474.636058
1031.389358,459.657299,1184.329507,9474.636058
1031.389674,1149.143247,1184.329507,8586.388927
1031.389989,1455.581446,148.041188,8512.368333
1031.390305,1532.190996,-962.267725,9030.512492
1031.390621,1455.581446,-1924.535449,9622.677246
1031.390937,1149.143247,-1998.556043,10066.800811
1031.391253,995.924147,-1554.432478,9844.739029
1031.391568,0.000000,-814.226536,9918.759623
1031.391884,-383.047749,-148.041188,10066.800811
1031.392200,-536.266849,518.144159,9844.739029
1031.392516,0.000000,1036.288319,9622.677246
1031.392832,306.438199,1406.391290,9252.574275
1031.393147,995.924147,1110.308913,8660.409521
1031.393463,995.924147,148.041188,9178.553681
1031.393779,1685.410096,-740.205942,9252.574275
1031.394095,1225.752797,-1480.411884,9844.739029
1031.394411,1072.533697,-1480.411884,10214.842000
1031.394726,459.657299,-1258.350101,10214.842000
1031.395042,-229.828649,-740.205942,10066.800811
1031.395358,-383.047749,222.061783,10066.800811
1031.395674,0.000000,666.185348,10066.800811
1031.395990,153.219100,1480.411884,9326.594869
1031.396305,995.924147,1850.514855,8808.450710
1031.396621,1685.410096,962.267725,8438.347739
1031.396937,1608.800546,-0.000000,8882.471304
1031.397253,1072.533697,-1406.391290,9548.656652
1031.397569,1532.190996,-1480.411884,9622.677246
1031.397884,766.095498,-1554.432478,9918.759623
1031.398200,459.657299,-1110.308913,9696.697840
1031.398516,-383.047749,-74.020594,9622.677246
1031.398832,-919.314598,592.164754,9992.780217
1031.399147,-612.876398,888.247130,9844.739029
1031.399463,-306.438199,1628.453072,9252.574275
1031.399779,0.000000,1480.411884,8956.491898
1031.400095,306.438199,148.041188,8882.471304
1031.400411,612.876398,-888.247130,9474.636058
1031.400726,153.219100,-1628.453072,9696.697840
1031.401042,383.047749,-1702.473667,10140.821405
1031.401358,153.219100,-1184.329507,9474.636058
1031.401674,-689.485948,-740.205942,9326.594869
1031.401990,-919.314598,-222.061783,9696.697840
1031.402305,-459.657299,444.123565,9844.739029
1031.402621,-383.047749,1554.432478,9400.615463
1031.402937,229.828649,1924.535449,8882.471304
1031.403253,536.266849,1406.391290,8438.347739
1031.403569,995.924147,444.123565,9030.512492
1031.403884,1149.143247,-296.082377,9252.574275
1031.404200,1072.533697,-1332.370696,9770.718434
1031.404516,842.705048,-1628.453072,10140.821405
1031.404832,383.047749,-1036.288319,9548.656652
1031.405148,-536.266849,-666.185348,9474.636058
1031.405463,-766.095498,-0.000000,9918.759623
1031.405779,-766.095498,962.267725,9696.697840
1031.406095,153.219100,1628.453072,9326.594869
1031.406411,0.000000,1036.288319,8956.491898
1031.406727,383.047749,222.061783,8660.409521
1031.407042,383.047749,-740.205942,9104.533087
1031.407358,766.095498,-1406.391290,9696.697840
1031.407674,919.314598,-1850.514855,9696.697840
1031.407990,689.485948,-1554.432478,9992.780217
1031.408306,306.438199,-814.226536,9992.780217
1031.408621,-153.219100,-444.123565,9696.697840
1031.408937,-459.657299,-0.000000,9622.677246
1031.409253,459.657299,740.205942,9474.636058
1031.409569,919.314598,1184.329507,9030.512492
1031.409885,1685.410096,1110.308913,9030.512492
1031.410200,1762.019645,74.020594,8734.430116
1031.410516,1915.238745,-962.267725,9326.594869
1031.410832,1915.238745,-1628.453072,9400.615463
1031.411148,1991.848295,-1776.494261,9918.759623
1031.411464,1762.019645,-1184.329507,9622.677246
1031.411779,766.095498,-370.102971,9548.656652
1031.412095,153.219100,-74.020594,9770.718434
1031.412411,76.609550,296.082377,9844.739029
1031.412727,229.828649,1184.329507,9918.759623
1031.413042,612.876398,1480.411884,8734.430116
1031.413358,612.876398,1110.308913,8586.388927
1031.413674,995.924147,-148.041188,9178.553681
1031.413990,919.314598,-1184.329507,9474.636058
1031.414306,842.705048,-1998.556043,9770.718434
1031.414621,459.657299,-1924.535449,10214.842000
1031.414937,0.000000,-1628.453072,9844.739029
1031.415253,-306.438199,-1184.329507,9770.718434
1031.415569,-842.705048,-814.226536,9844.739029
1031.415885,-383.047749,222.061783,9548.656652
1031.416200,0.000000,1258.350101,9474.636058
1031.416516,459.657299,1332.370696,8808.450710
1031.416832,1072.533697,666.185348,8142.265362
1031.417148,842.705048,-444.123565,8734.430116
1031.417464,1149.143247,-1258.350101,9474.636058
1031.417779,1072.533697,-1998.556043,9696.697840
1031.418095,536.266849,-1776.494261,9696.697840
1031.418411,-536.266849,-1184.329507,10066.800811
1031.418727,-919.314598,-888.247130,9918.759623
1031.419043,-995.924147,-74.020594,9770.718434
1031.419358,-1225.752797,444.123565,9474.636058
1031.419674,-459.657299,1406.391290,8956.491898
1031.419990,0.000000,1184.329507,9178.553681
1031.420306,153.219100,370.102971,9030.512492
1031.420622,459.657299,-518.144159,9326.594869
1031.420937,612.876398,-1776.494261,9918.759623
1031.421253,689.485948,-1850.514855,9844.739029
1031.421569,612.876398,-1480.411884,9918.759623
1031.421885,-383.047749,-1258.350101,9918.759623
1031.422201,-306.438199,-0.000000,10066.800811
1031.422516,-306.438199,666.185348,9696.697840
1031.422832,229.828649,1702.473667,9178.553681
1031.423148,229.828649,2072.576638,8956.491898
1031.423464,1225.752797,1332.370696,8660.409521
1031.423779,1685.410096,-0.000000,8956.491898
1031.424095,1685.410096,-1332.370696,9178.553681
1031.424411,1685.410096,-1776.494261,9622.677246
1031.424727,1532.190996,-1850.514855,9992.780217
1031.425042,1149.143247,-1110.308913,9770.718434
1031.425358,536.266849,-518.144159,9474.636058
1031.425674,0.000000,-0.000000,9696.697840
1031.425989,153.219100,666.185348,9918.759623
1031.426305,536.266849,1628.453072,9030.512492
1031.426621,842.705048,1628.453072,8808.450710
1031.426937,1455.581446,1036.288319,8660.409521
1031.427252,1149.143247,-296.082377,8882.471304
1031.427568,1455.581446,-1110.308913,9992.780217
1031.427884,1225.752797,-1924.535449,9770.718434
1031.428199,459.657299,-1850.514855,9992.780217
1031.428515,153.219100,-1110.308913,9844.739029
1031.428831,-689.485948,-592.164754,10140.821405
1031.429147,-459.657299,-0.000000,10066.800811
1031.429462,-153.219100,740.205942,9622.677246
1031.429778,383.047749,1776.494261,8956.491898
1031.430094,1302.362347,1628.453072,8956.491898
1031.430409,1378.971896,592.164754,8438.347739
1031.430725,1762.019645,-222.061783,8956.491898
1031.431041,1838.629195,-1480.411884,9474.636058
1031.431357,1915.238745,-1850.514855,9548.656652
1031.431672,1225.752797,-1406.391290,9474.636058
1031.431988,0.000000,-1406.391290,9400.615463
1031.432304,-383.047749,-296.082377,9844.739029
1031.432619,-689.485948,222.061783,9844.739029
1031.432935,-306.438199,1406.391290,9474.636058
1031.433251,76.609550,1776.494261,8956.491898
1031.433567,306.438199,888.247130,9178.553681
1031.433882,536.266849,-148.041188,9252.574275
1031.434198,306.438199,-1406.391290,9474.636058
1031.434514,995.924147,-2072.576638,9992.780217
1031.434829,459.657299,-2146.597232,9918.759623
1031.435145,153.219100,-1332.370696,9696.697840
1031.435461,-383.047749,-296.082377,9696.697840
1031.435777,-842.705048,222.061783,9844.739029
1031.436092,-536.266849,1110.308913,9622.677246
1031.436408,-153.219100,1776.494261,8956.491898
1031.436724,536.266849,1628.453072,8882.471304
1031.437039,689.485948,592.164754,8438.347739
1031.437355,842.705048,-592.164754,9030.512492
1031.437671,919.314598,-1554.432478,9474.636058
1031.437987,1072.533697,-2072.576638,9992.780217
1031.438302,306.438199,-1628.453072,9918.759623
1031.438618,153.219100,-1036.288319,9696.697840
1031.438934,-459.657299,-518.144159,9918.759623
1031.439249,-459.657299,370.102971,10066.800811
1031.439565,-306.438199,1110.308913,9474.636058
1031.439881,306.438199,1850.514855,8586.388927
1031.440197,536.266849,1702.473667,8882.471304
1031.440512,766.095498,444.123565,8660.409521
1031.440828,689.485948,-518.144159,9104.533087
1031.441144,766.095498,-1776.494261,9844.739029
1031.441459,689.485948,-2146.597232,10288.862594
1031.441775,689.485948,-1702.473667,9770.718434
1031.442091,-153.219100,-1480.411884,9918.759623
1031.442407,-919.314598,-592.164754,9918.759623
1031.442722,-536.266849,-148.041188,9918.759623
1031.443038,0.000000,1184.329507,9696.697840
1031.443354,306.438199,1850.514855,9178.553681
1031.443669,766.095498,1110.308913,8660.409521
1031.443985,1455.581446,-0.000000,8882.471304
1031.444301,1838.629195,-1110.308913,9030.512492
1031.444617,1455.581446,-1702.473667,9770.718434
1031.444932,1302.362347,-1776.494261,9770.718434
1031.445248,1072.533697,-1184.329507,9770.718434
1031.445564,76.609550,-74.020594,9770.718434
1031.445879,0.000000,-0.000000,9770.718434
1031.446195,-153.219100,1406.391290,9696.697840
1031.446511,0.000000,2220.617826,8956.491898
1031.446827,383.047749,1702.473667,8808.450710
1031.447142,1378.971896,740.205942,8882.471304
1031.447458,919.314598,-444.123565,9474.636058
1031.447774,766.095498,-1776.494261,9696.697840
1031.448089,919.314598,-2146.597232,9770.718434
1031.448405,383.047749,-1628.453072,9770.718434
1031.448721,0.000000,-962.267725,9474.636058
1031.449037,-536.266849,-148.041188,9696.697840
1031.449352,-689.485948,740.205942,9622.677246
1031.449668,-306.438199,1406.391290,9178.553681
1031.449984,76.609550,1924.535449,8882.471304
1031.450299,689.485948,1036.288319,8660.409521
1031.450615,612.876398,-148.041188,8808.450710
1031.450931,766.095498,-962.267725,9252.574275
1031.451247,536.266849,-2146.597232,9770.718434
1031.451562,766.095498,-2146.597232,9992.780217
1031.451878,229.828649,-1480.411884,9992.780217
1031.452194,-383.047749,-888.247130,10066.800811
1031.452509,-842.705048,-0.000000,10140.821405
1031.452825,-842.705048,962.267725,9770.718434
1031.453141,-383.047749,1628.453072,9400.615463
1031.453457,0.000000,1258.350101,9252.574275
1031.453772,383.047749,888.247130,8734.430116
1031.454088,1072.533697,-0.000000,8882.471304
1031.454404,536.266849,-1110.308913,9326.594869
1031.454719,919.314598,-1406.391290,9770.718434
1031.455035,1378.971896,-1850.514855,10066.800811
1031.455351,383.047749,-814.226536,9770.718434
1031.455666,-459.657299,-666.185348,9918.759623
1031.455982,-919.314598,-222.061783,9918.759623
1031.456298,-766.095498,444.123565,9992.780217
1031.456614,0.000000,1184.329507,9548.656652
1031.456929,612.876398,1406.391290,9030.512492
1031.457245,1149.143247,518.144159,8660.409521
1031.457561,1378.971896,-592.164754,8956.491898
1031.457876,1838.629195,-1258.350101,9326.594869
1031.458192,1685.410096,-2072.576638,9844.739029
1031.458508,1838.629195,-1628.453072,9770.718434
1031.458824,919.314598,-1554.432478,9844.739029
1031.459139,229.828649,-666.185348,9696.697840
1031.459455,306.438199,592.164754,9770.718434
1031.459771,229.828649,1036.288319,9326.594869
1031.460086,995.924147,1924.535449,8882.471304
1031.460402,1225.752797,1332.370696,8512.368333
1031.460718,1378.971896,-0.000000,9030.512492
1031.461034,1762.019645,-962.267725,9104.533087
1031.461349,1378.971896,-1998.556043,9770.718434
1031.461665,1149.143247,-2442.679609,9992.780217
1031.461981,612.876398,-1480.411884,9918.759623
1031.462296,153.219100,-888.247130,9844.739029
1031.462612,-306.438199,-0.000000,9770.718434
1031.462928,-459.657299,518.144159,9696.697840
1031.463244,229.828649,1406.391290,9474.636058
1031.463559,766.095498,1332.370696,8734.430116
1031.463875,1225.752797,740.205942,8808.450710
1031.464191,1378.971896,-296.082377,8808.450710
1031.464506,1532.190996,-1184.329507,9178.553681
1031.464822,1378.971896,-1850.514855,9474.636058
1031.465138,1302.362347,-1406.391290,9474.636058
1031.465454,383.047749,-1258.350101,9252.574275
1031.465769,-536.266849,-666.185348,9252.574275
1031.466085,-919.314598,-222.061783,9696.697840
1031.466401,-536.266849,666.185348,9548.656652
1031.466716,-459.657299,1480.411884,9030.512492
1031.467032,153.219100,1258.350101,8956.491898
1031.467348,0.000000,370.102971,8734.430116
1031.467664,306.438199,-666.185348,9030.512492
1031.467979,459.657299,-1406.391290,9696.697840
1031.468295,76.609550,-1776.494261,9844.739029
1031.468611,0.000000,-1332.370696,9918.759623
1031.468926,-766.095498,-962.267725,9918.759623
1031.469242,-1149.143247,-148.041188,9918.759623
1031.469558,-1455.581446,666.185348,9992.780217
1031.469874,-995.924147,1850.514855,9400.615463
1031.470189,-612.876398,2294.638420,9474.636058
1031.470505,153.219100,1628.453072,9104.533087
1031.470821,689.485948,592.164754,8882.471304
1031.471136,1149.143247,-444.123565,9252.574275
1031.471452,1685.410096,-1702.473667,9696.697840
1031.471768,1378.971896,-1406.391290,10140.821405
1031.472084,919.314598,-666.185348,9770.718434
1031.472399,306.438199,-0.000000,9918.759623
1031.472715,-383.047749,444.123565,9844.739029
1031.473031,0.000000,1554.432478,9770.718434
1031.473346,0.000000,2072.576638,9474.636058
1031.473662,689.485948,2072.576638,9400.615463
1031.473978,995.924147,740.205942,9178.553681
1031.474294,766.095498,-222.061783,9474.636058
1031.474609,919.314598,-1258.350101,9696.697840
1031.474925,1149.143247,-1776.494261,10214.842000
1031.475241,1072.533697,-1258.350101,10140.821405
1031.475556,383.047749,-814.226536,10288.862594
1031.475872,-229.828649,-74.020594,9992.780217
1031.476188,-1072.533697,-74.020594,9696.697840
1031.476504,0.000000,888.247130,9770.718434
1031.476819,459.657299,1258.350101,9400.615463
1031.477135,1072.533697,1406.391290,8882.471304
1031.477451,1915.238745,666.185348,8660.409521
1031.477766,1762.019645,-370.102971,9104.533087
1031.478082,1838.629195,-1406.391290,9696.697840
1031.478398,1838.629195,-1998.556043,9844.739029
1031.478714,1455.581446,-1332.370696,9844.739029
1031.479029,1302.362347,-962.267725,9918.759623
1031.479345,306.438199,-518.144159,9770.718434
1031.479661,-229.828649,-74.020594,9918.759623
1031.479976,0.000000,592.164754,9400.615463
1031.480292,383.047749,1776.494261,8808.450710
1031.480608,153.219100,1258.350101,8142.265362
1031.480924,1072.533697,148.041188,8438.347739
1031.481239,842.705048,-1036.288319,8956.491898
1031.481555,766.095498,-2072.576638,9770.718434
1031.481871,1072.533697,-2590.720797,9844.739029
1031.482186,612.876398,-2146.597232,10214.842000
1031.482502,-229.828649,-1110.308913,9474.636058
1031.482818,-612.876398,-222.061783,9622.677246
1031.483134,-842.705048,296.082377,9622.677246
1031.483449,-536.266849,962.267725,9326.594869
1031.483765,-383.047749,666.185348,9030.512492
1031.484081,383.047749,370.102971,8438.347739
1031.484396,612.876398,-740.205942,8882.471304
1031.484712,919.314598,-1554.432478,9178.553681
1031.485028,995.924147,-2368.659014,9474.636058
1031.485344,842.705048,-2220.617826,9326.594869
1031.485659,229.828649,-888.247130,9474.636058
1031.485975,-306.438199,-666.185348,9326.594869
1031.486291,-689.485948,-0.000000,9474.636058
1031.486606,-842.705048,666.185348,9326.594869
1031.486922,-153.219100,1184.329507,9030.512492
1031.487238,0.000000,1036.288319,9252.574275
1031.487554,383.047749,-0.000000,8956.491898
1031.487869,536.266849,-814.226536,9252.574275
1031.488185,153.219100,-1628.453072,9548.656652
1031.488501,459.657299,-2146.597232,9770.718434
1031.488816,383.047749,-1258.350101,10066.800811
1031.489132,76.609550,-666.185348,9548.656652
1031.489448,-766.095498,-148.041188,9474.636058
1031.489764,-766.095498,592.164754,9992.780217
1031.490079,-536.266849,740.205942,9622.677246
1031.490395,0.000000,1332.370696,9474.636058
1031.490711,689.485948,1036.288319,9030.512492
1031.491026,1302.362347,-74.020594,8956.491898
1031.491342,1378.971896,-740.205942,9548.656652
1031.491658,1378.971896,-1184.329507,9844.739029
1031.491974,1378.971896,-1332.370696,10214.842000
1031.492289,995.924147,-962.267725,9844.739029
1031.492605,306.438199,-444.123565,9622.677246
1031.492921,-153.219100,148.041188,10066.800811
1031.493236,76.609550,814.226536,9992.780217
1031.493552,459.657299,1776.494261,9770.718434
1031.493868,842.705048,2146.597232,8882.471304
1031.494184,1225.752797,1332.370696,8734.430116
1031.494499,1685.410096,-0.000000,9326.594869
1031.494815,1685.410096,-1110.308913,9696.697840
1031.495131,1532.190996,-1776.494261,9992.780217
1031.495446,1225.752797,-1776.494261,10510.924376
1031.495762,689.485948,-1036.288319,10066.800811
1031.496078,0.000000,-444.123565,9696.697840
1031.496394,0.000000,592.164754,10140.821405
1031.496709,0.000000,1332.370696,9548.656652
1031.497025,612.876398,1998.556043,8956.491898
1031.497341,1532.190996,2220.617826,8586.388927
1031.497656,1455.581446,296.082377,8956.491898
1031.497972,1762.019645,-222.061783,9326.594869
1031.498288,1685.410096,-1258.350101,9326.594869
1031.498604,1608.800546,-1776.494261,9770.718434
1031.498919,842.705048,-888.247130,9992.780217
1031.499235,306.438199,-518.144159,9548.656652
1031.499551,-153.219100,-74.020594,9622.677246
1031.499866,-689.485948,592.164754,9696.697840
1031.500182,-612.876398,1258.350101,9252.574275
1031.500498,0.000000,1702.473667,9030.512492
1031.500814,536.266849,1184.329507,8882.471304
1031.501129,306.438199,148.041188,8734.430116
1031.501445,383.047749,-888.247130,9474.636058
1031.501761,383.047749,-1702.473667,9548.656652
1031.502076,383.047749,-2072.576638,9548.656652
1031.502392,-229.828649,-1036.288319,9770.718434
1031.502708,-612.876398,-962.267725,9696.697840
1031.503024,-842.705048,-296.082377,9696.697840
1031.503339,-1149.143247,370.102971,9696.697840
1031.503655,-536.266849,1258.350101,9178.553681
1031.503971,-153.219100,1554.432478,8882.471304
1031.504286,536.266849,1184.329507,8216.285956
1031.504602,689.485948,148.041188,8808.450710
1031.504918,1302.362347,-888.247130,9104.533087
1031.505233,1149.143247,-1776.494261,9178.553681
1031.505549,919.314598,-1924.535449,9474.636058
1031.505865,153.219100,-1184.329507,9548.656652
1031.506181,-459.657299,-370.102971,9474.636058
1031.506496,-766.095498,148.041188,10214.842000
1031.506812,-1378.971896,444.123565,10214.842000
1031.507128,-689.485948,1258.350101,9548.656652
1031.507443,153.219100,1332.370696,8956.491898
1031.507759,383.047749,222.061783,8660.409521
1031.508075,536.266849,-888.247130,9474.636058
1031.508391,689.485948,-1628.453072,9548.656652
1031.508706,995.924147,-1850.514855,10066.800811
1031.509022,842.705048,-1554.432478,10066.800811
1031.509338,153.219100,-666.185348,9696.697840
1031.509653,0.000000,-0.000000,9622.677246
1031.509969,-153.219100,296.082377,9770.718434
1031.510285,153.219100,1258.350101,9548.656652
1031.510601,919.314598,1554.432478,9326.594869
1031.510916,1455.581446,814.226536,8734.430116
1031.511232,1762.019645,-0.000000,9252.574275
1031.511548,1838.629195,-814.226536,9474.636058
1031.511863,1762.019645,-1554.432478,9844.739029
1031.512179,1685.410096,-1776.494261,10140.821405
1031.512495,1455.581446,-1480.411884,9992.780217
1031.512811,689.485948,-962.267725,9992.780217
1031.513126,0.000000,-0.000000,9918.759623
1031.513442,-229.828649,518.144159,10066.800811
1031.513758,76.609550,1258.350101,9770.718434
1031.514073,842.705048,1554.432478,9030.512492
1031.514389,1302.362347,1184.329507,8734.430116
1031.514705,1455.581446,-518.144159,8808.450710
1031.515021,1378.971896,-1258.350101,9252.574275
1031.515336,1072.533697,-1924.535449,9622.677246
1031.515652,995.924147,-1924.535449,9844.739029
1031.515968,536.266849,-1406.391290,9992.780217
1031.516283,-229.828649,-740.205942,9696.697840
1031.516599,-612.876398,-0.000000,9992.780217
1031.516915,-459.657299,814.226536,9326.594869
1031.517231,229.828649,1480.411884,9474.636058
1031.517546,536.266849,1258.350101,8660.409521
1031.517862,766.095498,148.041188,8734.430116
1031.518178,1149.143247,-814.226536,8882.471304
1031.518493,995.924147,-1554.432478,9326.594869
1031.518809,1225.752797,-2146.597232,9400.615463
1031.519125,689.485948,-1554.432478,9622.677246
1031.519441,-76.609550,-1036.288319,9770.718434
1031.519756,-995.924147,-370.102971,9770.718434
1031.520072,-919.314598,222.061783,9548.656652
1031.520388,-1072.533697,1332.370696,9696.697840
1031.520703,-229.828649,1850.514855,9178.553681
1031.521019,229.828649,1258.350101,8882.471304
1031.521335,612.876398,-0.000000,8660.409521
1031.521651,689.485948,-1036.288319,9252.574275
1031.521966,766.095498,-1850.514855,9548.656652
1031.522282,766.095498,-2072.576638,9474.636058
1031.522598,306.438199,-1332.370696,9992.780217
1031.522913,-383.047749,-814.226536,9622.677246
1031.523229,-306.438199,-0.000000,9548.656652
1031.523545,-612.876398,888.247130,9178.553681
1031.523861,-153.219100,1480.411884,9104.533087
1031.524176,536.266849,1480.411884,9252.574275
1031.524492,766.095498,814.226536,8586.388927
1031.524808,1225.752797,148.041188,8882.471304
1031.525123,1378.971896,-1110.308913,9400.615463
1031.525439,1455.581446,-1924.535449,9918.759623
1031.525755,1149.143247,-1628.453072,10066.800811
1031.526071,536.266849,-666.185348,9918.759623
1031.526386,689.485948,-296.082377,9770.718434
1031.526702,-306.438199,444.123565,9844.739029
1031.527018,153.219100,1332.370696,9696.697840
1031.527334,536.266849,1776.494261,9474.636058
1031.527649,919.314598,1998.556043,8512.368333
1031.527965,1455.581446,666.185348,8660.409521
1031.528281,1378.971896,-518.144159,9252.574275
1031.528597,1455.581446,-1184.329507,9474.636058
1031.528912,1302.362347,-1628.453072,9844.739029
1031.529228,1072.533697,-1184.329507,9992.780217
1031.529544,229.828649,-962.267725,9844.739029
1031.529860,-689.485948,-592.164754,9992.780217
1031.530175,-459.657299,296.082377,10066.800811
1031.530491,-536.266849,962.267725,9770.718434
1031.530807,459.657299,1554.432478,9474.636058
1031.531123,995.924147,1184.329507,8290.306550
1031.531438,919.314598,-74.020594,8734.430116
1031.531754,1149.143247,-1258.350101,9474.636058
1031.532070,1225.752797,-1998.556043,9622.677246
1031.532386,1072.533697,-1776.494261,9992.780217
1031.532701,612.876398,-1110.308913,9622.677246
1031.533017,0.000000,-296.082377,9622.677246
1031.533333,-612.876398,148.041188,9770.718434
1031.533649,-383.047749,888.247130,9696.697840
1031.533964,0.000000,1480.411884,9030.512492
1031.534280,306.438199,1628.453072,8882.471304
1031.534596,612.876398,666.185348,8512.368333
1031.534912,689.485948,-666.185348,9326.594869
1031.535227,766.095498,-1480.411884,9696.697840
1031.535543,1072.533697,-1998.556043,9474.636058
1031.535859,612.876398,-1332.370696,10066.800811
1031.536175,229.828649,-962.267725,10066.800811
1031.536490,-383.047749,-74.020594,9622.677246
1031.536806,-842.705048,444.123565,9548.656652
1031.537122,-459.657299,1110.308913,9548.656652
1031.537438,76.609550,1628.453072,9400.615463
1031.537753,459.657299,1332.370696,8734.430116
1031.538069,995.924147,-0.000000,8586.388927
1031.538385,1149.143247,-666.185348,9030.512492
1031.538701,1302.362347,-1406.391290,9622.677246
1031.539016,1378.971896,-1998.556043,9622.677246
1031.539332,842.705048,-1036.288319,10214.842000
1031.539648,229.828649,-592.164754,9400.615463
1031.539964,-153.219100,-74.020594,9400.615463
1031.540279,-153.219100,666.185348,9548.656652
1031.540595,-229.828649,1110.308913,9474.636058
1031.540911,0.000000,1554.432478,9252.574275
1031.541227,612.876398,666.185348,8660.409521
1031.541542,689.485948,-296.082377,9178.553681
1031.541858,842.705048,-1110.308913,9548.656652
1031.542174,995.924147,-1924.535449,9770.718434
1031.542489,1149.143247,-1850.514855,9844.739029
1031.542805,153.219100,-1554.432478,10288.862594
1031.543121,-306.438199,-814.226536,9844.739029
1031.543437,-306.438199,-296.082377,9696.697840
1031.543752,-459.657299,444.123565,9770.718434
1031.544068,0.000000,1184.329507,9400.615463
1031.544384,612.876398,1406.391290,8660.409521
1031.544700,536.266849,518.144159,8734.430116
1031.545015,995.924147,-370.102971,9400.615463
1031.545331,1455.581446,-1554.432478,9474.636058
1031.545647,1302.362347,-1776.494261,9548.656652
1031.545963,1302.362347,-1480.411884,9770.718434
1031.546278,1149.143247,-962.267725,9844.739029
1031.546594,153.219100,-222.061783,9474.636058
1031.546910,-153.219100,444.123565,9622.677246
1031.547226,153.219100,1110.308913,9252.574275
1031.547541,306.438199,1628.453072,8882.471304
1031.547857,689.485948,1036.288319,8734.430116
1031.548173,842.705048,-0.000000,9178.553681
1031.548489,612.876398,-1110.308913,9252.574275
1031.548804,1072.533697,-1850.514855,9548.656652
1031.549120,766.095498,-2072.576638,9918.759623
1031.549436,766.095498,-1776.494261,10140.821405
1031.549752,76.609550,-888.247130,9992.780217
1031.550067,-612.876398,-148.041188,9844.739029
1031.550383,-689.485948,592.164754,9696.697840
1031.550699,-536.266849,1406.391290,9030.512492
1031.551015,153.219100,1702.473667,9178.553681
1031.551330,536.266849,1184.329507,8660.409521
1031.551646,1072.533697,296.082377,8734.430116
1031.551962,995.924147,-888.247130,9326.594869
1031.552278,995.924147,-1480.411884,9474.636058
1031.552593,919.314598,-1776.494261,9844.739029
1031.552909,383.047749,-1406.391290,9992.780217
1031.553225,-383.047749,-592.164754,9622.677246
1031.553541,-995.924147,-0.000000,9844.739029
1031.553856,-689.485948,296.082377,9770.718434
1031.554172,-766.095498,1258.350101,9474.636058
1031.554488,0.000000,1258.350101,9178.553681
1031.554804,153.219100,592.164754,8956.491898
1031.555119,306.438199,-296.082377,9178.553681
1031.555435,1225.752797,-1406.391290,9696.697840
1031.555751,766.095498,-1628.453072,9770.718434
1031.556067,459.657299,-1406.391290,9992.780217
1031.556382,76.609550,-962.267725,9844.739029
1031.556698,-459.657299,-444.123565,9548.656652
1031.557014,-995.924147,-0.000000,9992.780217
1031.557330,-459.657299,666.185348,9696.697840
1031.557645,0.000000,1258.350101,9252.574275
1031.557961,919.314598,1628.453072,9252.574275
1031.558277,1302.362347,-74.020594,8734.430116
1031.558592,1532.190996,-666.185348,9104.533087
1031.558908,1608.800546,-1628.453072,9548.656652
1031.559224,1838.629195,-1998.556043,9918.759623
1031.559540,1685.410096,-1332.370696,10214.842000
1031.559855,766.095498,-666.185348,9844.739029
1031.560171,383.047749,148.041188,9770.718434
1031.560487,306.438199,962.267725,9696.697840
1031.560803,689.485948,1480.411884,9104.533087
1031.561118,1225.752797,1702.473667,9104.533087
1031.561434,1608.800546,888.247130,8586.388927
1031.561750,1455.581446,-222.061783,9030.512492
1031.562066,1608.800546,-962.267725,9104.533087
1031.562381,1532.190996,-1924.535449,9844.739029
1031.562697,1225.752797,-2220.617826,10140.821405
1031.563013,383.047749,-1110.308913,10214.842000
1031.563329,-229.828649,-740.205942,9844.739029
1031.563644,-612.876398,-296.082377,9992.780217
1031.563960,-306.438199,222.061783,9918.759623
1031.564276,-306.438199,1110.308913,9474.636058
1031.564592,612.876398,1036.288319,9104.533087
1031.564907,1149.143247,592.164754,8660.409521
1031.565223,1302.362347,-518.144159,8586.388927
1031.565539,1532.190996,-1332.370696,9104.533087
1031.565855,1991.848295,-1776.494261,9622.677246
1031.566170,1302.362347,-1480.411884,9696.697840
1031.566486,536.266849,-814.226536,9474.636058
1031.566802,-229.828649,-222.061783,9548.656652
1031.567118,-536.266849,-0.000000,9548.656652
1031.567433,0.000000,962.267725,9474.636058
1031.567749,-229.828649,1332.370696,9104.533087
1031.568065,306.438199,1184.329507,8808.450710
1031.568381,229.828649,296.082377,8956.491898
1031.568696,306.438199,-888.247130,9326.594869
1031.569012,229.828649,-1998.556043,9844.739029
1031.569328,76.609550,-2146.597232,9992.780217
1031.569644,0.000000,-1406.391290,9918.759623
1031.569959,-766.095498,-814.226536,9548.656652
1031.570275,-1302.362347,-0.000000,9622.677246
1031.570591,-842.705048,444.123565,9548.656652
1031.570907,-1072.533697,1554.432478,9104.533087
1031.571222,-153.219100,1554.432478,8586.388927
1031.571538,76.609550,1184.329507,8956.491898
1031.571854,689.485948,-0.000000,9030.512492
1031.572170,1149.143247,-666.185348,9104.533087
1031.572485,1149.143247,-1628.453072,9622.677246
1031.572801,1149.143247,-1480.411884,9770.718434
1031.573117,995.924147,-962.267725,9622.677246
1031.573433,383.047749,-444.123565,9548.656652
1031.573748,229.828649,296.082377,9770.718434
1031.574064,0.000000,1184.329507,9400.615463
1031.574380,153.219100,2072.576638,9252.574275
1031.574695,919.314598,1480.411884,8586.388927
1031.575011,1072.533697,888.247130,8734.430116
1031.575327,612.876398,-518.144159,9400.615463
1031.575643,919.314598,-1406.391290,9474.636058
1031.575958,689.485948,-1924.535449,9992.780217
1031.576274,459.657299,-1850.514855,10362.883188
1031.576590,-383.047749,-1332.370696,10288.862594
1031.576906,-306.438199,-74.020594,10436.903782
1031.577221,-459.657299,296.082377,10066.800811
1031.577537,0.000000,962.267725,9918.759623
1031.577853,536.266849,1776.494261,9178.553681
1031.578169,1838.629195,1554.432478,8882.471304
1031.578484,1838.629195,518.144159,8734.430116
1031.578800,2068.457845,-222.061783,8956.491898
1031.579116,2298.286494,-1110.308913,9400.615463
1031.579432,2221.676944,-1480.411884,9696.697840
1031.579747,1685.410096,-1110.308913,9844.739029
1031.580063,842.705048,-592.164754,9178.553681
1031.580379,0.000000,-74.020594,9918.759623
1031.580695,-153.219100,592.164754,10066.800811
1031.581010,-306.438199,1332.370696,9622.677246
1031.581326,383.047749,1628.453072,9474.636058
1031.581642,306.438199,740.205942,8956.491898
1031.581958,306.438199,-148.041188,9252.574275
1031.582273,306.438199,-1036.288319,9548.656652
1031.582589,153.219100,-1998.556043,10066.800811
1031.582905,766.095498,-1998.556043,10510.924376
1031.583221,229.828649,-1258.350101,10140.821405
1031.583536,-766.095498,-666.185348,9918.759623
1031.583852,-612.876398,-296.082377,9918.759623
1031.584168,-383.047749,592.164754,9474.636058
1031.584484,229.828649,1480.411884,8882.471304
1031.584799,842.705048,1480.411884,8586.388927
1031.585115,1072.533697,666.185348,8290.306550
1031.585431,1225.752797,-74.020594,8660.409521
1031.585747,1991.848295,-962.267725,9326.594869
1031.586062,1455.581446,-1480.411884,9474.636058
1031.586378,1072.533697,-1776.494261,9474.636058
1031.586694,383.047749,-1036.288319,9548.656652
1031.587010,-612.876398,-740.205942,9696.697840
1031.587325,-459.657299,-296.082377,9918.759623
1031.587641,-536.266849,666.185348,9474.636058
1031.587957,-383.047749,1184.329507,9178.553681
1031.588273,0.000000,592.164754,9178.553681
1031.588588,306.438199,-222.061783,8956.491898
1031.588904,229.828649,-1184.329507,9252.574275
1031.589220,229.828649,-2220.617826,9548.656652
1031.589536,536.266849,-2146.597232,9918.759623
1031.589851,459.657299,-1628.453072,9622.677246
1031.590167,0.000000,-1258.350101,9696.697840
1031.590483,-612.876398,-370.102971,10288.862594
1031.590799,-459.657299,296.082377,9548.656652
1031.591114,0.000000,1036.288319,9104.533087
1031.591430,612.876398,1406.391290,8956.491898
1031.591746,995.924147,592.164754,8734.430116
1031.592061,1838.629195,148.041188,9622.677246
1031.592377,1685.410096,-1110.308913,9178.553681
1031.592693,1378.971896,-1702.473667,9696.697840
1031.593009,1455.581446,-1332.370696,9326.594869
