#time,accel_x,accel_y,accel_z
954.828349,-1149.143247,666.185348,9548.656652
954.828665,-1225.752797,888.247130,9696.697840
954.828980,-1455.581446,962.267725,9918.759623
954.829296,-1149.143247,962.267725,10362.883188
954.829612,-1225.752797,888.247130,9622.677246
954.829928,-1378.971896,1554.432478,9400.615463
954.830243,-1072.533697,1332.370696,9474.636058
954.830559,-766.095498,962.267725,9548.656652
954.830875,-229.828649,888.247130,9030.512492
954.831191,-229.828649,666.185348,9474.636058
954.831507,0.000000,740.205942,9622.677246
954.831822,153.219100,444.123565,9622.677246
954.832138,153.219100,740.205942,9696.697840
954.832454,306.438199,962.267725,9770.718434
954.832770,536.266849,1554.432478,9770.718434
954.833085,612.876398,1702.473667,9400.615463
954.833401,383.047749,2220.617826,9030.512492
954.833717,0.000000,2220.617826,8882.471304
954.834033,-306.438199,2146.597232,8882.471304
954.834348,-919.314598,2072.576638,8882.471304
954.834664,-1608.800546,1998.556043,9326.594869
954.834980,-2374.896044,1480.411884,9474.636058
954.835296,-3140.991542,962.267725,9696.697840
954.835612,-3064.381992,740.205942,9918.759623
954.835927,-3447.429741,592.164754,10140.821405
954.836243,-3600.648841,518.144159,10288.862594
954.836559,-3600.648841,888.247130,9992.780217
954.836875,-3370.820191,1036.288319,9844.739029
954.837190,-3294.210641,1480.411884,9622.677246
954.837506,-2834.553343,1850.514855,9548.656652
954.837822,-2834.553343,1998.556043,9104.533087
954.838138,-2451.505594,1776.494261,9178.553681
954.838453,-2145.067394,2146.597232,9030.512492
954.838769,-2221.676944,1850.514855,8734.430116
954.839085,-2221.676944,1850.514855,9400.615463
954.839401,-1838.629195,2072.576638,9104.533087
954.839717,-1915.238745,1776.494261,8882.471304
954.840032,-1991.848295,1924.535449,9252.574275
954.840348,-1838.629195,1776.494261,9178.553681
954.840664,-2068.457845,1702.473667,9474.636058
954.840980,-2221.676944,1554.432478,9622.677246
954.841295,-2221.676944,1850.514855,9548.656652
954.841611,-2451.505594,1850.514855,9474.636058
954.841927,-2451.505594,1480.411884,9622.677246
954.842243,-2451.505594,1258.350101,9918.759623
954.842559,-2145.067394,740.205942,9696.697840
954.842874,-1532.190996,1184.329507,9696.697840
954.843190,-1225.752797,1036.288319,9548.656652
954.843506,-995.924147,1184.329507,9844.739029
954.843822,-536.266849,1184.329507,9918.759623
954.844137,0.000000,1110.308913,9918.759623
954.844453,459.657299,1628.453072,9548.656652
954.844769,842.705048,1850.514855,9178.553681
954.845085,919.314598,1850.514855,8956.491898
954.845400,459.657299,1924.535449,8586.388927
954.845716,842.705048,1850.514855,8882.471304
954.846032,842.705048,2220.617826,8734.430116
954.846348,306.438199,1924.535449,9104.533087
954.846664,153.219100,1776.494261,9474.636058
954.846979,-306.438199,1258.350101,9548.656652
954.847295,-766.095498,444.123565,10214.842000
954.847611,-919.314598,-0.000000,10436.903782
954.847927,-995.924147,-444.123565,10807.006753
954.848242,-1072.533697,-962.267725,10881.027347
954.848558,-459.657299,-1258.350101,11103.089130
954.848874,0.000000,-1184.329507,10955.047942
954.849190,306.438199,-444.123565,10362.883188
954.849506,919.314598,-444.123565,9844.739029
954.849821,1838.629195,-296.082377,9474.636058
954.850137,2221.676944,-296.082377,9326.594869
954.850453,2681.334243,-0.000000,8882.471304
954.850769,2834.553343,296.082377,8660.409521
954.851084,2911.162892,296.082377,8586.388927
954.851400,3217.601092,-0.000000,8586.388927
954.851716,2834.553343,-814.226536,9252.574275
954.852032,2298.286494,-888.247130,9326.594869
954.852347,1532.190996,-1628.453072,9918.759623
954.852663,1302.362347,-1702.473667,10066.800811
954.852979,1149.143247,-1776.494261,9844.739029
954.853295,842.705048,-1554.432478,9696.697840
954.853610,612.876398,-1332.370696,9474.636058
954.853926,153.219100,-962.267725,9474.636058
954.854242,153.219100,-888.247130,9178.553681
954.854557,383.047749,-962.267725,9178.553681
954.854873,153.219100,-1036.288319,8956.491898
954.855189,-76.609550,-1850.514855,9030.512492
954.855504,0.000000,-1998.556043,9030.512492
954.855820,0.000000,-2072.576638,9474.636058
954.856136,383.047749,-2368.659014,9696.697840
954.856451,612.876398,-2220.617826,9992.780217
954.856767,1225.752797,-1332.370696,9400.615463
954.857083,1302.362347,-814.226536,8956.491898
954.857399,1378.971896,-592.164754,8290.306550
954.857714,1762.019645,-0.000000,8142.265362
954.858030,1685.410096,222.061783,7920.203579
954.858346,1608.800546,740.205942,7846.182985
954.858661,1225.752797,518.144159,7846.182985
954.858977,766.095498,-74.020594,8142.265362
954.859293,0.000000,-666.185348,8734.430116
954.859608,-612.876398,-888.247130,9104.533087
954.859924,-1149.143247,-1406.391290,9770.718434
954.860240,-1532.190996,-1554.432478,10214.842000
954.860555,-1991.848295,-1184.329507,10658.965565
954.860871,-1991.848295,-1110.308913,10288.862594
954.861187,-2374.896044,-962.267725,9992.780217
954.861502,-2221.676944,-666.185348,9992.780217
954.861818,-1608.800546,-0.000000,9474.636058
954.862134,-1149.143247,518.144159,9252.574275
954.862449,-842.705048,592.164754,8956.491898
954.862765,-536.266849,814.226536,8882.471304
954.863081,0.000000,592.164754,8734.430116
954.863396,0.000000,222.061783,9030.512492
954.863712,689.485948,-370.102971,9474.636058
954.864028,612.876398,-148.041188,9844.739029
954.864343,766.095498,444.123565,9918.759623
954.864659,995.924147,518.144159,9918.759623
954.864975,1225.752797,666.185348,9918.759623
954.865290,1225.752797,1184.329507,9918.759623
954.865606,1378.971896,1554.432478,9918.759623
954.865922,1378.971896,1554.432478,9696.697840
954.866237,1532.190996,1554.432478,9548.656652
954.866553,1762.019645,1406.391290,9400.615463
954.866869,1225.752797,1332.370696,9474.636058
954.867184,1149.143247,1036.288319,9622.677246
954.867500,766.095498,1036.288319,9992.780217
954.867816,536.266849,962.267725,10214.842000
954.868131,689.485948,740.205942,10436.903782
954.868447,459.657299,1036.288319,10214.842000
954.868763,229.828649,1406.391290,10140.821405
954.869078,76.609550,1184.329507,9770.718434
954.869394,153.219100,1258.350101,9622.677246
954.869710,306.438199,1406.391290,9844.739029
954.870025,459.657299,1184.329507,10066.800811
954.870341,612.876398,814.226536,9844.739029
954.870657,612.876398,222.061783,9770.718434
954.870972,766.095498,-74.020594,10140.821405
954.871288,766.095498,-592.164754,10288.862594
954.871604,1838.629195,-0.000000,9992.780217
954.871919,1838.629195,148.041188,9770.718434
954.872235,1991.848295,518.144159,9474.636058
954.872551,2068.457845,666.185348,9252.574275
954.872866,2451.505594,814.226536,8734.430116
954.873182,2221.676944,962.267725,8882.471304
954.873498,2068.457845,740.205942,8882.471304
954.873814,1685.410096,370.102971,9030.512492
954.874129,1225.752797,-74.020594,9474.636058
954.874445,766.095498,-814.226536,9326.594869
954.874761,0.000000,-1628.453072,9696.697840
954.875076,-229.828649,-1924.535449,10214.842000
954.875392,-383.047749,-2072.576638,10288.862594
954.875708,-689.485948,-1998.556043,10288.862594
954.876023,-459.657299,-1924.535449,9844.739029
954.876339,-383.047749,-1406.391290,9474.636058
954.876655,-612.876398,-888.247130,9030.512492
954.876970,-153.219100,-666.185348,8660.409521
954.877286,-229.828649,-666.185348,8882.471304
954.877602,0.000000,-1332.370696,8290.306550
954.877917,0.000000,-1110.308913,8512.368333
954.878233,-229.828649,-1702.473667,8882.471304
954.878549,0.000000,-1924.535449,9030.512492
954.878864,153.219100,-2220.617826,9400.615463
954.879180,76.609550,-1998.556043,9474.636058
954.879496,153.219100,-1554.432478,9548.656652
954.879811,306.438199,-1406.391290,9104.533087
954.880127,766.095498,-888.247130,8882.471304
954.880443,995.924147,-666.185348,8660.409521
954.880758,1149.143247,-74.020594,8660.409521
954.881074,1455.581446,-0.000000,8438.347739
954.881390,1149.143247,-444.123565,8660.409521
954.881705,689.485948,-444.123565,8956.491898
954.882021,306.438199,-962.267725,9030.512492
954.882337,76.609550,-1184.329507,9252.574275
954.882652,0.000000,-888.247130,9622.677246
954.882968,-459.657299,-888.247130,9918.759623
954.883284,-995.924147,-888.247130,9992.780217
954.883599,-842.705048,-962.267725,9770.718434
954.883915,-766.095498,-370.102971,9696.697840
954.884231,-842.705048,-222.061783,9326.594869
954.884546,-536.266849,-0.000000,9474.636058
954.884862,-153.219100,-222.061783,9474.636058
954.885178,76.609550,-740.205942,9474.636058
954.885493,0.000000,-296.082377,9548.656652
954.885809,0.000000,-518.144159,9622.677246
954.886125,536.266849,-814.226536,9770.718434
954.886440,459.657299,-592.164754,9770.718434
954.886756,229.828649,-592.164754,9770.718434
954.887072,1302.362347,-0.000000,9622.677246
954.887387,1532.190996,518.144159,9326.594869
954.887703,1608.800546,888.247130,9252.574275
954.888019,1532.190996,1110.308913,9400.615463
954.888334,1685.410096,814.226536,9252.574275
954.888650,1455.581446,740.205942,9548.656652
954.888966,995.924147,370.102971,9622.677246
954.889281,766.095498,148.041188,9918.759623
954.889597,612.876398,-0.000000,9844.739029
954.889913,459.657299,-666.185348,10362.883188
954.890229,383.047749,-0.000000,10214.842000
954.890544,306.438199,222.061783,10362.883188
954.890860,153.219100,814.226536,9918.759623
954.891176,0.000000,1258.350101,9326.594869
954.891491,229.828649,1406.391290,9400.615463
954.891807,459.657299,1924.535449,9178.553681
954.892123,536.266849,1924.535449,9030.512492
954.892438,229.828649,1406.391290,9252.574275
954.892754,76.609550,1036.288319,9770.718434
954.893070,306.438199,518.144159,9474.636058
954.893385,-229.828649,-0.000000,10066.800811
954.893701,0.000000,-0.000000,10658.965565
954.894017,153.219100,-148.041188,10510.924376
954.894332,536.266849,-74.020594,10214.842000
954.894648,689.485948,444.123565,9992.780217
954.894964,842.705048,666.185348,9622.677246
954.895279,995.924147,1110.308913,9178.553681
954.895595,1225.752797,1332.370696,9030.512492
954.895911,1532.190996,1258.350101,8882.471304
954.896226,1072.533697,888.247130,8956.491898
954.896542,612.876398,518.144159,8734.430116
954.896858,612.876398,-0.000000,8882.471304
954.897173,229.828649,-296.082377,9400.615463
954.897489,-229.828649,-518.144159,9696.697840
954.897805,-383.047749,-814.226536,9918.759623
954.898120,-842.705048,-740.205942,9918.759623
954.898436,-919.314598,-666.185348,9918.759623
954.898752,-1225.752797,-592.164754,9474.636058
954.899067,-842.705048,-296.082377,9548.656652
954.899383,-1378.971896,-222.061783,9326.594869
954.899699,-612.876398,-592.164754,9252.574275
954.900014,-919.314598,-888.247130,9326.594869
954.900330,-689.485948,-1258.350101,9178.553681
954.900646,-766.095498,-1480.411884,9104.533087
954.900961,-306.438199,-1776.494261,9622.677246
954.901277,153.219100,-1628.453072,9548.656652
954.901593,383.047749,-1480.411884,9474.636058
954.901908,1455.581446,-1036.288319,9104.533087
954.902224,1072.533697,-814.226536,8956.491898
954.902540,1149.143247,-370.102971,9030.512492
954.902855,1762.019645,-0.000000,8882.471304
954.903171,1685.410096,296.082377,8808.450710
954.903487,1532.190996,-0.000000,9030.512492
954.903802,1378.971896,-222.061783,9178.553681
954.904118,842.705048,-666.185348,9030.512492
954.904434,842.705048,-1036.288319,9622.677246
954.904749,383.047749,-1628.453072,9918.759623
954.905065,153.219100,-1406.391290,10214.842000
954.905381,-306.438199,-1258.350101,10140.821405
954.905697,76.609550,-888.247130,9992.780217
954.906012,0.000000,-518.144159,9844.739029
954.906328,306.438199,-148.041188,9474.636058
954.906644,459.657299,-0.000000,9030.512492
954.906959,306.438199,222.061783,9178.553681
954.907275,459.657299,-0.000000,9178.553681
954.907591,612.876398,-444.123565,9326.594869
954.907906,689.485948,-888.247130,9104.533087
954.908222,536.266849,-1036.288319,9622.677246
954.908538,919.314598,-1184.329507,9770.718434
954.908853,1225.752797,-1184.329507,10140.821405
954.909169,1149.143247,-666.185348,9770.718434
954.909485,1225.752797,-666.185348,9918.759623
954.909800,1608.800546,-296.082377,9474.636058
954.910116,1991.848295,148.041188,9252.574275
954.910432,2068.457845,370.102971,8956.491898
954.910747,1685.410096,370.102971,8808.450710
954.911063,1762.019645,296.082377,9030.512492
954.911379,1455.581446,148.041188,9030.512492
954.911694,919.314598,-222.061783,9030.512492
954.912010,689.485948,-518.144159,9474.636058
954.912326,383.047749,-740.205942,9992.780217
954.912641,-306.438199,-666.185348,9918.759623
954.912957,-306.438199,-370.102971,10214.842000
954.913273,-766.095498,-74.020594,9844.739029
954.913588,-766.095498,-0.000000,9474.636058
954.913904,-689.485948,518.144159,9696.697840
954.914220,-383.047749,148.041188,9474.636058
954.914535,-306.438199,666.185348,9474.636058
954.914851,-612.876398,370.102971,9474.636058
954.915167,-306.438199,148.041188,9252.574275
954.915482,0.000000,-222.061783,9474.636058
954.915798,229.828649,-370.102971,9474.636058
954.916114,536.266849,-0.000000,9844.739029
954.916429,766.095498,-0.000000,9696.697840
954.916745,1225.752797,444.123565,9622.677246
954.917061,1225.752797,962.267725,9326.594869
954.917376,1685.410096,1110.308913,9030.512492
954.917692,1532.190996,1406.391290,8660.409521
954.918008,1455.581446,1554.432478,8882.471304
954.918323,1455.581446,1184.329507,9474.636058
954.918639,995.924147,666.185348,9252.574275
954.918955,536.266849,444.123565,9474.636058
954.919270,0.000000,-222.061783,9696.697840
954.919586,0.000000,-666.185348,10140.821405
954.919902,-229.828649,-814.226536,10658.965565
954.920217,-306.438199,-666.185348,10140.821405
954.920533,-459.657299,-444.123565,10214.842000
954.920849,-306.438199,-0.000000,9918.759623
954.921164,0.000000,222.061783,9474.636058
954.921480,-306.438199,666.185348,9400.615463
954.921796,-306.438199,518.144159,9400.615463
954.922112,76.609550,592.164754,9252.574275
954.922427,229.828649,-0.000000,9252.574275
954.922743,229.828649,-74.020594,9178.553681
954.923059,0.000000,-666.185348,9474.636058
954.923374,76.609550,-1258.350101,9770.718434
954.923690,459.657299,-1258.350101,10140.821405
954.924006,689.485948,-1184.329507,9918.759623
954.924321,766.095498,-888.247130,9696.697840
954.924637,995.924147,-148.041188,9474.636058
954.924953,1455.581446,-0.000000,9178.553681
954.925268,1149.143247,222.061783,9178.553681
954.925584,1532.190996,370.102971,9178.553681
954.925900,1532.190996,-0.000000,9178.553681
954.926215,1762.019645,-0.000000,8956.491898
954.926531,995.924147,-0.000000,9178.553681
954.926847,842.705048,-740.205942,9252.574275
954.927162,842.705048,-740.205942,9844.739029
954.927478,612.876398,-740.205942,9918.759623
954.927794,76.609550,-592.164754,9844.739029
954.928109,153.219100,-222.061783,9696.697840
954.928425,-229.828649,-296.082377,9474.636058
954.928741,-306.438199,-74.020594,9400.615463
954.929056,0.000000,-74.020594,9770.718434
954.929372,-229.828649,-222.061783,9400.615463
954.929688,0.000000,-740.205942,9326.594869
954.930003,229.828649,-1110.308913,9474.636058
954.930319,76.609550,-1406.391290,9474.636058
954.930635,229.828649,-1628.453072,9474.636058
954.930950,842.705048,-1332.370696,9770.718434
954.931266,1149.143247,-888.247130,9474.636058
954.931582,1455.581446,-592.164754,9326.594869
954.931897,1378.971896,-74.020594,9178.553681
954.932213,1838.629195,-0.000000,8882.471304
954.932529,1762.019645,222.061783,8660.409521
954.932844,1608.800546,592.164754,8512.368333
954.933160,1378.971896,370.102971,8734.430116
954.933476,1225.752797,-0.000000,9104.533087
954.933791,766.095498,-592.164754,8956.491898
954.934107,0.000000,-1110.308913,9400.615463
954.934423,0.000000,-1258.350101,10066.800811
954.934738,-153.219100,-1480.411884,10140.821405
954.935054,-229.828649,-1184.329507,10362.883188
954.935370,-689.485948,-666.185348,10066.800811
954.935685,-612.876398,-222.061783,9548.656652
954.936001,-842.705048,148.041188,9252.574275
954.936317,-306.438199,370.102971,9104.533087
954.936632,-842.705048,592.164754,8882.471304
954.936948,-153.219100,370.102971,8882.471304
954.937264,-459.657299,222.061783,9178.553681
954.937579,-306.438199,-148.041188,9474.636058
954.937895,-383.047749,-444.123565,9622.677246
954.938211,-306.438199,-518.144159,9770.718434
954.938527,-229.828649,-444.123565,10066.800811
954.938842,0.000000,-222.061783,9844.739029
954.939158,229.828649,-74.020594,9992.780217
954.939474,306.438199,148.041188,9474.636058
954.939789,766.095498,740.205942,9474.636058
954.940105,995.924147,962.267725,9252.574275
954.940421,919.314598,1184.329507,9178.553681
954.940736,1302.362347,1258.350101,9104.533087
954.941052,1302.362347,1184.329507,9178.553681
954.941368,1072.533697,666.185348,9252.574275
954.941683,459.657299,370.102971,9474.636058
954.941999,76.609550,-0.000000,9918.759623
954.942315,0.000000,-0.000000,9992.780217
954.942630,-229.828649,-0.000000,9844.739029
954.942946,-229.828649,444.123565,10066.800811
954.943262,-612.876398,444.123565,9992.780217
954.943577,-536.266849,518.144159,9622.677246
954.943893,-229.828649,296.082377,9770.718434
954.944209,-689.485948,370.102971,9548.656652
954.944524,-229.828649,-0.000000,9696.697840
954.944840,0.000000,-222.061783,9622.677246
954.945156,0.000000,-370.102971,9622.677246
954.945471,0.000000,-814.226536,9918.759623
954.945787,306.438199,-814.226536,10066.800811
954.946103,766.095498,-444.123565,9844.739029
954.946418,995.924147,-148.041188,9696.697840
954.946734,1455.581446,-0.000000,9474.636058
954.947050,1915.238745,222.061783,8956.491898
954.947365,1838.629195,888.247130,9178.553681
954.947681,1608.800546,740.205942,8882.471304
954.947997,1838.629195,740.205942,9030.512492
954.948312,1532.190996,296.082377,9400.615463
954.948628,1149.143247,-222.061783,9400.615463
954.948944,459.657299,-740.205942,9548.656652
954.949259,153.219100,-1110.308913,9992.780217
954.949575,76.609550,-1332.370696,10288.862594
954.949891,-153.219100,-1332.370696,10288.862594
954.950206,0.000000,-962.267725,10362.883188
954.950522,-536.266849,-592.164754,9918.759623
954.950838,0.000000,-296.082377,9178.553681
954.951153,0.000000,222.061783,9104.533087
954.951469,-229.828649,148.041188,9030.512492
954.951785,0.000000,-74.020594,8956.491898
954.952100,0.000000,-296.082377,9030.512492
954.952416,76.609550,-888.247130,9400.615463
954.952732,0.000000,-1554.432478,9474.636058
954.953047,0.000000,-1776.494261,9696.697840
954.953363,306.438199,-2072.576638,10066.800811
954.953679,612.876398,-1702.473667,9918.759623
954.953994,766.095498,-1184.329507,9474.636058
954.954310,1149.143247,-666.185348,9326.594869
954.954626,1532.190996,-148.041188,8882.471304
954.954942,1915.238745,148.041188,8586.388927
954.955258,1838.629195,222.061783,8586.388927
954.955573,1608.800546,222.061783,8734.430116
954.955889,1838.629195,-0.000000,8660.409521
954.956205,1225.752797,-370.102971,8808.450710
954.956521,919.314598,-1110.308913,9400.615463
954.956837,536.266849,-1258.350101,9474.636058
954.957153,0.000000,-1184.329507,9918.759623
954.957468,-536.266849,-1110.308913,9918.759623
954.957784,-919.314598,-1036.288319,9992.780217
954.958100,-842.705048,-666.185348,9992.780217
954.958416,-995.924147,-370.102971,9696.697840
954.958732,-766.095498,-444.123565,9326.594869
954.959048,-842.705048,-370.102971,9252.574275
954.959363,-306.438199,-370.102971,9548.656652
954.959679,-153.219100,-518.144159,9474.636058
954.959995,0.000000,-962.267725,9326.594869
954.960311,306.438199,-888.247130,9400.615463
954.960627,612.876398,-1036.288319,9622.677246
954.960943,1149.143247,-814.226536,9622.677246
954.961258,1149.143247,-0.000000,9474.636058
954.961574,1455.581446,296.082377,9326.594869
954.961890,1915.238745,592.164754,9400.615463
954.962206,1991.848295,888.247130,9030.512492
954.962522,1608.800546,1184.329507,9030.512492
954.962837,1455.581446,740.205942,9178.553681
954.963153,1455.581446,666.185348,9622.677246
954.963469,919.314598,-0.000000,9474.636058
954.963785,76.609550,-148.041188,9770.718434
954.964101,153.219100,-814.226536,9918.759623
954.964417,0.000000,-740.205942,10436.903782
954.964732,-306.438199,-370.102971,10362.883188
954.965048,0.000000,-148.041188,10214.842000
954.965364,0.000000,296.082377,9918.759623
954.965680,-459.657299,592.164754,9696.697840
954.965996,0.000000,518.144159,9548.656652
954.966312,306.438199,740.205942,9178.553681
954.966627,383.047749,888.247130,9326.594869
954.966943,459.657299,592.164754,9178.553681
954.967259,383.047749,-0.000000,9326.594869
954.967575,459.657299,-222.061783,9474.636058
954.967891,229.828649,-444.123565,9844.739029
954.968207,612.876398,-740.205942,9844.739029
954.968522,842.705048,-518.144159,10066.800811
954.968838,842.705048,-296.082377,9992.780217
954.969154,1225.752797,-148.041188,9474.636058
954.969470,1225.752797,-0.000000,9400.615463
954.969786,1302.362347,740.205942,9030.512492
954.970101,1685.410096,962.267725,9030.512492
954.970417,1302.362347,1110.308913,8956.491898
954.970733,1455.581446,592.164754,8882.471304
954.971049,766.095498,222.061783,9030.512492
954.971365,459.657299,-74.020594,9178.553681
954.971681,306.438199,-370.102971,9622.677246
954.971996,306.438199,-518.144159,9696.697840
954.972312,-383.047749,-444.123565,9918.759623
954.972628,-459.657299,-370.102971,9918.759623
954.972944,-383.047749,-0.000000,9770.718434
954.973260,-612.876398,-74.020594,9474.636058
954.973576,-612.876398,-0.000000,9104.533087
954.973891,-536.266849,148.041188,9252.574275
954.974207,-459.657299,-74.020594,9326.594869
954.974523,-383.047749,-148.041188,9252.574275
954.974839,76.609550,-740.205942,9252.574275
954.975155,-919.314598,-1110.308913,9548.656652
954.975471,76.609550,-1184.329507,9696.697840
954.975786,383.047749,-1184.329507,9696.697840
954.976102,612.876398,-592.164754,9770.718434
954.976418,919.314598,-518.144159,9548.656652
954.976734,1072.533697,-0.000000,9104.533087
954.977050,1378.971896,296.082377,9030.512492
954.977365,1532.190996,592.164754,8956.491898
954.977681,1225.752797,592.164754,8882.471304
954.977997,1532.190996,666.185348,9030.512492
954.978313,1378.971896,-0.000000,9104.533087
954.978629,919.314598,-370.102971,9104.533087
954.978945,0.000000,-666.185348,9548.656652
954.979260,76.609550,-740.205942,9992.780217
954.979576,-459.657299,-1258.350101,10288.862594
954.979892,-153.219100,-518.144159,10140.821405
954.980208,-306.438199,-444.123565,10066.800811
954.980524,-306.438199,-222.061783,9844.739029
954.980840,-229.828649,-0.000000,9696.697840
954.981155,-306.438199,-0.000000,9474.636058
954.981471,0.000000,222.061783,9474.636058
954.981787,229.828649,-0.000000,9030.512492
954.982103,229.828649,-222.061783,9178.553681
954.982419,0.000000,-666.185348,9474.636058
954.982735,383.047749,-888.247130,9770.718434
954.983050,612.876398,-962.267725,9844.739029
954.983366,919.314598,-888.247130,9770.718434
954.983682,1225.752797,-518.144159,9770.718434
954.983998,1378.971896,-222.061783,9400.615463
954.984314,1915.238745,888.247130,9474.636058
954.984629,1991.848295,814.226536,9326.594869
954.984945,1915.238745,962.267725,8734.430116
954.985261,1991.848295,814.226536,8956.491898
954.985577,1608.800546,518.144159,8956.491898
954.985893,1532.190996,222.061783,9030.512492
954.986209,919.314598,-74.020594,9326.594869
954.986524,459.657299,-296.082377,9548.656652
954.986840,0.000000,-518.144159,9992.780217
954.987156,-229.828649,-444.123565,9992.780217
954.987472,-689.485948,-296.082377,10140.821405
954.987788,-766.095498,-148.041188,9992.780217
954.988104,-766.095498,-0.000000,9474.636058
954.988419,-919.314598,296.082377,9474.636058
954.988735,-383.047749,-0.000000,10140.821405
954.989051,-766.095498,-0.000000,9548.656652
954.989367,-459.657299,-296.082377,9400.615463
954.989683,-383.047749,-370.102971,9400.615463
954.989999,-383.047749,-444.123565,9326.594869
954.990314,0.000000,-962.267725,9992.780217
954.990630,612.876398,-888.247130,9622.677246
954.990946,919.314598,-370.102971,9474.636058
954.991262,1072.533697,-0.000000,9400.615463
954.991578,1302.362347,148.041188,9030.512492
954.991893,1455.581446,666.185348,8956.491898
954.992209,1378.971896,1036.288319,8808.450710
954.992525,1302.362347,814.226536,8734.430116
954.992841,1455.581446,666.185348,9178.553681
954.993157,919.314598,-0.000000,9178.553681
954.993473,459.657299,-148.041188,9252.574275
954.993788,0.000000,-666.185348,9548.656652
954.994104,-383.047749,-888.247130,9992.780217
954.994420,-766.095498,-1036.288319,10214.842000
954.994736,-612.876398,-888.247130,10362.883188
954.995052,-536.266849,-666.185348,9844.739029
954.995368,-612.876398,-370.102971,9622.677246
954.995683,-612.876398,-74.020594,9474.636058
954.995999,76.609550,-0.000000,9104.533087
954.996315,-459.657299,296.082377,9326.594869
954.996631,-306.438199,-0.000000,9326.594869
954.996947,-153.219100,-74.020594,9030.512492
954.997263,229.828649,-444.123565,9252.574275
954.997578,0.000000,-1110.308913,9696.697840
954.997894,306.438199,-1184.329507,9918.759623
954.998210,306.438199,-888.247130,10066.800811
954.998526,612.876398,-888.247130,9770.718434
954.998842,919.314598,-666.185348,9770.718434
954.999157,1225.752797,-296.082377,9622.677246
954.999473,1455.581446,-0.000000,9178.553681
954.999789,1762.019645,296.082377,9030.512492
955.000105,2068.457845,370.102971,9030.512492
955.000421,1991.848295,370.102971,9178.553681
955.000737,1915.238745,222.061783,9474.636058
955.001052,995.924147,-74.020594,9178.553681
955.001368,1072.533697,-666.185348,9252.574275
955.001684,842.705048,-592.164754,9474.636058
955.002000,306.438199,-518.144159,9844.739029
955.002316,76.609550,-592.164754,9622.677246
955.002632,76.609550,-0.000000,9474.636058
955.002947,-383.047749,-74.020594,9326.594869
955.003263,-459.657299,-0.000000,9326.594869
955.003579,-536.266849,-222.061783,9696.697840
955.003895,153.219100,-592.164754,9622.677246
955.004211,-383.047749,-888.247130,9548.656652
955.004527,0.000000,-888.247130,9918.759623
955.004842,0.000000,-1258.350101,9770.718434
955.005158,0.000000,-1554.432478,9844.739029
955.005474,842.705048,-888.247130,9992.780217
955.005790,1072.533697,-518.144159,9622.677246
955.006106,1455.581446,-0.000000,9326.594869
955.006421,1838.629195,370.102971,9178.553681
955.006737,2298.286494,740.205942,8808.450710
955.007053,1838.629195,740.205942,8512.368333
955.007369,1762.019645,814.226536,8808.450710
955.007685,1838.629195,666.185348,8734.430116
955.008001,1532.190996,222.061783,9104.533087
955.008316,766.095498,-148.041188,9696.697840
955.008632,229.828649,-740.205942,9844.739029
955.008948,0.000000,-1258.350101,10066.800811
955.009264,-536.266849,-1184.329507,10658.965565
955.009580,-383.047749,-1110.308913,10362.883188
955.009896,-689.485948,-814.226536,10140.821405
955.010211,-919.314598,-592.164754,9400.615463
955.010527,-306.438199,-0.000000,9400.615463
955.010843,-306.438199,296.082377,9104.533087
955.011159,-153.219100,222.061783,9252.574275
955.011475,0.000000,666.185348,9252.574275
955.011791,0.000000,-222.061783,9178.553681
955.012106,0.000000,-296.082377,9252.574275
955.012422,0.000000,-814.226536,9474.636058
955.012738,0.000000,-962.267725,9844.739029
955.013054,306.438199,-814.226536,9918.759623
955.013370,383.047749,-370.102971,9844.739029
955.013685,842.705048,-0.000000,9770.718434
955.014001,766.095498,-0.000000,9474.636058
955.014317,1149.143247,518.144159,9104.533087
955.014633,1608.800546,962.267725,9474.636058
955.014949,1302.362347,1036.288319,9178.553681
955.015265,1302.362347,962.267725,8882.471304
955.015580,1072.533697,518.144159,9030.512492
955.015896,842.705048,222.061783,9104.533087
955.016212,229.828649,-0.000000,9474.636058
955.016528,-229.828649,-222.061783,9918.759623
955.016844,-306.438199,-222.061783,9918.759623
955.017160,-612.876398,-592.164754,10140.821405
955.017475,-536.266849,-148.041188,9992.780217
955.017791,-842.705048,-444.123565,9696.697840
955.018107,-536.266849,-0.000000,9622.677246
955.018423,-689.485948,-0.000000,9696.697840
955.018739,-306.438199,-0.000000,9622.677246
955.019055,-306.438199,296.082377,9326.594869
955.019370,459.657299,-592.164754,9548.656652
955.019686,689.485948,-370.102971,9474.636058
955.020002,536.266849,-666.185348,9474.636058
955.020318,766.095498,-592.164754,9474.636058
955.020634,1455.581446,-222.061783,9548.656652
955.020949,1532.190996,-0.000000,9474.636058
955.021265,1838.629195,-0.000000,9326.594869
955.021581,1762.019645,666.185348,9030.512492
955.021897,1762.019645,740.205942,9030.512492
955.022213,1685.410096,814.226536,8956.491898
955.022529,1762.019645,592.164754,9178.553681
955.022844,1225.752797,296.082377,9252.574275
955.023160,1072.533697,-148.041188,9474.636058
955.023476,766.095498,-444.123565,9622.677246
955.023792,536.266849,-888.247130,9770.718434
955.024108,459.657299,-1110.308913,9992.780217
955.024424,306.438199,-814.226536,9992.780217
955.024739,229.828649,-592.164754,9918.759623
955.025055,229.828649,-296.082377,9548.656652
955.025371,995.924147,-74.020594,9252.574275
955.025687,0.000000,222.061783,9178.553681
955.026003,76.609550,296.082377,9104.533087
955.026319,153.219100,148.041188,9178.553681
955.026634,76.609550,-0.000000,9252.574275
955.026950,0.000000,-740.205942,9474.636058
955.027266,0.000000,-1036.288319,9622.677246
955.027582,76.609550,-1406.391290,9918.759623
955.027898,153.219100,-1184.329507,9992.780217
955.028213,306.438199,-1184.329507,9918.759623
955.028529,76.609550,-1258.350101,9770.718434
955.028845,612.876398,-222.061783,9696.697840
955.029161,1072.533697,-148.041188,9326.594869
955.029477,1455.581446,148.041188,9030.512492
955.029793,1378.971896,370.102971,9030.512492
955.030108,1455.581446,148.041188,8882.471304
955.030424,1225.752797,296.082377,8956.491898
955.030740,919.314598,-222.061783,8956.491898
955.031056,459.657299,-518.144159,9474.636058
955.031372,0.000000,-740.205942,9770.718434
955.031688,-383.047749,-888.247130,9696.697840
955.032003,-229.828649,-666.185348,9770.718434
955.032319,-536.266849,-370.102971,9844.739029
955.032635,-766.095498,-148.041188,9548.656652
955.032951,-1149.143247,-74.020594,9548.656652
955.033267,-766.095498,-0.000000,9400.615463
955.033583,-842.705048,-222.061783,9474.636058
955.033898,-383.047749,-518.144159,9474.636058
955.034214,-612.876398,-666.185348,9474.636058
955.034530,-306.438199,-1184.329507,9474.636058
955.034846,0.000000,-1184.329507,9548.656652
955.035162,229.828649,-1110.308913,9844.739029
955.035477,536.266849,-666.185348,9770.718434
955.035793,842.705048,-222.061783,9548.656652
955.036109,1225.752797,-0.000000,9178.553681
955.036425,1378.971896,296.082377,8882.471304
955.036741,1685.410096,962.267725,8882.471304
955.037057,1762.019645,814.226536,8586.388927
955.037372,919.314598,666.185348,9178.553681
955.037688,1225.752797,-0.000000,8734.430116
955.038004,995.924147,-74.020594,9104.533087
955.038320,306.438199,-444.123565,9548.656652
955.038636,306.438199,-814.226536,9844.739029
955.038952,153.219100,-1110.308913,10140.821405
955.039267,0.000000,-370.102971,10362.883188
955.039583,-153.219100,-518.144159,10214.842000
955.039899,-383.047749,-222.061783,9844.739029
955.040215,-306.438199,-370.102971,9844.739029
955.040531,-153.219100,518.144159,9548.656652
955.040847,-229.828649,592.164754,9400.615463
955.041162,0.000000,296.082377,9326.594869
955.041478,0.000000,-0.000000,9326.594869
955.041794,0.000000,148.041188,9548.656652
955.042110,0.000000,-888.247130,9548.656652
955.042426,0.000000,-1036.288319,9844.739029
955.042741,536.266849,-962.267725,10066.800811
955.043057,766.095498,-740.205942,9992.780217
955.043373,919.314598,-296.082377,9918.759623
955.043689,1302.362347,-74.020594,9474.636058
955.044005,1608.800546,296.082377,9030.512492
955.044321,1762.019645,592.164754,8808.450710
955.044636,1762.019645,444.123565,8882.471304
955.044952,1915.238745,296.082377,8956.491898
955.045268,1455.581446,222.061783,9104.533087
955.045584,1149.143247,-0.000000,9178.553681
955.045900,766.095498,-296.082377,9252.574275
955.046216,153.219100,-740.205942,9548.656652
955.046531,-383.047749,-518.144159,9844.739029
955.046847,-306.438199,-444.123565,9844.739029
955.047163,-459.657299,-222.061783,9918.759623
955.047479,-689.485948,-74.020594,9770.718434
955.047795,-995.924147,-0.000000,9622.677246
955.048111,-689.485948,-0.000000,9474.636058
955.048426,-383.047749,-0.000000,9474.636058
955.048742,-689.485948,-222.061783,9474.636058
955.049058,-536.266849,-518.144159,9474.636058
955.049374,-383.047749,-888.247130,9474.636058
955.049690,-536.266849,-1036.288319,9548.656652
955.050005,76.609550,-1036.288319,9696.697840
955.050321,383.047749,-666.185348,9770.718434
955.050637,919.314598,-296.082377,9474.636058
955.050953,1149.143247,296.082377,9548.656652
955.051269,1302.362347,370.102971,9326.594869
955.051585,1685.410096,592.164754,8956.491898
955.051900,1915.238745,888.247130,8660.409521
955.052216,1378.971896,962.267725,8734.430116
955.052532,1302.362347,666.185348,9104.533087
955.052848,995.924147,-0.000000,9252.574275
955.053164,612.876398,-296.082377,9474.636058
955.053480,0.000000,-740.205942,9844.739029
955.053795,0.000000,-1036.288319,10140.821405
955.054111,-153.219100,-1110.308913,10362.883188
955.054427,-459.657299,-962.267725,10436.903782
955.054743,-383.047749,-444.123565,9918.759623
955.055059,-383.047749,-148.041188,9696.697840
955.055375,-383.047749,370.102971,9400.615463
955.055690,-76.609550,370.102971,9178.553681
955.056006,0.000000,296.082377,9104.533087
955.056322,306.438199,-74.020594,9030.512492
955.056638,306.438199,-296.082377,9400.615463
955.056954,229.828649,-370.102971,9252.574275
955.057270,612.876398,-592.164754,9770.718434
955.057586,536.266849,-740.205942,9622.677246
955.057902,612.876398,-222.061783,9696.697840
955.058217,1072.533697,-222.061783,9770.718434
955.058533,1455.581446,-0.000000,9548.656652
955.058849,1608.800546,296.082377,9696.697840
955.059165,1608.800546,518.144159,9326.594869
955.059481,1455.581446,740.205942,9178.553681
955.059797,1532.190996,444.123565,9178.553681
955.060113,1302.362347,518.144159,9104.533087
955.060429,1149.143247,-74.020594,9104.533087
955.060744,1378.971896,-0.000000,9178.553681
955.061060,536.266849,-518.144159,9770.718434
955.061376,459.657299,-518.144159,9844.739029
955.061692,76.609550,-222.061783,9844.739029
955.062008,0.000000,-222.061783,9844.739029
955.062324,-383.047749,-0.000000,9770.718434
955.062640,-459.657299,-0.000000,9622.677246
955.062956,0.000000,222.061783,9252.574275
955.063271,0.000000,148.041188,9474.636058
955.063587,76.609550,148.041188,9548.656652
955.063903,-229.828649,-74.020594,9548.656652
955.064219,76.609550,-370.102971,9326.594869
955.064535,76.609550,-888.247130,9696.697840
955.064851,306.438199,-1184.329507,9844.739029
955.065167,612.876398,-1036.288319,9918.759623
955.065483,766.095498,-370.102971,9696.697840
955.065798,1378.971896,-74.020594,9326.594869
955.066114,1378.971896,370.102971,8956.491898
955.066430,2374.896044,666.185348,9030.512492
955.066746,1838.629195,592.164754,8808.450710
955.067062,1762.019645,962.267725,8734.430116
955.067378,1378.971896,370.102971,9030.512492
955.067694,919.314598,-0.000000,9252.574275
955.068010,306.438199,-222.061783,9474.636058
955.068326,-229.828649,-888.247130,9992.780217
955.068641,-153.219100,-814.226536,10140.821405
955.068957,-306.438199,-1110.308913,10214.842000
955.069273,-536.266849,-814.226536,10362.883188
955.069589,-766.095498,-370.102971,10066.800811
955.069905,-383.047749,-370.102971,9770.718434
955.070221,-229.828649,222.061783,9326.594869
955.070537,76.609550,518.144159,9178.553681
955.070853,0.000000,444.123565,9104.533087
955.071168,229.828649,-0.000000,9104.533087
955.071484,0.000000,-74.020594,9178.553681
955.071800,76.609550,-222.061783,9326.594869
955.072116,153.219100,-740.205942,9548.656652
955.072432,536.266849,-1110.308913,9844.739029
955.072748,612.876398,-814.226536,9992.780217
955.073064,766.095498,-666.185348,9770.718434
955.073380,1072.533697,-444.123565,9622.677246
955.073695,1149.143247,-222.061783,9252.574275
955.074011,1455.581446,222.061783,9178.553681
955.074327,1991.848295,-0.000000,9178.553681
955.074643,1838.629195,296.082377,9030.512492
955.074959,1532.190996,-0.000000,8956.491898
955.075275,1225.752797,-0.000000,8734.430116
955.075591,842.705048,-370.102971,9252.574275
955.075907,612.876398,-1110.308913,9696.697840
955.076222,0.000000,-814.226536,9622.677246
955.076538,0.000000,-740.205942,9992.780217
955.076854,-229.828649,-370.102971,9770.718434
955.077170,-383.047749,-148.041188,9622.677246
955.077486,-536.266849,-0.000000,9326.594869
955.077802,-612.876398,-0.000000,9400.615463
955.078118,-612.876398,-0.000000,9474.636058
955.078434,-459.657299,-222.061783,9474.636058
955.078749,76.609550,-0.000000,9474.636058
955.079065,0.000000,-592.164754,9474.636058
955.079381,-153.219100,-888.247130,9770.718434
955.079697,459.657299,-1036.288319,9622.677246
955.080013,766.095498,-888.247130,9770.718434
955.080329,995.924147,-296.082377,9622.677246
955.080645,1225.752797,222.061783,9474.636058
955.080961,1838.629195,444.123565,9104.533087
955.081276,1991.848295,1036.288319,8882.471304
955.081592,1991.848295,1406.391290,8734.430116
955.081908,1685.410096,1110.308913,8882.471304
955.082224,1455.581446,666.185348,8808.450710
955.082540,995.924147,-74.020594,9474.636058
955.082856,612.876398,-444.123565,9474.636058
955.083172,0.000000,-814.226536,9992.780217
955.083488,-229.828649,-1776.494261,10214.842000
955.083803,-383.047749,-1110.308913,10658.965565
955.084119,-612.876398,-962.267725,10584.944971
955.084435,-459.657299,-444.123565,10066.800811
955.084751,-995.924147,-222.061783,9696.697840
955.085067,-536.266849,-0.000000,9474.636058
955.085383,-536.266849,740.205942,9400.615463
955.085699,76.609550,444.123565,8882.471304
955.086015,0.000000,370.102971,9104.533087
955.086331,0.000000,-148.041188,9030.512492
955.086646,-153.219100,-444.123565,9548.656652
955.086962,0.000000,-888.247130,9696.697840
955.087278,-229.828649,-1184.329507,9918.759623
955.087594,0.000000,-962.267725,10066.800811
955.087910,0.000000,-592.164754,10140.821405
955.088226,459.657299,-444.123565,9844.739029
955.088542,766.095498,-0.000000,9252.574275
955.088858,842.705048,370.102971,9030.512492
955.089173,1149.143247,518.144159,8734.430116
955.089489,1608.800546,740.205942,8808.450710
955.089805,1302.362347,592.164754,8956.491898
955.090121,1149.143247,222.061783,8808.450710
955.090437,689.485948,-0.000000,9178.553681
955.090753,229.828649,-888.247130,9622.677246
955.091069,0.000000,-518.144159,9770.718434
955.091385,-383.047749,-518.144159,9918.759623
955.091700,-229.828649,-296.082377,9696.697840
955.092016,-919.314598,-74.020594,9696.697840
955.092332,-1072.533697,-592.164754,9696.697840
955.092648,-612.876398,-0.000000,9474.636058
955.092964,-612.876398,-74.020594,9326.594869
955.093280,-459.657299,-222.061783,9252.574275
955.093596,-383.047749,-222.061783,9326.594869
955.093912,-229.828649,-888.247130,9030.512492
955.094227,-229.828649,-740.205942,9622.677246
955.094543,229.828649,-1036.288319,9696.697840
955.094859,689.485948,-740.205942,9696.697840
955.095175,1072.533697,-518.144159,9474.636058
955.095491,1608.800546,-444.123565,9326.594869
955.095807,1685.410096,518.144159,9400.615463
955.096123,1915.238745,444.123565,8734.430116
955.096439,1838.629195,814.226536,8808.450710
955.096754,1915.238745,1110.308913,8882.471304
955.097070,1762.019645,666.185348,9178.553681
955.097386,1378.971896,222.061783,9252.574275
955.097702,1302.362347,-296.082377,9400.615463
955.098018,842.705048,-740.205942,9696.697840
955.098334,153.219100,-888.247130,10214.842000
955.098650,0.000000,-1036.288319,10436.903782
955.098966,459.657299,-592.164754,10436.903782
955.099281,0.000000,-296.082377,9918.759623
955.099597,-229.828649,-74.020594,9770.718434
955.099913,0.000000,222.061783,9474.636058
955.100229,0.000000,370.102971,9474.636058
955.100545,76.609550,444.123565,9252.574275
955.100861,153.219100,148.041188,9326.594869
955.101177,0.000000,-148.041188,9400.615463
955.101493,0.000000,-518.144159,9770.718434
955.101808,76.609550,-1554.432478,9622.677246
955.102124,0.000000,-1258.350101,10066.800811
955.102440,536.266849,-1110.308913,10066.800811
955.102756,612.876398,-888.247130,10140.821405
955.103072,1149.143247,-518.144159,9696.697840
955.103388,1378.971896,-0.000000,9178.553681
955.103704,1532.190996,222.061783,8882.471304
955.104020,1915.238745,592.164754,8660.409521
955.104336,1838.629195,666.185348,8586.388927
955.104651,1915.238745,740.205942,8586.388927
955.104967,1072.533697,-0.000000,8956.491898
955.105283,919.314598,-0.000000,8882.471304
955.105599,612.876398,-370.102971,9474.636058
955.105915,229.828649,-814.226536,9844.739029
955.106231,-229.828649,-1184.329507,9918.759623
955.106547,-766.095498,-814.226536,10214.842000
955.106863,-766.095498,-740.205942,9918.759623
955.107178,-1149.143247,-296.082377,9918.759623
955.107494,-1072.533697,-0.000000,9622.677246
955.107810,-919.314598,-148.041188,9326.594869
955.108126,-689.485948,-370.102971,9326.594869
955.108442,-306.438199,-222.061783,9548.656652
955.108758,0.000000,-666.185348,9326.594869
955.109074,0.000000,-740.205942,9104.533087
955.109390,766.095498,-1036.288319,9474.636058
955.109705,766.095498,-888.247130,9474.636058
955.110021,1072.533697,-296.082377,9474.636058
955.110337,1455.581446,-296.082377,9178.553681
955.110653,1532.190996,-0.000000,9030.512492
955.110969,919.314598,222.061783,8956.491898
955.111285,1302.362347,518.144159,8808.450710
955.111601,1608.800546,888.247130,8882.471304
955.111917,1532.190996,740.205942,9030.512492
955.112232,1149.143247,148.041188,9326.594869
955.112548,842.705048,-740.205942,9474.636058
955.112864,383.047749,-666.185348,9474.636058
955.113180,76.609550,-814.226536,10066.800811
955.113496,-229.828649,-1110.308913,10214.842000
955.113812,0.000000,-740.205942,10288.862594
955.114128,-76.609550,-444.123565,10288.862594
955.114444,-383.047749,148.041188,9992.780217
955.114759,0.000000,296.082377,9622.677246
955.115075,153.219100,740.205942,9104.533087
955.115391,153.219100,592.164754,9104.533087
955.115707,459.657299,222.061783,9326.594869
955.116023,153.219100,-0.000000,9252.574275
955.116339,459.657299,-222.061783,9326.594869
955.116655,229.828649,-666.185348,9474.636058
955.116971,766.095498,-740.205942,9770.718434
955.117286,689.485948,-666.185348,9918.759623
955.117602,1302.362347,-518.144159,9844.739029
955.117918,1225.752797,-74.020594,9622.677246
955.118234,1072.533697,-0.000000,9622.677246
955.118550,1532.190996,148.041188,9326.594869
955.118866,1455.581446,444.123565,9104.533087
955.119182,1455.581446,666.185348,9252.574275
955.119498,1532.190996,444.123565,8882.471304
955.119813,1149.143247,296.082377,9178.553681
955.120129,766.095498,-74.020594,9326.594869
955.120445,306.438199,-74.020594,9548.656652
955.120761,0.000000,-518.144159,9918.759623
955.121077,0.000000,-222.061783,10066.800811
955.121393,-229.828649,-222.061783,10066.800811
955.121709,-306.438199,-222.061783,9770.718434
955.122025,-536.266849,148.041188,9548.656652
955.122341,-612.876398,222.061783,9548.656652
955.122656,-383.047749,148.041188,9400.615463
955.122972,-689.485948,-0.000000,9548.656652
955.123288,-306.438199,-74.020594,9474.636058
955.123604,-229.828649,-0.000000,9104.533087
955.123920,-383.047749,-814.226536,9474.636058
955.124236,-383.047749,-1184.329507,9696.697840
955.124552,76.609550,-1184.329507,9770.718434
955.124868,306.438199,-740.205942,9992.780217
955.125183,766.095498,-296.082377,9548.656652
955.125499,766.095498,-74.020594,9178.553681
955.125815,1378.971896,-74.020594,8882.471304
955.126131,1685.410096,444.123565,8882.471304
955.126447,1225.752797,666.185348,8734.430116
955.126763,1455.581446,370.102971,8882.471304
955.127079,1225.752797,74.020594,9104.533087
955.127395,766.095498,-296.082377,9326.594869
955.127710,459.657299,-740.205942,9104.533087
955.128026,0.000000,-814.226536,9622.677246
955.128342,-229.828649,-740.205942,10066.800811
955.128658,0.000000,-592.164754,10288.862594
955.128974,-383.047749,-518.144159,9992.780217
955.129290,-612.876398,-74.020594,9548.656652
955.129606,-612.876398,-0.000000,9696.697840
955.129922,-612.876398,74.020594,9252.574275
955.130237,-383.047749,148.041188,9252.574275
955.130553,0.000000,222.061783,9178.553681
955.130869,0.000000,-0.000000,9104.533087
955.131185,0.000000,-370.102971,9326.594869
955.131501,0.000000,-518.144159,9474.636058
955.131817,229.828649,-962.267725,9770.718434
955.132133,689.485948,-888.247130,9918.759623
955.132449,919.314598,-592.164754,9992.780217
955.132764,766.095498,-444.123565,9918.759623
955.133080,1455.581446,-0.000000,9326.594869
955.133396,1532.190996,296.082377,9178.553681
955.133712,1991.848295,740.205942,8882.471304
955.134028,1608.800546,666.185348,8882.471304
955.134344,1685.410096,592.164754,8882.471304
955.134660,1532.190996,444.123565,8956.491898
955.134976,1149.143247,148.041188,9030.512492
955.135291,995.924147,-444.123565,9474.636058
955.135607,459.657299,-814.226536,9548.656652
955.135923,153.219100,-888.247130,10288.862594
955.136239,-459.657299,-740.205942,10362.883188
955.136555,-536.266849,-0.000000,9992.780217
955.136871,-536.266849,-222.061783,9844.739029
955.137187,-766.095498,-0.000000,9548.656652
955.137503,-536.266849,370.102971,9548.656652
955.137819,-536.266849,222.061783,9400.615463
955.138134,-306.438199,-0.000000,9696.697840
955.138450,-459.657299,-370.102971,9474.636058
955.138766,-229.828649,-592.164754,9474.636058
955.139082,0.000000,-962.267725,9844.739029
955.139398,383.047749,-962.267725,9844.739029
955.139714,842.705048,-666.185348,9992.780217
955.140030,612.876398,-148.041188,9770.718434
955.140346,1072.533697,222.061783,9326.594869
955.140661,1302.362347,518.144159,8956.491898
955.140977,1762.019645,1036.288319,8882.471304
955.141293,1455.581446,1036.288319,9178.553681
955.141609,1455.581446,666.185348,8956.491898
955.141925,1378.971896,-0.000000,9030.512492
955.142241,842.705048,-148.041188,9178.553681
955.142557,919.314598,-962.267725,9548.656652
955.142873,0.000000,-814.226536,9918.759623
955.143188,0.000000,-1258.350101,10288.862594
955.143504,-383.047749,-888.247130,10214.842000
955.143820,-306.438199,-592.164754,10140.821405
955.144136,-306.438199,-148.041188,9844.739029
955.144452,-153.219100,-74.020594,9326.594869
955.144768,0.000000,370.102971,8956.491898
955.145084,0.000000,370.102971,9104.533087
955.145400,76.609550,222.061783,9252.574275
955.145715,76.609550,-74.020594,9104.533087
955.146031,153.219100,-592.164754,8956.491898
955.146347,0.000000,-888.247130,9326.594869
955.146663,0.000000,-1184.329507,9696.697840
955.146979,383.047749,-1332.370696,9844.739029
955.147295,689.485948,-1110.308913,9918.759623
955.147611,766.095498,-666.185348,9696.697840
955.147927,995.924147,-370.102971,9474.636058
955.148242,1378.971896,148.041188,9326.594869
955.148558,1608.800546,370.102971,8808.450710
955.148874,1991.848295,518.144159,8734.430116
955.149190,1532.190996,370.102971,8808.450710
955.149506,1762.019645,370.102971,8586.388927
955.149822,1225.752797,-222.061783,8882.471304
955.150138,842.705048,-296.082377,9252.574275
955.150454,153.219100,-814.226536,9474.636058
955.150769,0.000000,-666.185348,9918.759623
955.151085,-153.219100,-518.144159,10066.800811
955.151401,-689.485948,-444.123565,9918.759623
955.151717,-689.485948,-370.102971,9770.718434
955.152033,-536.266849,-148.041188,9696.697840
955.152349,-1225.752797,-0.000000,9548.656652
955.152665,-612.876398,-74.020594,9474.636058
955.152981,-306.438199,-296.082377,9548.656652
955.153296,-153.219100,-370.102971,9400.615463
955.153612,-306.438199,-1184.329507,9770.718434
955.153928,76.609550,-962.267725,9696.697840
955.154244,766.095498,-888.247130,9770.718434
955.154560,842.705048,-370.102971,9696.697840
955.154876,1378.971896,-148.041188,9474.636058
955.155192,1149.143247,148.041188,9178.553681
955.155508,1762.019645,444.123565,9252.574275
955.155824,1762.019645,962.267725,8734.430116
955.156139,1762.019645,888.247130,8734.430116
955.156455,1608.800546,592.164754,8882.471304
955.156771,1608.800546,-0.000000,8882.471304
955.157087,919.314598,-0.000000,9474.636058
955.157402,383.047749,-444.123565,9326.594869
955.157718,153.219100,-814.226536,9770.718434
955.158034,0.000000,-962.267725,10214.842000
955.158349,-919.314598,-1036.288319,10214.842000
955.158665,-612.876398,-1036.288319,9992.780217
955.158981,-383.047749,-148.041188,10066.800811
955.159297,-536.266849,148.041188,9474.636058
955.159612,-459.657299,444.123565,9548.656652
955.159928,-76.609550,518.144159,9104.533087
955.160244,0.000000,592.164754,9400.615463
955.160559,153.219100,148.041188,9104.533087
955.160875,0.000000,-148.041188,9252.574275
955.161191,0.000000,-518.144159,9548.656652
955.161507,0.000000,-962.267725,9474.636058
955.161822,536.266849,-962.267725,9844.739029
955.162138,766.095498,-814.226536,9844.739029
955.162454,842.705048,-592.164754,9844.739029
955.162769,995.924147,-0.000000,9548.656652
955.163085,1072.533697,222.061783,9252.574275
955.163401,1378.971896,444.123565,8882.471304
955.163716,1532.190996,666.185348,8956.491898
955.164032,1532.190996,814.226536,8956.491898
955.164348,995.924147,370.102971,8882.471304
955.164664,842.705048,148.041188,8808.450710
955.164979,842.705048,-148.041188,9400.615463
955.165295,306.438199,-370.102971,9400.615463
955.165611,0.000000,-370.102971,9844.739029
955.165926,0.000000,-666.185348,9844.739029
955.166242,-383.047749,-148.041188,9844.739029
955.166558,-536.266849,-74.020594,9474.636058
955.166874,-459.657299,-0.000000,9548.656652
955.167189,-536.266849,296.082377,9326.594869
955.167505,-306.438199,-74.020594,9474.636058
955.167821,-306.438199,-74.020594,9178.553681
955.168136,-153.219100,-222.061783,9326.594869
955.168452,0.000000,-370.102971,9474.636058
955.168768,0.000000,-592.164754,9474.636058
955.169083,536.266849,-814.226536,9844.739029
955.169399,459.657299,-814.226536,9474.636058
955.169715,919.314598,-148.041188,9696.697840
955.170031,1302.362347,-0.000000,9400.615463
955.170346,1608.800546,518.144159,9474.636058
955.170662,1608.800546,666.185348,9178.553681
955.170978,1608.800546,888.247130,8882.471304
955.171293,1685.410096,888.247130,9030.512492
955.171609,1225.752797,444.123565,9104.533087
955.171925,1225.752797,-74.020594,9178.553681
955.172241,612.876398,-444.123565,9548.656652
955.172556,153.219100,-888.247130,9548.656652
955.172872,0.000000,-1110.308913,10140.821405
955.173188,-153.219100,-1184.329507,10140.821405
955.173503,-229.828649,-962.267725,10288.862594
955.173819,0.000000,-518.144159,10066.800811
955.174135,-306.438199,-0.000000,9474.636058
955.174450,0.000000,-0.000000,9548.656652
955.174766,-229.828649,148.041188,9178.553681
955.175082,-306.438199,444.123565,9400.615463
955.175398,0.000000,-0.000000,9252.574275
955.175713,0.000000,-370.102971,9474.636058
955.176029,-383.047749,-962.267725,9400.615463
955.176345,0.000000,-1110.308913,9770.718434
955.176660,-306.438199,-1554.432478,10288.862594
955.176976,612.876398,-1110.308913,9918.759623
955.177292,689.485948,-888.247130,9844.739029
955.177607,1149.143247,-296.082377,9474.636058
955.177923,1378.971896,222.061783,9178.553681
955.178239,1838.629195,666.185348,8734.430116
955.178555,1991.848295,740.205942,8734.430116
955.178870,1991.848295,666.185348,8586.388927
955.179186,1685.410096,518.144159,9030.512492
955.179502,1685.410096,-222.061783,8808.450710
955.179817,842.705048,-0.000000,9400.615463
955.180133,459.657299,-740.205942,9474.636058
955.180449,76.609550,-814.226536,9770.718434
955.180765,-612.876398,-814.226536,10066.800811
955.181080,-536.266849,-814.226536,10140.821405
955.181396,-536.266849,-444.123565,9844.739029
955.181712,-459.657299,-222.061783,9622.677246
955.182027,-383.047749,-0.000000,9326.594869
955.182343,-383.047749,-0.000000,9178.553681
955.182659,-306.438199,-74.020594,9252.574275
955.182974,-229.828649,-370.102971,9252.574275
955.183290,0.000000,-592.164754,9104.533087
955.183606,0.000000,-962.267725,9474.636058
955.183922,459.657299,-1406.391290,9844.739029
955.184237,612.876398,-814.226536,9696.697840
955.184553,1072.533697,-296.082377,9696.697840
955.184869,1149.143247,-0.000000,9474.636058
955.185184,1378.971896,148.041188,9178.553681
955.185500,1302.362347,-0.000000,9104.533087
955.185816,1608.800546,740.205942,9030.512492
955.186132,1378.971896,888.247130,8956.491898
955.186447,1455.581446,222.061783,9104.533087
955.186763,1225.752797,-0.000000,9252.574275
955.187079,459.657299,-370.102971,9400.615463
955.187394,306.438199,-370.102971,9474.636058
955.187710,0.000000,-740.205942,9844.739029
955.188026,0.000000,-666.185348,10066.800811
955.188341,-153.219100,-518.144159,10140.821405
955.188657,-612.876398,-444.123565,10362.883188
955.188973,-306.438199,-222.061783,9770.718434
955.189289,-306.438199,-0.000000,9474.636058
955.189604,-459.657299,222.061783,9400.615463
955.189920,0.000000,-74.020594,9252.574275
955.190236,153.219100,-0.000000,9474.636058
955.190551,229.828649,-148.041188,9326.594869
955.190867,-459.657299,-740.205942,9474.636058
955.191183,76.609550,-814.226536,9548.656652
955.191499,383.047749,-814.226536,9696.697840
955.191814,459.657299,-888.247130,10214.842000
955.192130,919.314598,-370.102971,9844.739029
955.192446,1455.581446,-0.000000,9400.615463
955.192761,1532.190996,296.082377,9030.512492
955.193077,1991.848295,518.144159,9030.512492
955.193393,1762.019645,814.226536,9252.574275
955.193708,1225.752797,518.144159,8956.491898
955.194024,1608.800546,740.205942,9178.553681
955.194340,1072.533697,222.061783,9104.533087
955.194656,689.485948,-222.061783,9474.636058
955.194971,76.609550,-814.226536,9770.718434
955.195287,0.000000,-666.185348,9992.780217
955.195603,-383.047749,-740.205942,10214.842000
955.195918,-766.095498,-444.123565,10066.800811
955.196234,-766.095498,-74.020594,10214.842000
955.196550,-229.828649,-222.061783,9844.739029
955.196865,-919.314598,-0.000000,9696.697840
955.197181,-459.657299,222.061783,9400.615463
955.197497,-459.657299,-0.000000,9400.615463
955.197813,-229.828649,-0.000000,9474.636058
955.198128,-306.438199,-370.102971,9474.636058
955.198444,-153.219100,-888.247130,9326.594869
955.198760,76.609550,-1110.308913,9622.677246
955.199075,536.266849,-1036.288319,9844.739029
955.199391,919.314598,-592.164754,9844.739029
955.199707,1455.581446,-888.247130,9326.594869
955.200023,1685.410096,-0.000000,9178.553681
955.200338,1532.190996,296.082377,8882.471304
955.200654,1685.410096,740.205942,9030.512492
955.200970,1608.800546,962.267725,8808.450710
955.201285,1532.190996,666.185348,8734.430116
955.201601,1302.362347,444.123565,8808.450710
955.201917,919.314598,-0.000000,9030.512492
955.202232,459.657299,-370.102971,9474.636058
955.202548,306.438199,-814.226536,9696.697840
955.202864,0.000000,-962.267725,9696.697840
955.203180,0.000000,-740.205942,10288.862594
955.203495,-306.438199,-296.082377,10066.800811
955.203811,-229.828649,-0.000000,9548.656652
955.204127,0.000000,222.061783,9548.656652
955.204442,-306.438199,444.123565,9474.636058
955.204758,0.000000,444.123565,9252.574275
955.205074,0.000000,222.061783,9104.533087
955.205390,153.219100,148.041188,9252.574275
955.205705,0.000000,-148.041188,9474.636058
955.206021,306.438199,-518.144159,9622.677246
955.206337,459.657299,-888.247130,9844.739029
955.206652,612.876398,-740.205942,9918.759623
955.206968,995.924147,-444.123565,9770.718434
955.207284,1225.752797,-74.020594,9696.697840
955.207599,1302.362347,-0.000000,9326.594869
955.207915,1455.581446,444.123565,9178.553681
955.208231,1532.190996,888.247130,9030.512492
955.208547,1455.581446,814.226536,8808.450710
955.208862,1685.410096,370.102971,8808.450710
955.209178,1149.143247,370.102971,9104.533087
955.209494,842.705048,-370.102971,9178.553681
955.209809,383.047749,-444.123565,9622.677246
955.210125,153.219100,-666.185348,9918.759623
955.210441,0.000000,-888.247130,10214.842000
955.210757,-459.657299,-370.102971,10288.862594
955.211072,-536.266849,-296.082377,9918.759623
955.211388,-689.485948,-74.020594,9844.739029
955.211704,-766.095498,-74.020594,9548.656652
955.212019,0.000000,444.123565,9622.677246
955.212335,-383.047749,74.020594,9548.656652
955.212651,0.000000,-0.000000,9474.636058
955.212966,0.000000,-370.102971,9474.636058
955.213282,0.000000,-814.226536,9474.636058
955.213598,76.609550,-1258.350101,9770.718434
955.213914,459.657299,-962.267725,9918.759623
955.214229,842.705048,-814.226536,9622.677246
955.214545,1225.752797,-296.082377,9622.677246
955.214861,1378.971896,-74.020594,9474.636058
955.215176,1838.629195,666.185348,9104.533087
955.215492,1915.238745,814.226536,8660.409521
955.215808,1608.800546,814.226536,8660.409521
955.216123,1762.019645,666.185348,8808.450710
955.216439,1532.190996,296.082377,9104.533087
955.216755,995.924147,-370.102971,9030.512492
955.217071,459.657299,-888.247130,9548.656652
955.217386,153.219100,-1036.288319,9770.718434
955.217702,0.000000,-1258.350101,10066.800811
955.218018,76.609550,-1036.288319,10066.800811
955.218333,-459.657299,-518.144159,10140.821405
955.218649,-306.438199,-592.164754,9622.677246
955.218965,-306.438199,-0.000000,9474.636058
955.219281,-229.828649,296.082377,9030.512492
955.219596,-536.266849,592.164754,9252.574275
955.219912,0.000000,296.082377,9252.574275
955.220228,-306.438199,-74.020594,9326.594869
955.220543,0.000000,-592.164754,9326.594869
955.220859,306.438199,-888.247130,9548.656652
955.221175,0.000000,-1480.411884,9696.697840
955.221490,383.047749,-1258.350101,9918.759623
955.221806,536.266849,-1036.288319,9696.697840
955.222122,766.095498,-518.144159,9844.739029
955.222438,1072.533697,-74.020594,9474.636058
955.222753,1302.362347,370.102971,8956.491898
955.223069,1532.190996,370.102971,8734.430116
955.223385,1455.581446,518.144159,8956.491898
955.223700,1608.800546,518.144159,8956.491898
955.224016,1378.971896,-148.041188,8882.471304
955.224332,1149.143247,-222.061783,8882.471304
955.224648,689.485948,-518.144159,9400.615463
955.224963,153.219100,-888.247130,9696.697840
955.225279,0.000000,-740.205942,9844.739029
955.225595,76.609550,-666.185348,9918.759623
955.225910,-153.219100,-222.061783,10066.800811
955.226226,-383.047749,-0.000000,9622.677246
955.226542,-612.876398,74.020594,9400.615463
955.226857,-459.657299,148.041188,9474.636058
955.227173,-536.266849,-0.000000,9548.656652
955.227489,0.000000,-0.000000,9400.615463
955.227805,-306.438199,-370.102971,9326.594869
955.228120,0.000000,-814.226536,9474.636058
955.228436,229.828649,-962.267725,9696.697840
955.228752,536.266849,-1184.329507,10140.821405
955.229067,689.485948,-666.185348,9696.697840
955.229383,1072.533697,-518.144159,9622.677246
955.229699,1149.143247,-0.000000,9178.553681
955.230015,1991.848295,370.102971,9326.594869
955.230330,1991.848295,814.226536,8734.430116
955.230646,1838.629195,1036.288319,8586.388927
955.230962,1608.800546,592.164754,8882.471304
955.231277,1378.971896,444.123565,9030.512492
955.231593,1072.533697,-0.000000,9622.677246
955.231909,229.828649,-370.102971,9474.636058
955.232224,153.219100,-666.185348,9770.718434
955.232540,0.000000,-814.226536,9992.780217
955.232856,-153.219100,-740.205942,10140.821405
955.233172,-383.047749,-518.144159,10214.842000
955.233487,-612.876398,-592.164754,9992.780217
955.233803,-306.438199,-74.020594,9622.677246
955.234119,-306.438199,444.123565,9548.656652
955.234434,-383.047749,148.041188,9474.636058
955.234750,0.000000,148.041188,9178.553681
955.235066,0.000000,148.041188,9400.615463
955.235381,-153.219100,-222.061783,9326.594869
955.235697,-153.219100,-592.164754,9400.615463
955.236013,229.828649,-740.205942,9622.677246
955.236329,153.219100,-814.226536,9696.697840
955.236644,612.876398,-666.185348,9696.697840
955.236960,766.095498,-444.123565,9918.759623
955.237276,1072.533697,-296.082377,9622.677246
955.237591,1149.143247,-0.000000,8882.471304
955.237907,1149.143247,370.102971,8808.450710
955.238223,1455.581446,592.164754,8882.471304
955.238539,1455.581446,518.144159,8808.450710
955.238854,1072.533697,296.082377,8808.450710
955.239170,766.095498,148.041188,9178.553681
955.239486,306.438199,-518.144159,9474.636058
955.239801,0.000000,-592.164754,9918.759623
955.240117,-229.828649,-888.247130,10140.821405
955.240433,229.828649,-592.164754,10362.883188
955.240748,-689.485948,-444.123565,10362.883188
955.241064,-766.095498,-444.123565,9844.739029
955.241380,-383.047749,-0.000000,9622.677246
955.241696,-306.438199,148.041188,9326.594869
955.242011,-536.266849,148.041188,9622.677246
955.242327,0.000000,-0.000000,9178.553681
955.242643,306.438199,-148.041188,9178.553681
955.242958,229.828649,-592.164754,9252.574275
955.243274,229.828649,-888.247130,9400.615463
955.243590,842.705048,-962.267725,9622.677246
955.243906,995.924147,-592.164754,9844.739029
955.244221,1225.752797,-370.102971,9474.636058
955.244537,1302.362347,-148.041188,9252.574275
955.244853,1532.190996,-0.000000,9326.594869
955.245168,1455.581446,370.102971,8882.471304
955.245484,1455.581446,592.164754,8882.471304
955.245800,1532.190996,592.164754,9104.533087
955.246115,1302.362347,-0.000000,9104.533087
955.246431,1149.143247,-74.020594,9326.594869
955.246747,766.095498,-370.102971,9548.656652
955.247063,153.219100,-888.247130,9622.677246
955.247378,0.000000,-666.185348,9844.739029
955.247694,0.000000,-444.123565,10140.821405
955.248010,76.609550,-222.061783,10214.842000
955.248325,-383.047749,-222.061783,9696.697840
955.248641,-459.657299,-0.000000,9548.656652
955.248957,-383.047749,444.123565,9474.636058
955.249273,-153.219100,592.164754,9252.574275
955.249588,-306.438199,296.082377,9400.615463
955.249904,76.609550,-0.000000,9622.677246
955.250220,-229.828649,-296.082377,9696.697840
955.250535,-383.047749,-1184.329507,9918.759623
955.250851,153.219100,-888.247130,9844.739029
955.251167,459.657299,-1036.288319,10066.800811
955.251482,689.485948,-888.247130,9992.780217
955.251798,995.924147,-444.123565,9770.718434
955.252114,1378.971896,-148.041188,9326.594869
955.252430,1608.800546,296.082377,9104.533087
955.252745,1915.238745,814.226536,8808.450710
955.253061,1685.410096,962.267725,9030.512492
955.253377,1991.848295,666.185348,8660.409521
955.253692,1608.800546,370.102971,8734.430116
955.254008,995.924147,-0.000000,9104.533087
955.254324,689.485948,-370.102971,9474.636058
955.254639,383.047749,-962.267725,9548.656652
955.254955,0.000000,-962.267725,10140.821405
955.255271,-383.047749,-814.226536,10066.800811
955.255587,-383.047749,-592.164754,9992.780217
955.255902,-153.219100,-592.164754,9770.718434
955.256218,-919.314598,-370.102971,9844.739029
955.256534,-612.876398,-0.000000,9326.594869
955.256849,-306.438199,444.123565,9326.594869
955.257165,-153.219100,-0.000000,9474.636058
955.257481,229.828649,-0.000000,9104.533087
955.257797,153.219100,-222.061783,9252.574275
955.258112,76.609550,-740.205942,9178.553681
955.258428,229.828649,-740.205942,9696.697840
955.258744,766.095498,-814.226536,9622.677246
955.259060,689.485948,-444.123565,9622.677246
955.259375,1225.752797,-222.061783,9474.636058
955.259691,919.314598,-0.000000,9030.512492
955.260007,1685.410096,222.061783,9252.574275
955.260322,1149.143247,444.123565,9104.533087
955.260638,1455.581446,518.144159,8956.491898
955.260954,1302.362347,444.123565,9104.533087
955.261270,995.924147,-0.000000,9252.574275
955.261585,459.657299,-296.082377,9326.594869
955.261901,459.657299,-518.144159,9844.739029
955.262217,612.876398,-1258.350101,9622.677246
955.262533,229.828649,-740.205942,9918.759623
955.262848,0.000000,-444.123565,9918.759623
955.263164,0.000000,-518.144159,9844.739029
955.263480,0.000000,-814.226536,9622.677246
955.263796,-383.047749,-0.000000,9400.615463
955.264111,-153.219100,370.102971,9400.615463
955.264427,-229.828649,370.102971,9474.636058
955.264743,76.609550,-222.061783,9474.636058
955.265058,-229.828649,-444.123565,9104.533087
955.265374,229.828649,-666.185348,9474.636058
955.265690,306.438199,-1184.329507,9474.636058
955.266006,459.657299,-1036.288319,9918.759623
955.266321,995.924147,-740.205942,9844.739029
955.266637,995.924147,-74.020594,9622.677246
955.266953,1455.581446,-74.020594,9400.615463
955.267269,1608.800546,222.061783,9178.553681
955.267584,1838.629195,740.205942,8956.491898
955.267900,1762.019645,740.205942,8734.430116
955.268216,1455.581446,518.144159,8734.430116
955.268532,1532.190996,518.144159,8882.471304
955.268847,919.314598,-74.020594,8956.491898
955.269163,536.266849,-370.102971,9474.636058
955.269479,459.657299,-740.205942,9770.718434
955.269794,76.609550,-962.267725,10140.821405
955.270110,-306.438199,-814.226536,10140.821405
955.270426,-383.047749,-666.185348,10066.800811
955.270742,-306.438199,-148.041188,9622.677246
955.271057,-612.876398,370.102971,9696.697840
955.271373,-536.266849,370.102971,9252.574275
955.271689,-383.047749,148.041188,9326.594869
955.272005,-459.657299,296.082377,9400.615463
955.272320,0.000000,-0.000000,9104.533087
955.272636,-153.219100,-296.082377,9474.636058
955.272952,-306.438199,-740.205942,9474.636058
955.273268,153.219100,-1184.329507,9770.718434
955.273583,229.828649,-666.185348,9992.780217
955.273899,612.876398,-666.185348,10288.862594
955.274215,919.314598,-222.061783,9622.677246
955.274530,1378.971896,222.061783,9474.636058
955.274846,1378.971896,370.102971,9104.533087
955.275162,1532.190996,1036.288319,8734.430116
955.275478,1378.971896,962.267725,8734.430116
955.275793,1532.190996,888.247130,8808.450710
955.276109,1225.752797,518.144159,8808.450710
955.276425,689.485948,148.041188,9252.574275
955.276741,153.219100,-592.164754,9548.656652
955.277056,0.000000,-666.185348,9992.780217
955.277372,-459.657299,-814.226536,10140.821405
955.277688,-689.485948,-518.144159,10288.862594
955.278004,-689.485948,-296.082377,10214.842000
955.278319,-536.266849,-148.041188,10140.821405
955.278635,-383.047749,-296.082377,9400.615463
955.278951,-612.876398,222.061783,9622.677246
955.279266,-76.609550,296.082377,9548.656652
955.279582,0.000000,-0.000000,9178.553681
955.279898,0.000000,-0.000000,9400.615463
955.280214,153.219100,-222.061783,9474.636058
955.280529,229.828649,-666.185348,9622.677246
955.280845,612.876398,-962.267725,9844.739029
955.281161,919.314598,-740.205942,9844.739029
955.281477,1225.752797,-518.144159,9474.636058
955.281792,1149.143247,-148.041188,9474.636058
955.282108,1455.581446,222.061783,9178.553681
955.282424,1455.581446,518.144159,9104.533087
955.282740,1455.581446,740.205942,8956.491898
955.283055,1455.581446,592.164754,9030.512492
955.283371,1149.143247,222.061783,9252.574275
955.283687,842.705048,-222.061783,9474.636058
955.284003,459.657299,-518.144159,9474.636058
955.284318,76.609550,-740.205942,9844.739029
955.284634,0.000000,-962.267725,10066.800811
955.284950,-306.438199,-888.247130,10362.883188
955.285265,0.000000,-666.185348,9696.697840
955.285581,-612.876398,-296.082377,9696.697840
955.285897,-383.047749,-0.000000,9474.636058
955.286213,-383.047749,296.082377,9178.553681
955.286528,-229.828649,444.123565,9252.574275
955.286844,-153.219100,-0.000000,9178.553681
955.287160,0.000000,-148.041188,9252.574275
955.287476,76.609550,-666.185348,9474.636058
955.287791,76.609550,-1036.288319,9400.615463
955.288107,0.000000,-1406.391290,9622.677246
955.288423,459.657299,-1258.350101,10066.800811
955.288739,995.924147,-740.205942,9622.677246
955.289054,1149.143247,-518.144159,9474.636058
955.289370,1685.410096,-0.000000,9030.512492
955.289686,1762.019645,370.102971,8882.471304
955.290001,1685.410096,666.185348,8734.430116
955.290317,1838.629195,814.226536,8586.388927
955.290633,1378.971896,814.226536,8586.388927
955.290949,1455.581446,370.102971,9178.553681
955.291264,1225.752797,-0.000000,9030.512492
955.291580,689.485948,-148.041188,9474.636058
955.291896,76.609550,-888.247130,9770.718434
955.292212,-153.219100,-740.205942,10288.862594
955.292527,0.000000,-1184.329507,10362.883188
955.292843,-459.657299,-666.185348,10140.821405
955.293159,-306.438199,-222.061783,9918.759623
955.293475,-459.657299,148.041188,9696.697840
955.293790,-229.828649,148.041188,9400.615463
955.294106,-306.438199,-0.000000,9474.636058
955.294422,153.219100,-0.000000,9474.636058
955.294737,383.047749,-0.000000,9178.553681
955.295053,0.000000,-518.144159,9474.636058
955.295369,383.047749,-962.267725,9474.636058
955.295685,612.876398,-1036.288319,9844.739029
955.296000,536.266849,-814.226536,9696.697840
955.296316,995.924147,-444.123565,9622.677246
955.296632,1149.143247,-222.061783,9474.636058
955.296948,995.924147,148.041188,9548.656652
955.297263,1455.581446,-0.000000,8660.409521
955.297579,1225.752797,296.082377,9252.574275
955.297895,1608.800546,666.185348,9104.533087
955.298211,1455.581446,296.082377,9030.512492
955.298526,1072.533697,-148.041188,9252.574275
955.298842,766.095498,-370.102971,9474.636058
955.299158,153.219100,-444.123565,9474.636058
955.299473,153.219100,-518.144159,9992.780217
955.299789,0.000000,-592.164754,9992.780217
955.300105,-229.828649,-148.041188,9992.780217
955.300421,-536.266849,-222.061783,9548.656652
955.300736,-459.657299,-0.000000,9474.636058
955.301052,-459.657299,296.082377,9326.594869
955.301368,-536.266849,296.082377,9326.594869
955.301684,-612.876398,-0.000000,9770.718434
955.301999,-153.219100,-222.061783,9326.594869
955.302315,-229.828649,-370.102971,9400.615463
955.302631,0.000000,-740.205942,9696.697840
955.302947,689.485948,-1036.288319,9770.718434
955.303262,1072.533697,-1258.350101,9844.739029
955.303578,1455.581446,-518.144159,9474.636058
955.303894,1149.143247,-148.041188,9252.574275
955.304209,1608.800546,-0.000000,8956.491898
955.304525,1838.629195,518.144159,8956.491898
955.304841,1838.629195,814.226536,8882.471304
955.305157,1838.629195,962.267725,8882.471304
955.305472,1685.410096,592.164754,8956.491898
955.305788,1378.971896,222.061783,9030.512492
955.306104,766.095498,-222.061783,9474.636058
955.306420,76.609550,-444.123565,9622.677246
955.306735,229.828649,-518.144159,9770.718434
955.307051,0.000000,-814.226536,10066.800811
955.307367,-536.266849,-740.205942,10436.903782
955.307683,-229.828649,-814.226536,9992.780217
955.307998,-612.876398,-296.082377,9770.718434
955.308314,-383.047749,-0.000000,9696.697840
955.308630,-229.828649,-0.000000,9474.636058
955.308946,0.000000,444.123565,9400.615463
955.309261,0.000000,-0.000000,9178.553681
955.309577,0.000000,222.061783,9474.636058
955.309893,153.219100,-296.082377,9178.553681
955.310208,76.609550,-666.185348,9474.636058
955.310524,306.438199,-888.247130,9844.739029
955.310840,383.047749,-592.164754,10288.862594
955.311156,612.876398,-592.164754,9696.697840
955.311471,995.924147,-296.082377,9622.677246
955.311787,1072.533697,-74.020594,9400.615463
955.312103,1225.752797,-0.000000,9474.636058
955.312419,1072.533697,444.123565,9104.533087
955.312734,1149.143247,444.123565,9252.574275
955.313050,1302.362347,148.041188,9252.574275
955.313366,995.924147,-148.041188,9104.533087
955.313682,1072.533697,-444.123565,9252.574275
955.313997,306.438199,-444.123565,9474.636058
955.314313,153.219100,-518.144159,9918.759623
955.314629,0.000000,-592.164754,9992.780217
955.314944,-153.219100,-518.144159,9918.759623
955.315260,76.609550,-296.082377,9770.718434
955.315576,-612.876398,-0.000000,9474.636058
955.315892,-76.609550,592.164754,9178.553681
955.316207,-383.047749,518.144159,9104.533087
955.316523,153.219100,814.226536,9696.697840
955.316839,0.000000,-0.000000,9474.636058
955.317155,-229.828649,-518.144159,9400.615463
955.317470,-306.438199,-888.247130,9622.677246
955.317786,0.000000,-1258.350101,9844.739029
955.318102,689.485948,-1110.308913,10066.800811
955.318418,689.485948,-518.144159,9770.718434
955.318733,1072.533697,-518.144159,9474.636058
955.319049,1455.581446,-0.000000,9400.615463
955.319365,1608.800546,296.082377,9474.636058
955.319680,1762.019645,740.205942,8808.450710
955.319996,1685.410096,962.267725,8586.388927
955.320312,1838.629195,740.205942,8660.409521
955.320628,1608.800546,296.082377,8956.491898
955.320943,1149.143247,-0.000000,9030.512492
955.321259,459.657299,-444.123565,9400.615463
955.321575,153.219100,-888.247130,9548.656652
955.321891,0.000000,-740.205942,9918.759623
955.322206,0.000000,-740.205942,10066.800811
955.322522,-229.828649,-666.185348,9992.780217
955.322838,-383.047749,-222.061783,9844.739029
955.323154,-383.047749,-0.000000,9474.636058
955.323469,-306.438199,148.041188,9178.553681
955.323785,-306.438199,222.061783,9178.553681
955.324101,0.000000,-0.000000,9400.615463
955.324416,76.609550,-0.000000,9400.615463
955.324732,0.000000,-370.102971,9474.636058
955.325048,0.000000,-888.247130,9474.636058
955.325364,229.828649,-962.267725,9770.718434
955.325679,459.657299,-740.205942,9770.718434
955.325995,919.314598,-444.123565,9770.718434
955.326311,1455.581446,-74.020594,9474.636058
955.326627,1225.752797,148.041188,9474.636058
955.326942,1455.581446,518.144159,9104.533087
955.327258,1838.629195,518.144159,9030.512492
955.327574,1455.581446,296.082377,9178.553681
955.327890,1532.190996,370.102971,9252.574275
955.328205,1149.143247,-74.020594,9474.636058
955.328521,612.876398,-370.102971,9548.656652
955.328837,229.828649,-888.247130,9548.656652
955.329152,-153.219100,-814.226536,9918.759623
955.329468,-306.438199,-518.144159,10288.862594
955.329784,-229.828649,-370.102971,10066.800811
955.330100,-459.657299,-148.041188,9992.780217
955.330415,-1072.533697,-0.000000,9696.697840
955.330731,-536.266849,222.061783,9252.574275
955.331047,-229.828649,296.082377,9252.574275
955.331363,-153.219100,296.082377,9474.636058
955.331678,-229.828649,-296.082377,9252.574275
955.331994,0.000000,-296.082377,9474.636058
955.332310,-306.438199,-814.226536,9622.677246
955.332626,0.000000,-1332.370696,9696.697840
955.332941,459.657299,-888.247130,9844.739029
955.333257,689.485948,-888.247130,9918.759623
955.333573,1225.752797,-1036.288319,9770.718434
955.333889,1225.752797,-222.061783,9400.615463
955.334204,1685.410096,-74.020594,9030.512492
955.334520,1685.410096,296.082377,8808.450710
955.334836,1685.410096,518.144159,8734.430116
955.335151,1838.629195,592.164754,8882.471304
955.335467,1149.143247,296.082377,8586.388927
955.335783,1072.533697,-148.041188,9030.512492
955.336099,459.657299,-444.123565,9474.636058
955.336414,229.828649,-888.247130,9474.636058
955.336730,-153.219100,-1332.370696,9992.780217
955.337046,-229.828649,-888.247130,10066.800811
955.337362,-383.047749,-518.144159,10214.842000
955.337677,-536.266849,-370.102971,9918.759623
955.337993,-229.828649,-296.082377,9474.636058
955.338309,-306.438199,-74.020594,9548.656652
955.338625,0.000000,-0.000000,9252.574275
955.338940,153.219100,-0.000000,9252.574275
955.339256,383.047749,-0.000000,9252.574275
955.339572,229.828649,-296.082377,9252.574275
955.339887,842.705048,-592.164754,9400.615463
955.340203,612.876398,-740.205942,9548.656652
955.340519,919.314598,-518.144159,9474.636058
955.340835,1072.533697,-444.123565,9548.656652
955.341150,1532.190996,-518.144159,9252.574275
955.341466,1455.581446,-148.041188,9696.697840
955.341782,1378.971896,-0.000000,9326.594869
955.342098,1685.410096,444.123565,9178.553681
955.342413,1225.752797,592.164754,9104.533087
955.342729,1378.971896,518.144159,9474.636058
955.343045,1072.533697,-0.000000,9252.574275
955.343361,612.876398,-0.000000,9474.636058
955.343676,383.047749,-370.102971,9548.656652
955.343992,229.828649,-592.164754,9696.697840
955.344308,-153.219100,-592.164754,10140.821405
955.344623,-229.828649,-296.082377,10066.800811
955.344939,0.000000,-74.020594,10066.800811
955.345255,-229.828649,370.102971,9474.636058
955.345571,-153.219100,296.082377,9474.636058
955.345886,-383.047749,222.061783,9326.594869
955.346202,-229.828649,444.123565,9400.615463
955.346518,-459.657299,-0.000000,9474.636058
955.346834,-383.047749,-148.041188,9474.636058
955.347149,-459.657299,-814.226536,9548.656652
955.347465,-306.438199,-1332.370696,9844.739029
955.347781,0.000000,-1184.329507,10140.821405
955.348097,459.657299,-888.247130,9918.759623
955.348412,536.266849,-740.205942,9770.718434
955.348728,842.705048,-518.144159,9474.636058
955.349044,1455.581446,296.082377,8956.491898
955.349359,1762.019645,666.185348,9104.533087
955.349675,1608.800546,962.267725,8808.450710
955.349991,1685.410096,1184.329507,8660.409521
955.350307,1915.238745,740.205942,8882.471304
955.350622,1302.362347,888.247130,9030.512492
955.350938,919.314598,-0.000000,9178.553681
955.351254,0.000000,-444.123565,9622.677246
955.351570,0.000000,-740.205942,9770.718434
955.351885,0.000000,-814.226536,10288.862594
955.352201,-842.705048,-666.185348,10140.821405
955.352517,-1072.533697,-592.164754,9992.780217
955.352833,-842.705048,-148.041188,9844.739029
955.353148,-689.485948,-0.000000,9696.697840
955.353464,-459.657299,370.102971,9474.636058
955.353780,-229.828649,222.061783,9178.553681
955.354095,0.000000,74.020594,9104.533087
955.354411,229.828649,-74.020594,9030.512492
955.354727,459.657299,-296.082377,9326.594869
955.355043,536.266849,-518.144159,9474.636058
955.355358,919.314598,-814.226536,9548.656652
955.355674,1225.752797,-518.144159,9474.636058
955.355990,1302.362347,-370.102971,9400.615463
955.356306,1685.410096,-0.000000,9400.615463
955.356621,1608.800546,-74.020594,9104.533087
955.356937,1225.752797,370.102971,9104.533087
955.357253,1455.581446,592.164754,9030.512492
955.357569,1455.581446,296.082377,9104.533087
955.357884,1378.971896,-0.000000,9326.594869
955.358200,689.485948,-148.041188,9548.656652
955.358516,459.657299,-370.102971,9548.656652
955.358831,306.438199,-740.205942,9696.697840
955.359147,229.828649,-666.185348,9918.759623
955.359463,0.000000,-444.123565,10362.883188
955.359779,0.000000,-222.061783,9622.677246
955.360094,-536.266849,-0.000000,9548.656652
955.360410,-383.047749,296.082377,9474.636058
955.360726,0.000000,518.144159,9326.594869
955.361042,-229.828649,296.082377,9622.677246
955.361357,0.000000,-0.000000,9400.615463
955.361673,-229.828649,-74.020594,9474.636058
955.361989,0.000000,-592.164754,9474.636058
955.362304,-459.657299,-1036.288319,10066.800811
955.362620,153.219100,-1184.329507,9918.759623
955.362936,612.876398,-1036.288319,10066.800811
955.363252,766.095498,-814.226536,9770.718434
955.363567,1072.533697,-518.144159,9474.636058
955.363883,1762.019645,-0.000000,9400.615463
955.364199,1608.800546,592.164754,8882.471304
955.364515,1762.019645,814.226536,8956.491898
955.364830,1838.629195,1036.288319,8808.450710
955.365146,1455.581446,888.247130,8956.491898
955.365462,919.314598,-0.000000,9178.553681
955.365777,536.266849,-74.020594,9400.615463
955.366093,306.438199,-666.185348,9622.677246
955.366409,0.000000,-888.247130,10066.800811
955.366725,-383.047749,-1036.288319,10362.883188
955.367040,-383.047749,-1036.288319,10436.903782
955.367356,-689.485948,-592.164754,10362.883188
955.367672,-383.047749,-222.061783,9770.718434
955.367988,-383.047749,-0.000000,9622.677246
955.368303,-383.047749,-0.000000,9474.636058
955.368619,0.000000,296.082377,8956.491898
955.368935,76.609550,-0.000000,9104.533087
955.369250,306.438199,-74.020594,9030.512492
955.369566,306.438199,-222.061783,9030.512492
955.369882,919.314598,-666.185348,9400.615463
955.370198,76.609550,-592.164754,9622.677246
955.370513,842.705048,-740.205942,9622.677246
955.370829,842.705048,-592.164754,9770.718434
955.371145,995.924147,-296.082377,9548.656652
955.371460,995.924147,-222.061783,9400.615463
955.371776,995.924147,-0.000000,9548.656652
955.372092,1149.143247,296.082377,9178.553681
955.372408,1149.143247,148.041188,9178.553681
955.372723,919.314598,-0.000000,9030.512492
955.373039,689.485948,-74.020594,9104.533087
955.373355,689.485948,-444.123565,9400.615463
955.373671,0.000000,-740.205942,9696.697840
955.373986,229.828649,-666.185348,9622.677246
955.374302,383.047749,-370.102971,9696.697840
955.374618,0.000000,-148.041188,9622.677246
955.374933,153.219100,444.123565,9474.636058
955.375249,-153.219100,296.082377,9400.615463
955.375565,-229.828649,518.144159,9252.574275
955.375881,-306.438199,444.123565,9474.636058
955.376196,0.000000,296.082377,9326.594869
955.376512,306.438199,-370.102971,9400.615463
955.376828,0.000000,-592.164754,9474.636058
955.377144,0.000000,-1110.308913,9548.656652
955.377459,229.828649,-1110.308913,9844.739029
955.377775,612.876398,-1036.288319,10140.821405
955.378091,1225.752797,-888.247130,10140.821405
955.378406,1302.362347,-592.164754,9696.697840
955.378722,1302.362347,-0.000000,9252.574275
955.379038,1608.800546,592.164754,9030.512492
955.379354,1838.629195,1036.288319,8734.430116
955.379669,1838.629195,1036.288319,8882.471304
955.379985,1532.190996,1184.329507,8956.491898
955.380301,1685.410096,666.185348,9030.512492
955.380616,842.705048,-74.020594,9400.615463
955.380932,306.438199,-296.082377,9770.718434
955.381248,76.609550,-1258.350101,10066.800811
955.381564,-306.438199,-814.226536,10288.862594
955.381879,-612.876398,-814.226536,10362.883188
955.382195,-766.095498,-444.123565,10140.821405
955.382511,-689.485948,-222.061783,9918.759623
955.382827,-689.485948,-0.000000,9696.697840
955.383142,-383.047749,-0.000000,9474.636058
955.383458,-76.609550,370.102971,9178.553681
955.383774,0.000000,-0.000000,9474.636058
955.384089,0.000000,-148.041188,9326.594869
955.384405,0.000000,-962.267725,9918.759623
955.384721,0.000000,-740.205942,9548.656652
955.385037,76.609550,-962.267725,9770.718434
955.385352,689.485948,-444.123565,9622.677246
955.385668,766.095498,-370.102971,9696.697840
955.385984,1072.533697,-370.102971,9548.656652
955.386300,1149.143247,-222.061783,9252.574275
955.386615,1302.362347,296.082377,8956.491898
955.386931,1455.581446,370.102971,8660.409521
955.387247,1532.190996,444.123565,8808.450710
955.387562,1455.581446,-0.000000,9326.594869
955.387878,919.314598,-222.061783,9030.512492
955.388194,536.266849,-296.082377,9030.512492
955.388510,0.000000,-518.144159,9474.636058
955.388825,153.219100,-814.226536,9770.718434
955.389141,-459.657299,-814.226536,10066.800811
955.389457,0.000000,-296.082377,9844.739029
955.389773,-306.438199,-222.061783,9622.677246
955.390088,-842.705048,222.061783,9474.636058
955.390404,-383.047749,222.061783,9252.574275
955.390720,-229.828649,-296.082377,9622.677246
955.391035,-306.438199,-0.000000,9400.615463
955.391351,-153.219100,-296.082377,9178.553681
955.391667,-153.219100,-370.102971,9400.615463
955.391983,0.000000,-962.267725,9474.636058
955.392298,-153.219100,-1110.308913,9770.718434
955.392614,842.705048,-814.226536,9918.759623
955.392930,1302.362347,-592.164754,9622.677246
955.393245,1532.190996,-370.102971,9474.636058
955.393561,1532.190996,148.041188,9030.512492
955.393877,2145.067394,296.082377,9104.533087
955.394193,1915.238745,814.226536,8438.347739
955.394508,1685.410096,814.226536,8734.430116
955.394824,1838.629195,666.185348,8956.491898
955.395140,1302.362347,-0.000000,8956.491898
955.395456,536.266849,-518.144159,9104.533087
955.395771,0.000000,-740.205942,9696.697840
955.396087,0.000000,-1036.288319,10214.842000
955.396403,-459.657299,-814.226536,10510.924376
955.396718,-459.657299,-888.247130,10436.903782
955.397034,-612.876398,-296.082377,10140.821405
955.397350,-689.485948,-222.061783,10140.821405
955.397666,-383.047749,-0.000000,9622.677246
955.397981,-153.219100,148.041188,9548.656652
955.398297,0.000000,666.185348,9548.656652
955.398613,612.876398,222.061783,9178.553681
955.398929,306.438199,-0.000000,9252.574275
955.399244,306.438199,-296.082377,9474.636058
955.399560,383.047749,-740.205942,9622.677246
955.399876,1072.533697,-592.164754,9622.677246
955.400191,766.095498,-666.185348,9918.759623
955.400507,1072.533697,-370.102971,9918.759623
955.400823,1149.143247,-444.123565,9474.636058
955.401139,1302.362347,-0.000000,9474.636058
955.401454,1302.362347,148.041188,9252.574275
955.401770,995.924147,296.082377,8882.471304
955.402086,1302.362347,518.144159,9030.512492
955.402401,1225.752797,-0.000000,9400.615463
955.402717,766.095498,-0.000000,9326.594869
955.403033,0.000000,-148.041188,9326.594869
955.403349,153.219100,-814.226536,9696.697840
955.403664,76.609550,-592.164754,9696.697840
955.403980,-229.828649,-444.123565,9696.697840
955.404296,-229.828649,-518.144159,9770.718434
955.404612,-459.657299,-0.000000,9622.677246
955.404927,-689.485948,-0.000000,9326.594869
955.405243,-153.219100,444.123565,9252.574275
955.405559,-536.266849,518.144159,9252.574275
955.405874,-383.047749,-0.000000,9474.636058
955.406190,0.000000,-296.082377,9548.656652
955.406506,-306.438199,-444.123565,9252.574275
955.406822,-229.828649,-1036.288319,9474.636058
955.407137,0.000000,-1110.308913,9844.739029
955.407453,306.438199,-1036.288319,10066.800811
955.407769,919.314598,-740.205942,9622.677246
955.408085,1225.752797,-148.041188,9474.636058
955.408400,1225.752797,-0.000000,9400.615463
955.408716,1762.019645,370.102971,8660.409521
955.409032,1762.019645,814.226536,8660.409521
955.409347,1685.410096,814.226536,8586.388927
955.409663,1762.019645,592.164754,8660.409521
955.409979,1455.581446,-0.000000,8956.491898
955.410295,1149.143247,-296.082377,9326.594869
955.410610,229.828649,-666.185348,9548.656652
955.410926,229.828649,-1110.308913,9696.697840
955.411242,0.000000,-1110.308913,10214.842000
955.411558,-459.657299,-962.267725,10214.842000
955.411873,-536.266849,-814.226536,10140.821405
955.412189,-536.266849,-518.144159,9992.780217
955.412505,-536.266849,-518.144159,9548.656652
955.412820,-689.485948,-0.000000,9474.636058
955.413136,-229.828649,-0.000000,9326.594869
955.413452,229.828649,-0.000000,9326.594869
955.413768,153.219100,-0.000000,9104.533087
955.414083,306.438199,-444.123565,9104.533087
955.414399,229.828649,-518.144159,9622.677246
955.414715,612.876398,-666.185348,9622.677246
955.415030,842.705048,-592.164754,9770.718434
955.415346,995.924147,-370.102971,9770.718434
955.415662,995.924147,-370.102971,9548.656652
955.415978,1302.362347,-0.000000,9474.636058
955.416293,1225.752797,222.061783,9178.553681
955.416609,1378.971896,370.102971,9326.594869
955.416925,1685.410096,518.144159,9252.574275
955.417241,1302.362347,222.061783,9548.656652
955.417556,766.095498,-296.082377,9400.615463
955.417872,842.705048,-222.061783,9548.656652
955.418188,306.438199,-296.082377,9770.718434
955.418503,0.000000,-592.164754,9696.697840
955.418819,0.000000,-444.123565,9992.780217
955.419135,0.000000,-148.041188,9844.739029
955.419451,-383.047749,-0.000000,9622.677246
955.419766,-536.266849,-0.000000,9770.718434
955.420082,-536.266849,148.041188,9474.636058
955.420398,-459.657299,-0.000000,9474.636058
955.420714,-306.438199,-0.000000,9252.574275
955.421029,-383.047749,-444.123565,9548.656652
955.421345,-536.266849,-444.123565,9326.594869
955.421661,0.000000,-740.205942,9992.780217
955.421976,0.000000,-1184.329507,9770.718434
955.422292,153.219100,-1036.288319,9992.780217
955.422608,689.485948,-814.226536,9696.697840
955.422924,1072.533697,-370.102971,9400.615463
955.423239,1608.800546,-148.041188,9178.553681
955.423555,1532.190996,296.082377,8956.491898
955.423871,1915.238745,888.247130,8586.388927
955.424186,1838.629195,1184.329507,8512.368333
955.424502,1455.581446,1332.370696,8586.388927
955.424818,1302.362347,666.185348,8882.471304
955.425134,689.485948,148.041188,9104.533087
955.425449,229.828649,-296.082377,9474.636058
955.425765,-383.047749,-814.226536,10066.800811
955.426081,-689.485948,-1036.288319,10436.903782
955.426397,-766.095498,-1110.308913,10288.862594
955.426712,-766.095498,-740.205942,10362.883188
955.427028,-766.095498,-370.102971,10066.800811
955.427344,-689.485948,-0.000000,9770.718434
955.427659,-459.657299,296.082377,9548.656652
955.427975,76.609550,592.164754,9326.594869
955.428291,229.828649,740.205942,9178.553681
955.428607,459.657299,518.144159,8956.491898
955.428922,459.657299,222.061783,9104.533087
955.429238,842.705048,-148.041188,9474.636058
955.429554,1302.362347,-296.082377,9474.636058
955.429870,995.924147,-222.061783,9622.677246
955.430185,995.924147,-370.102971,9622.677246
955.430501,1072.533697,-222.061783,9770.718434
955.430817,766.095498,-148.041188,9844.739029
955.431132,995.924147,-0.000000,9548.656652
955.431448,1072.533697,148.041188,9400.615463
955.431764,919.314598,-0.000000,9400.615463
955.432080,1072.533697,222.061783,9474.636058
955.432395,995.924147,-74.020594,9474.636058
955.432711,766.095498,-518.144159,9400.615463
955.433027,383.047749,-666.185348,9844.739029
955.433343,459.657299,-666.185348,9696.697840
955.433658,153.219100,-444.123565,9918.759623
955.433974,76.609550,-296.082377,9770.718434
955.434290,0.000000,-0.000000,9622.677246
955.434605,0.000000,296.082377,9400.615463
955.434921,-229.828649,296.082377,9400.615463
955.435237,-229.828649,-0.000000,9474.636058
955.435553,0.000000,-0.000000,9326.594869
955.435868,-153.219100,-74.020594,9400.615463
955.436184,-536.266849,-592.164754,9548.656652
955.436500,-383.047749,-1110.308913,9844.739029
955.436815,0.000000,-1554.432478,9844.739029
955.437131,0.000000,-1332.370696,10140.821405
955.437447,306.438199,-1036.288319,9770.718434
955.437763,919.314598,-444.123565,9696.697840
955.438078,1302.362347,-148.041188,9178.553681
955.438394,1532.190996,222.061783,8808.450710
955.438710,1838.629195,814.226536,8660.409521
955.439026,1762.019645,962.267725,8586.388927
955.439341,2145.067394,962.267725,8586.388927
955.439657,1608.800546,444.123565,8882.471304
955.439973,1149.143247,-74.020594,9326.594869
955.440288,536.266849,-370.102971,9252.574275
955.440604,0.000000,-888.247130,9844.739029
955.440920,-153.219100,-1036.288319,10066.800811
955.441236,0.000000,-1258.350101,10510.924376
955.441551,-612.876398,-814.226536,10362.883188
955.441867,-306.438199,-592.164754,9992.780217
955.442183,-306.438199,-222.061783,9622.677246
955.442499,0.000000,222.061783,9400.615463
955.442814,0.000000,222.061783,9178.553681
955.443130,229.828649,444.123565,9178.553681
955.443446,689.485948,296.082377,9104.533087
955.443761,612.876398,-74.020594,9030.512492
955.444077,76.609550,-444.123565,9252.574275
955.444393,766.095498,-666.185348,9474.636058
955.444709,689.485948,-888.247130,9474.636058
955.445024,766.095498,-666.185348,9622.677246
955.445340,689.485948,-518.144159,9770.718434
955.445656,1302.362347,-296.082377,9548.656652
955.445972,689.485948,-74.020594,9622.677246
955.446287,1072.533697,-0.000000,9030.512492
955.446603,842.705048,222.061783,9104.533087
955.446919,1225.752797,-0.000000,9104.533087
955.447234,1149.143247,-148.041188,9252.574275
955.447550,842.705048,-148.041188,9400.615463
955.447866,689.485948,-296.082377,9400.615463
955.448182,229.828649,-222.061783,9548.656652
955.448497,0.000000,-74.020594,9844.739029
955.448813,0.000000,-222.061783,9622.677246
955.449129,229.828649,-0.000000,9992.780217
955.449444,-536.266849,74.020594,9622.677246
955.449760,-306.438199,296.082377,9474.636058
955.450076,-459.657299,296.082377,9326.594869
955.450392,-229.828649,296.082377,9622.677246
955.450707,-306.438199,-222.061783,9474.636058
955.451023,-306.438199,-370.102971,9844.739029
955.451339,-229.828649,-666.185348,9844.739029
955.451655,0.000000,-1036.288319,9992.780217
955.451970,689.485948,-1110.308913,9844.739029
955.452286,1149.143247,-888.247130,9918.759623
955.452602,1072.533697,-370.102971,9696.697840
955.452917,1608.800546,222.061783,9400.615463
955.453233,1685.410096,666.185348,8956.491898
955.453549,1991.848295,962.267725,8660.409521
955.453865,1915.238745,1036.288319,8364.327145
955.454180,1762.019645,888.247130,8808.450710
955.454496,1532.190996,370.102971,9178.553681
955.454812,1072.533697,-74.020594,9326.594869
955.455128,842.705048,-518.144159,9622.677246
955.455443,-76.609550,-1184.329507,10066.800811
955.455759,-383.047749,-1258.350101,10362.883188
955.456075,-383.047749,-1258.350101,10584.944971
955.456390,-536.266849,-814.226536,10510.924376
955.456706,-383.047749,-518.144159,10066.800811
955.457022,-306.438199,-0.000000,9622.677246
955.457337,-383.047749,296.082377,9252.574275
955.457653,0.000000,370.102971,9104.533087
955.457969,229.828649,444.123565,8882.471304
955.458284,153.219100,-74.020594,8956.491898
955.458600,229.828649,-0.000000,9178.553681
955.458916,229.828649,-518.144159,8956.491898
955.459231,0.000000,-1036.288319,9474.636058
955.459547,229.828649,-888.247130,9770.718434
955.459863,229.828649,-814.226536,9992.780217
955.460178,383.047749,-592.164754,9696.697840
955.460494,536.266849,-222.061783,9548.656652
955.460810,689.485948,-0.000000,9252.574275
955.461125,919.314598,444.123565,9178.553681
955.461441,1072.533697,-0.000000,9030.512492
955.461756,1225.752797,370.102971,9178.553681
955.462072,1149.143247,-148.041188,9326.594869
955.462388,995.924147,-148.041188,8882.471304
955.462703,689.485948,-370.102971,9252.574275
955.463019,459.657299,-370.102971,9474.636058
955.463335,306.438199,-444.123565,9548.656652
955.463650,153.219100,-222.061783,9770.718434
955.463966,-153.219100,-0.000000,9548.656652
955.464282,-153.219100,-0.000000,9474.636058
955.464597,-153.219100,-0.000000,9622.677246
955.464913,-536.266849,370.102971,9104.533087
955.465229,-689.485948,148.041188,9474.636058
955.465544,-306.438199,-296.082377,9326.594869
955.465860,0.000000,-592.164754,9548.656652
955.466176,-229.828649,-740.205942,9770.718434
955.466491,0.000000,-962.267725,9844.739029
955.466807,306.438199,-1110.308913,9918.759623
955.467123,919.314598,-666.185348,9844.739029
955.467438,766.095498,-518.144159,9622.677246
955.467754,1225.752797,-222.061783,9104.533087
955.468070,1915.238745,592.164754,8808.450710
955.468385,1915.238745,888.247130,8660.409521
955.468701,1608.800546,962.267725,8808.450710
955.469016,1991.848295,666.185348,8882.471304
955.469332,1302.362347,222.061783,9178.553681
955.469648,689.485948,-148.041188,9474.636058
955.469963,229.828649,-518.144159,9770.718434
955.470279,0.000000,-666.185348,10214.842000
955.470595,-306.438199,-1110.308913,10140.821405
955.470910,-612.876398,-1110.308913,10436.903782
955.471226,-383.047749,-592.164754,10584.944971
955.471542,-306.438199,-296.082377,10066.800811
955.471857,-383.047749,-74.020594,9770.718434
955.472173,0.000000,222.061783,9474.636058
955.472489,0.000000,518.144159,9326.594869
955.472804,153.219100,592.164754,9326.594869
955.473120,459.657299,148.041188,8956.491898
955.473436,229.828649,-0.000000,9474.636058
955.473751,153.219100,-518.144159,9474.636058
955.474067,76.609550,-814.226536,9696.697840
955.474383,153.219100,-740.205942,10140.821405
955.474698,536.266849,-740.205942,9918.759623
955.475014,612.876398,-518.144159,9696.697840
955.475330,995.924147,-444.123565,9844.739029
955.475645,995.924147,-0.000000,9474.636058
955.475961,1532.190996,-0.000000,8956.491898
955.476276,1378.971896,370.102971,9030.512492
955.476592,1762.019645,148.041188,9104.533087
955.476908,1608.800546,-0.000000,9104.533087
955.477223,1302.362347,-444.123565,8882.471304
955.477539,842.705048,-222.061783,9252.574275
955.477855,229.828649,-740.205942,9474.636058
955.478170,76.609550,-518.144159,9622.677246
955.478486,153.219100,-222.061783,9548.656652
955.478802,-229.828649,-222.061783,9474.636058
955.479117,-306.438199,-0.000000,9548.656652
955.479433,-766.095498,-0.000000,9326.594869
955.479749,-536.266849,-0.000000,9400.615463
955.480064,-153.219100,-0.000000,9030.512492
955.480380,-612.876398,-296.082377,9474.636058
955.480696,-459.657299,-518.144159,9474.636058
955.481011,-536.266849,-814.226536,9326.594869
955.481327,-536.266849,-962.267725,10140.821405
955.481643,76.609550,-1258.350101,9770.718434
955.481958,536.266849,-888.247130,9548.656652
955.482274,919.314598,-222.061783,9548.656652
955.482589,1455.581446,-0.000000,9178.553681
955.482905,1838.629195,296.082377,8660.409521
955.483221,1762.019645,666.185348,8586.388927
955.483536,1762.019645,814.226536,8512.368333
955.483852,1685.410096,888.247130,8734.430116
955.484168,1532.190996,592.164754,8956.491898
955.484483,1072.533697,-0.000000,9178.553681
955.484799,383.047749,-370.102971,9474.636058
955.485115,0.000000,-888.247130,9918.759623
955.485430,-76.609550,-1332.370696,10288.862594
955.485746,-383.047749,-888.247130,10807.006753
955.486062,-383.047749,-666.185348,10362.883188
955.486377,-536.266849,-666.185348,9992.780217
955.486693,-459.657299,-222.061783,9992.780217
955.487009,-76.609550,-0.000000,9474.636058
955.487324,76.609550,370.102971,9178.553681
955.487640,153.219100,444.123565,9326.594869
955.487956,306.438199,518.144159,9252.574275
955.488271,153.219100,-74.020594,9252.574275
955.488587,612.876398,-518.144159,9252.574275
955.488903,306.438199,-888.247130,9474.636058
955.489218,766.095498,-962.267725,9992.780217
955.489534,842.705048,-814.226536,9992.780217
955.489849,1455.581446,-518.144159,9844.739029
955.490165,1225.752797,-370.102971,9844.739029
955.490481,1378.971896,-0.000000,9474.636058
955.490796,1149.143247,296.082377,9030.512492
955.491112,1685.410096,444.123565,9030.512492
955.491428,1608.800546,-0.000000,8882.471304
955.491743,1685.410096,222.061783,9178.553681
955.492059,1149.143247,-148.041188,9104.533087
955.492375,1072.533697,-370.102971,9178.553681
955.492690,536.266849,-444.123565,9474.636058
955.493006,229.828649,-814.226536,9918.759623
955.493322,76.609550,-518.144159,10288.862594
955.493637,153.219100,-0.000000,9696.697840
955.493953,-689.485948,-0.000000,9622.677246
955.494269,-459.657299,148.041188,9252.574275
955.494584,-459.657299,148.041188,9030.512492
955.494900,-306.438199,-0.000000,9326.594869
955.495216,-536.266849,-222.061783,9400.615463
955.495531,-459.657299,-592.164754,9474.636058
955.495847,-459.657299,-962.267725,9696.697840
955.496162,0.000000,-1184.329507,9622.677246
955.496478,-383.047749,-1258.350101,9992.780217
955.496794,612.876398,-888.247130,9622.677246
955.497109,842.705048,-592.164754,9474.636058
955.497425,1225.752797,-74.020594,9252.574275
955.497741,1455.581446,296.082377,8882.471304
955.498056,1991.848295,370.102971,8808.450710
955.498372,1838.629195,1036.288319,8438.347739
955.498688,1685.410096,1036.288319,8660.409521
955.499003,1455.581446,518.144159,9030.512492
955.499319,1225.752797,-0.000000,9326.594869
955.499635,383.047749,-444.123565,8956.491898
955.499950,-229.828649,-1036.288319,9844.739029
955.500266,-383.047749,-1036.288319,10140.821405
955.500582,-306.438199,-1258.350101,10288.862594
955.500897,-459.657299,-814.226536,10288.862594
955.501213,-536.266849,-296.082377,10214.842000
955.501529,-612.876398,-74.020594,9548.656652
955.501844,-306.438199,222.061783,9326.594869
955.502160,-153.219100,592.164754,9252.574275
955.502476,0.000000,592.164754,9178.553681
955.502791,76.609550,148.041188,9252.574275
955.503107,0.000000,-148.041188,9252.574275
955.503422,306.438199,-222.061783,9400.615463
955.503738,76.609550,-592.164754,9548.656652
955.504054,306.438199,-814.226536,9992.780217
955.504369,536.266849,-666.185348,10214.842000
955.504685,919.314598,-296.082377,9844.739029
955.505001,995.924147,-0.000000,9622.677246
955.505316,1149.143247,296.082377,9474.636058
955.505632,1608.800546,370.102971,9326.594869
955.505948,1608.800546,592.164754,9252.574275
955.506263,1608.800546,592.164754,9178.553681
955.506579,1378.971896,518.144159,8956.491898
955.506895,1225.752797,-0.000000,9252.574275
955.507210,612.876398,-148.041188,9400.615463
955.507526,459.657299,-444.123565,9548.656652
955.507842,76.609550,-592.164754,9622.677246
955.508157,0.000000,-222.061783,10066.800811
955.508473,-153.219100,-148.041188,9992.780217
955.508789,-459.657299,-0.000000,9770.718434
955.509104,-536.266849,-0.000000,9474.636058
955.509420,-689.485948,-0.000000,9400.615463
955.509736,-689.485948,-0.000000,9400.615463
955.510051,-536.266849,-0.000000,9548.656652
955.510367,-536.266849,-296.082377,9622.677246
955.510682,-229.828649,-962.267725,9622.677246
955.510998,-229.828649,-1258.350101,9622.677246
955.511314,153.219100,-1258.350101,9770.718434
955.511629,612.876398,-888.247130,9918.759623
955.511945,1378.971896,-518.144159,9474.636058
955.512261,1149.143247,-148.041188,9326.594869
955.512576,1915.238745,444.123565,9104.533087
955.512892,1915.238745,592.164754,8586.388927
955.513208,2145.067394,740.205942,8660.409521
955.513523,2145.067394,740.205942,8586.388927
955.513839,1685.410096,296.082377,8734.430116
955.514155,1225.752797,-0.000000,9252.574275
955.514470,536.266849,-148.041188,9400.615463
955.514786,153.219100,-666.185348,9548.656652
955.515102,-153.219100,-1406.391290,10066.800811
955.515417,0.000000,-1110.308913,10214.842000
955.515733,-306.438199,-1036.288319,10066.800811
955.516049,-536.266849,-814.226536,10066.800811
955.516364,-766.095498,-370.102971,9844.739029
955.516680,-229.828649,-148.041188,9474.636058
955.516995,0.000000,222.061783,9252.574275
955.517311,0.000000,222.061783,9030.512492
955.517627,76.609550,222.061783,8882.471304
955.517942,76.609550,-0.000000,8956.491898
955.518258,459.657299,-666.185348,9178.553681
955.518574,306.438199,-888.247130,9548.656652
955.518889,153.219100,-962.267725,9696.697840
955.519205,459.657299,-814.226536,9844.739029
955.519521,766.095498,-888.247130,9918.759623
955.519836,1225.752797,-592.164754,9474.636058
955.520152,995.924147,-370.102971,9474.636058
955.520468,1225.752797,-0.000000,9400.615463
955.520783,1455.581446,222.061783,9104.533087
955.521099,1455.581446,222.061783,9252.574275
955.521415,1991.848295,-222.061783,9178.553681
955.521730,1225.752797,-148.041188,9104.533087
955.522046,995.924147,148.041188,9252.574275
955.522362,612.876398,-222.061783,9252.574275
955.522677,229.828649,-370.102971,9474.636058
955.522993,229.828649,-444.123565,9548.656652
955.523309,0.000000,-148.041188,9622.677246
955.523624,-229.828649,-74.020594,9696.697840
955.523940,-306.438199,-0.000000,9622.677246
955.524255,-229.828649,296.082377,9548.656652
955.524571,-612.876398,-74.020594,9178.553681
955.524887,-459.657299,-222.061783,9548.656652
955.525202,-689.485948,-370.102971,9696.697840
955.525518,-459.657299,-518.144159,9918.759623
955.525834,-229.828649,-1110.308913,9696.697840
955.526149,0.000000,-1184.329507,9918.759623
955.526465,689.485948,-666.185348,9844.739029
955.526781,995.924147,-370.102971,9622.677246
955.527096,1149.143247,-0.000000,9548.656652
955.527412,1455.581446,-0.000000,9252.574275
955.527728,1838.629195,444.123565,8808.450710
955.528043,1685.410096,1036.288319,8586.388927
955.528359,1378.971896,1036.288319,8734.430116
955.528675,1455.581446,740.205942,8808.450710
955.528990,995.924147,296.082377,9178.553681
955.529306,536.266849,-222.061783,9622.677246
955.529622,0.000000,-592.164754,9992.780217
955.529937,0.000000,-1110.308913,10140.821405
955.530253,-459.657299,-1110.308913,10436.903782
955.530568,-689.485948,-814.226536,10510.924376
955.530884,-383.047749,-592.164754,10214.842000
955.531200,-306.438199,-0.000000,9622.677246
955.531515,-229.828649,222.061783,9474.636058
955.531831,0.000000,592.164754,9030.512492
955.532147,0.000000,444.123565,9178.553681
955.532462,229.828649,814.226536,8956.491898
955.532778,76.609550,444.123565,9030.512492
955.533094,229.828649,-370.102971,8956.491898
955.533409,153.219100,-666.185348,9178.553681
955.533725,459.657299,-1332.370696,9474.636058
955.534041,229.828649,-962.267725,9844.739029
955.534356,536.266849,-814.226536,9844.739029
955.534672,383.047749,-740.205942,9918.759623
955.534988,995.924147,-518.144159,9474.636058
955.535303,689.485948,-222.061783,9252.574275
955.535619,1072.533697,296.082377,9178.553681
955.535935,1378.971896,296.082377,9030.512492
955.536250,1455.581446,222.061783,8882.471304
955.536566,1149.143247,296.082377,8956.491898
955.536882,1072.533697,-0.000000,8808.450710
955.537197,612.876398,-148.041188,9030.512492
955.537513,229.828649,-296.082377,9474.636058
955.537828,153.219100,-296.082377,9622.677246
955.538144,-229.828649,-0.000000,9696.697840
955.538460,-153.219100,-0.000000,9696.697840
955.538775,-536.266849,222.061783,9622.677246
955.539091,-689.485948,370.102971,9548.656652
955.539407,-536.266849,296.082377,9474.636058
955.539722,-612.876398,-74.020594,9770.718434
955.540038,-383.047749,-296.082377,9400.615463
955.540354,0.000000,-444.123565,9770.718434
955.540669,76.609550,-814.226536,9696.697840
955.540985,153.219100,-1184.329507,9770.718434
955.541301,766.095498,-1258.350101,9992.780217
955.541616,919.314598,-518.144159,9622.677246
955.541932,1378.971896,-296.082377,9622.677246
955.542248,1532.190996,222.061783,9326.594869
955.542563,1915.238745,222.061783,9178.553681
955.542879,1685.410096,740.205942,8808.450710
955.543195,1838.629195,888.247130,8586.388927
955.543510,1532.190996,370.102971,8882.471304
955.543826,1302.362347,-0.000000,9326.594869
955.544142,612.876398,-370.102971,9622.677246
955.544457,306.438199,-888.247130,9770.718434
955.544773,0.000000,-1258.350101,10066.800811
955.545088,-229.828649,-1480.411884,10436.903782
955.545404,0.000000,-1036.288319,10362.883188
955.545720,0.000000,-1036.288319,10436.903782
955.546035,229.828649,-370.102971,9844.739029
955.546351,153.219100,370.102971,9474.636058
955.546667,153.219100,444.123565,9178.553681
955.546982,-153.219100,740.205942,8882.471304
955.547298,383.047749,666.185348,9104.533087
955.547614,153.219100,296.082377,9030.512492
955.547929,0.000000,-148.041188,9252.574275
955.548245,0.000000,-666.185348,9548.656652
955.548561,0.000000,-1184.329507,9696.697840
955.548876,153.219100,-1184.329507,9992.780217
955.549192,383.047749,-1110.308913,9918.759623
955.549508,919.314598,-518.144159,10140.821405
955.549823,1072.533697,-296.082377,9474.636058
955.550139,1455.581446,-0.000000,9326.594869
955.550455,1608.800546,370.102971,8882.471304
955.550770,1838.629195,740.205942,8734.430116
955.551086,1838.629195,296.082377,8660.409521
955.551401,1762.019645,148.041188,8734.430116
955.551717,1302.362347,-296.082377,8956.491898
955.552033,919.314598,-222.061783,9252.574275
955.552348,536.266849,-444.123565,9400.615463
955.552664,306.438199,-518.144159,9696.697840
955.552980,-383.047749,-296.082377,9918.759623
955.553295,-306.438199,-296.082377,9770.718434
955.553611,-536.266849,-0.000000,9992.780217
955.553927,-766.095498,-148.041188,9548.656652
955.554242,-689.485948,-74.020594,9474.636058
955.554558,-536.266849,-0.000000,9474.636058
955.554874,-306.438199,-0.000000,9474.636058
955.555189,-153.219100,-444.123565,9474.636058
955.555505,0.000000,-740.205942,9548.656652
955.555821,0.000000,-888.247130,9548.656652
955.556136,612.876398,-814.226536,9696.697840
955.556452,1302.362347,-740.205942,9992.780217
955.556768,1608.800546,-296.082377,9548.656652
955.557083,1838.629195,148.041188,9252.574275
955.557399,1915.238745,518.144159,8956.491898
955.557713,1532.190996,814.226536,8808.450710
955.558028,1608.800546,888.247130,8512.368333
955.558344,1532.190996,740.205942,9030.512492
955.558660,1072.533697,444.123565,9178.553681
955.558975,766.095498,-370.102971,9400.615463
955.559291,153.219100,-518.144159,9918.759623
955.559607,-229.828649,-888.247130,9992.780217
955.559922,-229.828649,-1036.288319,10584.944971
955.560238,-306.438199,-814.226536,10288.862594
955.560554,-306.438199,-444.123565,10214.842000
955.560869,0.000000,-0.000000,10140.821405
955.561185,-383.047749,296.082377,9548.656652
955.561501,0.000000,592.164754,9252.574275
955.561816,0.000000,444.123565,8956.491898
955.562132,0.000000,518.144159,9178.553681
955.562448,0.000000,222.061783,9400.615463
955.562763,0.000000,-148.041188,9400.615463
955.563079,0.000000,-444.123565,9400.615463
955.563394,306.438199,-740.205942,9696.697840
955.563710,536.266849,-888.247130,9770.718434
955.564026,842.705048,-740.205942,9918.759623
955.564341,919.314598,-666.185348,10066.800811
955.564657,1072.533697,-222.061783,9474.636058
955.564973,1149.143247,148.041188,9400.615463
955.565288,1685.410096,444.123565,9178.553681
955.565604,995.924147,444.123565,8956.491898
955.565920,1378.971896,222.061783,9030.512492
955.566235,1225.752797,222.061783,9178.553681
955.566551,842.705048,-0.000000,9030.512492
955.566867,306.438199,-592.164754,9326.594869
955.567182,0.000000,-740.205942,9992.780217
955.567498,0.000000,-814.226536,9696.697840
955.567814,-306.438199,-370.102971,9844.739029
955.568129,-536.266849,-148.041188,9918.759623
955.568445,-612.876398,-296.082377,9474.636058
955.568761,-1302.362347,-222.061783,9474.636058
955.569076,-995.924147,-0.000000,9326.594869
955.569392,-689.485948,-74.020594,9326.594869
955.569707,-306.438199,-74.020594,9326.594869
955.570023,-229.828649,-370.102971,9326.594869
955.570339,-153.219100,-1036.288319,9474.636058
955.570654,229.828649,-1110.308913,9400.615463
955.570970,459.657299,-1184.329507,9622.677246
955.571286,766.095498,-962.267725,9474.636058
955.571601,1225.752797,-518.144159,9474.636058
955.571917,1532.190996,-0.000000,9326.594869
955.572233,1608.800546,444.123565,8882.471304
955.572548,1838.629195,518.144159,8586.388927
955.572864,1608.800546,740.205942,8512.368333
955.573180,1302.362347,444.123565,8808.450710
955.573495,1072.533697,592.164754,8956.491898
955.573811,766.095498,-0.000000,9326.594869
955.574127,229.828649,-444.123565,9474.636058
955.574442,0.000000,-740.205942,9844.739029
955.574758,0.000000,-962.267725,10362.883188
955.575074,-306.438199,-888.247130,10362.883188
955.575389,-459.657299,-740.205942,10436.903782
955.575705,-306.438199,-370.102971,9992.780217
955.576021,-229.828649,-0.000000,9622.677246
955.576336,153.219100,222.061783,9474.636058
955.576652,76.609550,814.226536,9178.553681
955.576967,383.047749,1110.308913,9104.533087
955.577283,536.266849,666.185348,9104.533087
955.577599,689.485948,-0.000000,9178.553681
955.577914,0.000000,-370.102971,9474.636058
955.578230,153.219100,-666.185348,9696.697840
955.578546,842.705048,-666.185348,9548.656652
955.578861,689.485948,-740.205942,9992.780217
955.579177,766.095498,-592.164754,10140.821405
955.579493,842.705048,-370.102971,9918.759623
955.579808,995.924147,-0.000000,9622.677246
955.580124,1455.581446,444.123565,9474.636058
955.580440,1532.190996,592.164754,9178.553681
955.580755,1762.019645,444.123565,8882.471304
955.581071,1455.581446,592.164754,9326.594869
955.581387,1532.190996,-0.000000,8956.491898
955.581702,689.485948,-0.000000,9252.574275
955.582018,383.047749,-444.123565,9548.656652
955.582334,76.609550,-666.185348,9844.739029
955.582649,0.000000,-148.041188,9844.739029
955.582965,-536.266849,-148.041188,9992.780217
955.583280,-536.266849,-0.000000,9696.697840
955.583596,-689.485948,-0.000000,9548.656652
955.583912,-1149.143247,222.061783,9474.636058
955.584227,-919.314598,-0.000000,9548.656652
955.584543,-689.485948,-296.082377,9548.656652
955.584859,-689.485948,-370.102971,9548.656652
955.585174,-612.876398,-888.247130,9622.677246
955.585490,-306.438199,-1258.350101,9696.697840
955.585806,0.000000,-1258.350101,9992.780217
955.586121,612.876398,-888.247130,9696.697840
955.586437,1149.143247,-444.123565,9770.718434
955.586753,1149.143247,-148.041188,9622.677246
955.587068,1685.410096,444.123565,9400.615463
955.587384,1991.848295,888.247130,8586.388927
955.587700,1838.629195,962.267725,8364.327145
955.588015,1685.410096,814.226536,8586.388927
955.588331,1608.800546,518.144159,9030.512492
955.588647,919.314598,-0.000000,9104.533087
955.588962,612.876398,-370.102971,9622.677246
955.589278,0.000000,-888.247130,9992.780217
955.589593,0.000000,-1480.411884,10288.862594
955.589909,-229.828649,-1184.329507,10288.862594
955.590225,-306.438199,-1036.288319,10214.842000
955.590540,-306.438199,-444.123565,9992.780217
955.590856,76.609550,-222.061783,9622.677246
955.591172,153.219100,-222.061783,9474.636058
955.591487,0.000000,370.102971,8956.491898
955.591803,229.828649,444.123565,8956.491898
955.592119,306.438199,222.061783,9030.512492
955.592434,306.438199,-74.020594,9178.553681
955.592750,0.000000,-444.123565,9252.574275
955.593066,383.047749,-1036.288319,9400.615463
955.593381,383.047749,-1036.288319,9622.677246
955.593697,536.266849,-888.247130,9918.759623
955.594013,689.485948,-740.205942,9918.759623
955.594328,612.876398,-962.267725,9770.718434
955.594644,1225.752797,-222.061783,9252.574275
955.594960,1455.581446,148.041188,9252.574275
955.595275,1685.410096,222.061783,8882.471304
955.595591,1378.971896,592.164754,8956.491898
955.595907,1225.752797,-148.041188,8586.388927
955.596222,1149.143247,-0.000000,8882.471304
955.596538,612.876398,-222.061783,9252.574275
955.596853,153.219100,-592.164754,9474.636058
955.597169,0.000000,-888.247130,9622.677246
955.597485,-383.047749,-370.102971,10066.800811
955.597800,-459.657299,-222.061783,10066.800811
955.598116,-766.095498,-222.061783,9844.739029
955.598432,-766.095498,-0.000000,9696.697840
955.598747,-766.095498,-0.000000,9548.656652
955.599063,-612.876398,148.041188,9474.636058
955.599379,-383.047749,-0.000000,9326.594869
955.599694,-153.219100,-222.061783,9548.656652
955.600010,0.000000,-666.185348,9548.656652
955.600326,153.219100,-740.205942,9622.677246
955.600641,689.485948,-740.205942,9992.780217
955.600957,1225.752797,-592.164754,9622.677246
955.601273,1378.971896,-370.102971,9696.697840
955.601588,1685.410096,-0.000000,9252.574275
955.601904,1762.019645,518.144159,9104.533087
955.602220,2068.457845,1036.288319,9104.533087
955.602535,1685.410096,888.247130,8808.450710
955.602851,1532.190996,888.247130,8734.430116
955.603166,1225.752797,444.123565,9104.533087
955.603482,842.705048,-148.041188,9548.656652
955.603798,689.485948,-370.102971,9696.697840
955.604113,-229.828649,-1110.308913,9770.718434
955.604429,-383.047749,-1258.350101,10214.842000
955.604745,-383.047749,-1036.288319,10288.862594
955.605060,-459.657299,-814.226536,10510.924376
955.605376,-536.266849,-666.185348,9844.739029
955.605692,-383.047749,-148.041188,9548.656652
955.606007,-76.609550,444.123565,9326.594869
955.606323,0.000000,592.164754,9030.512492
955.606639,76.609550,518.144159,9104.533087
955.606954,306.438199,814.226536,9400.615463
955.607270,0.000000,-74.020594,9104.533087
955.607586,76.609550,-296.082377,9326.594869
955.607901,-306.438199,-962.267725,9548.656652
955.608217,153.219100,-1036.288319,9770.718434
955.608533,229.828649,-666.185348,9992.780217
955.608848,536.266849,-740.205942,9696.697840
955.609164,612.876398,-444.123565,9622.677246
955.609480,536.266849,-370.102971,9696.697840
955.609795,1072.533697,-0.000000,9178.553681
955.610111,995.924147,-0.000000,9326.594869
955.610426,1302.362347,592.164754,8956.491898
955.610742,1455.581446,592.164754,8882.471304
955.611058,1378.971896,222.061783,9104.533087
955.611373,766.095498,-148.041188,9030.512492
955.611689,459.657299,-222.061783,9474.636058
955.612005,229.828649,-518.144159,9696.697840
955.612320,76.609550,-296.082377,9844.739029
955.612636,0.000000,-296.082377,9770.718434
955.612952,-306.438199,-148.041188,9474.636058
955.613267,-229.828649,-0.000000,9474.636058
955.613583,-612.876398,-0.000000,9474.636058
955.613899,-229.828649,148.041188,9400.615463
955.614214,-383.047749,148.041188,9400.615463
955.614530,0.000000,-370.102971,9400.615463
955.614846,76.609550,-666.185348,9474.636058
955.615161,76.609550,-666.185348,9622.677246
955.615477,383.047749,-1110.308913,9770.718434
955.615793,842.705048,-740.205942,9844.739029
955.616108,1302.362347,-666.185348,9548.656652
955.616424,1455.581446,-0.000000,9326.594869
955.616739,1762.019645,296.082377,9030.512492
955.617055,1455.581446,370.102971,9104.533087
955.617371,1532.190996,740.205942,8882.471304
955.617686,1762.019645,740.205942,9548.656652
955.618002,1608.800546,592.164754,9326.594869
955.618318,995.924147,-0.000000,9252.574275
955.618633,612.876398,-296.082377,9548.656652
955.618949,153.219100,-740.205942,9770.718434
955.619265,-76.609550,-1036.288319,9844.739029
955.619580,-306.438199,-888.247130,10436.903782
955.619896,-383.047749,-814.226536,10288.862594
955.620212,-306.438199,-370.102971,10066.800811
955.620527,-306.438199,-0.000000,9918.759623
955.620843,153.219100,222.061783,9622.677246
955.621159,-229.828649,444.123565,9252.574275
955.621474,-229.828649,740.205942,9030.512492
955.621790,0.000000,518.144159,9030.512492
955.622106,-153.219100,148.041188,9474.636058
955.622421,-459.657299,-666.185348,9474.636058
955.622737,-306.438199,-1036.288319,9622.677246
955.623053,-76.609550,-1480.411884,9992.780217
955.623368,76.609550,-1332.370696,10066.800811
955.623684,689.485948,-1036.288319,10066.800811
955.623999,995.924147,-666.185348,9622.677246
955.624315,1072.533697,-0.000000,9548.656652
955.624631,1532.190996,370.102971,9030.512492
955.624946,1762.019645,592.164754,8734.430116
955.625262,1378.971896,666.185348,8808.450710
955.625578,1532.190996,74.020594,8586.388927
955.625893,1532.190996,-0.000000,8734.430116
955.626209,995.924147,-74.020594,9030.512492
955.626525,536.266849,-592.164754,9178.553681
955.626840,612.876398,-814.226536,9622.677246
955.627156,0.000000,-518.144159,9844.739029
955.627472,-383.047749,-666.185348,9844.739029
955.627787,-459.657299,-518.144159,9770.718434
955.628103,-536.266849,-518.144159,9770.718434
955.628419,-1072.533697,-148.041188,9474.636058
955.628734,-536.266849,-148.041188,9400.615463
955.629050,-383.047749,-74.020594,9400.615463
955.629366,-306.438199,-296.082377,9252.574275
955.629681,-229.828649,-444.123565,9326.594869
955.629997,-153.219100,-888.247130,9548.656652
955.630312,306.438199,-888.247130,9548.656652
955.630628,536.266849,-1036.288319,9696.697840
955.630944,995.924147,-444.123565,9548.656652
955.631259,1072.533697,-148.041188,9400.615463
955.631575,1455.581446,-0.000000,9178.553681
955.631891,1378.971896,148.041188,9104.533087
955.632206,1608.800546,666.185348,9030.512492
955.632522,1225.752797,740.205942,8956.491898
955.632838,1225.752797,666.185348,9104.533087
955.633153,842.705048,-0.000000,9326.594869
955.633469,612.876398,-444.123565,9400.615463
955.633785,306.438199,-888.247130,9696.697840
955.634100,76.609550,-1184.329507,10066.800811
955.634416,-383.047749,-1258.350101,10658.965565
955.634732,76.609550,-888.247130,10362.883188
955.635047,153.219100,-518.144159,9918.759623
955.635363,0.000000,-74.020594,9622.677246
955.635679,0.000000,296.082377,9474.636058
955.635994,-306.438199,518.144159,9178.553681
955.636310,76.609550,592.164754,8882.471304
955.636625,229.828649,444.123565,9252.574275
955.636941,0.000000,-0.000000,9326.594869
955.637257,0.000000,-444.123565,9474.636058
955.637572,0.000000,-888.247130,9548.656652
955.637888,306.438199,-1110.308913,9918.759623
955.638204,459.657299,-1110.308913,9844.739029
955.638519,612.876398,-814.226536,10066.800811
955.638835,995.924147,-370.102971,9844.739029
955.639151,1149.143247,-0.000000,9844.739029
955.639466,1302.362347,296.082377,9178.553681
955.639782,1608.800546,444.123565,8956.491898
955.640098,1838.629195,518.144159,8882.471304
955.640413,1838.629195,592.164754,8956.491898
955.640729,766.095498,-148.041188,8734.430116
955.641045,919.314598,-148.041188,9104.533087
955.641360,536.266849,-518.144159,9474.636058
955.641676,229.828649,-592.164754,9696.697840
955.641992,229.828649,-444.123565,9918.759623
955.642307,-383.047749,-296.082377,9992.780217
955.642623,0.000000,-148.041188,9918.759623
955.642939,-383.047749,-0.000000,9770.718434
955.643254,-689.485948,-0.000000,9474.636058
955.643570,-306.438199,-0.000000,9178.553681
955.643885,-766.095498,-0.000000,9326.594869
955.644201,-383.047749,-0.000000,9622.677246
955.644517,-459.657299,-740.205942,9400.615463
955.644832,-153.219100,-740.205942,9474.636058
955.645148,-306.438199,-1184.329507,9770.718434
955.645464,153.219100,-1110.308913,9918.759623
955.645779,766.095498,-814.226536,9622.677246
955.646095,995.924147,-296.082377,9474.636058
955.646411,1149.143247,-296.082377,9252.574275
955.646726,1608.800546,444.123565,8956.491898
955.647042,1762.019645,666.185348,8808.450710
955.647358,1455.581446,814.226536,8660.409521
955.647673,1608.800546,888.247130,8956.491898
955.647989,1455.581446,370.102971,9400.615463
955.648305,995.924147,-0.000000,9326.594869
955.648620,306.438199,-222.061783,9622.677246
955.648936,76.609550,-740.205942,9918.759623
955.649252,0.000000,-888.247130,10362.883188
955.649567,-459.657299,-888.247130,10510.924376
955.649883,0.000000,-370.102971,10214.842000
955.650198,-383.047749,-222.061783,9844.739029
955.650514,-229.828649,-0.000000,9622.677246
955.650830,-153.219100,592.164754,9474.636058
955.651145,0.000000,592.164754,9622.677246
955.651461,0.000000,148.041188,9326.594869
955.651777,76.609550,148.041188,9474.636058
955.652092,0.000000,-296.082377,9474.636058
955.652408,0.000000,-592.164754,9474.636058
