#time,accel_x,accel_y,accel_z
1144.144277,459.657299,-148.041188,9548.656652
1144.144592,536.266849,-74.020594,9474.636058
1144.144908,536.266849,-148.041188,9474.636058
1144.145224,383.047749,-296.082377,9326.594869
1144.145540,459.657299,-222.061783,9400.615463
1144.145855,306.438199,-0.000000,9474.636058
1144.146171,612.876398,-222.061783,9400.615463
1144.146487,229.828649,-222.061783,9548.656652
1144.146803,383.047749,-0.000000,9474.636058
1144.147118,383.047749,-148.041188,9400.615463
1144.147434,612.876398,-296.082377,9252.574275
1144.147750,536.266849,-148.041188,9696.697840
1144.148065,536.266849,-74.020594,9474.636058
1144.148381,459.657299,-74.020594,9474.636058
1144.148697,383.047749,-74.020594,9844.739029
1144.149013,459.657299,-74.020594,9474.636058
1144.149328,459.657299,-74.020594,9326.594869
1144.149644,459.657299,-74.020594,9474.636058
1144.149960,612.876398,-444.123565,9548.656652
1144.150275,0.000000,-148.041188,9918.759623
1144.150591,0.000000,-222.061783,9326.594869
1144.150907,76.609550,444.123565,9474.636058
1144.151223,383.047749,148.041188,9400.615463
1144.151538,459.657299,370.102971,9548.656652
1144.151854,383.047749,444.123565,9696.697840
1144.152170,306.438199,296.082377,9030.512492
1144.152486,536.266849,148.041188,9400.615463
1144.152801,766.095498,148.041188,9400.615463
1144.153117,1149.143247,-0.000000,9474.636058
1144.153433,842.705048,296.082377,9622.677246
1144.153748,306.438199,370.102971,9474.636058
1144.154064,153.219100,222.061783,9474.636058
1144.154380,536.266849,370.102971,9622.677246
1144.154696,459.657299,666.185348,9474.636058
1144.155011,153.219100,666.185348,9474.636058
1144.155327,306.438199,740.205942,9252.574275
1144.155643,153.219100,814.226536,9474.636058
1144.155958,76.609550,740.205942,9400.615463
1144.156274,0.000000,1110.308913,9474.636058
1144.156590,-153.219100,592.164754,9104.533087
1144.156906,-306.438199,814.226536,9178.553681
1144.157221,-306.438199,888.247130,9252.574275
1144.157537,-306.438199,1036.288319,9326.594869
1144.157853,76.609550,1480.411884,9104.533087
1144.158169,-919.314598,1554.432478,9474.636058
1144.158484,-1225.752797,1480.411884,9326.594869
1144.158800,-1378.971896,1332.370696,9400.615463
1144.159116,-1532.190996,1332.370696,9548.656652
1144.159431,-1378.971896,1258.350101,9622.677246
1144.159747,-1991.848295,1406.391290,9622.677246
1144.160063,-2068.457845,1332.370696,9622.677246
1144.160379,-2221.676944,1702.473667,9622.677246
1144.160694,-2145.067394,1406.391290,9548.656652
1144.161010,-1762.019645,1628.453072,9474.636058
1144.161326,-1838.629195,1776.494261,9474.636058
1144.161641,-1838.629195,1850.514855,9326.594869
1144.161957,-1455.581446,1924.535449,9104.533087
1144.162273,-1149.143247,1702.473667,9400.615463
1144.162589,-1685.410096,1554.432478,9474.636058
1144.162904,-1225.752797,1554.432478,9474.636058
1144.163220,-1532.190996,1480.411884,9696.697840
1144.163536,-1072.533697,1998.556043,9918.759623
1144.163852,-536.266849,2072.576638,9474.636058
1144.164167,-1149.143247,2146.597232,9400.615463
1144.164483,-1225.752797,2294.638420,9326.594869
1144.164799,-1378.971896,2294.638420,9474.636058
1144.165114,-1455.581446,2368.659014,9474.636058
1144.165430,-1762.019645,2294.638420,9696.697840
1144.165746,-1608.800546,1850.514855,9474.636058
1144.166062,-1915.238745,1110.308913,9474.636058
1144.166377,-2145.067394,962.267725,9696.697840
1144.166693,-2145.067394,1184.329507,9992.780217
1144.167009,-2068.457845,962.267725,9844.739029
1144.167324,-1991.848295,1110.308913,9918.759623
1144.167640,-2221.676944,1406.391290,9548.656652
1144.167956,-2145.067394,1332.370696,9622.677246
1144.168272,-1991.848295,1332.370696,9622.677246
1144.168587,-1378.971896,1332.370696,9770.718434
1144.168903,-1532.190996,1554.432478,9326.594869
1144.169219,-1685.410096,1406.391290,9326.594869
1144.169535,-1685.410096,1850.514855,9252.574275
1144.169850,-2298.286494,1702.473667,9030.512492
1144.170166,-2145.067394,2146.597232,8956.491898
1144.170482,-2221.676944,2368.659014,8808.450710
1144.170797,-2221.676944,2368.659014,9104.533087
1144.171113,-2757.943793,2294.638420,9252.574275
1144.171429,-2834.553343,1480.411884,9400.615463
1144.171745,-2757.943793,1258.350101,9622.677246
1144.172060,-2987.772442,518.144159,9770.718434
1144.172376,-2757.943793,296.082377,10140.821405
1144.172692,-2911.162892,-0.000000,10214.842000
1144.173008,-2221.676944,222.061783,10140.821405
1144.173323,-1838.629195,444.123565,9918.759623
1144.173639,-1225.752797,1554.432478,9696.697840
1144.173955,-536.266849,1924.535449,9104.533087
1144.174270,0.000000,2294.638420,8882.471304
1144.174586,229.828649,3256.906145,8364.327145
1144.174902,612.876398,2960.823768,8142.265362
1144.175218,536.266849,3330.926739,8364.327145
1144.175533,306.438199,2960.823768,8068.244768
1144.175849,-229.828649,2664.741391,7994.224174
1144.176165,-995.924147,2516.700203,8512.368333
1144.176480,-1915.238745,2072.576638,8808.450710
1144.176796,-2451.505594,1554.432478,9622.677246
1144.177112,-3524.039291,1110.308913,10214.842000
1144.177428,-4290.134789,592.164754,10584.944971
1144.177743,-4213.525239,222.061783,11177.109724
1144.178059,-3677.258390,222.061783,11251.130318
1144.178375,-2834.553343,222.061783,11029.068536
1144.178691,-2298.286494,148.041188,10288.862594
1144.179006,-1378.971896,592.164754,9844.739029
1144.179322,-383.047749,1036.288319,9474.636058
1144.179638,612.876398,2368.659014,8808.450710
1144.179953,995.924147,3034.844362,8216.285956
1144.180269,1685.410096,3627.009116,7772.162391
1144.180585,1225.752797,4441.235652,7624.121203
1144.180901,842.705048,5033.400406,7624.121203
1144.181216,0.000000,4663.297435,7402.059420
1144.181532,-842.705048,3923.091493,7994.224174
1144.181848,-2221.676944,3182.885551,8882.471304
1144.182163,-3524.039291,1702.473667,10140.821405
1144.182479,-4596.572988,222.061783,11177.109724
1144.182795,-5056.230287,-518.144159,12065.356855
1144.183111,-5515.887586,-1258.350101,12657.521608
1144.183426,-5056.230287,-2072.576638,12583.501014
1144.183742,-4826.401637,-1036.288319,12509.480420
1144.184058,-3370.820191,-148.041188,11547.212695
1144.184374,-1991.848295,1184.329507,10584.944971
1144.184689,-612.876398,2590.720797,8808.450710
1144.185005,1072.533697,4367.215058,7550.100608
1144.185321,1532.190996,5551.544565,6291.750507
1144.185636,1762.019645,6069.688724,6365.771101
1144.185952,1378.971896,5995.668130,6143.709319
1144.186268,612.876398,5033.400406,7031.956449
1144.186584,0.000000,3478.967927,8068.244768
1144.186899,-1838.629195,1554.432478,9326.594869
1144.187215,-3294.210641,-0.000000,10732.986159
1144.187531,-4213.525239,-1036.288319,12139.377449
1144.187846,-4366.744339,-1036.288319,12657.521608
1144.188162,-4673.182538,-518.144159,12435.459826
1144.188478,-4519.963438,-0.000000,11843.295072
1144.188794,-3753.867940,592.164754,10955.047942
1144.189109,-2834.553343,1406.391290,10066.800811
1144.189425,-1991.848295,2664.741391,9030.512492
1144.189741,-536.266849,3775.050304,8364.327145
1144.190057,0.000000,3997.112087,7624.121203
1144.190372,383.047749,4071.132681,7476.080014
1144.190688,459.657299,3256.906145,7624.121203
1144.191004,612.876398,2294.638420,8956.491898
1144.191319,0.000000,1406.391290,8882.471304
1144.191635,-459.657299,1702.473667,8882.471304
1144.191951,-1225.752797,1702.473667,9178.553681
1144.192267,-1838.629195,1332.370696,9918.759623
1144.192582,-2298.286494,888.247130,10362.883188
1144.192898,-2834.553343,1628.453072,9918.759623
1144.193214,-3830.477490,1184.329507,9918.759623
1144.193529,-3600.648841,296.082377,10288.862594
1144.193845,-3294.210641,-0.000000,10214.842000
1144.194161,-2834.553343,592.164754,9622.677246
1144.194477,-2374.896044,1110.308913,9178.553681
1144.194792,-1762.019645,1776.494261,8660.409521
1144.195108,-1455.581446,1702.473667,8882.471304
1144.195424,-1072.533697,1924.535449,9178.553681
1144.195740,-1378.971896,2516.700203,9474.636058
1144.196055,-1225.752797,2590.720797,9474.636058
1144.196371,-1149.143247,2146.597232,9400.615463
1144.196687,-1072.533697,1850.514855,9178.553681
1144.197002,-612.876398,1332.370696,9326.594869
1144.197318,-536.266849,814.226536,9252.574275
1144.197634,-842.705048,666.185348,9252.574275
1144.197950,-1072.533697,1184.329507,9548.656652
1144.198265,-1608.800546,1628.453072,9178.553681
1144.198581,-1455.581446,1850.514855,9104.533087
1144.198897,-1225.752797,2368.659014,9918.759623
1144.199213,-1072.533697,3034.844362,9104.533087
1144.199528,-1072.533697,3034.844362,8660.409521
1144.199844,-689.485948,2294.638420,8660.409521
1144.200160,-1072.533697,2294.638420,8956.491898
1144.200475,-1225.752797,1924.535449,9104.533087
1144.200791,-1532.190996,1258.350101,10140.821405
1144.201107,-1608.800546,962.267725,10881.027347
1144.201423,-1838.629195,1258.350101,10288.862594
1144.201738,-2145.067394,1036.288319,10658.965565
1144.202054,-1685.410096,592.164754,10066.800811
1144.202370,-919.314598,814.226536,10140.821405
1144.202685,-536.266849,1332.370696,9696.697840
1144.203001,-306.438199,1998.556043,9548.656652
1144.203317,766.095498,2294.638420,8956.491898
1144.203632,306.438199,3034.844362,8512.368333
1144.203948,383.047749,3108.864956,8290.306550
1144.204264,-306.438199,3182.885551,7994.224174
1144.204580,-1302.362347,3108.864956,8586.388927
1144.204895,-1915.238745,3256.906145,8882.471304
1144.205211,-2528.115143,2516.700203,9696.697840
1144.205527,-3064.381992,1258.350101,9844.739029
1144.205842,-4366.744339,1258.350101,10288.862594
1144.206158,-4443.353888,-0.000000,10955.047942
1144.206474,-4366.744339,-888.247130,11843.295072
1144.206789,-4290.134789,-592.164754,11843.295072
1144.207105,-4366.744339,-814.226536,11325.150913
1144.207421,-3524.039291,-592.164754,11325.150913
1144.207737,-2604.724693,-0.000000,10881.027347
1144.208052,-1455.581446,888.247130,9326.594869
1144.208368,0.000000,1702.473667,7772.162391
1144.208684,229.828649,2368.659014,8068.244768
1144.208999,459.657299,3108.864956,7994.224174
1144.209315,919.314598,3627.009116,7105.977043
1144.209631,766.095498,3182.885551,7476.080014
1144.209946,0.000000,2590.720797,7994.224174
1144.210262,-766.095498,1480.411884,8142.265362
1144.210578,-1991.848295,-0.000000,9992.780217
1144.210893,-2987.772442,-962.267725,10732.986159
1144.211209,-2834.553343,-1628.453072,11769.274478
1144.211525,-2987.772442,-1258.350101,11325.150913
1144.211841,-3294.210641,-1184.329507,10955.047942
1144.212156,-2757.943793,-1850.514855,11251.130318
1144.212472,-1915.238745,-1628.453072,10955.047942
1144.212788,-1072.533697,-518.144159,9770.718434
1144.213103,153.219100,518.144159,9030.512492
1144.213419,1915.238745,370.102971,9474.636058
1144.213735,2911.162892,1924.535449,7772.162391
1144.214050,3294.210641,2220.617826,6809.894666
1144.214366,3217.601092,2294.638420,6513.812290
1144.214682,2911.162892,1924.535449,7550.100608
1144.214998,3064.381992,2146.597232,8216.285956
1144.215313,2681.334243,1628.453072,8290.306550
1144.215629,1302.362347,444.123565,9474.636058
1144.215945,0.000000,-962.267725,10362.883188
1144.216260,-383.047749,-1554.432478,10807.006753
1144.216576,-766.095498,-1702.473667,10584.944971
1144.216892,-612.876398,-666.185348,11251.130318
1144.217207,-612.876398,-518.144159,10732.986159
1144.217523,-689.485948,-740.205942,9918.759623
1144.217839,-842.705048,-74.020594,9474.636058
1144.218154,-1225.752797,-444.123565,9178.553681
1144.218470,-306.438199,-0.000000,9178.553681
1144.218786,229.828649,222.061783,9400.615463
1144.219102,536.266849,-0.000000,9548.656652
1144.219417,842.705048,-0.000000,9844.739029
1144.219733,459.657299,-444.123565,9104.533087
1144.220049,1149.143247,-814.226536,9400.615463
1144.220364,1991.848295,-962.267725,9844.739029
1144.220680,1991.848295,-296.082377,9622.677246
1144.220996,2451.505594,-0.000000,9696.697840
1144.221311,2374.896044,-666.185348,9992.780217
1144.221627,1685.410096,1036.288319,8956.491898
1144.221943,1915.238745,740.205942,8290.306550
1144.222259,2528.115143,666.185348,9252.574275
1144.222574,1915.238745,1776.494261,8438.347739
1144.222890,1378.971896,1184.329507,8438.347739
1144.223206,919.314598,1258.350101,8956.491898
1144.223521,76.609550,518.144159,9474.636058
1144.223837,-536.266849,-0.000000,9474.636058
1144.224153,-919.314598,296.082377,9918.759623
1144.224468,-2604.724693,-666.185348,11103.089130
1144.224784,-2145.067394,-592.164754,11695.253884
1144.225100,-2451.505594,-148.041188,10214.842000
1144.225415,-1915.238745,-814.226536,10510.924376
1144.225731,-842.705048,-222.061783,9992.780217
1144.226047,-1072.533697,-814.226536,9474.636058
1144.226363,153.219100,-1036.288319,9548.656652
1144.226678,383.047749,-518.144159,9696.697840
1144.226994,689.485948,370.102971,8882.471304
1144.227310,2145.067394,1924.535449,7920.203579
1144.227625,2221.676944,2442.679609,7105.977043
1144.227941,2298.286494,2294.638420,7772.162391
1144.228257,1225.752797,1850.514855,8216.285956
1144.228572,536.266849,1702.473667,8364.327145
1144.228888,612.876398,-0.000000,9474.636058
1144.229204,459.657299,-148.041188,9548.656652
1144.229520,-1072.533697,-740.205942,9548.656652
1144.229835,-1608.800546,-2368.659014,11695.253884
1144.230151,-1915.238745,-2442.679609,11251.130318
1144.230467,-2987.772442,-3108.864956,11251.130318
1144.230782,-2068.457845,-1628.453072,11177.109724
1144.231098,-995.924147,-888.247130,10288.862594
1144.231414,-689.485948,-296.082377,9474.636058
1144.231729,306.438199,-0.000000,9696.697840
1144.232045,383.047749,-444.123565,9548.656652
1144.232361,1378.971896,-222.061783,8882.471304
1144.232676,2374.896044,1480.411884,7624.121203
1144.232992,2221.676944,1332.370696,7476.080014
1144.233308,1991.848295,-74.020594,8956.491898
1144.233624,1915.238745,-222.061783,8808.450710
1144.233939,1072.533697,666.185348,9104.533087
1144.234255,1378.971896,-592.164754,10066.800811
1144.234571,689.485948,370.102971,9252.574275
1144.234886,153.219100,-0.000000,9474.636058
1144.235202,76.609550,-1110.308913,10362.883188
1144.235518,306.438199,-740.205942,10288.862594
1144.235833,-153.219100,-1406.391290,10584.944971
1144.236149,536.266849,-740.205942,9844.739029
1144.236465,612.876398,-296.082377,9474.636058
1144.236781,995.924147,-1184.329507,9844.739029
1144.237096,1685.410096,-0.000000,9400.615463
1144.237412,995.924147,666.185348,8438.347739
1144.237728,1915.238745,740.205942,8882.471304
1144.238043,2221.676944,740.205942,8808.450710
1144.238359,2145.067394,666.185348,8882.471304
1144.238675,1915.238745,296.082377,9030.512492
1144.238990,1302.362347,222.061783,8734.430116
1144.239306,1378.971896,-296.082377,9252.574275
1144.239622,1532.190996,-740.205942,9844.739029
1144.239937,1532.190996,-0.000000,9474.636058
1144.240253,1225.752797,-148.041188,9400.615463
1144.240569,229.828649,-888.247130,9030.512492
1144.240885,0.000000,-666.185348,9844.739029
1144.241200,995.924147,-740.205942,9696.697840
1144.241516,1225.752797,666.185348,8956.491898
1144.241832,612.876398,444.123565,8882.471304
1144.242147,536.266849,-74.020594,9474.636058
1144.242463,153.219100,-0.000000,9400.615463
1144.242779,-383.047749,-370.102971,9400.615463
1144.243094,153.219100,-0.000000,9474.636058
1144.243410,-153.219100,370.102971,9326.594869
1144.243726,-995.924147,-740.205942,10288.862594
1144.244042,-919.314598,-1184.329507,10807.006753
1144.244357,-1225.752797,-1628.453072,10362.883188
1144.244673,-1149.143247,-1332.370696,10436.903782
1144.244989,-229.828649,-296.082377,10214.842000
1144.245304,153.219100,-518.144159,9030.512492
1144.245620,0.000000,-592.164754,10066.800811
1144.245936,76.609550,-814.226536,9918.759623
1144.246251,76.609550,-740.205942,9326.594869
1144.246567,995.924147,-0.000000,8882.471304
1144.246883,1072.533697,296.082377,9030.512492
1144.247198,1149.143247,370.102971,9030.512492
1144.247514,383.047749,222.061783,9696.697840
1144.247830,76.609550,296.082377,9474.636058
1144.248146,76.609550,-370.102971,9474.636058
1144.248461,689.485948,-0.000000,9474.636058
1144.248777,0.000000,-222.061783,9030.512492
1144.249093,-306.438199,-1258.350101,10288.862594
1144.249408,-229.828649,-1480.411884,10807.006753
1144.249724,-536.266849,-1850.514855,10214.842000
1144.250040,-383.047749,-740.205942,9474.636058
1144.250355,153.219100,-0.000000,9326.594869
1144.250671,0.000000,-296.082377,9622.677246
1144.250987,536.266849,-222.061783,9400.615463
1144.251303,306.438199,-0.000000,8882.471304
1144.251618,383.047749,-0.000000,9030.512492
1144.251934,919.314598,518.144159,8438.347739
1144.252250,842.705048,296.082377,8808.450710
1144.252565,1378.971896,-0.000000,9918.759623
1144.252881,766.095498,-74.020594,9622.677246
1144.253197,306.438199,592.164754,8956.491898
1144.253512,689.485948,814.226536,9252.574275
1144.253828,612.876398,148.041188,8956.491898
1144.254144,766.095498,-0.000000,9918.759623
1144.254459,919.314598,-518.144159,9696.697840
1144.254775,612.876398,-148.041188,10288.862594
1144.255091,689.485948,-592.164754,10288.862594
1144.255407,1302.362347,222.061783,8956.491898
1144.255722,1455.581446,1110.308913,9326.594869
1144.256038,919.314598,444.123565,8882.471304
1144.256354,842.705048,740.205942,8808.450710
1144.256669,536.266849,666.185348,9326.594869
1144.256985,995.924147,-74.020594,9178.553681
1144.257301,919.314598,666.185348,8956.491898
1144.257616,229.828649,370.102971,9622.677246
1144.257932,153.219100,-296.082377,9178.553681
1144.258248,0.000000,148.041188,10140.821405
1144.258564,-459.657299,-370.102971,9918.759623
1144.258879,0.000000,-370.102971,9696.697840
1144.259195,0.000000,-518.144159,9696.697840
1144.259511,-153.219100,-1110.308913,9918.759623
1144.259826,0.000000,-814.226536,9844.739029
1144.260142,-459.657299,-370.102971,9844.739029
1144.260458,153.219100,-0.000000,9696.697840
1144.260773,306.438199,814.226536,8290.306550
1144.261089,383.047749,1110.308913,8808.450710
1144.261405,0.000000,222.061783,9030.512492
1144.261720,0.000000,-0.000000,9622.677246
1144.262036,0.000000,148.041188,9548.656652
1144.262352,536.266849,296.082377,10362.883188
1144.262668,612.876398,518.144159,8882.471304
1144.262983,-153.219100,-74.020594,9326.594869
1144.263299,0.000000,-296.082377,10066.800811
1144.263615,76.609550,-296.082377,10140.821405
1144.263930,766.095498,-740.205942,9696.697840
1144.264246,306.438199,444.123565,9178.553681
1144.264562,306.438199,-592.164754,9622.677246
1144.264877,689.485948,-1332.370696,9992.780217
1144.265193,536.266849,-740.205942,9770.718434
1144.265509,229.828649,-592.164754,9252.574275
1144.265825,459.657299,222.061783,8808.450710
1144.266140,766.095498,222.061783,9030.512492
1144.266456,536.266849,-0.000000,8956.491898
1144.266772,536.266849,222.061783,9178.553681
1144.267087,-153.219100,-1258.350101,9622.677246
1144.267403,-383.047749,-1258.350101,10140.821405
1144.267719,76.609550,-962.267725,9400.615463
1144.268034,229.828649,-1110.308913,9030.512492
1144.268350,689.485948,-1554.432478,10066.800811
1144.268666,-76.609550,-1332.370696,9622.677246
1144.268981,459.657299,-962.267725,10066.800811
1144.269297,459.657299,-740.205942,9474.636058
1144.269613,766.095498,-222.061783,9252.574275
1144.269929,1072.533697,-370.102971,8882.471304
1144.270244,1149.143247,-592.164754,9030.512492
1144.270560,153.219100,-962.267725,9474.636058
1144.270876,536.266849,-1184.329507,10066.800811
1144.271191,1149.143247,-74.020594,8586.388927
1144.271507,612.876398,-0.000000,8956.491898
1144.271823,306.438199,-814.226536,9918.759623
1144.272138,306.438199,-592.164754,9548.656652
1144.272454,153.219100,-888.247130,9548.656652
1144.272770,919.314598,-740.205942,9326.594869
1144.273086,1072.533697,-74.020594,8734.430116
1144.273401,842.705048,-370.102971,9326.594869
1144.273717,919.314598,-370.102971,8882.471304
1144.274033,306.438199,-0.000000,9252.574275
1144.274348,995.924147,370.102971,8808.450710
1144.274664,1225.752797,518.144159,8512.368333
1144.274980,842.705048,592.164754,8882.471304
1144.275295,1302.362347,-74.020594,9548.656652
1144.275611,766.095498,-148.041188,9104.533087
1144.275927,76.609550,-74.020594,9030.512492
1144.276242,0.000000,888.247130,9918.759623
1144.276558,306.438199,888.247130,9104.533087
1144.276874,0.000000,740.205942,9844.739029
1144.277190,-153.219100,666.185348,9918.759623
1144.277505,-842.705048,296.082377,9400.615463
1144.277821,-536.266849,-222.061783,9696.697840
1144.278137,0.000000,-0.000000,9918.759623
1144.278452,0.000000,-518.144159,9844.739029
1144.278768,229.828649,-518.144159,10584.944971
1144.279084,76.609550,-296.082377,10214.842000
1144.279399,-383.047749,-370.102971,9622.677246
1144.279715,459.657299,592.164754,9992.780217
1144.280031,995.924147,1258.350101,9474.636058
1144.280347,1302.362347,962.267725,8956.491898
1144.280662,1302.362347,740.205942,9474.636058
1144.280978,383.047749,-0.000000,9696.697840
1144.281294,459.657299,-518.144159,9844.739029
1144.281609,1225.752797,-0.000000,9178.553681
1144.281925,919.314598,-222.061783,9548.656652
1144.282241,919.314598,-888.247130,10658.965565
1144.282556,612.876398,-444.123565,9326.594869
1144.282872,153.219100,-592.164754,9992.780217
1144.283188,612.876398,-592.164754,10732.986159
1144.283503,306.438199,222.061783,9474.636058
1144.283819,229.828649,222.061783,9104.533087
1144.284135,229.828649,-740.205942,9770.718434
1144.284451,-689.485948,-740.205942,9918.759623
1144.284766,0.000000,-370.102971,9474.636058
1144.285082,153.219100,-148.041188,9696.697840
1144.285398,-229.828649,-0.000000,9918.759623
1144.285713,0.000000,-148.041188,10140.821405
1144.286029,153.219100,-0.000000,9696.697840
1144.286345,-306.438199,-222.061783,9992.780217
1144.286660,842.705048,-148.041188,9696.697840
1144.286976,842.705048,740.205942,9030.512492
1144.287292,689.485948,666.185348,9178.553681
1144.287608,1149.143247,-222.061783,9622.677246
1144.287923,1072.533697,296.082377,9918.759623
1144.288239,1149.143247,-0.000000,9844.739029
1144.288555,1838.629195,518.144159,8660.409521
1144.288870,1838.629195,666.185348,8956.491898
1144.289186,1378.971896,-0.000000,9178.553681
1144.289502,766.095498,-148.041188,8734.430116
1144.289817,1072.533697,-666.185348,9770.718434
1144.290133,766.095498,-592.164754,9622.677246
1144.290449,1072.533697,370.102971,8512.368333
1144.290764,1225.752797,-222.061783,8956.491898
1144.291080,842.705048,-962.267725,9400.615463
1144.291396,383.047749,-666.185348,9474.636058
1144.291712,383.047749,-1036.288319,9326.594869
1144.292027,383.047749,-518.144159,9252.574275
1144.292343,1225.752797,-888.247130,9104.533087
1144.292659,995.924147,-1110.308913,9474.636058
1144.292974,76.609550,-666.185348,9400.615463
1144.293290,-306.438199,-814.226536,9622.677246
1144.293606,612.876398,-1036.288319,9474.636058
1144.293921,689.485948,370.102971,9104.533087
1144.294237,459.657299,740.205942,8882.471304
1144.294553,153.219100,-0.000000,8290.306550
1144.294869,-229.828649,-518.144159,8882.471304
1144.295184,-459.657299,-1036.288319,9844.739029
1144.295500,76.609550,-740.205942,9474.636058
1144.295816,-153.219100,-370.102971,9326.594869
1144.296131,-766.095498,-666.185348,9992.780217
1144.296447,-76.609550,-1036.288319,9474.636058
1144.296763,-919.314598,-370.102971,9252.574275
1144.297078,-842.705048,-222.061783,9326.594869
1144.297394,1225.752797,-444.123565,9178.553681
1144.297710,459.657299,-0.000000,9030.512492
1144.298025,229.828649,-814.226536,9548.656652
1144.298341,306.438199,-1110.308913,9400.615463
1144.298657,919.314598,-888.247130,9252.574275
1144.298973,766.095498,-592.164754,9548.656652
1144.299288,842.705048,222.061783,9030.512492
1144.299604,842.705048,-0.000000,9030.512492
1144.299920,919.314598,-148.041188,9474.636058
1144.300235,76.609550,-222.061783,9474.636058
1144.300551,842.705048,-296.082377,9696.697840
1144.300867,1225.752797,-0.000000,9030.512492
1144.301182,689.485948,-0.000000,9104.533087
1144.301498,459.657299,-1036.288319,9548.656652
1144.301814,459.657299,-1036.288319,10288.862594
1144.302130,0.000000,-518.144159,10807.006753
1144.302445,459.657299,-0.000000,10140.821405
1144.302761,383.047749,222.061783,9844.739029
1144.303077,0.000000,-296.082377,9918.759623
1144.303392,153.219100,-444.123565,10140.821405
1144.303708,383.047749,-592.164754,10066.800811
1144.304024,689.485948,-370.102971,10807.006753
1144.304340,1378.971896,518.144159,9400.615463
1144.304656,766.095498,1258.350101,9326.594869
1144.304971,919.314598,518.144159,9696.697840
1144.305287,689.485948,592.164754,9696.697840
1144.305603,995.924147,296.082377,9992.780217
1144.305919,1302.362347,592.164754,9696.697840
1144.306235,995.924147,666.185348,9326.594869
1144.306550,842.705048,-0.000000,9696.697840
1144.306866,919.314598,-888.247130,10140.821405
1144.307182,306.438199,-0.000000,10214.842000
1144.307498,459.657299,-0.000000,10288.862594
1144.307814,995.924147,370.102971,9178.553681
1144.308129,689.485948,666.185348,9030.512492
1144.308445,536.266849,-444.123565,9474.636058
1144.308761,383.047749,-444.123565,9400.615463
1144.309077,383.047749,-74.020594,9030.512492
1144.309393,689.485948,-74.020594,9622.677246
1144.309708,612.876398,518.144159,8586.388927
1144.310024,229.828649,-0.000000,8734.430116
1144.310340,-306.438199,-814.226536,9178.553681
1144.310656,-459.657299,-1036.288319,9622.677246
1144.310972,0.000000,-740.205942,9770.718434
1144.311287,536.266849,814.226536,8586.388927
1144.311603,-153.219100,444.123565,8808.450710
1144.311919,0.000000,-74.020594,9178.553681
1144.312235,153.219100,-222.061783,8438.347739
1144.312550,-612.876398,-0.000000,9400.615463
1144.312866,-383.047749,-370.102971,9326.594869
1144.313182,-229.828649,148.041188,8882.471304
1144.313498,-383.047749,-0.000000,9178.553681
1144.313814,-153.219100,-222.061783,9252.574275
1144.314129,0.000000,-74.020594,9474.636058
1144.314445,0.000000,-296.082377,9474.636058
1144.314761,0.000000,592.164754,9030.512492
1144.315077,0.000000,-0.000000,9548.656652
1144.315393,76.609550,-370.102971,9548.656652
1144.315708,0.000000,-74.020594,9622.677246
1144.316024,-383.047749,-0.000000,9622.677246
1144.316340,536.266849,-0.000000,9400.615463
1144.316656,689.485948,370.102971,8660.409521
1144.316972,689.485948,-444.123565,9178.553681
1144.317287,612.876398,-740.205942,10066.800811
1144.317603,383.047749,-814.226536,9622.677246
1144.317919,306.438199,-888.247130,9622.677246
1144.318235,689.485948,-666.185348,9918.759623
1144.318551,459.657299,-0.000000,9770.718434
1144.318866,306.438199,-814.226536,9548.656652
1144.319182,0.000000,-444.123565,9992.780217
1144.319498,-612.876398,-1184.329507,9844.739029
1144.319814,76.609550,-1110.308913,9770.718434
1144.320130,995.924147,-296.082377,9474.636058
1144.320445,612.876398,-370.102971,9548.656652
1144.320761,689.485948,-962.267725,9918.759623
1144.321077,229.828649,-1258.350101,9844.739029
1144.321393,306.438199,-1258.350101,10288.862594
1144.321709,1225.752797,-518.144159,10066.800811
1144.322024,919.314598,-148.041188,9104.533087
1144.322340,995.924147,-0.000000,9474.636058
1144.322656,1072.533697,-148.041188,9918.759623
1144.322972,1149.143247,-444.123565,9696.697840
1144.323288,1225.752797,-0.000000,9252.574275
1144.323603,1455.581446,1110.308913,8290.306550
1144.323919,995.924147,-148.041188,8808.450710
1144.324235,1149.143247,-1036.288319,10214.842000
1144.324551,536.266849,-518.144159,10436.903782
1144.324867,306.438199,-444.123565,9844.739029
1144.325182,919.314598,296.082377,9548.656652
1144.325498,766.095498,-0.000000,8882.471304
1144.325814,1149.143247,-0.000000,9548.656652
1144.326130,459.657299,-74.020594,8956.491898
1144.326446,612.876398,-0.000000,9918.759623
1144.326761,536.266849,222.061783,8882.471304
1144.327077,995.924147,1480.411884,8808.450710
1144.327393,995.924147,370.102971,8068.244768
1144.327709,766.095498,-296.082377,9548.656652
1144.328025,0.000000,-74.020594,9474.636058
1144.328340,0.000000,-296.082377,8956.491898
1144.328656,229.828649,-0.000000,9474.636058
1144.328972,153.219100,-74.020594,9474.636058
1144.329288,76.609550,-148.041188,9696.697840
1144.329603,-306.438199,-0.000000,9474.636058
1144.329919,-536.266849,-148.041188,9326.594869
1144.330235,0.000000,-222.061783,9252.574275
1144.330551,229.828649,-74.020594,9622.677246
1144.330867,-153.219100,74.020594,9104.533087
1144.331182,0.000000,-740.205942,9844.739029
1144.331498,-383.047749,-370.102971,9178.553681
1144.331814,-153.219100,-814.226536,9400.615463
1144.332130,0.000000,-666.185348,10066.800811
1144.332446,383.047749,370.102971,9252.574275
1144.332761,229.828649,296.082377,9178.553681
1144.333077,76.609550,-518.144159,9622.677246
1144.333393,0.000000,-592.164754,10214.842000
1144.333709,76.609550,-518.144159,9992.780217
1144.334025,1225.752797,-592.164754,9548.656652
1144.334340,383.047749,-222.061783,9474.636058
1144.334656,229.828649,-592.164754,9918.759623
1144.334972,612.876398,-666.185348,9474.636058
1144.335288,536.266849,-148.041188,9474.636058
1144.335604,612.876398,-0.000000,9770.718434
1144.335919,842.705048,592.164754,8956.491898
1144.336235,689.485948,-0.000000,9030.512492
1144.336551,383.047749,-222.061783,9104.533087
1144.336867,459.657299,-1332.370696,9918.759623
1144.337183,0.000000,-1554.432478,10436.903782
1144.337498,689.485948,-0.000000,9030.512492
1144.337814,536.266849,-518.144159,8808.450710
1144.338130,153.219100,-222.061783,9770.718434
1144.338446,0.000000,-666.185348,9400.615463
1144.338762,76.609550,-370.102971,9548.656652
1144.339077,536.266849,-296.082377,9992.780217
1144.339393,766.095498,-0.000000,8808.450710
1144.339709,919.314598,296.082377,9252.574275
1144.340025,689.485948,-518.144159,9178.553681
1144.340341,766.095498,-444.123565,9844.739029
1144.340656,1302.362347,-0.000000,9770.718434
1144.340972,1072.533697,1110.308913,8586.388927
1144.341288,1378.971896,814.226536,9474.636058
1144.341604,1149.143247,-222.061783,9622.677246
1144.341920,1072.533697,-148.041188,9178.553681
1144.342235,995.924147,-0.000000,10362.883188
1144.342551,1455.581446,-0.000000,9474.636058
1144.342867,1378.971896,740.205942,8808.450710
1144.343183,1302.362347,-148.041188,9178.553681
1144.343499,1072.533697,-222.061783,9548.656652
1144.343814,766.095498,-370.102971,9474.636058
1144.344130,842.705048,-814.226536,9474.636058
1144.344446,1225.752797,-370.102971,9918.759623
1144.344762,842.705048,-296.082377,9252.574275
1144.345077,536.266849,-518.144159,8808.450710
1144.345393,76.609550,-296.082377,9400.615463
1144.345709,-153.219100,-592.164754,10436.903782
1144.346025,612.876398,-222.061783,9178.553681
1144.346341,0.000000,444.123565,8364.327145
1144.346656,-383.047749,-666.185348,9918.759623
1144.346972,-76.609550,-1110.308913,9844.739029
1144.347288,-153.219100,-740.205942,10140.821405
1144.347604,-689.485948,-444.123565,9400.615463
1144.347920,153.219100,-444.123565,9474.636058
1144.348235,-229.828649,-222.061783,9252.574275
1144.348551,-459.657299,-370.102971,9030.512492
1144.348867,-306.438199,-0.000000,10214.842000
1144.349183,-229.828649,-148.041188,9770.718434
1144.349499,383.047749,444.123565,8882.471304
1144.349814,689.485948,222.061783,9030.512492
1144.350130,536.266849,-222.061783,9770.718434
1144.350446,766.095498,-148.041188,9326.594869
1144.350762,153.219100,-592.164754,8882.471304
1144.351078,153.219100,-740.205942,10214.842000
1144.351393,612.876398,-370.102971,9474.636058
1144.351709,612.876398,222.061783,9030.512492
1144.352025,76.609550,-0.000000,9252.574275
1144.352341,76.609550,-888.247130,9918.759623
1144.352657,229.828649,-888.247130,9252.574275
1144.352972,153.219100,-666.185348,9770.718434
1144.353288,842.705048,592.164754,9178.553681
1144.353604,842.705048,-0.000000,8586.388927
1144.353920,383.047749,-444.123565,9030.512492
1144.354236,153.219100,-296.082377,9696.697840
1144.354551,76.609550,-592.164754,9548.656652
1144.354867,536.266849,-222.061783,9326.594869
1144.355183,536.266849,-74.020594,8956.491898
1144.355499,689.485948,-1110.308913,10066.800811
1144.355815,536.266849,-1184.329507,10214.842000
1144.356130,536.266849,-74.020594,9474.636058
1144.356446,995.924147,-74.020594,9474.636058
1144.356762,1149.143247,740.205942,8882.471304
1144.357078,1225.752797,962.267725,8586.388927
1144.357394,1072.533697,-0.000000,9400.615463
1144.357709,612.876398,-222.061783,9770.718434
1144.358025,612.876398,-148.041188,9104.533087
1144.358341,1608.800546,222.061783,8882.471304
1144.358657,1225.752797,296.082377,9400.615463
1144.358973,995.924147,-962.267725,9474.636058
1144.359288,459.657299,-962.267725,10140.821405
1144.359604,229.828649,-296.082377,9696.697840
1144.359920,919.314598,-148.041188,9770.718434
1144.360236,1225.752797,1184.329507,9252.574275
1144.360552,919.314598,592.164754,9178.553681
1144.360867,919.314598,-148.041188,9770.718434
1144.361183,612.876398,-0.000000,9474.636058
1144.361499,306.438199,-0.000000,9104.533087
1144.361815,1225.752797,-74.020594,9326.594869
1144.362130,612.876398,444.123565,8808.450710
1144.362446,766.095498,-0.000000,9696.697840
1144.362762,383.047749,-0.000000,9844.739029
1144.363078,229.828649,-0.000000,9770.718434
1144.363394,-229.828649,-0.000000,9548.656652
1144.363709,383.047749,814.226536,9178.553681
1144.364025,-536.266849,888.247130,9030.512492
1144.364341,-383.047749,148.041188,10066.800811
1144.364657,-459.657299,-296.082377,10362.883188
1144.364973,-842.705048,-0.000000,9548.656652
1144.365288,-383.047749,-0.000000,9622.677246
1144.365604,-459.657299,-0.000000,9474.636058
1144.365920,-306.438199,-666.185348,9696.697840
1144.366236,-536.266849,-1036.288319,10140.821405
1144.366552,-689.485948,-444.123565,10214.842000
1144.366867,0.000000,-518.144159,10140.821405
1144.367183,689.485948,148.041188,9252.574275
1144.367499,229.828649,1036.288319,8956.491898
1144.367815,153.219100,-222.061783,9696.697840
1144.368131,536.266849,-148.041188,9474.636058
1144.368446,306.438199,-814.226536,9474.636058
1144.368762,766.095498,-444.123565,9326.594869
1144.369078,995.924147,-296.082377,8956.491898
1144.369394,995.924147,-1406.391290,9548.656652
1144.369710,383.047749,-1110.308913,9622.677246
1144.370025,0.000000,-1406.391290,10362.883188
1144.370341,612.876398,-666.185348,9844.739029
1144.370657,1149.143247,-148.041188,8808.450710
1144.370973,612.876398,222.061783,8438.347739
1144.371289,383.047749,-740.205942,9252.574275
1144.371604,0.000000,-1110.308913,9400.615463
1144.371920,-153.219100,-1702.473667,9770.718434
1144.372236,612.876398,-1554.432478,9844.739029
1144.372552,0.000000,-740.205942,9400.615463
1144.372868,76.609550,-962.267725,9474.636058
1144.373183,383.047749,-1480.411884,9696.697840
1144.373499,306.438199,-518.144159,9400.615463
1144.373815,306.438199,-740.205942,9918.759623
1144.374131,689.485948,296.082377,8956.491898
1144.374447,1072.533697,518.144159,8512.368333
1144.374762,1149.143247,-0.000000,8808.450710
1144.375078,766.095498,-0.000000,9030.512492
1144.375394,536.266849,-518.144159,9252.574275
1144.375710,1378.971896,-0.000000,8882.471304
1144.376026,1455.581446,592.164754,8956.491898
1144.376341,919.314598,-0.000000,8808.450710
1144.376657,1532.190996,-962.267725,9548.656652
1144.376973,766.095498,-666.185348,9918.759623
1144.377289,612.876398,-962.267725,9474.636058
1144.377605,1302.362347,-148.041188,9474.636058
1144.377920,1532.190996,888.247130,8956.491898
1144.378236,1608.800546,296.082377,8808.450710
1144.378552,919.314598,518.144159,9326.594869
1144.378868,306.438199,-222.061783,9178.553681
1144.379183,1072.533697,-814.226536,9770.718434
1144.379499,919.314598,518.144159,8882.471304
1144.379815,76.609550,-74.020594,8882.471304
1144.380131,-306.438199,-888.247130,9770.718434
1144.380447,-76.609550,-1110.308913,10066.800811
1144.380762,-306.438199,-962.267725,10436.903782
1144.381078,0.000000,518.144159,9844.739029
1144.381394,0.000000,1184.329507,8734.430116
1144.381710,-153.219100,-0.000000,9844.739029
1144.382026,-229.828649,370.102971,10436.903782
1144.382341,-459.657299,-0.000000,9548.656652
1144.382657,0.000000,-0.000000,9252.574275
1144.382973,229.828649,148.041188,10066.800811
1144.383289,-76.609550,222.061783,9696.697840
1144.383605,-229.828649,74.020594,9548.656652
1144.383920,-1072.533697,-0.000000,9770.718434
1144.384236,-612.876398,-0.000000,10214.842000
1144.384552,229.828649,666.185348,9474.636058
1144.384868,0.000000,962.267725,8956.491898
1144.385184,0.000000,-0.000000,9844.739029
1144.385499,-229.828649,-518.144159,10066.800811
1144.385815,0.000000,-666.185348,9918.759623
1144.386131,76.609550,-518.144159,9770.718434
1144.386447,536.266849,222.061783,9474.636058
1144.386763,536.266849,-370.102971,9030.512492
1144.387078,383.047749,-888.247130,9474.636058
1144.387394,229.828649,-962.267725,9622.677246
1144.387710,229.828649,-1184.329507,10214.842000
1144.388026,1149.143247,-74.020594,9178.553681
1144.388342,536.266849,518.144159,8882.471304
1144.388657,919.314598,-222.061783,9474.636058
1144.388973,766.095498,-962.267725,9326.594869
1144.389289,153.219100,-666.185348,9400.615463
1144.389605,76.609550,-666.185348,10288.862594
1144.389921,689.485948,-666.185348,10066.800811
1144.390236,153.219100,296.082377,9326.594869
1144.390552,612.876398,-962.267725,10658.965565
1144.390868,76.609550,-888.247130,9918.759623
1144.391184,383.047749,-592.164754,9622.677246
1144.391500,1149.143247,-0.000000,9548.656652
1144.391815,1072.533697,814.226536,8734.430116
1144.392131,689.485948,-74.020594,8956.491898
1144.392447,1302.362347,-518.144159,8882.471304
1144.392763,612.876398,-74.020594,9178.553681
1144.393079,1149.143247,-74.020594,9326.594869
1144.393394,1685.410096,444.123565,8734.430116
1144.393710,766.095498,-592.164754,8882.471304
1144.394026,842.705048,-1184.329507,10214.842000
1144.394342,612.876398,-1258.350101,9918.759623
1144.394657,383.047749,-888.247130,9474.636058
1144.394973,842.705048,-148.041188,9474.636058
1144.395289,1072.533697,-0.000000,9178.553681
1144.395605,1072.533697,296.082377,8882.471304
1144.395921,919.314598,-222.061783,9030.512492
1144.396236,383.047749,-0.000000,9474.636058
1144.396552,689.485948,-0.000000,9326.594869
1144.396868,1149.143247,666.185348,8956.491898
1144.397184,612.876398,518.144159,8660.409521
1144.397500,536.266849,444.123565,9474.636058
1144.397815,383.047749,-0.000000,9474.636058
1144.398131,-153.219100,-518.144159,9770.718434
1144.398447,-153.219100,-0.000000,9992.780217
1144.398763,153.219100,296.082377,9844.739029
1144.399079,153.219100,-0.000000,8882.471304
1144.399394,0.000000,-0.000000,10214.842000
1144.399710,-612.876398,-296.082377,9918.759623
1144.400026,76.609550,-592.164754,9474.636058
1144.400342,306.438199,370.102971,8808.450710
1144.400658,76.609550,666.185348,9474.636058
1144.400973,0.000000,-444.123565,9992.780217
1144.401289,0.000000,-740.205942,9474.636058
1144.401605,0.000000,-148.041188,9992.780217
1144.401921,459.657299,-74.020594,9696.697840
1144.402237,766.095498,1110.308913,8882.471304
1144.402552,306.438199,-0.000000,9030.512492
1144.402868,153.219100,-814.226536,10214.842000
1144.403184,76.609550,-814.226536,10214.842000
1144.403500,153.219100,-592.164754,9548.656652
1144.403816,459.657299,-444.123565,9770.718434
1144.404131,153.219100,-0.000000,9400.615463
1144.404447,919.314598,-888.247130,9622.677246
1144.404763,0.000000,-592.164754,9844.739029
1144.405079,0.000000,-888.247130,10362.883188
1144.405394,995.924147,-0.000000,9326.594869
1144.405710,842.705048,1184.329507,8290.306550
1144.406026,1072.533697,222.061783,9030.512492
1144.406342,689.485948,-962.267725,9918.759623
1144.406658,76.609550,-962.267725,9622.677246
1144.406973,383.047749,-888.247130,10066.800811
1144.407289,306.438199,-444.123565,9696.697840
1144.407605,383.047749,-74.020594,9326.594869
1144.407921,76.609550,-296.082377,9548.656652
1144.408236,0.000000,-666.185348,10214.842000
1144.408552,153.219100,-740.205942,11029.068536
1144.408868,306.438199,-148.041188,9400.615463
1144.409184,536.266849,296.082377,9030.512492
1144.409499,766.095498,-222.061783,9696.697840
1144.409815,1149.143247,-370.102971,9030.512492
1144.410131,689.485948,148.041188,9326.594869
1144.410447,766.095498,-222.061783,9844.739029
1144.410763,1608.800546,222.061783,9030.512492
1144.411078,1455.581446,740.205942,8438.347739
1144.411394,1378.971896,-740.205942,8808.450710
1144.411710,842.705048,-888.247130,9622.677246
1144.412026,689.485948,-1036.288319,9992.780217
1144.412341,1149.143247,-0.000000,9474.636058
1144.412657,1072.533697,592.164754,8660.409521
1144.412973,766.095498,370.102971,8882.471304
1144.413289,459.657299,-592.164754,9178.553681
1144.413604,0.000000,-444.123565,9178.553681
1144.413920,153.219100,-444.123565,9844.739029
1144.414236,612.876398,-74.020594,9178.553681
1144.414552,383.047749,-0.000000,8808.450710
1144.414868,842.705048,-740.205942,9474.636058
1144.415183,612.876398,-370.102971,9770.718434
1144.415499,-536.266849,-518.144159,9622.677246
1144.415815,612.876398,-74.020594,9474.636058
1144.416131,76.609550,740.205942,8586.388927
1144.416446,0.000000,-74.020594,9104.533087
1144.416762,229.828649,-222.061783,9548.656652
1144.417078,-459.657299,-370.102971,9474.636058
1144.417394,-842.705048,-222.061783,9548.656652
1144.417709,0.000000,-296.082377,9326.594869
1144.418025,0.000000,296.082377,9252.574275
1144.418341,-229.828649,-444.123565,10288.862594
1144.418657,-842.705048,-592.164754,9622.677246
1144.418973,-1149.143247,-370.102971,9696.697840
1144.419288,0.000000,-518.144159,9696.697840
1144.419604,229.828649,444.123565,9474.636058
1144.419920,306.438199,-222.061783,9474.636058
1144.420236,-153.219100,-518.144159,9696.697840
1144.420551,-229.828649,-814.226536,10066.800811
1144.420867,0.000000,-592.164754,10436.903782
1144.421183,689.485948,-148.041188,9474.636058
1144.421499,459.657299,-0.000000,9104.533087
1144.421814,612.876398,-444.123565,10066.800811
1144.422130,842.705048,-592.164754,9918.759623
1144.422446,153.219100,-518.144159,9918.759623
1144.422762,689.485948,-0.000000,10436.903782
1144.423078,689.485948,296.082377,9178.553681
1144.423393,995.924147,444.123565,9474.636058
1144.423709,1149.143247,-0.000000,9844.739029
1144.424025,612.876398,-222.061783,9696.697840
1144.424341,995.924147,-518.144159,10066.800811
1144.424656,1072.533697,-592.164754,9770.718434
1144.424972,689.485948,74.020594,9474.636058
1144.425288,842.705048,-814.226536,10584.944971
1144.425604,229.828649,-518.144159,9918.759623
1144.425919,153.219100,-370.102971,9992.780217
1144.426235,229.828649,-0.000000,9622.677246
1144.426551,919.314598,370.102971,9474.636058
1144.426867,612.876398,666.185348,9400.615463
1144.427183,842.705048,-370.102971,9622.677246
1144.427498,383.047749,222.061783,10066.800811
1144.427814,1072.533697,-0.000000,9474.636058
1144.428130,1378.971896,222.061783,8956.491898
1144.428446,1302.362347,888.247130,8808.450710
1144.428761,1302.362347,-222.061783,9252.574275
1144.429077,1225.752797,-962.267725,9104.533087
1144.429393,536.266849,-518.144159,9474.636058
1144.429709,1072.533697,-740.205942,9622.677246
1144.430024,1685.410096,296.082377,8512.368333
1144.430340,1225.752797,814.226536,8364.327145
1144.430656,1378.971896,-0.000000,8808.450710
1144.430972,612.876398,-0.000000,9252.574275
1144.431288,383.047749,-814.226536,8956.491898
1144.431603,612.876398,-148.041188,9178.553681
1144.431919,459.657299,-222.061783,9252.574275
1144.432235,153.219100,-666.185348,9474.636058
1144.432551,0.000000,-740.205942,9770.718434
1144.432866,-689.485948,-518.144159,9622.677246
1144.433182,0.000000,-222.061783,9548.656652
1144.433498,-229.828649,222.061783,8734.430116
1144.433814,-76.609550,296.082377,8882.471304
1144.434129,-229.828649,-1110.308913,9548.656652
1144.434445,-536.266849,-592.164754,9696.697840
1144.434761,-536.266849,-148.041188,9400.615463
1144.435077,306.438199,-74.020594,9400.615463
1144.435393,153.219100,888.247130,9030.512492
1144.435708,-153.219100,148.041188,9104.533087
1144.436024,76.609550,-814.226536,9474.636058
1144.436340,229.828649,-962.267725,10288.862594
1144.436656,-153.219100,-370.102971,9770.718434
1144.436971,612.876398,222.061783,8882.471304
1144.437287,383.047749,296.082377,9252.574275
1144.437603,-459.657299,-370.102971,9918.759623
1144.437919,153.219100,-666.185348,9696.697840
1144.438234,-306.438199,-370.102971,9844.739029
1144.438550,0.000000,-148.041188,10066.800811
1144.438866,536.266849,148.041188,9918.759623
1144.439182,459.657299,-74.020594,9178.553681
1144.439498,689.485948,-148.041188,9918.759623
1144.439813,-76.609550,-592.164754,9918.759623
1144.440129,536.266849,-666.185348,9918.759623
1144.440445,1149.143247,-222.061783,9696.697840
1144.440761,612.876398,740.205942,9400.615463
1144.441076,459.657299,-370.102971,9474.636058
1144.441392,1072.533697,-0.000000,9252.574275
1144.441708,-383.047749,-222.061783,9696.697840
1144.442024,153.219100,-666.185348,10362.883188
1144.442339,459.657299,296.082377,9326.594869
1144.442655,-383.047749,-370.102971,10214.842000
1144.442971,76.609550,-1110.308913,10732.986159
1144.443287,383.047749,-444.123565,9548.656652
1144.443603,76.609550,-370.102971,9548.656652
1144.443918,459.657299,-0.000000,9844.739029
1144.444234,995.924147,296.082377,9400.615463
1144.444550,1302.362347,-0.000000,9622.677246
1144.444866,995.924147,-0.000000,9474.636058
1144.445181,919.314598,-0.000000,9474.636058
1144.445497,1608.800546,444.123565,8586.388927
1144.445813,1762.019645,296.082377,7846.182985
1144.446129,1149.143247,444.123565,8586.388927
1144.446444,1532.190996,-666.185348,9770.718434
1144.446760,689.485948,-740.205942,8956.491898
1144.447076,306.438199,-666.185348,9548.656652
1144.447392,842.705048,-1110.308913,9770.718434
1144.447708,1225.752797,-0.000000,8808.450710
1144.448023,689.485948,-296.082377,9326.594869
1144.448339,306.438199,-0.000000,9474.636058
1144.448655,76.609550,-0.000000,8956.491898
1144.448971,689.485948,-370.102971,9030.512492
1144.449286,919.314598,222.061783,8660.409521
1144.449602,612.876398,-0.000000,9252.574275
1144.449918,306.438199,-666.185348,9326.594869
1144.450234,459.657299,-296.082377,9178.553681
1144.450549,153.219100,-296.082377,9030.512492
1144.450865,842.705048,666.185348,9104.533087
1144.451181,689.485948,1406.391290,8660.409521
1144.451497,306.438199,370.102971,9326.594869
1144.451813,153.219100,-0.000000,9548.656652
1144.452128,0.000000,296.082377,9548.656652
1144.452444,76.609550,-370.102971,9474.636058
1144.452760,153.219100,-0.000000,9844.739029
1144.453076,-306.438199,370.102971,9178.553681
1144.453391,0.000000,-740.205942,9844.739029
1144.453707,0.000000,-962.267725,9770.718434
1144.454023,-459.657299,-370.102971,9992.780217
1144.454339,306.438199,-222.061783,9770.718434
1144.454654,383.047749,592.164754,8882.471304
1144.454970,153.219100,-222.061783,9770.718434
1144.455286,229.828649,-592.164754,10288.862594
1144.455602,229.828649,-296.082377,9992.780217
1144.455918,0.000000,-74.020594,9400.615463
1144.456233,459.657299,-0.000000,9918.759623
1144.456549,766.095498,-444.123565,9844.739029
1144.456865,766.095498,-888.247130,9992.780217
1144.457181,153.219100,-444.123565,9918.759623
1144.457496,0.000000,-444.123565,10066.800811
1144.457812,842.705048,-444.123565,10288.862594
1144.458128,995.924147,-0.000000,8956.491898
1144.458444,306.438199,-148.041188,9696.697840
1144.458759,766.095498,-222.061783,10066.800811
1144.459075,306.438199,-370.102971,9548.656652
1144.459391,689.485948,-222.061783,10066.800811
1144.459707,766.095498,-0.000000,9474.636058
1144.460023,1302.362347,-518.144159,9030.512492
1144.460338,536.266849,-1628.453072,9696.697840
1144.460654,76.609550,-1332.370696,10436.903782
1144.460970,459.657299,-814.226536,10214.842000
1144.461286,995.924147,-222.061783,8956.491898
1144.461601,1378.971896,444.123565,8734.430116
1144.461917,995.924147,-148.041188,9548.656652
1144.462233,1149.143247,-148.041188,9030.512492
1144.462549,995.924147,-148.041188,9104.533087
1144.462864,1225.752797,-592.164754,9622.677246
1144.463180,1991.848295,-74.020594,8734.430116
1144.463496,1455.581446,-0.000000,7846.182985
1144.463812,1378.971896,-1110.308913,9104.533087
1144.464128,1072.533697,-1554.432478,9992.780217
1144.464443,459.657299,-370.102971,9104.533087
1144.464759,1608.800546,-0.000000,9178.553681
1144.465075,842.705048,-0.000000,8956.491898
1144.465391,536.266849,-0.000000,9474.636058
1144.465706,536.266849,-222.061783,9400.615463
1144.466022,0.000000,-0.000000,9104.533087
1144.466338,689.485948,-518.144159,9622.677246
1144.466654,919.314598,-0.000000,8660.409521
1144.466969,689.485948,444.123565,8438.347739
1144.467285,459.657299,-370.102971,9696.697840
1144.467601,229.828649,-148.041188,9474.636058
1144.467917,306.438199,-148.041188,9178.553681
1144.468233,383.047749,-0.000000,9622.677246
1144.468548,612.876398,1036.288319,8882.471304
1144.468864,383.047749,740.205942,8882.471304
1144.469180,306.438199,-74.020594,9622.677246
1144.469496,229.828649,-814.226536,10140.821405
1144.469811,0.000000,-518.144159,9992.780217
1144.470127,0.000000,666.185348,9474.636058
1144.470443,0.000000,518.144159,8660.409521
1144.470759,0.000000,-296.082377,9992.780217
1144.471074,-229.828649,-592.164754,10066.800811
1144.471390,-612.876398,-518.144159,9696.697840
1144.471706,-229.828649,-814.226536,9918.759623
1144.472022,153.219100,592.164754,9474.636058
1144.472338,459.657299,148.041188,8882.471304
1144.472653,306.438199,-814.226536,10066.800811
1144.472969,-153.219100,-444.123565,10066.800811
1144.473285,0.000000,-222.061783,9252.574275
1144.473601,383.047749,-518.144159,9844.739029
1144.473916,153.219100,-148.041188,9474.636058
1144.474232,306.438199,-666.185348,9992.780217
1144.474548,229.828649,-370.102971,9696.697840
1144.474864,-229.828649,-74.020594,9548.656652
1144.475179,229.828649,-444.123565,9770.718434
1144.475495,766.095498,740.205942,9030.512492
1144.475811,383.047749,-0.000000,9548.656652
1144.476127,76.609550,-592.164754,9992.780217
1144.476443,0.000000,-962.267725,10140.821405
1144.476758,-383.047749,-444.123565,9918.759623
1144.477074,229.828649,-814.226536,10436.903782
1144.477390,306.438199,-518.144159,9992.780217
1144.477706,306.438199,-74.020594,9622.677246
1144.478021,76.609550,-0.000000,10066.800811
1144.478337,0.000000,-0.000000,9918.759623
1144.478653,459.657299,370.102971,9326.594869
1144.478969,1149.143247,518.144159,9400.615463
1144.479285,1149.143247,296.082377,9030.512492
1144.479600,689.485948,-666.185348,8882.471304
1144.479916,919.314598,-370.102971,9474.636058
1144.480232,536.266849,-592.164754,9844.739029
1144.480548,1378.971896,-0.000000,10066.800811
1144.480863,1225.752797,370.102971,8734.430116
1144.481179,1225.752797,-296.082377,9030.512492
1144.481495,1149.143247,-296.082377,9400.615463
1144.481811,766.095498,-962.267725,9030.512492
1144.482126,1302.362347,-222.061783,9178.553681
1144.482442,1915.238745,-0.000000,9326.594869
1144.482758,1225.752797,-74.020594,8882.471304
1144.483074,1302.362347,-0.000000,8512.368333
1144.483390,383.047749,-296.082377,8808.450710
1144.483705,306.438199,-814.226536,9918.759623
1144.484021,919.314598,-444.123565,9400.615463
1144.484337,1072.533697,370.102971,8512.368333
1144.484653,766.095498,-0.000000,9400.615463
1144.484968,919.314598,-444.123565,9030.512492
1144.485284,766.095498,-296.082377,8956.491898
1144.485600,536.266849,296.082377,9326.594869
1144.485916,459.657299,666.185348,9104.533087
1144.486231,459.657299,814.226536,8956.491898
1144.486547,76.609550,-74.020594,9400.615463
1144.486863,0.000000,-74.020594,9770.718434
1144.487179,-306.438199,-666.185348,9474.636058
1144.487495,153.219100,-222.061783,9770.718434
1144.487810,0.000000,666.185348,9252.574275
1144.488126,0.000000,148.041188,9770.718434
1144.488442,306.438199,148.041188,9622.677246
1144.488758,-459.657299,-148.041188,9622.677246
1144.489073,76.609550,-74.020594,9844.739029
1144.489389,612.876398,370.102971,9326.594869
1144.489705,229.828649,444.123565,8882.471304
1144.490021,76.609550,-962.267725,10510.924376
1144.490336,-153.219100,-740.205942,10066.800811
1144.490652,153.219100,-666.185348,9474.636058
1144.490968,306.438199,-222.061783,9474.636058
1144.491284,306.438199,444.123565,9400.615463
1144.491600,306.438199,-444.123565,10214.842000
1144.491915,459.657299,-370.102971,9992.780217
1144.492231,-536.266849,-0.000000,9474.636058
1144.492547,0.000000,-1036.288319,10140.821405
1144.492863,76.609550,-370.102971,9400.615463
1144.493178,0.000000,-666.185348,9696.697840
1144.493494,0.000000,-1258.350101,10732.986159
1144.493810,0.000000,-888.247130,10066.800811
1144.494126,-459.657299,-888.247130,9326.594869
1144.494441,229.828649,-370.102971,9696.697840
1144.494757,842.705048,-1184.329507,9474.636058
1144.495073,153.219100,-592.164754,9326.594869
1144.495389,383.047749,-888.247130,10288.862594
1144.495705,153.219100,-592.164754,10066.800811
1144.496020,766.095498,-148.041188,9178.553681
1144.496336,1072.533697,-0.000000,8734.430116
1144.496652,1149.143247,444.123565,8808.450710
1144.496968,1149.143247,-0.000000,9548.656652
1144.497283,612.876398,-296.082377,9474.636058
1144.497599,612.876398,-0.000000,9252.574275
1144.497915,1149.143247,-0.000000,9696.697840
1144.498231,689.485948,148.041188,8808.450710
1144.498546,459.657299,-74.020594,9104.533087
1144.498862,842.705048,-1036.288319,10288.862594
1144.499178,229.828649,-814.226536,9918.759623
1144.499494,76.609550,-296.082377,9918.759623
1144.499810,1149.143247,222.061783,9474.636058
1144.500125,842.705048,444.123565,8734.430116
1144.500441,1302.362347,-0.000000,9030.512492
1144.500757,919.314598,222.061783,8956.491898
1144.501073,1302.362347,-0.000000,9622.677246
1144.501388,1455.581446,-370.102971,9474.636058
1144.501704,1532.190996,592.164754,8660.409521
1144.502020,1072.533697,444.123565,8586.388927
1144.502336,1225.752797,-148.041188,9252.574275
1144.502651,153.219100,-148.041188,9104.533087
1144.502967,689.485948,-148.041188,9104.533087
1144.503283,919.314598,-148.041188,9178.553681
1144.503599,306.438199,518.144159,8734.430116
1144.503914,229.828649,-518.144159,9770.718434
1144.504230,229.828649,-666.185348,9844.739029
1144.504546,-536.266849,-0.000000,9474.636058
1144.504861,306.438199,-0.000000,10066.800811
1144.505177,383.047749,444.123565,9400.615463
1144.505493,229.828649,444.123565,8956.491898
1144.505809,306.438199,-74.020594,9622.677246
1144.506124,0.000000,-592.164754,9178.553681
1144.506440,0.000000,-148.041188,10066.800811
1144.506756,766.095498,-148.041188,9696.697840
1144.507071,612.876398,296.082377,9474.636058
1144.507387,689.485948,148.041188,9696.697840
1144.507703,0.000000,-222.061783,9622.677246
1144.508019,0.000000,-0.000000,9252.574275
1144.508334,383.047749,-888.247130,10584.944971
1144.508650,536.266849,-0.000000,9474.636058
1144.508966,383.047749,-0.000000,9548.656652
1144.509282,919.314598,-1702.473667,10288.862594
1144.509597,153.219100,-962.267725,9548.656652
1144.509913,0.000000,-518.144159,9696.697840
1144.510229,919.314598,-222.061783,10140.821405
1144.510544,995.924147,740.205942,9326.594869
1144.510860,0.000000,-74.020594,10436.903782
1144.511176,76.609550,-148.041188,9918.759623
1144.511492,-689.485948,-222.061783,9178.553681
1144.511807,229.828649,-740.205942,10140.821405
1144.512123,459.657299,-518.144159,9622.677246
1144.512439,76.609550,-1184.329507,9770.718434
1144.512755,0.000000,-1332.370696,10140.821405
1144.513070,0.000000,-1110.308913,9622.677246
1144.513386,689.485948,-740.205942,9548.656652
1144.513702,842.705048,-888.247130,9474.636058
1144.514017,766.095498,1110.308913,8882.471304
1144.514333,919.314598,222.061783,8512.368333
1144.514649,689.485948,-0.000000,8512.368333
1144.514965,306.438199,-0.000000,9252.574275
1144.515280,1302.362347,-518.144159,9326.594869
1144.515596,1149.143247,-370.102971,8660.409521
1144.515912,842.705048,-740.205942,9104.533087
1144.516228,689.485948,-1332.370696,9622.677246
1144.516543,306.438199,-740.205942,9844.739029
1144.516859,76.609550,-888.247130,9400.615463
1144.517175,612.876398,-518.144159,9104.533087
1144.517490,689.485948,-0.000000,9400.615463
1144.517806,459.657299,-370.102971,8808.450710
1144.518122,766.095498,-148.041188,8660.409521
1144.518438,229.828649,-518.144159,8808.450710
1144.518753,766.095498,-814.226536,9696.697840
1144.519069,1455.581446,-0.000000,8956.491898
1144.519385,919.314598,444.123565,8142.265362
1144.519700,689.485948,-592.164754,9326.594869
1144.520016,153.219100,-666.185348,9770.718434
1144.520332,0.000000,-0.000000,8882.471304
1144.520648,229.828649,962.267725,8882.471304
1144.520963,-153.219100,888.247130,9030.512492
1144.521279,76.609550,-296.082377,9844.739029
1144.521595,76.609550,-148.041188,10140.821405
1144.521911,-766.095498,-74.020594,9326.594869
1144.522226,-153.219100,-0.000000,9474.636058
1144.522542,229.828649,740.205942,9104.533087
1144.522858,-459.657299,-0.000000,9770.718434
1144.523173,-459.657299,-666.185348,10362.883188
1144.523489,-153.219100,-370.102971,9918.759623
1144.523805,-459.657299,-0.000000,9770.718434
1144.524121,536.266849,-0.000000,9992.780217
1144.524436,612.876398,962.267725,8882.471304
1144.524752,919.314598,148.041188,9400.615463
1144.525068,842.705048,-0.000000,10066.800811
1144.525384,689.485948,-222.061783,10066.800811
1144.525699,766.095498,-74.020594,9918.759623
1144.526015,1149.143247,-0.000000,9326.594869
1144.526331,612.876398,-666.185348,10066.800811
1144.526646,842.705048,-1554.432478,11029.068536
1144.526962,306.438199,-518.144159,9918.759623
1144.527278,306.438199,-0.000000,9548.656652
1144.527594,919.314598,-370.102971,9696.697840
1144.527909,612.876398,-0.000000,9474.636058
1144.528225,842.705048,-222.061783,9696.697840
1144.528541,995.924147,-518.144159,10066.800811
1144.528857,229.828649,-518.144159,9548.656652
1144.529172,383.047749,-518.144159,9770.718434
1144.529488,383.047749,-222.061783,9696.697840
1144.529804,306.438199,-148.041188,10214.842000
1144.530119,459.657299,-518.144159,10066.800811
1144.530435,0.000000,-0.000000,9548.656652
1144.530751,153.219100,-518.144159,10288.862594
1144.531067,766.095498,-518.144159,9992.780217
1144.531382,689.485948,370.102971,9030.512492
1144.531698,536.266849,148.041188,9104.533087
1144.532014,689.485948,-444.123565,9770.718434
1144.532329,766.095498,-0.000000,9326.594869
1144.532645,459.657299,592.164754,9400.615463
1144.532961,1532.190996,222.061783,8882.471304
1144.533277,689.485948,222.061783,9178.553681
1144.533592,995.924147,-518.144159,9326.594869
1144.533908,306.438199,-740.205942,8734.430116
1144.534224,229.828649,-888.247130,9474.636058
1144.534540,689.485948,-962.267725,9326.594869
1144.534855,842.705048,-444.123565,9030.512492
1144.535171,459.657299,-74.020594,8586.388927
1144.535487,459.657299,-814.226536,9178.553681
1144.535802,229.828649,-740.205942,9326.594869
1144.536118,689.485948,-370.102971,8808.450710
1144.536434,766.095498,-0.000000,8660.409521
1144.536750,536.266849,-0.000000,8586.388927
1144.537065,612.876398,-74.020594,9030.512492
1144.537381,306.438199,-222.061783,9030.512492
1144.537697,0.000000,-0.000000,8808.450710
1144.538013,536.266849,-370.102971,9474.636058
1144.538328,536.266849,370.102971,8882.471304
1144.538644,612.876398,74.020594,8808.450710
1144.538960,0.000000,-592.164754,9844.739029
1144.539275,-383.047749,370.102971,9548.656652
1144.539591,-689.485948,-0.000000,9326.594869
1144.539907,-76.609550,444.123565,9400.615463
1144.540223,-383.047749,740.205942,9622.677246
1144.540538,-612.876398,-740.205942,9918.759623
1144.540854,-229.828649,-370.102971,9992.780217
1144.541170,-1225.752797,-888.247130,9326.594869
1144.541485,0.000000,-814.226536,10732.986159
1144.541801,76.609550,-148.041188,9474.636058
1144.542117,0.000000,-0.000000,9326.594869
1144.542433,612.876398,370.102971,9992.780217
1144.542748,306.438199,-0.000000,9252.574275
1144.543064,612.876398,-296.082377,9104.533087
1144.543380,842.705048,-444.123565,10362.883188
1144.543696,919.314598,-444.123565,9252.574275
1144.544011,1072.533697,-814.226536,10140.821405
1144.544327,919.314598,-740.205942,9992.780217
1144.544643,612.876398,-370.102971,9770.718434
1144.544958,1302.362347,-74.020594,10214.842000
1144.545274,1685.410096,370.102971,9104.533087
1144.545590,995.924147,592.164754,9178.553681
1144.545906,1455.581446,-148.041188,9992.780217
1144.546221,766.095498,-296.082377,9918.759623
1144.546537,383.047749,-592.164754,10140.821405
1144.546853,842.705048,-592.164754,10732.986159
1144.547169,689.485948,-0.000000,9622.677246
1144.547484,0.000000,-518.144159,9770.718434
1144.547800,383.047749,-1110.308913,10881.027347
1144.548116,76.609550,-666.185348,9918.759623
1144.548431,306.438199,-592.164754,10066.800811
1144.548747,842.705048,444.123565,10140.821405
1144.549063,459.657299,444.123565,9474.636058
1144.549379,1225.752797,222.061783,9770.718434
1144.549694,1149.143247,592.164754,8808.450710
1144.550010,842.705048,518.144159,8734.430116
1144.550326,1838.629195,-74.020594,9548.656652
1144.550642,1225.752797,-0.000000,9400.615463
1144.550957,1072.533697,-518.144159,9770.718434
1144.551273,1225.752797,-740.205942,9474.636058
1144.551589,995.924147,-370.102971,8660.409521
1144.551904,995.924147,-148.041188,9400.615463
1144.552220,1532.190996,-0.000000,9104.533087
1144.552536,689.485948,296.082377,8660.409521
1144.552852,536.266849,-296.082377,9030.512492
1144.553167,76.609550,-222.061783,8586.388927
1144.553483,76.609550,-888.247130,9548.656652
1144.553799,153.219100,-740.205942,8956.491898
1144.554114,229.828649,-666.185348,8586.388927
1144.554430,-459.657299,-1110.308913,9400.615463
1144.554746,-459.657299,-1184.329507,9696.697840
1144.555062,-766.095498,-296.082377,8808.450710
1144.555377,-383.047749,-0.000000,9178.553681
1144.555693,0.000000,592.164754,8734.430116
1144.556009,-229.828649,444.123565,9104.533087
1144.556325,-383.047749,-296.082377,9030.512492
1144.556640,-612.876398,-444.123565,9474.636058
1144.556956,-689.485948,-222.061783,9178.553681
1144.557272,0.000000,-0.000000,8586.388927
1144.557587,-536.266849,962.267725,9178.553681
1144.557903,-383.047749,518.144159,9400.615463
1144.558219,-612.876398,-0.000000,9252.574275
1144.558535,-766.095498,-0.000000,9474.636058
1144.558850,-383.047749,-296.082377,10288.862594
1144.559166,-229.828649,-74.020594,9548.656652
1144.559482,76.609550,-0.000000,9992.780217
1144.559798,-153.219100,-518.144159,9770.718434
1144.560113,0.000000,-370.102971,10140.821405
1144.560429,-383.047749,-0.000000,9622.677246
1144.560745,153.219100,-74.020594,9770.718434
1144.561060,766.095498,-0.000000,10066.800811
1144.561376,459.657299,-518.144159,9696.697840
1144.561692,766.095498,-370.102971,9770.718434
1144.562008,842.705048,-222.061783,9548.656652
1144.562323,612.876398,-592.164754,9548.656652
1144.562639,1455.581446,-74.020594,9992.780217
1144.562955,1685.410096,666.185348,9474.636058
1144.563270,1455.581446,-74.020594,9326.594869
1144.563586,1149.143247,-370.102971,9918.759623
1144.563902,229.828649,-666.185348,10066.800811
1144.564218,995.924147,-888.247130,10584.944971
1144.564533,995.924147,-370.102971,10140.821405
1144.564849,842.705048,-296.082377,10066.800811
1144.565165,842.705048,-666.185348,10066.800811
1144.565481,76.609550,-518.144159,10362.883188
1144.565796,766.095498,-518.144159,10214.842000
1144.566112,1455.581446,-0.000000,9548.656652
1144.566428,995.924147,1480.411884,9178.553681
1144.566743,1149.143247,444.123565,9696.697840
1144.567059,1378.971896,-74.020594,9104.533087
1144.567375,1608.800546,-0.000000,9400.615463
1144.567691,1455.581446,296.082377,9622.677246
1144.568006,1762.019645,740.205942,9030.512492
1144.568322,1532.190996,444.123565,9030.512492
1144.568638,1302.362347,-296.082377,9622.677246
1144.568954,612.876398,-370.102971,9474.636058
1144.569269,383.047749,-444.123565,9178.553681
1144.569585,995.924147,-444.123565,9252.574275
1144.569901,919.314598,518.144159,9178.553681
1144.570216,689.485948,-444.123565,9326.594869
1144.570532,842.705048,-370.102971,9104.533087
1144.570848,0.000000,-74.020594,9178.553681
1144.571164,689.485948,-444.123565,9178.553681
1144.571479,766.095498,296.082377,8882.471304
1144.571795,612.876398,-222.061783,9030.512492
1144.572111,459.657299,-370.102971,9400.615463
1144.572427,0.000000,-444.123565,9104.533087
1144.572742,153.219100,-444.123565,9178.553681
1144.573058,459.657299,-518.144159,9252.574275
1144.573374,229.828649,666.185348,8808.450710
1144.573689,0.000000,222.061783,9252.574275
1144.574005,0.000000,-148.041188,9178.553681
1144.574321,-612.876398,-0.000000,9178.553681
1144.574637,-229.828649,-296.082377,9252.574275
1144.574952,383.047749,-296.082377,8882.471304
1144.575268,-689.485948,-0.000000,9030.512492
1144.575584,-536.266849,-592.164754,10658.965565
1144.575899,-459.657299,-222.061783,9474.636058
1144.576215,-689.485948,370.102971,8882.471304
1144.576531,-536.266849,-222.061783,9474.636058
1144.576847,0.000000,-0.000000,9474.636058
1144.577162,0.000000,-666.185348,9400.615463
1144.577478,-612.876398,-740.205942,9918.759623
1144.577794,-919.314598,-592.164754,10214.842000
1144.578110,-306.438199,-296.082377,9844.739029
1144.578425,76.609550,148.041188,8734.430116
1144.578741,-229.828649,-0.000000,9844.739029
1144.579057,306.438199,-1332.370696,10510.924376
1144.579372,76.609550,-592.164754,9474.636058
1144.579688,-689.485948,-222.061783,9252.574275
1144.580004,842.705048,-222.061783,9992.780217
1144.580320,1149.143247,370.102971,9104.533087
1144.580635,766.095498,148.041188,9474.636058
1144.580951,842.705048,-0.000000,9992.780217
1144.581267,536.266849,-0.000000,8956.491898
1144.581583,229.828649,-296.082377,10140.821405
1144.581898,1072.533697,-148.041188,10436.903782
1144.582214,229.828649,-444.123565,9622.677246
1144.582530,612.876398,-666.185348,10140.821405
1144.582845,153.219100,-740.205942,9992.780217
1144.583161,383.047749,-666.185348,10658.965565
1144.583477,842.705048,-0.000000,9622.677246
1144.583793,842.705048,666.185348,8882.471304
1144.584108,612.876398,-148.041188,9696.697840
1144.584424,919.314598,-666.185348,10584.944971
1144.584740,612.876398,-0.000000,9400.615463
1144.585056,919.314598,-148.041188,9474.636058
1144.585371,1838.629195,-0.000000,9474.636058
1144.585687,1378.971896,666.185348,9104.533087
1144.586003,1762.019645,-148.041188,8882.471304
1144.586318,1149.143247,-592.164754,9548.656652
1144.586634,1149.143247,-0.000000,9474.636058
1144.586950,1762.019645,-0.000000,9030.512492
1144.587266,1149.143247,518.144159,8586.388927
1144.587581,1225.752797,148.041188,9622.677246
1144.587897,1225.752797,-370.102971,8808.450710
1144.588213,229.828649,-0.000000,8438.347739
1144.588528,612.876398,-370.102971,10066.800811
1144.588844,995.924147,-666.185348,9104.533087
1144.589160,689.485948,-0.000000,8586.388927
1144.589476,383.047749,-518.144159,9400.615463
1144.589791,0.000000,-814.226536,9400.615463
1144.590107,0.000000,-740.205942,9474.636058
1144.590423,0.000000,-296.082377,9178.553681
1144.590739,153.219100,962.267725,9104.533087
1144.591054,153.219100,740.205942,8882.471304
1144.591370,229.828649,-0.000000,8808.450710
1144.591686,-383.047749,-0.000000,9252.574275
1144.592001,0.000000,-444.123565,9844.739029
1144.592317,76.609550,-148.041188,8808.450710
1144.592633,0.000000,222.061783,9030.512492
1144.592949,153.219100,-740.205942,9844.739029
1144.593264,-229.828649,-370.102971,9622.677246
1144.593580,-766.095498,-222.061783,9696.697840
1144.593896,0.000000,-0.000000,9548.656652
1144.594212,-306.438199,592.164754,8882.471304
1144.594527,-459.657299,-0.000000,8882.471304
1144.594843,306.438199,-222.061783,10066.800811
1144.595159,-766.095498,-888.247130,9918.759623
1144.595474,-383.047749,-370.102971,9474.636058
1144.595790,383.047749,-296.082377,10510.924376
1144.596106,76.609550,-0.000000,8734.430116
1144.596422,76.609550,-148.041188,9844.739029
1144.596737,0.000000,-814.226536,10584.944971
1144.597053,0.000000,-888.247130,10436.903782
1144.597369,383.047749,-0.000000,9474.636058
1144.597684,689.485948,740.205942,9400.615463
1144.598000,995.924147,148.041188,8808.450710
1144.598316,536.266849,-740.205942,9326.594869
1144.598632,153.219100,296.082377,9770.718434
1144.598947,153.219100,-296.082377,10140.821405
1144.599263,612.876398,-814.226536,10066.800811
1144.599579,1149.143247,296.082377,9400.615463
1144.599895,612.876398,-370.102971,9622.677246
1144.600210,536.266849,-962.267725,10510.924376
1144.600526,153.219100,-0.000000,10066.800811
1144.600842,536.266849,-0.000000,9770.718434
1144.601157,842.705048,-0.000000,10066.800811
1144.601473,536.266849,-0.000000,9474.636058
1144.601789,1378.971896,-0.000000,9030.512492
1144.602105,459.657299,-0.000000,9252.574275
1144.602420,689.485948,-1184.329507,10066.800811
1144.602736,995.924147,-444.123565,9696.697840
1144.603052,1149.143247,296.082377,9474.636058
1144.603367,612.876398,-370.102971,8808.450710
1144.603683,1072.533697,-592.164754,9622.677246
1144.603999,689.485948,-0.000000,9622.677246
1144.604314,1072.533697,-0.000000,8882.471304
1144.604630,1225.752797,888.247130,8956.491898
1144.604946,1455.581446,518.144159,8882.471304
1144.605261,1532.190996,-148.041188,9252.574275
1144.605577,1302.362347,-74.020594,9252.574275
1144.605892,766.095498,-370.102971,8512.368333
1144.606208,766.095498,-0.000000,9400.615463
1144.606524,766.095498,-148.041188,9104.533087
1144.606839,306.438199,-74.020594,9104.533087
1144.607155,459.657299,-296.082377,9326.594869
1144.607471,76.609550,-296.082377,9178.553681
1144.607786,0.000000,-370.102971,9326.594869
1144.608102,0.000000,222.061783,8956.491898
1144.608417,76.609550,-148.041188,9178.553681
1144.608733,0.000000,-1332.370696,9548.656652
1144.609049,-306.438199,-666.185348,9474.636058
1144.609364,-459.657299,-370.102971,9030.512492
1144.609680,0.000000,-148.041188,9326.594869
1144.609995,-153.219100,592.164754,9252.574275
1144.610311,-459.657299,518.144159,8956.491898
1144.610627,-306.438199,-518.144159,9844.739029
1144.610942,-689.485948,-74.020594,9622.677246
1144.611258,-383.047749,-296.082377,9474.636058
1144.611574,536.266849,-222.061783,8956.491898
1144.611889,0.000000,148.041188,9252.574275
1144.612205,459.657299,-888.247130,9770.718434
1144.612520,76.609550,-1036.288319,10066.800811
1144.612836,0.000000,-444.123565,9548.656652
1144.613152,536.266849,-0.000000,9326.594869
1144.613467,766.095498,740.205942,8512.368333
1144.613783,689.485948,-222.061783,9474.636058
1144.614099,1072.533697,-148.041188,9992.780217
1144.614414,459.657299,-0.000000,9770.718434
1144.614730,919.314598,-296.082377,9474.636058
1144.615045,1072.533697,74.020594,9400.615463
1144.615361,689.485948,-0.000000,9474.636058
1144.615677,766.095498,-666.185348,10140.821405
1144.615992,612.876398,-296.082377,9918.759623
1144.616308,383.047749,-518.144159,10362.883188
1144.616623,459.657299,-518.144159,9992.780217
1144.616939,229.828649,148.041188,9548.656652
1144.617255,536.266849,-518.144159,9770.718434
1144.617570,995.924147,-740.205942,9992.780217
1144.617886,0.000000,-666.185348,10436.903782
1144.618202,383.047749,-444.123565,10066.800811
1144.618517,842.705048,148.041188,9548.656652
1144.618833,689.485948,-0.000000,9400.615463
1144.619148,383.047749,-592.164754,9918.759623
1144.619464,689.485948,-0.000000,9548.656652
1144.619780,306.438199,-518.144159,9622.677246
1144.620095,995.924147,296.082377,9622.677246
1144.620411,995.924147,518.144159,9178.553681
1144.620727,995.924147,-74.020594,9770.718434
1144.621042,995.924147,-370.102971,9844.739029
1144.621358,459.657299,-148.041188,9622.677246
1144.621673,766.095498,-370.102971,9474.636058
1144.621989,1149.143247,-0.000000,9770.718434
1144.622305,766.095498,-0.000000,9178.553681
1144.622620,1225.752797,148.041188,9252.574275
1144.622936,842.705048,-0.000000,8808.450710
1144.623252,536.266849,-0.000000,9252.574275
1144.623567,842.705048,-444.123565,9474.636058
1144.623883,995.924147,370.102971,8808.450710
1144.624198,612.876398,296.082377,8586.388927
1144.624514,459.657299,-740.205942,8882.471304
1144.624830,0.000000,-740.205942,9548.656652
1144.625145,0.000000,-962.267725,9474.636058
1144.625461,766.095498,-370.102971,9030.512492
1144.625776,153.219100,296.082377,8364.327145
1144.626092,153.219100,-592.164754,9326.594869
1144.626408,76.609550,-666.185348,9474.636058
1144.626723,-536.266849,-222.061783,8956.491898
1144.627039,-306.438199,-888.247130,9474.636058
1144.627355,0.000000,296.082377,8364.327145
1144.627670,0.000000,296.082377,8512.368333
1144.627986,-306.438199,-222.061783,9622.677246
1144.628301,0.000000,-1184.329507,9696.697840
1144.628617,0.000000,-814.226536,9252.574275
1144.628933,153.219100,-148.041188,9474.636058
1144.629248,0.000000,-296.082377,8808.450710
1144.629564,0.000000,-370.102971,9844.739029
1144.629880,-689.485948,-740.205942,10436.903782
1144.630195,-459.657299,-296.082377,9844.739029
1144.630511,0.000000,-0.000000,9178.553681
1144.630826,306.438199,888.247130,9030.512492
1144.631142,153.219100,-0.000000,9030.512492
1144.631458,536.266849,-518.144159,9696.697840
1144.631773,229.828649,-666.185348,9992.780217
1144.632089,0.000000,-814.226536,10362.883188
1144.632404,995.924147,-222.061783,10510.924376
1144.632720,919.314598,444.123565,8882.471304
1144.633036,383.047749,592.164754,9474.636058
1144.633351,766.095498,-0.000000,10362.883188
1144.633667,459.657299,-0.000000,10066.800811
1144.633983,842.705048,-74.020594,9992.780217
1144.634298,306.438199,222.061783,9474.636058
1144.634614,536.266849,-222.061783,10066.800811
1144.634929,689.485948,-666.185348,10362.883188
1144.635245,0.000000,-74.020594,9474.636058
1144.635561,153.219100,-222.061783,10510.924376
1144.635876,766.095498,-888.247130,10214.842000
1144.636192,459.657299,-0.000000,9992.780217
1144.636508,766.095498,-0.000000,9474.636058
1144.636823,842.705048,-222.061783,9770.718434
1144.637139,612.876398,-222.061783,9918.759623
1144.637454,1149.143247,370.102971,9548.656652
1144.637770,1455.581446,444.123565,8882.471304
1144.638086,1149.143247,-0.000000,8956.491898
1144.638401,1532.190996,-444.123565,9400.615463
1144.638717,842.705048,-296.082377,9252.574275
1144.639033,842.705048,-444.123565,9474.636058
1144.639348,1455.581446,-222.061783,9474.636058
1144.639664,1072.533697,370.102971,8660.409521
1144.639979,995.924147,-0.000000,9992.780217
1144.640295,842.705048,-74.020594,8586.388927
1144.640611,0.000000,-0.000000,8512.368333
1144.640926,842.705048,-740.205942,9770.718434
1144.641242,1072.533697,-148.041188,9030.512492
1144.641557,919.314598,814.226536,8290.306550
1144.641873,383.047749,-0.000000,8734.430116
1144.642189,0.000000,-1036.288319,9474.636058
1144.642504,306.438199,-962.267725,9252.574275
1144.642820,76.609550,148.041188,9474.636058
1144.643136,153.219100,370.102971,9030.512492
1144.643451,-306.438199,-0.000000,8956.491898
1144.643767,-612.876398,-74.020594,9400.615463
1144.644082,-536.266849,222.061783,9030.512492
1144.644398,0.000000,-0.000000,9622.677246
1144.644714,0.000000,-0.000000,9178.553681
1144.645029,0.000000,222.061783,8956.491898
1144.645345,76.609550,-740.205942,9400.615463
1144.645661,0.000000,-740.205942,9622.677246
1144.645976,0.000000,-222.061783,9548.656652
1144.646292,459.657299,-518.144159,9326.594869
1144.646607,153.219100,-0.000000,9326.594869
1144.646923,153.219100,-148.041188,9992.780217
1144.647239,536.266849,-962.267725,9696.697840
1144.647554,383.047749,-518.144159,9104.533087
1144.647870,0.000000,-370.102971,9622.677246
1144.648186,995.924147,-666.185348,9622.677246
1144.648501,995.924147,-370.102971,9696.697840
1144.648817,689.485948,-296.082377,9474.636058
1144.649132,306.438199,-592.164754,10066.800811
1144.649448,459.657299,-222.061783,9548.656652
1144.649764,383.047749,-518.144159,9326.594869
1144.650079,766.095498,-0.000000,9548.656652
1144.650395,536.266849,-370.102971,9474.636058
1144.650710,919.314598,-592.164754,9770.718434
1144.651026,153.219100,-296.082377,9844.739029
1144.651342,76.609550,-1184.329507,10436.903782
1144.651657,536.266849,-592.164754,9844.739029
1144.651973,536.266849,-0.000000,9474.636058
1144.652289,842.705048,-148.041188,9696.697840
1144.652604,612.876398,-296.082377,9622.677246
1144.652920,0.000000,-370.102971,10066.800811
1144.653235,76.609550,-666.185348,10584.944971
1144.653551,459.657299,518.144159,9252.574275
1144.653867,612.876398,740.205942,8882.471304
1144.654182,459.657299,296.082377,9770.718434
1144.654498,383.047749,-148.041188,9474.636058
1144.654814,459.657299,148.041188,9326.594869
1144.655129,766.095498,-0.000000,9844.739029
1144.655445,1532.190996,-0.000000,9474.636058
1144.655760,766.095498,-1110.308913,9178.553681
1144.656076,842.705048,-296.082377,10362.883188
1144.656392,76.609550,-814.226536,9770.718434
1144.656707,919.314598,-148.041188,9400.615463
1144.657023,689.485948,666.185348,8734.430116
1144.657338,1149.143247,-148.041188,9326.594869
1144.657654,995.924147,-370.102971,9844.739029
1144.657970,919.314598,-0.000000,8660.409521
1144.658285,689.485948,-0.000000,8290.306550
1144.658601,766.095498,-222.061783,9252.574275
1144.658917,383.047749,-0.000000,9548.656652
1144.659232,612.876398,-0.000000,9104.533087
1144.659548,0.000000,-518.144159,9622.677246
1144.659863,-459.657299,-370.102971,9474.636058
1144.660179,0.000000,-444.123565,9252.574275
1144.660495,0.000000,222.061783,9474.636058
1144.660810,306.438199,148.041188,9252.574275
1144.661126,76.609550,-296.082377,9622.677246
1144.661442,-306.438199,222.061783,8734.430116
1144.661757,-306.438199,-0.000000,9326.594869
1144.662073,-153.219100,-0.000000,9400.615463
1144.662388,459.657299,740.205942,8956.491898
1144.662704,0.000000,-0.000000,9474.636058
1144.663020,0.000000,-296.082377,9992.780217
1144.663335,-536.266849,-0.000000,9252.574275
1144.663651,689.485948,-370.102971,9474.636058
1144.663967,536.266849,888.247130,9252.574275
1144.664282,306.438199,1332.370696,8734.430116
1144.664598,459.657299,222.061783,9030.512492
1144.664913,76.609550,-222.061783,9992.780217
1144.665229,0.000000,-296.082377,10066.800811
1144.665545,76.609550,-592.164754,9992.780217
1144.665860,306.438199,-148.041188,9326.594869
1144.666176,383.047749,-444.123565,9918.759623
1144.666491,229.828649,-1110.308913,10288.862594
1144.666807,76.609550,-814.226536,9696.697840
1144.667123,536.266849,-518.144159,9622.677246
1144.667438,919.314598,-0.000000,9548.656652
1144.667754,1072.533697,-0.000000,9326.594869
1144.668070,995.924147,-370.102971,9622.677246
1144.668385,842.705048,-370.102971,9548.656652
1144.668701,536.266849,-518.144159,10066.800811
1144.669016,919.314598,-592.164754,10214.842000
1144.669332,1455.581446,-0.000000,8734.430116
1144.669648,1072.533697,-592.164754,9178.553681
1144.669963,536.266849,-1110.308913,11029.068536
1144.670279,306.438199,-1406.391290,10066.800811
1144.670595,766.095498,-370.102971,9696.697840
1144.670910,1149.143247,370.102971,9252.574275
1144.671226,1378.971896,444.123565,9474.636058
1144.671541,612.876398,222.061783,9696.697840
1144.671857,536.266849,-0.000000,9326.594869
1144.672173,766.095498,296.082377,9178.553681
1144.672488,1072.533697,-74.020594,9252.574275
1144.672804,842.705048,-370.102971,9104.533087
1144.673119,383.047749,-1258.350101,10066.800811
1144.673435,306.438199,-1628.453072,10584.944971
1144.673751,306.438199,-666.185348,9474.636058
1144.674066,1149.143247,-0.000000,9474.636058
1144.674382,1455.581446,-0.000000,9178.553681
1144.674698,1225.752797,740.205942,9030.512492
1144.675013,1225.752797,-74.020594,8882.471304
1144.675329,842.705048,-222.061783,9178.553681
1144.675644,766.095498,-0.000000,9400.615463
1144.675960,1455.581446,222.061783,8956.491898
1144.676276,842.705048,296.082377,8290.306550
1144.676591,459.657299,-148.041188,9178.553681
1144.676907,0.000000,-1110.308913,9696.697840
1144.677223,153.219100,-888.247130,9474.636058
1144.677538,76.609550,-444.123565,9474.636058
1144.677854,0.000000,-444.123565,9326.594869
1144.678169,0.000000,148.041188,9474.636058
1144.678485,0.000000,-0.000000,9474.636058
1144.678801,-383.047749,-296.082377,9178.553681
1144.679116,-536.266849,-222.061783,9030.512492
1144.679432,0.000000,-962.267725,9992.780217
1144.679748,-306.438199,-518.144159,8956.491898
1144.680063,-229.828649,-0.000000,9400.615463
1144.680379,-459.657299,-370.102971,9252.574275
1144.680694,-459.657299,-592.164754,9178.553681
1144.681010,76.609550,-370.102971,9622.677246
1144.681326,459.657299,-0.000000,9400.615463
1144.681641,612.876398,518.144159,8882.471304
1144.681957,842.705048,592.164754,9104.533087
1144.682272,459.657299,-74.020594,9326.594869
1144.682588,383.047749,-370.102971,9400.615463
1144.682904,536.266849,-222.061783,9696.697840
1144.683219,536.266849,-370.102971,9326.594869
1144.683535,459.657299,-814.226536,9918.759623
1144.683851,306.438199,-962.267725,10436.903782
1144.684166,0.000000,-666.185348,10066.800811
1144.684482,383.047749,-148.041188,9400.615463
1144.684797,842.705048,444.123565,9696.697840
1144.685113,1072.533697,888.247130,9030.512492
1144.685429,919.314598,-222.061783,9770.718434
1144.685744,612.876398,-370.102971,9696.697840
1144.686060,459.657299,148.041188,9326.594869
1144.686376,995.924147,222.061783,9400.615463
1144.686691,766.095498,-0.000000,9030.512492
1144.687007,919.314598,-0.000000,9400.615463
1144.687322,766.095498,-592.164754,10066.800811
1144.687638,459.657299,-444.123565,9696.697840
1144.687954,0.000000,-1110.308913,10214.842000
1144.688269,919.314598,-666.185348,10214.842000
1144.688585,995.924147,518.144159,9178.553681
1144.688901,1072.533697,-0.000000,9622.677246
1144.689216,1149.143247,-148.041188,9474.636058
1144.689532,766.095498,148.041188,8808.450710
1144.689847,995.924147,-74.020594,8956.491898
1144.690163,842.705048,-148.041188,9326.594869
1144.690479,766.095498,-740.205942,9918.759623
1144.690794,1149.143247,-962.267725,10658.965565
1144.691110,842.705048,-740.205942,9474.636058
1144.691425,306.438199,-148.041188,9400.615463
1144.691741,842.705048,-0.000000,9622.677246
1144.692057,1149.143247,222.061783,8882.471304
1144.692372,1072.533697,-0.000000,9474.636058
1144.692688,766.095498,-0.000000,9548.656652
1144.693004,536.266849,222.061783,8512.368333
1144.693319,842.705048,-222.061783,9178.553681
1144.693635,1225.752797,-296.082377,9030.512492
1144.693950,689.485948,-148.041188,9104.533087
1144.694266,612.876398,-74.020594,9992.780217
1144.694582,76.609550,-0.000000,9104.533087
1144.694897,383.047749,-0.000000,8956.491898
1144.695213,383.047749,370.102971,9030.512492
1144.695529,306.438199,296.082377,8512.368333
1144.695844,0.000000,-148.041188,9474.636058
1144.696160,-536.266849,-518.144159,10214.842000
1144.696475,-1225.752797,-222.061783,9400.615463
1144.696791,-229.828649,-296.082377,9400.615463
1144.697107,0.000000,-962.267725,9252.574275
1144.697422,-383.047749,-148.041188,9474.636058
1144.697738,-689.485948,-444.123565,9622.677246
1144.698053,-383.047749,-1036.288319,9770.718434
1144.698369,-689.485948,-518.144159,9474.636058
1144.698685,153.219100,-74.020594,9696.697840
1144.699000,306.438199,-0.000000,8586.388927
1144.699316,153.219100,-370.102971,9030.512492
1144.699632,383.047749,-444.123565,9918.759623
1144.699947,536.266849,-148.041188,9474.636058
1144.700263,229.828649,-74.020594,9474.636058
1144.700578,766.095498,-518.144159,9400.615463
1144.700894,459.657299,-518.144159,9474.636058
1144.701210,842.705048,-1332.370696,10288.862594
1144.701525,612.876398,-1258.350101,10288.862594
1144.701841,689.485948,-296.082377,9400.615463
1144.702157,842.705048,-148.041188,9548.656652
1144.702472,766.095498,-0.000000,9030.512492
1144.702788,612.876398,-0.000000,9104.533087
1144.703103,766.095498,-222.061783,9844.739029
1144.703419,76.609550,-592.164754,9400.615463
1144.703735,229.828649,-444.123565,9844.739029
1144.704050,459.657299,-222.061783,9474.636058
1144.704359,76.609550,-74.020594,8660.409521
1144.704675,153.219100,-1184.329507,10807.006753
1144.704991,0.000000,-1628.453072,10658.965565
1144.705306,-306.438199,-740.205942,9252.574275
1144.705622,689.485948,-74.020594,9844.739029
1144.705938,1149.143247,444.123565,8808.450710
1144.706253,1378.971896,888.247130,9178.553681
1144.706569,1072.533697,296.082377,9844.739029
1144.706885,842.705048,370.102971,9104.533087
1144.707201,1149.143247,-0.000000,9178.553681
1144.707516,1532.190996,-0.000000,9030.512492
1144.707832,1072.533697,-0.000000,9104.533087
1144.708148,1455.581446,-444.123565,10288.862594
1144.708463,1149.143247,-666.185348,10510.924376
1144.708779,995.924147,-0.000000,9474.636058
1144.709095,1302.362347,740.205942,9030.512492
1144.709411,919.314598,1258.350101,9252.574275
1144.709726,1302.362347,666.185348,9622.677246
1144.710042,919.314598,-518.144159,10066.800811
1144.710358,76.609550,-148.041188,9548.656652
1144.710674,153.219100,-222.061783,9622.677246
1144.710989,842.705048,-518.144159,9178.553681
1144.711305,459.657299,-518.144159,9326.594869
1144.711621,766.095498,-222.061783,9844.739029
1144.711936,459.657299,222.061783,9030.512492
1144.712252,0.000000,370.102971,9252.574275
1144.712568,919.314598,-0.000000,10362.883188
1144.712884,919.314598,1110.308913,8882.471304
1144.713199,229.828649,962.267725,8364.327145
1144.713515,306.438199,-74.020594,9474.636058
1144.713831,0.000000,-592.164754,9622.677246
1144.714146,383.047749,-962.267725,9844.739029
1144.714462,0.000000,-148.041188,9474.636058
1144.714778,0.000000,518.144159,9104.533087
1144.715094,-459.657299,-296.082377,9622.677246
1144.715409,-229.828649,-518.144159,9918.759623
1144.715725,-536.266849,296.082377,9770.718434
1144.716041,153.219100,-0.000000,9474.636058
1144.716356,153.219100,-0.000000,9400.615463
1144.716672,0.000000,-74.020594,9178.553681
1144.716988,459.657299,-666.185348,9844.739029
1144.717304,0.000000,-518.144159,9696.697840
1144.717619,153.219100,-740.205942,9104.533087
1144.717935,689.485948,-962.267725,9992.780217
1144.718251,229.828649,-962.267725,9326.594869
1144.718566,306.438199,-740.205942,10140.821405
1144.718882,459.657299,-740.205942,9474.636058
1144.719198,76.609550,-148.041188,9400.615463
1144.719514,689.485948,444.123565,9622.677246
1144.719829,919.314598,666.185348,8882.471304
1144.720145,612.876398,370.102971,8438.347739
1144.720461,76.609550,-740.205942,9622.677246
1144.720777,229.828649,-1258.350101,9844.739029
1144.721092,153.219100,-962.267725,9918.759623
1144.721408,306.438199,-1110.308913,9992.780217
1144.721724,153.219100,-592.164754,9548.656652
1144.722039,459.657299,-962.267725,9696.697840
1144.722355,-229.828649,-1110.308913,9770.718434
1144.722671,0.000000,-888.247130,9992.780217
1144.722987,842.705048,-222.061783,9770.718434
1144.723302,919.314598,444.123565,9030.512492
1144.723618,1608.800546,518.144159,8438.347739
1144.723934,1608.800546,-0.000000,9030.512492
1144.724249,842.705048,-666.185348,9548.656652
1144.724565,995.924147,-296.082377,9104.533087
1144.724881,1532.190996,-370.102971,9326.594869
1144.725197,1685.410096,-0.000000,8586.388927
1144.725512,842.705048,-592.164754,10214.842000
1144.725828,842.705048,-1554.432478,9770.718434
1144.726144,612.876398,-370.102971,9992.780217
1144.726459,1302.362347,-148.041188,9474.636058
1144.726775,1455.581446,666.185348,8882.471304
1144.727091,919.314598,888.247130,8956.491898
1144.727407,995.924147,-0.000000,9400.615463
1144.727722,1149.143247,-0.000000,8586.388927
1144.728038,1149.143247,-74.020594,9326.594869
1144.728354,1149.143247,-1110.308913,10140.821405
1144.728669,536.266849,-0.000000,9474.636058
1144.728985,383.047749,-0.000000,8956.491898
1144.729301,689.485948,-0.000000,9622.677246
1144.729617,229.828649,148.041188,9178.553681
1144.729932,76.609550,296.082377,9696.697840
1144.730248,383.047749,444.123565,9178.553681
1144.730564,153.219100,-74.020594,9104.533087
1144.730880,766.095498,-370.102971,9844.739029
1144.731195,0.000000,-74.020594,9400.615463
1144.731511,-536.266849,592.164754,9474.636058
1144.731827,689.485948,740.205942,9918.759623
1144.732142,0.000000,666.185348,8660.409521
1144.732458,0.000000,518.144159,9400.615463
1144.732774,76.609550,-444.123565,9992.780217
1144.733090,0.000000,-444.123565,9104.533087
1144.733405,383.047749,-296.082377,10510.924376
1144.733721,229.828649,-148.041188,9696.697840
1144.734037,383.047749,592.164754,8660.409521
1144.734352,689.485948,666.185348,9622.677246
1144.734668,536.266849,-0.000000,9844.739029
1144.734984,76.609550,222.061783,9030.512492
1144.735300,76.609550,-0.000000,9548.656652
1144.735615,0.000000,-518.144159,9252.574275
1144.735931,0.000000,-1406.391290,10214.842000
1144.736247,459.657299,-1480.411884,11103.089130
1144.736562,-459.657299,-1332.370696,9696.697840
1144.736878,-229.828649,-444.123565,9548.656652
1144.737194,459.657299,370.102971,9400.615463
1144.737510,459.657299,1184.329507,7846.182985
1144.737825,536.266849,592.164754,9252.574275
1144.738141,536.266849,-296.082377,10066.800811
1144.738457,76.609550,-814.226536,9178.553681
1144.738772,689.485948,-1110.308913,9770.718434
1144.739088,0.000000,-666.185348,9548.656652
1144.739404,459.657299,-814.226536,9622.677246
1144.739720,689.485948,-370.102971,9548.656652
1144.740035,0.000000,-962.267725,9474.636058
1144.740351,766.095498,-592.164754,10732.986159
1144.740667,995.924147,-0.000000,9326.594869
1144.740983,153.219100,1036.288319,7846.182985
1144.741298,766.095498,370.102971,9770.718434
1144.741614,689.485948,-0.000000,9252.574275
1144.741930,383.047749,-0.000000,9178.553681
1144.742245,536.266849,-740.205942,9918.759623
1144.742561,536.266849,-296.082377,8956.491898
1144.742877,612.876398,-222.061783,9030.512492
1144.743193,1225.752797,-296.082377,9844.739029
1144.743508,842.705048,-740.205942,9844.739029
1144.743824,612.876398,-370.102971,9844.739029
1144.744140,1455.581446,-0.000000,9474.636058
1144.744455,689.485948,222.061783,8068.244768
1144.744771,1302.362347,74.020594,9474.636058
1144.745087,1302.362347,-222.061783,9178.553681
1144.745403,612.876398,-518.144159,9104.533087
1144.745718,1072.533697,-740.205942,9474.636058
1144.746034,995.924147,-814.226536,8956.491898
1144.746350,842.705048,-814.226536,9548.656652
1144.746665,459.657299,-1406.391290,9918.759623
1144.746981,0.000000,-740.205942,9474.636058
1144.747297,76.609550,-222.061783,9548.656652
1144.747613,459.657299,-370.102971,9918.759623
1144.747928,306.438199,518.144159,8586.388927
1144.748244,306.438199,-74.020594,9104.533087
1144.748560,229.828649,-666.185348,8956.491898
1144.748875,-153.219100,-1184.329507,9474.636058
1144.749191,76.609550,-740.205942,9770.718434
1144.749507,0.000000,-296.082377,9326.594869
1144.749823,-153.219100,296.082377,9400.615463
1144.750138,383.047749,-148.041188,9622.677246
1144.750454,153.219100,370.102971,9104.533087
1144.750770,0.000000,-0.000000,9474.636058
1144.751086,306.438199,-222.061783,9622.677246
1144.751401,842.705048,-74.020594,8956.491898
1144.751717,612.876398,-962.267725,9918.759623
1144.752033,0.000000,-740.205942,9844.739029
1144.752348,0.000000,-0.000000,9474.636058
1144.752664,229.828649,666.185348,9030.512492
1144.752980,689.485948,962.267725,9326.594869
1144.753296,0.000000,74.020594,9178.553681
1144.753611,0.000000,-740.205942,9992.780217
1144.753927,0.000000,-518.144159,10066.800811
1144.754243,229.828649,-888.247130,9844.739029
1144.754558,1072.533697,-0.000000,10140.821405
1144.754874,1149.143247,518.144159,8882.471304
1144.755190,842.705048,740.205942,8956.491898
1144.755506,536.266849,518.144159,9918.759623
1144.755821,0.000000,148.041188,9622.677246
1144.756137,612.876398,-444.123565,10140.821405
1144.756453,383.047749,-0.000000,9622.677246
1144.756768,229.828649,-74.020594,9326.594869
1144.757084,536.266849,-814.226536,9992.780217
1144.757400,0.000000,-1036.288319,10288.862594
1144.757716,0.000000,-222.061783,9474.636058
1144.758031,766.095498,-0.000000,10066.800811
1144.758347,612.876398,222.061783,8734.430116
1144.758663,536.266849,-0.000000,10214.842000
1144.758978,842.705048,-1110.308913,9992.780217
1144.759294,306.438199,-518.144159,9178.553681
1144.759610,1072.533697,-518.144159,9474.636058
1144.759926,1378.971896,-0.000000,9992.780217
1144.760241,919.314598,-0.000000,9252.574275
1144.760557,995.924147,-74.020594,9400.615463
1144.760873,766.095498,148.041188,8142.265362
1144.761189,842.705048,-0.000000,9178.553681
1144.761504,1455.581446,-296.082377,9992.780217
1144.761820,842.705048,222.061783,9030.512492
1144.762136,842.705048,222.061783,9326.594869
1144.762451,689.485948,-370.102971,9622.677246
1144.762767,-383.047749,-0.000000,9178.553681
1144.763083,153.219100,-0.000000,9326.594869
1144.763399,536.266849,148.041188,9178.553681
1144.763714,383.047749,666.185348,9030.512492
1144.764030,76.609550,-148.041188,9622.677246
1144.764346,0.000000,-370.102971,9252.574275
1144.764661,-536.266849,-296.082377,8734.430116
1144.764977,76.609550,-666.185348,9696.697840
1144.765293,0.000000,-296.082377,9918.759623
1144.765609,0.000000,-296.082377,9844.739029
1144.765924,306.438199,-0.000000,9326.594869
1144.766240,153.219100,-74.020594,8956.491898
1144.766556,766.095498,-148.041188,9844.739029
1144.766871,766.095498,-148.041188,9770.718434
1144.767187,383.047749,666.185348,8808.450710
1144.767503,612.876398,370.102971,8882.471304
1144.767819,995.924147,-592.164754,9400.615463
1144.768134,766.095498,-370.102971,9030.512492
1144.768450,306.438199,-74.020594,9622.677246
1144.768766,-153.219100,-814.226536,9104.533087
1144.769081,-612.876398,-814.226536,9844.739029
1144.769397,-383.047749,-1406.391290,10807.006753
1144.769713,-995.924147,-2072.576638,10436.903782
1144.770029,-1302.362347,-1850.514855,10658.965565
1144.770344,-919.314598,-2442.679609,10362.883188
1144.770660,-1072.533697,-2220.617826,9844.739029
1144.770976,-229.828649,-2516.700203,11177.109724
1144.771292,-153.219100,-2442.679609,10658.965565
1144.771607,76.609550,-1406.391290,9104.533087
1144.771923,612.876398,-1480.411884,9030.512492
1144.772239,1225.752797,-1776.494261,9030.512492
1144.772554,2298.286494,-1628.453072,8882.471304
1144.772870,2145.067394,-1184.329507,9400.615463
1144.773186,2068.457845,-1628.453072,8882.471304
1144.773502,1991.848295,-2072.576638,9252.574275
1144.773817,2528.115143,-1702.473667,9400.615463
1144.774133,2221.676944,-1406.391290,8586.388927
1144.774449,1915.238745,-1480.411884,9326.594869
1144.774764,1991.848295,-1702.473667,9622.677246
1144.775080,1455.581446,-1850.514855,9326.594869
1144.775396,1685.410096,-1332.370696,9844.739029
1144.775712,1532.190996,-592.164754,9844.739029
1144.776027,1378.971896,-1110.308913,9252.574275
1144.776343,1532.190996,-1850.514855,9992.780217
1144.776659,1685.410096,-1554.432478,9474.636058
1144.776974,1991.848295,-1702.473667,9030.512492
1144.777290,2145.067394,-1406.391290,9770.718434
1144.777606,2451.505594,-1924.535449,9622.677246
1144.777922,3064.381992,-1998.556043,9474.636058
1144.778237,3370.820191,-1554.432478,9474.636058
1144.778553,3447.429741,-2294.638420,9030.512492
1144.778869,3753.867940,-2220.617826,9770.718434
1144.779184,3983.696590,-1776.494261,9400.615463
1144.779500,3753.867940,-1258.350101,8586.388927
1144.779816,4366.744339,-592.164754,9030.512492
1144.780132,4290.134789,-444.123565,8956.491898
1144.780447,4060.306139,-814.226536,8290.306550
1144.780763,3600.648841,-888.247130,8438.347739
1144.781079,2911.162892,-1258.350101,8660.409521
1144.781395,2451.505594,-2072.576638,9548.656652
1144.781710,2528.115143,-2516.700203,10288.862594
1144.782026,2298.286494,-1554.432478,9992.780217
1144.782342,1608.800546,-2442.679609,9622.677246
1144.782657,1225.752797,-3256.906145,9992.780217
1144.782973,995.924147,-2368.659014,10658.965565
1144.783289,995.924147,-2220.617826,10214.842000
1144.783605,2221.676944,-1628.453072,9696.697840
1144.783920,2145.067394,-1406.391290,9696.697840
1144.784236,2451.505594,-1702.473667,9474.636058
1144.784552,3140.991542,-2368.659014,9548.656652
1144.784867,3753.867940,-2220.617826,9326.594869
1144.785183,3217.601092,-592.164754,9178.553681
1144.785499,4290.134789,-666.185348,9104.533087
1144.785815,4136.915689,-888.247130,9326.594869
1144.786130,4366.744339,-296.082377,8660.409521
1144.786446,3753.867940,-1036.288319,8586.388927
1144.786762,3447.429741,-1480.411884,8586.388927
1144.787077,3140.991542,-1776.494261,9104.533087
1144.787393,2451.505594,-1332.370696,9474.636058
1144.787709,1991.848295,-2072.576638,10362.883188
1144.788025,1149.143247,-2294.638420,10955.047942
1144.788340,1072.533697,-2368.659014,9844.739029
1144.788656,306.438199,-3034.844362,9992.780217
1144.788972,536.266849,-2886.803174,10510.924376
1144.789287,766.095498,-2220.617826,10362.883188
1144.789603,842.705048,-1850.514855,9918.759623
1144.789919,1302.362347,-2072.576638,10807.006753
1144.790235,1991.848295,-2368.659014,10214.842000
1144.790550,2451.505594,-2294.638420,9326.594869
1144.790866,2451.505594,-2368.659014,9178.553681
1144.791182,3217.601092,-2960.823768,9548.656652
1144.791498,4290.134789,-2516.700203,9178.553681
1144.791813,3677.258390,-2146.597232,9104.533087
1144.792129,3753.867940,-1850.514855,9104.533087
1144.792445,3524.039291,-1406.391290,8734.430116
1144.792760,3140.991542,-1406.391290,9104.533087
1144.793076,3217.601092,-1554.432478,9178.553681
1144.793392,2757.943793,-2294.638420,9104.533087
1144.793708,1991.848295,-2812.782580,9548.656652
1144.794023,1685.410096,-3552.988522,10510.924376
1144.794339,1455.581446,-4145.153275,10140.821405
1144.794655,995.924147,-3034.844362,9696.697840
1144.794970,612.876398,-3330.926739,10140.821405
1144.795286,995.924147,-3478.967927,10362.883188
1144.795602,1378.971896,-2960.823768,10140.821405
1144.795918,1532.190996,-2960.823768,9400.615463
1144.796233,1838.629195,-2664.741391,8586.388927
1144.796549,2451.505594,-2664.741391,8808.450710
1144.796865,3370.820191,-2516.700203,8364.327145
1144.797180,3447.429741,-1776.494261,8142.265362
1144.797496,3140.991542,-2072.576638,8734.430116
1144.797812,3217.601092,-2442.679609,8956.491898
1144.798128,3447.429741,-2960.823768,9178.553681
1144.798443,3370.820191,-2738.761985,9030.512492
1144.798759,3524.039291,-2368.659014,8734.430116
1144.799075,3370.820191,-2294.638420,8734.430116
1144.799390,3370.820191,-2072.576638,9104.533087
1144.799706,3370.820191,-2072.576638,9326.594869
1144.800022,3294.210641,-2146.597232,8808.450710
1144.800338,2681.334243,-2220.617826,9622.677246
1144.800653,2374.896044,-2516.700203,9474.636058
1144.800969,2451.505594,-3404.947333,10288.862594
1144.801285,2604.724693,-3108.864956,10140.821405
1144.801601,2757.943793,-2368.659014,10066.800811
1144.801916,2987.772442,-1776.494261,9252.574275
1144.802232,2681.334243,-1258.350101,8808.450710
1144.802548,2987.772442,-592.164754,9104.533087
1144.802863,3370.820191,-222.061783,8956.491898
1144.803179,3677.258390,-148.041188,8882.471304
1144.803495,3140.991542,-888.247130,9622.677246
1144.803811,2757.943793,-2516.700203,10362.883188
1144.804126,2298.286494,-3404.947333,10288.862594
1144.804442,2834.553343,-3330.926739,10362.883188
1144.804758,2757.943793,-3182.885551,9844.739029
1144.805073,2911.162892,-2368.659014,10066.800811
1144.805389,2757.943793,-1998.556043,9770.718434
1144.805705,2528.115143,-1406.391290,9548.656652
1144.806021,2528.115143,-666.185348,9474.636058
1144.806337,2757.943793,-0.000000,9400.615463
1144.806652,2451.505594,-592.164754,9252.574275
1144.806968,2451.505594,-1110.308913,9326.594869
1144.807284,2528.115143,-2812.782580,9844.739029
1144.807600,2374.896044,-3627.009116,10214.842000
1144.807916,2145.067394,-3849.070898,10436.903782
1144.808231,2068.457845,-3627.009116,10362.883188
1144.808547,2374.896044,-3108.864956,10362.883188
1144.808863,2451.505594,-2368.659014,10510.924376
1144.809179,2068.457845,-1850.514855,10066.800811
1144.809495,2451.505594,-962.267725,9474.636058
1144.809810,2834.553343,-518.144159,8734.430116
1144.810126,2528.115143,-740.205942,8364.327145
1144.810442,2681.334243,-666.185348,8586.388927
1144.810758,2451.505594,-1258.350101,8808.450710
1144.811074,2221.676944,-2220.617826,9104.533087
1144.811389,1762.019645,-3478.967927,9992.780217
1144.811705,1149.143247,-4515.256246,10881.027347
1144.812021,1149.143247,-4885.359217,11029.068536
1144.812337,1532.190996,-4515.256246,11473.192101
1144.812652,1991.848295,-3627.009116,10881.027347
1144.812968,2757.943793,-2516.700203,9992.780217
1144.813284,3064.381992,-1998.556043,9326.594869
1144.813600,4826.401637,-814.226536,8512.368333
1144.813916,4443.353888,-592.164754,7476.080014
1144.814231,4366.744339,-296.082377,6735.874072
1144.814547,3983.696590,-444.123565,6661.853478
1144.814863,3370.820191,-888.247130,7254.018232
1144.815179,2374.896044,-1554.432478,8216.285956
1144.815495,1302.362347,-2442.679609,8808.450710
1144.815810,536.266849,-3330.926739,9844.739029
1144.816126,-229.828649,-3923.091493,10658.965565
1144.816442,-229.828649,-5033.400406,11399.171507
1144.816758,153.219100,-4737.318029,11695.253884
1144.817074,306.438199,-4589.276840,11177.109724
1144.817389,1455.581446,-4293.194464,10955.047942
1144.817705,2451.505594,-3478.967927,9992.780217
1144.818021,3064.381992,-2738.761985,9178.553681
1144.818337,4136.915689,-1776.494261,8290.306550
1144.818653,4826.401637,-370.102971,7179.997637
1144.818968,5286.058936,740.205942,7031.956449
1144.819284,5056.230287,962.267725,7105.977043
1144.819600,4826.401637,-0.000000,7624.121203
1144.819916,4596.572988,-1184.329507,8438.347739
1144.820232,3524.039291,-2294.638420,8660.409521
1144.820547,2757.943793,-3182.885551,9918.759623
1144.820863,2145.067394,-4071.132681,10732.986159
1144.821179,1302.362347,-4367.215058,11621.233289
1144.821495,766.095498,-3849.070898,11621.233289
1144.821811,229.828649,-3330.926739,11399.171507
1144.822126,0.000000,-2516.700203,10807.006753
1144.822442,689.485948,-2442.679609,10214.842000
1144.822758,1685.410096,-2146.597232,9548.656652
1144.823074,2451.505594,-1184.329507,9178.553681
1144.823389,2834.553343,-888.247130,8512.368333
1144.823705,3447.429741,-666.185348,8512.368333
1144.824021,3830.477490,-1110.308913,8512.368333
1144.824337,3983.696590,-1628.453072,9030.512492
1144.824653,3677.258390,-2072.576638,9474.636058
1144.824968,3370.820191,-2220.617826,9770.718434
1144.825284,2681.334243,-2368.659014,10214.842000
1144.825600,2451.505594,-2072.576638,10214.842000
1144.825916,2298.286494,-1702.473667,10436.903782
1144.826232,1762.019645,-962.267725,9992.780217
1144.826547,1991.848295,-1110.308913,9696.697840
1144.826863,1991.848295,-1702.473667,9696.697840
1144.827179,2221.676944,-2220.617826,9844.739029
1144.827495,2528.115143,-2516.700203,9844.739029
1144.827811,2451.505594,-2368.659014,9474.636058
1144.828126,2374.896044,-1998.556043,9178.553681
1144.828442,2374.896044,-1554.432478,9474.636058
1144.828758,2528.115143,-1554.432478,9474.636058
1144.829074,1685.410096,-1850.514855,9696.697840
1144.829390,1378.971896,-1850.514855,9770.718434
1144.829705,1302.362347,-1998.556043,9770.718434
1144.830021,1685.410096,-1924.535449,9474.636058
1144.830337,1685.410096,-1554.432478,9474.636058
1144.830653,1608.800546,-1184.329507,8956.491898
1144.830969,1608.800546,-814.226536,8734.430116
1144.831284,1302.362347,-740.205942,8808.450710
1144.831600,1225.752797,-962.267725,8808.450710
1144.831916,995.924147,-1258.350101,8956.491898
1144.832232,842.705048,-1702.473667,9400.615463
1144.832548,919.314598,-1924.535449,9326.594869
1144.832863,1378.971896,-1998.556043,9696.697840
1144.833179,1685.410096,-2294.638420,10288.862594
1144.833495,2068.457845,-2368.659014,9992.780217
1144.833811,2145.067394,-2072.576638,9844.739029
1144.834127,2298.286494,-1776.494261,9622.677246
1144.834442,2604.724693,-1184.329507,9622.677246
1144.834758,2757.943793,-740.205942,9474.636058
1144.835074,2911.162892,-370.102971,9252.574275
1144.835390,3217.601092,-296.082377,9104.533087
1144.835705,3294.210641,-740.205942,9178.553681
1144.836021,3294.210641,-1184.329507,9252.574275
1144.836337,3370.820191,-1184.329507,9178.553681
1144.836653,3907.087040,-1850.514855,9622.677246
1144.836969,3907.087040,-2220.617826,9770.718434
1144.837284,3983.696590,-2812.782580,9992.780217
1144.837600,3907.087040,-3404.947333,10288.862594
1144.837916,3753.867940,-3552.988522,10584.944971
1144.838232,3907.087040,-3775.050304,10807.006753
1144.838548,3370.820191,-3330.926739,10584.944971
1144.838863,3064.381992,-3034.844362,10288.862594
1144.839179,3217.601092,-2738.761985,10214.842000
1144.839495,2757.943793,-2664.741391,9918.759623
1144.839811,3447.429741,-2812.782580,9770.718434
1144.840127,3753.867940,-3330.926739,9326.594869
1144.840442,3830.477490,-3552.988522,9178.553681
1144.840758,3524.039291,-3552.988522,9474.636058
1144.841074,3447.429741,-4441.235652,9622.677246
1144.841390,2911.162892,-4515.256246,9770.718434
1144.841706,2604.724693,-4367.215058,10140.821405
1144.842021,2298.286494,-4663.297435,10066.800811
1144.842337,2451.505594,-5033.400406,10288.862594
1144.842653,2451.505594,-4589.276840,9770.718434
1144.842969,2374.896044,-4441.235652,9400.615463
1144.843285,2451.505594,-3997.112087,9252.574275
1144.843600,2757.943793,-3404.947333,9030.512492
1144.843916,3064.381992,-3182.885551,8808.450710
1144.844232,2757.943793,-2886.803174,8438.347739
1144.844548,2528.115143,-3182.885551,8882.471304
1144.844864,3140.991542,-3775.050304,9178.553681
1144.845179,3294.210641,-4071.132681,9326.594869
1144.845495,3064.381992,-4219.173869,9326.594869
1144.845811,3217.601092,-4219.173869,9252.574275
1144.846127,3294.210641,-4071.132681,9252.574275
1144.846442,3370.820191,-3330.926739,8882.471304
1144.846758,3600.648841,-2294.638420,8512.368333
1144.847074,3753.867940,-1406.391290,7846.182985
1144.847390,2987.772442,-666.185348,7846.182985
1144.847706,2681.334243,-666.185348,7698.141797
1144.848021,2298.286494,-518.144159,7920.203579
1144.848337,919.314598,-666.185348,7920.203579
1144.848653,76.609550,-1628.453072,8734.430116
1144.848969,0.000000,-2812.782580,9622.677246
1144.849285,76.609550,-3552.988522,10510.924376
1144.849600,306.438199,-4219.173869,10658.965565
1144.849916,612.876398,-4441.235652,11177.109724
1144.850232,995.924147,-4663.297435,11473.192101
1144.850548,1762.019645,-3701.029710,10732.986159
1144.850864,2604.724693,-2368.659014,10140.821405
1144.851179,3447.429741,-888.247130,9104.533087
1144.851495,4519.963438,222.061783,8364.327145
1144.851811,4903.011187,1184.329507,7550.100608
1144.852127,4749.792088,1702.473667,6883.915261
1144.852443,4290.134789,1776.494261,7105.977043
1144.852758,3294.210641,1258.350101,7254.018232
1144.853074,2374.896044,666.185348,7994.224174
1144.853390,1378.971896,-370.102971,9326.594869
1144.853706,0.000000,-1628.453072,10362.883188
1144.854022,-536.266849,-2738.761985,11547.212695
1144.854337,-1302.362347,-4145.153275,12657.521608
1144.854653,-1455.581446,-4737.318029,13175.665768
1144.854969,-1149.143247,-4219.173869,12953.603985
1144.855285,0.000000,-3775.050304,12583.501014
1144.855601,1149.143247,-2590.720797,11917.315666
1144.855916,2604.724693,-1554.432478,10658.965565
1144.856232,3907.087040,-222.061783,9474.636058
1144.856548,5132.839837,1036.288319,7994.224174
1144.856864,6358.592633,2294.638420,7402.059420
1144.857180,6741.640382,3330.926739,6957.935855
1144.857495,6588.421283,2960.823768,7031.956449
1144.857811,5515.887586,1554.432478,7772.162391
1144.858127,4903.011187,370.102971,8734.430116
1144.858443,3447.429741,-1406.391290,10066.800811
1144.858758,2528.115143,-3404.947333,11621.233289
1144.859074,1532.190996,-4071.132681,12213.398043
1144.859390,536.266849,-4071.132681,12435.459826
1144.859706,0.000000,-3034.844362,12287.418637
1144.860022,0.000000,-2368.659014,12213.398043
1144.860337,842.705048,-1924.535449,11251.130318
1144.860653,1762.019645,-1406.391290,10214.842000
1144.860969,2221.676944,-1628.453072,9770.718434
1144.861285,2987.772442,-1850.514855,9104.533087
1144.861601,3907.087040,-2294.638420,8882.471304
1144.861916,4903.011187,-2442.679609,9104.533087
1144.862232,5286.058936,-2590.720797,8734.430116
1144.862548,5056.230287,-3034.844362,8512.368333
1144.862864,5132.839837,-3034.844362,9030.512492
1144.863180,5286.058936,-2960.823768,8882.471304
1144.863495,4903.011187,-2368.659014,9030.512492
1144.863811,4290.134789,-1924.535449,8512.368333
1144.864127,3524.039291,-2220.617826,8438.347739
1144.864443,2451.505594,-3034.844362,9400.615463
1144.864759,2221.676944,-3849.070898,9326.594869
1144.865074,1302.362347,-4145.153275,9252.574275
1144.865390,153.219100,-4811.338623,9178.553681
1144.865706,842.705048,-5255.462188,9252.574275
1144.866022,995.924147,-5329.482782,9696.697840
1144.866338,919.314598,-4441.235652,9104.533087
1144.866653,689.485948,-3923.091493,8882.471304
1144.866969,1378.971896,-4663.297435,9622.677246
1144.867285,1225.752797,-4737.318029,9696.697840
1144.867601,2221.676944,-3923.091493,9030.512492
1144.867917,2451.505594,-3923.091493,8660.409521
1144.868232,2911.162892,-3404.947333,8586.388927
1144.868548,3524.039291,-3478.967927,7920.203579
1144.868864,3830.477490,-2590.720797,7402.059420
1144.869180,3447.429741,-2294.638420,7550.100608
1144.869495,3524.039291,-2368.659014,8068.244768
1144.869811,3753.867940,-1850.514855,8142.265362
1144.870127,3447.429741,-1924.535449,7920.203579
1144.870443,2681.334243,-2294.638420,8216.285956
1144.870759,2451.505594,-2072.576638,8586.388927
1144.871074,1915.238745,-2590.720797,8586.388927
1144.871390,1149.143247,-2664.741391,9474.636058
1144.871706,306.438199,-3034.844362,9992.780217
1144.872022,229.828649,-2960.823768,10362.883188
1144.872338,-306.438199,-2886.803174,10510.924376
1144.872653,-842.705048,-3182.885551,11029.068536
1144.872969,-383.047749,-3775.050304,11251.130318
1144.873285,306.438199,-3404.947333,10732.986159
1144.873601,1225.752797,-2886.803174,10362.883188
1144.873917,2145.067394,-2294.638420,10584.944971
1144.874232,2757.943793,-1406.391290,9474.636058
1144.874548,4366.744339,-222.061783,8660.409521
1144.874864,5056.230287,-0.000000,8734.430116
1144.875180,5822.325785,-74.020594,8216.285956
1144.875496,5515.887586,148.041188,8290.306550
1144.875811,4903.011187,-296.082377,8512.368333
1144.876127,4749.792088,-666.185348,9844.739029
1144.876443,3830.477490,-592.164754,10140.821405
1144.876759,2757.943793,-74.020594,10066.800811
1144.877075,2145.067394,-740.205942,11177.109724
1144.877390,1455.581446,-592.164754,11177.109724
1144.877706,766.095498,-592.164754,10658.965565
1144.878022,383.047749,-1036.288319,11177.109724
1144.878338,689.485948,-1184.329507,11695.253884
1144.878654,842.705048,-888.247130,11251.130318
1144.878969,1225.752797,-962.267725,10955.047942
1144.879285,1838.629195,-1850.514855,10807.006753
1144.879601,1838.629195,-740.205942,10066.800811
1144.879917,2681.334243,296.082377,9622.677246
1144.880233,2987.772442,518.144159,9992.780217
1144.880548,3217.601092,518.144159,8808.450710
1144.880864,3600.648841,888.247130,9622.677246
1144.881180,4213.525239,370.102971,9252.574275
1144.881496,3983.696590,518.144159,8586.388927
1144.881811,3064.381992,888.247130,8512.368333
1144.882127,2757.943793,370.102971,9252.574275
1144.882443,2681.334243,-0.000000,9770.718434
1144.882759,2145.067394,370.102971,9548.656652
1144.883075,1532.190996,-296.082377,9326.594869
1144.883390,76.609550,-1480.411884,9326.594869
1144.883706,76.609550,-2442.679609,10288.862594
1144.884022,-306.438199,-1998.556043,9918.759623
1144.884338,0.000000,-1406.391290,9992.780217
1144.884654,229.828649,-1332.370696,10510.924376
1144.884969,0.000000,-888.247130,9104.533087
1144.885285,76.609550,-1406.391290,8808.450710
1144.885601,-76.609550,-1406.391290,8142.265362
1144.885917,153.219100,-1184.329507,9178.553681
1144.886233,689.485948,-814.226536,8734.430116
1144.886548,766.095498,-518.144159,8290.306550
1144.886864,1225.752797,-518.144159,8438.347739
1144.887180,919.314598,-1554.432478,7994.224174
1144.887496,1225.752797,-1702.473667,8956.491898
1144.887812,1455.581446,-962.267725,9104.533087
1144.888127,2145.067394,-740.205942,7920.203579
1144.888443,2374.896044,-666.185348,8512.368333
1144.888759,1532.190996,-1184.329507,8660.409521
1144.889075,1072.533697,-2072.576638,9104.533087
1144.889391,383.047749,-888.247130,9030.512492
1144.889706,-459.657299,-814.226536,8956.491898
1144.890022,-153.219100,-888.247130,9178.553681
1144.890338,-1149.143247,518.144159,9770.718434
1144.890654,-1378.971896,-370.102971,9400.615463
1144.890970,-1838.629195,-962.267725,9474.636058
1144.891285,-1455.581446,-1850.514855,9918.759623
1144.891601,-1302.362347,-1998.556043,10288.862594
1144.891917,-459.657299,-1776.494261,10140.821405
1144.892233,-536.266849,-2294.638420,10066.800811
1144.892548,0.000000,-1924.535449,10436.903782
1144.892864,229.828649,-1924.535449,10510.924376
1144.893180,153.219100,-1554.432478,9696.697840
1144.893496,1378.971896,222.061783,9474.636058
1144.893812,1608.800546,444.123565,8956.491898
1144.894127,2451.505594,-0.000000,9326.594869
1144.894443,2068.457845,-0.000000,9252.574275
1144.894759,1302.362347,518.144159,8808.450710
1144.895075,1608.800546,148.041188,8882.471304
1144.895391,1685.410096,-666.185348,9548.656652
1144.895706,995.924147,-740.205942,10214.842000
1144.896022,-1225.752797,-1924.535449,11473.192101
1144.896338,-1149.143247,-2368.659014,11399.171507
1144.896654,-1532.190996,-2294.638420,11325.150913
1144.896970,-1302.362347,-1628.453072,11547.212695
1144.897285,0.000000,-1110.308913,10362.883188
1144.897601,0.000000,-148.041188,9252.574275
1144.897917,0.000000,-74.020594,9252.574275
1144.898233,766.095498,-666.185348,9622.677246
1144.898549,1608.800546,-444.123565,9252.574275
1144.898864,1838.629195,296.082377,8882.471304
1144.899180,1685.410096,-148.041188,8956.491898
1144.899496,1915.238745,-0.000000,9252.574275
1144.899812,1455.581446,222.061783,8956.491898
1144.900128,1072.533697,666.185348,8956.491898
1144.900443,919.314598,740.205942,9030.512492
1144.900759,995.924147,444.123565,9104.533087
1144.901075,612.876398,296.082377,9474.636058
1144.901391,-306.438199,-444.123565,9770.718434
1144.901707,-153.219100,-1184.329507,9992.780217
1144.902022,536.266849,-1110.308913,9696.697840
1144.902338,-229.828649,-0.000000,9844.739029
1144.902654,76.609550,-0.000000,9844.739029
1144.902970,-153.219100,-148.041188,8512.368333
1144.903286,383.047749,296.082377,9030.512492
1144.903601,766.095498,-0.000000,9400.615463
1144.903917,919.314598,666.185348,8512.368333
1144.904233,1685.410096,962.267725,8956.491898
1144.904549,1302.362347,370.102971,9030.512492
1144.904864,1302.362347,814.226536,8660.409521
1144.905180,1149.143247,740.205942,9030.512492
1144.905496,919.314598,1036.288319,8364.327145
1144.905812,612.876398,1036.288319,9252.574275
1144.906128,766.095498,740.205942,9400.615463
1144.906443,0.000000,296.082377,9474.636058
1144.906759,-1072.533697,-148.041188,10214.842000
1144.907075,-689.485948,-74.020594,10214.842000
1144.907391,-459.657299,592.164754,9622.677246
1144.907707,-383.047749,962.267725,9474.636058
1144.908023,76.609550,518.144159,9844.739029
1144.908338,-306.438199,592.164754,9844.739029
1144.908654,-229.828649,148.041188,9844.739029
1144.908970,76.609550,370.102971,9474.636058
1144.909286,0.000000,888.247130,9696.697840
1144.909602,383.047749,148.041188,10140.821405
1144.909918,766.095498,370.102971,9400.615463
1144.910233,459.657299,592.164754,9474.636058
1144.910549,842.705048,-0.000000,10362.883188
1144.910865,919.314598,740.205942,9474.636058
1144.911181,1378.971896,888.247130,8734.430116
1144.911497,1149.143247,962.267725,9770.718434
1144.911812,1149.143247,518.144159,9474.636058
1144.912128,919.314598,-518.144159,9548.656652
1144.912444,306.438199,-444.123565,10066.800811
1144.912760,-459.657299,-518.144159,10214.842000
1144.913076,383.047749,-1480.411884,10436.903782
1144.913392,-306.438199,-666.185348,9696.697840
1144.913707,-842.705048,-888.247130,10955.047942
1144.914023,-536.266849,-1036.288319,10288.862594
1144.914339,-229.828649,-296.082377,9474.636058
1144.914655,0.000000,-666.185348,10214.842000
1144.914971,0.000000,-1628.453072,9770.718434
1144.915286,-229.828649,-888.247130,9622.677246
1144.915602,76.609550,-666.185348,9770.718434
1144.915918,76.609550,-1110.308913,9844.739029
1144.916234,536.266849,-814.226536,9918.759623
1144.916550,459.657299,-592.164754,9326.594869
1144.916866,459.657299,-444.123565,8882.471304
1144.917181,229.828649,-962.267725,9400.615463
1144.917497,1072.533697,-1406.391290,9696.697840
1144.917813,459.657299,-1036.288319,9252.574275
1144.918129,689.485948,-666.185348,9548.656652
1144.918445,995.924147,-1036.288319,9548.656652
1144.918761,536.266849,-0.000000,9030.512492
1144.919076,153.219100,-518.144159,8438.347739
1144.919392,306.438199,-888.247130,9030.512492
1144.919708,-76.609550,-1036.288319,9104.533087
1144.920024,689.485948,-814.226536,9844.739029
1144.920340,0.000000,-1554.432478,9030.512492
1144.920655,-383.047749,-1776.494261,8956.491898
1144.920971,0.000000,-1998.556043,10288.862594
1144.921287,536.266849,-1332.370696,9104.533087
1144.921603,612.876398,-592.164754,8290.306550
1144.921919,1532.190996,-296.082377,9252.574275
1144.922235,1072.533697,-518.144159,7994.224174
1144.922550,1302.362347,-518.144159,8290.306550
1144.922866,1302.362347,-518.144159,8882.471304
1144.923182,1532.190996,-222.061783,8142.265362
1144.923498,1532.190996,-666.185348,8808.450710
1144.923814,536.266849,-0.000000,8438.347739
1144.924130,383.047749,-296.082377,9104.533087
1144.924445,689.485948,-888.247130,10436.903782
1144.924761,459.657299,-0.000000,8734.430116
1144.925077,536.266849,222.061783,8956.491898
1144.925393,536.266849,222.061783,9548.656652
1144.925709,0.000000,-74.020594,9178.553681
1144.926024,0.000000,-0.000000,9918.759623
1144.926340,459.657299,-0.000000,10288.862594
1144.926656,153.219100,592.164754,9548.656652
1144.926972,153.219100,666.185348,10066.800811
1144.927288,306.438199,148.041188,9696.697840
1144.927604,76.609550,-296.082377,10214.842000
1144.927919,766.095498,-148.041188,9622.677246
1144.928235,842.705048,518.144159,9178.553681
1144.928551,1225.752797,1110.308913,9326.594869
1144.928867,1762.019645,814.226536,9400.615463
1144.929183,995.924147,1258.350101,9030.512492
1144.929498,689.485948,1332.370696,9400.615463
1144.929814,306.438199,666.185348,9696.697840
1144.930130,383.047749,1110.308913,9770.718434
1144.930446,383.047749,518.144159,10066.800811
1144.930762,-383.047749,-518.144159,10362.883188
1144.931078,-689.485948,-888.247130,11177.109724
1144.931393,-766.095498,-740.205942,10732.986159
1144.931709,-612.876398,370.102971,10362.883188
1144.932025,-306.438199,962.267725,10140.821405
1144.932341,-229.828649,666.185348,10066.800811
1144.932657,-459.657299,1036.288319,9918.759623
1144.932973,-995.924147,296.082377,9992.780217
1144.933288,-153.219100,-0.000000,9770.718434
1144.933604,0.000000,222.061783,9474.636058
1144.933920,229.828649,-148.041188,10140.821405
1144.934236,0.000000,-222.061783,9992.780217
1144.934552,-459.657299,-74.020594,9622.677246
1144.934867,0.000000,-444.123565,10140.821405
1144.935183,76.609550,-0.000000,9770.718434
1144.935499,383.047749,370.102971,9326.594869
1144.935815,919.314598,296.082377,9326.594869
1144.936131,-153.219100,-0.000000,8882.471304
1144.936447,306.438199,-0.000000,9474.636058
1144.936762,766.095498,-962.267725,9326.594869
1144.937078,306.438199,296.082377,8808.450710
1144.937394,153.219100,-74.020594,9326.594869
1144.937710,612.876398,-1850.514855,9326.594869
1144.938026,383.047749,-1184.329507,9696.697840
1144.938341,306.438199,-1036.288319,9178.553681
1144.938657,459.657299,-888.247130,9474.636058
1144.938973,1225.752797,-814.226536,9770.718434
1144.939289,1225.752797,-0.000000,8956.491898
1144.939605,2451.505594,666.185348,7846.182985
1144.939921,1225.752797,-0.000000,8586.388927
1144.940236,1072.533697,-296.082377,9104.533087
1144.940552,1455.581446,-0.000000,8438.347739
1144.940868,1302.362347,-518.144159,8586.388927
1144.941184,1149.143247,-888.247130,9474.636058
1144.941500,153.219100,-1258.350101,9326.594869
1144.941816,612.876398,-888.247130,9474.636058
1144.942131,536.266849,-296.082377,9548.656652
1144.942447,612.876398,296.082377,9030.512492
1144.942763,1225.752797,-0.000000,8734.430116
1144.943079,229.828649,222.061783,8882.471304
1144.943395,76.609550,-0.000000,8956.491898
1144.943710,612.876398,-814.226536,9622.677246
1144.944026,842.705048,-1110.308913,9844.739029
1144.944342,766.095498,-1110.308913,9548.656652
1144.944658,1302.362347,-740.205942,9548.656652
1144.944974,612.876398,-222.061783,8734.430116
1144.945290,383.047749,-740.205942,9844.739029
1144.945605,1072.533697,-592.164754,9844.739029
1144.945921,995.924147,592.164754,9178.553681
1144.946237,1608.800546,-74.020594,9252.574275
1144.946553,995.924147,-148.041188,9400.615463
1144.946869,766.095498,-370.102971,9696.697840
1144.947184,842.705048,-518.144159,9400.615463
1144.947500,612.876398,-222.061783,9474.636058
1144.947816,689.485948,-888.247130,10066.800811
