#time,accel_x,accel_y,accel_z
1067.186136,459.657299,-148.041188,9326.594869
1067.186452,153.219100,-296.082377,9474.636058
1067.186768,383.047749,-148.041188,9400.615463
1067.187084,306.438199,-370.102971,9622.677246
1067.187400,383.047749,-148.041188,9474.636058
1067.187715,383.047749,-74.020594,9622.677246
1067.188031,229.828649,-370.102971,9474.636058
1067.188347,536.266849,-148.041188,9622.677246
1067.188663,383.047749,-74.020594,9548.656652
1067.188979,229.828649,-148.041188,9400.615463
1067.189295,306.438199,-148.041188,9474.636058
1067.189611,459.657299,-0.000000,9474.636058
1067.189927,612.876398,-370.102971,9548.656652
1067.190243,383.047749,-222.061783,9474.636058
1067.190559,383.047749,-148.041188,9474.636058
1067.190875,459.657299,-0.000000,9474.636058
1067.191191,306.438199,-0.000000,9622.677246
1067.191507,76.609550,-222.061783,9696.697840
1067.191823,536.266849,-444.123565,9474.636058
1067.192139,306.438199,-148.041188,9548.656652
1067.192455,306.438199,-148.041188,9622.677246
1067.192770,459.657299,-74.020594,9474.636058
1067.193086,689.485948,-296.082377,9326.594869
1067.193402,383.047749,-296.082377,9696.697840
1067.193718,536.266849,-148.041188,9474.636058
1067.194034,383.047749,-0.000000,9474.636058
1067.194350,306.438199,296.082377,9474.636058
1067.194666,459.657299,-0.000000,9474.636058
1067.194982,842.705048,518.144159,9474.636058
1067.195298,842.705048,740.205942,9252.574275
1067.195614,383.047749,370.102971,9400.615463
1067.195930,459.657299,370.102971,9252.574275
1067.196246,153.219100,296.082377,9326.594869
1067.196562,459.657299,222.061783,9400.615463
1067.196878,612.876398,-148.041188,9622.677246
1067.197194,459.657299,296.082377,9474.636058
1067.197510,842.705048,518.144159,9474.636058
1067.197825,536.266849,444.123565,9474.636058
1067.198141,459.657299,370.102971,9548.656652
1067.198457,153.219100,592.164754,9326.594869
1067.198773,306.438199,1184.329507,9400.615463
1067.199089,536.266849,962.267725,9474.636058
1067.199405,0.000000,518.144159,9474.636058
1067.199721,306.438199,888.247130,9252.574275
1067.200037,76.609550,666.185348,9104.533087
1067.200353,153.219100,666.185348,9474.636058
1067.200669,76.609550,-0.000000,9474.636058
1067.200985,-612.876398,666.185348,9474.636058
1067.201301,-306.438199,962.267725,9252.574275
1067.201617,-76.609550,1110.308913,9326.594869
1067.201933,-306.438199,1480.411884,9104.533087
1067.202249,-689.485948,1628.453072,9178.553681
1067.202565,-842.705048,1554.432478,9252.574275
1067.202880,-1072.533697,1850.514855,9252.574275
1067.203196,-1455.581446,1554.432478,9474.636058
1067.203512,-1762.019645,1406.391290,9622.677246
1067.203828,-2068.457845,1480.411884,9548.656652
1067.204144,-2068.457845,1258.350101,9548.656652
1067.204460,-2145.067394,1332.370696,9770.718434
1067.204776,-2451.505594,1406.391290,9770.718434
1067.205092,-2298.286494,1628.453072,9770.718434
1067.205408,-2374.896044,1628.453072,9252.574275
1067.205724,-1991.848295,1924.535449,9474.636058
1067.206040,-2068.457845,1628.453072,9474.636058
1067.206356,-2145.067394,1776.494261,9622.677246
1067.206672,-2068.457845,1702.473667,9918.759623
1067.206988,-2451.505594,1702.473667,9622.677246
1067.207304,-1915.238745,1480.411884,9918.759623
1067.207620,-1455.581446,1924.535449,9474.636058
1067.207936,-1455.581446,1850.514855,9326.594869
1067.208251,-1532.190996,2146.597232,9474.636058
1067.208567,-1455.581446,2368.659014,9474.636058
1067.208883,-1302.362347,2368.659014,9252.574275
1067.209199,-1378.971896,2220.617826,9326.594869
1067.209515,-1685.410096,1998.556043,9104.533087
1067.209831,-919.314598,1554.432478,9844.739029
1067.210147,-1991.848295,814.226536,9252.574275
1067.210463,-2298.286494,1110.308913,9770.718434
1067.210779,-1991.848295,1258.350101,9696.697840
1067.211095,-2298.286494,1184.329507,9696.697840
1067.211411,-2298.286494,1554.432478,9548.656652
1067.211727,-2145.067394,1332.370696,9696.697840
1067.212043,-2145.067394,1184.329507,9548.656652
1067.212359,-1991.848295,1406.391290,9622.677246
1067.212675,-1762.019645,1628.453072,9770.718434
1067.212991,-1838.629195,1628.453072,9622.677246
1067.213306,-1608.800546,1480.411884,9400.615463
1067.213622,-1378.971896,1924.535449,9030.512492
1067.213938,-2068.457845,2146.597232,8956.491898
1067.214254,-2068.457845,2516.700203,8808.450710
1067.214570,-2221.676944,2590.720797,8808.450710
1067.214886,-2298.286494,2442.679609,9030.512492
1067.215202,-2528.115143,1924.535449,9178.553681
1067.215518,-2757.943793,1332.370696,9400.615463
1067.215834,-2145.067394,740.205942,9918.759623
1067.216150,-2298.286494,222.061783,10436.903782
1067.216466,-2374.896044,296.082377,10362.883188
1067.216782,-2145.067394,518.144159,10436.903782
1067.217098,-1532.190996,888.247130,10140.821405
1067.217414,-1302.362347,1184.329507,9696.697840
1067.217730,-229.828649,1924.535449,9326.594869
1067.218046,153.219100,2590.720797,8882.471304
1067.218361,383.047749,3108.864956,8216.285956
1067.218677,459.657299,3256.906145,8142.265362
1067.218993,536.266849,2812.782580,7994.224174
1067.219309,306.438199,2960.823768,8142.265362
1067.219625,-383.047749,3034.844362,8290.306550
1067.219941,-1149.143247,2738.761985,8290.306550
1067.220257,-1302.362347,1998.556043,9474.636058
1067.220573,-2451.505594,1480.411884,9696.697840
1067.220889,-3064.381992,1406.391290,10288.862594
1067.221205,-3524.039291,1036.288319,10362.883188
1067.221521,-3907.087040,444.123565,10807.006753
1067.221837,-3677.258390,-74.020594,11325.150913
1067.222153,-3064.381992,-148.041188,11177.109724
1067.222469,-2221.676944,148.041188,10807.006753
1067.222785,-1302.362347,592.164754,9918.759623
1067.223101,-842.705048,1110.308913,9844.739029
1067.223416,1302.362347,1924.535449,9104.533087
1067.223732,842.705048,2368.659014,8364.327145
1067.224048,919.314598,3701.029710,8216.285956
1067.224364,1149.143247,4293.194464,7550.100608
1067.224680,689.485948,4589.276840,7476.080014
1067.224996,0.000000,4293.194464,7179.997637
1067.225312,-1072.533697,4219.173869,7402.059420
1067.225628,-2298.286494,2738.761985,8586.388927
1067.225944,-3217.601092,1628.453072,9770.718434
1067.226260,-4366.744339,222.061783,10807.006753
1067.226576,-4979.620737,-1036.288319,11917.315666
1067.226892,-5439.278036,-1702.473667,12509.480420
1067.227208,-4979.620737,-1702.473667,12287.418637
1067.227524,-4673.182538,-1332.370696,12213.398043
1067.227840,-3294.210641,-74.020594,11695.253884
1067.228156,-1915.238745,888.247130,10214.842000
1067.228471,-459.657299,2590.720797,8808.450710
1067.228787,306.438199,3849.070898,7698.141797
1067.229103,1302.362347,4737.318029,6587.832884
1067.229419,1608.800546,5107.421000,6069.688724
1067.229735,919.314598,5255.462188,6439.791695
1067.230051,536.266849,4885.359217,6883.915261
1067.230367,-383.047749,3330.926739,7624.121203
1067.230683,-1838.629195,1258.350101,9178.553681
1067.230999,-3370.820191,-296.082377,10732.986159
1067.231315,-4290.134789,-1850.514855,12139.377449
1067.231631,-4826.401637,-2368.659014,12879.583391
1067.231947,-4826.401637,-1776.494261,12509.480420
1067.232263,-4443.353888,-1258.350101,12213.398043
1067.232579,-3677.258390,-0.000000,11103.089130
1067.232895,-2987.772442,1110.308913,10214.842000
1067.233211,-1685.410096,2220.617826,8956.491898
1067.233526,-689.485948,3256.906145,7698.141797
1067.233842,383.047749,3552.988522,7328.038826
1067.234158,919.314598,3330.926739,7476.080014
1067.234474,766.095498,2368.659014,7698.141797
1067.234790,842.705048,1480.411884,8512.368333
1067.235106,383.047749,814.226536,8734.430116
1067.235422,-383.047749,518.144159,9030.512492
1067.235738,-1225.752797,-0.000000,9548.656652
1067.236054,-1532.190996,-0.000000,9992.780217
1067.236370,-2145.067394,-0.000000,10436.903782
1067.236686,-2221.676944,148.041188,10584.944971
1067.237002,-2604.724693,-0.000000,10066.800811
1067.237318,-2757.943793,-0.000000,9548.656652
1067.237634,-1991.848295,-814.226536,9844.739029
1067.237950,-1302.362347,-1258.350101,10140.821405
1067.238266,-612.876398,-888.247130,9622.677246
1067.238582,0.000000,-222.061783,9178.553681
1067.238897,76.609550,740.205942,8882.471304
1067.239213,995.924147,962.267725,8586.388927
1067.239529,1608.800546,1554.432478,8660.409521
1067.239845,1455.581446,1998.556043,8512.368333
1067.240161,1532.190996,1924.535449,9104.533087
1067.240477,995.924147,962.267725,8956.491898
1067.240793,842.705048,-148.041188,9474.636058
1067.241109,1072.533697,-592.164754,9400.615463
1067.241425,536.266849,-592.164754,9696.697840
1067.241741,0.000000,-518.144159,9474.636058
1067.242057,76.609550,-740.205942,9622.677246
1067.242373,229.828649,-370.102971,9844.739029
1067.242689,229.828649,222.061783,10066.800811
1067.243005,153.219100,1110.308913,9696.697840
1067.243321,153.219100,740.205942,9474.636058
1067.243636,536.266849,592.164754,9622.677246
1067.243952,995.924147,666.185348,9326.594869
1067.244268,1072.533697,814.226536,8808.450710
1067.244584,766.095498,370.102971,9400.615463
1067.244900,306.438199,-370.102971,9696.697840
1067.245216,306.438199,-296.082377,9844.739029
1067.245531,-383.047749,-148.041188,9918.759623
1067.245847,-689.485948,-148.041188,10288.862594
1067.246163,0.000000,-296.082377,10510.924376
1067.246479,459.657299,-148.041188,10140.821405
1067.246795,306.438199,-296.082377,9696.697840
1067.247111,1072.533697,-0.000000,9326.594869
1067.247427,1378.971896,-222.061783,8808.450710
1067.247742,1762.019645,-296.082377,8882.471304
1067.248058,1378.971896,-0.000000,9178.553681
1067.248374,1608.800546,-0.000000,9474.636058
1067.248690,995.924147,-296.082377,9992.780217
1067.249006,1455.581446,-296.082377,10140.821405
1067.249322,995.924147,296.082377,9474.636058
1067.249637,612.876398,888.247130,8660.409521
1067.249953,689.485948,740.205942,8956.491898
1067.250269,995.924147,370.102971,9178.553681
1067.250585,919.314598,-0.000000,8882.471304
1067.250901,-76.609550,-148.041188,9326.594869
1067.251217,-689.485948,-1406.391290,10288.862594
1067.251532,-612.876398,-1924.535449,10807.006753
1067.251848,-612.876398,-1702.473667,10362.883188
1067.252164,-1225.752797,-740.205942,10140.821405
1067.252480,-766.095498,222.061783,9400.615463
1067.252796,0.000000,814.226536,9326.594869
1067.253112,306.438199,962.267725,8586.388927
1067.253428,76.609550,1554.432478,8142.265362
1067.253743,-153.219100,1110.308913,8660.409521
1067.254059,76.609550,-0.000000,9474.636058
1067.254375,229.828649,-666.185348,9548.656652
1067.254691,0.000000,-148.041188,9252.574275
1067.255007,306.438199,-148.041188,9178.553681
1067.255323,0.000000,-222.061783,9400.615463
1067.255638,0.000000,-296.082377,9918.759623
1067.255954,-383.047749,-0.000000,9474.636058
1067.256270,-306.438199,222.061783,9548.656652
1067.256586,-766.095498,-74.020594,9918.759623
1067.256902,0.000000,-888.247130,10066.800811
1067.257218,306.438199,-518.144159,10140.821405
1067.257534,306.438199,-148.041188,9474.636058
1067.257849,766.095498,-0.000000,9030.512492
1067.258165,995.924147,222.061783,9178.553681
1067.258481,1685.410096,222.061783,9178.553681
1067.258797,1455.581446,370.102971,8512.368333
1067.259113,1455.581446,444.123565,9104.533087
1067.259429,2068.457845,-74.020594,9696.697840
1067.259744,1762.019645,-370.102971,9548.656652
1067.260060,1762.019645,-222.061783,9178.553681
1067.260376,2145.067394,-296.082377,9400.615463
1067.260692,2145.067394,-1036.288319,9918.759623
1067.261008,1838.629195,-814.226536,9992.780217
1067.261324,1378.971896,-370.102971,9770.718434
1067.261639,1072.533697,-222.061783,9622.677246
1067.261955,536.266849,-518.144159,10066.800811
1067.262271,383.047749,-592.164754,10066.800811
1067.262587,306.438199,-370.102971,9622.677246
1067.262903,306.438199,-148.041188,9474.636058
1067.263219,612.876398,-148.041188,9548.656652
1067.263535,766.095498,-0.000000,9474.636058
1067.263850,612.876398,296.082377,9326.594869
1067.264166,306.438199,222.061783,9400.615463
1067.264482,842.705048,-222.061783,10140.821405
1067.264798,919.314598,-740.205942,9992.780217
1067.265114,689.485948,-962.267725,9696.697840
1067.265430,536.266849,-222.061783,9548.656652
1067.265745,0.000000,-222.061783,9030.512492
1067.266061,842.705048,-0.000000,9400.615463
1067.266377,459.657299,518.144159,9030.512492
1067.266693,0.000000,1036.288319,8734.430116
1067.267009,0.000000,666.185348,9030.512492
1067.267325,0.000000,-0.000000,9252.574275
1067.267640,-383.047749,-444.123565,9474.636058
1067.267956,-612.876398,-666.185348,9474.636058
1067.268272,-1225.752797,-1036.288319,9474.636058
1067.268588,-995.924147,-1110.308913,9844.739029
1067.268904,-766.095498,-1554.432478,9992.780217
1067.269220,-995.924147,-592.164754,9770.718434
1067.269536,-766.095498,-370.102971,9622.677246
1067.269851,0.000000,-370.102971,9770.718434
1067.270167,306.438199,-370.102971,9622.677246
1067.270483,1225.752797,-74.020594,9326.594869
1067.270799,1532.190996,-0.000000,8142.265362
1067.271115,1608.800546,222.061783,8438.347739
1067.271431,1915.238745,592.164754,8586.388927
1067.271746,1378.971896,666.185348,8586.388927
1067.272062,459.657299,666.185348,8364.327145
1067.272378,536.266849,444.123565,9252.574275
1067.272694,76.609550,-74.020594,9548.656652
1067.273010,0.000000,-148.041188,9622.677246
1067.273326,-229.828649,-222.061783,9696.697840
1067.273641,0.000000,-666.185348,9770.718434
1067.273957,0.000000,-962.267725,9770.718434
1067.274273,-612.876398,-666.185348,9918.759623
1067.274589,-842.705048,-518.144159,10362.883188
1067.274905,-536.266849,-518.144159,10658.965565
1067.275221,-153.219100,-518.144159,10140.821405
1067.275537,76.609550,370.102971,9474.636058
1067.275852,153.219100,666.185348,9252.574275
1067.276168,766.095498,814.226536,8734.430116
1067.276484,1608.800546,666.185348,8734.430116
1067.276800,1302.362347,666.185348,8808.450710
1067.277116,842.705048,814.226536,9178.553681
1067.277432,689.485948,518.144159,9252.574275
1067.277747,689.485948,296.082377,9326.594869
1067.278063,229.828649,-0.000000,9844.739029
1067.278379,0.000000,-0.000000,9474.636058
1067.278695,-536.266849,-0.000000,9400.615463
1067.279011,-459.657299,-74.020594,9622.677246
1067.279327,-459.657299,-370.102971,10362.883188
1067.279643,-766.095498,-296.082377,9770.718434
1067.279958,-919.314598,-370.102971,10288.862594
1067.280274,-612.876398,-592.164754,10510.924376
1067.280590,0.000000,-518.144159,10140.821405
1067.280906,229.828649,-296.082377,9844.739029
1067.281222,612.876398,444.123565,8882.471304
1067.281538,1072.533697,148.041188,9178.553681
1067.281853,1455.581446,-0.000000,9474.636058
1067.282169,1149.143247,666.185348,9104.533087
1067.282485,995.924147,814.226536,9326.594869
1067.282801,766.095498,296.082377,9400.615463
1067.283117,1072.533697,-74.020594,9400.615463
1067.283433,1072.533697,-74.020594,9770.718434
1067.283748,919.314598,-444.123565,8956.491898
1067.284064,995.924147,-814.226536,9474.636058
1067.284380,689.485948,-814.226536,9400.615463
1067.284696,919.314598,-1036.288319,9474.636058
1067.285012,0.000000,-740.205942,9696.697840
1067.285328,229.828649,-814.226536,9918.759623
1067.285644,383.047749,-1184.329507,9844.739029
1067.285959,76.609550,-518.144159,9548.656652
1067.286275,383.047749,-296.082377,9474.636058
1067.286591,536.266849,-296.082377,9030.512492
1067.286907,1072.533697,-888.247130,9104.533087
1067.287223,1149.143247,-592.164754,9104.533087
1067.287539,1072.533697,-148.041188,9400.615463
1067.287854,689.485948,-444.123565,9252.574275
1067.288170,689.485948,-518.144159,9400.615463
1067.288486,612.876398,-444.123565,9474.636058
1067.288802,153.219100,-518.144159,9178.553681
1067.289118,229.828649,-296.082377,9400.615463
1067.289434,383.047749,-740.205942,8882.471304
1067.289749,536.266849,-666.185348,9030.512492
1067.290065,153.219100,-740.205942,9548.656652
1067.290381,153.219100,-740.205942,9696.697840
1067.290697,0.000000,-1258.350101,9696.697840
1067.291013,76.609550,-1184.329507,9844.739029
1067.291329,0.000000,-740.205942,9622.677246
1067.291645,459.657299,-814.226536,9178.553681
1067.291960,0.000000,-370.102971,9030.512492
1067.292276,536.266849,-296.082377,9030.512492
1067.292592,612.876398,-0.000000,8808.450710
1067.292908,306.438199,296.082377,8882.471304
1067.293224,459.657299,-222.061783,9548.656652
1067.293540,612.876398,-740.205942,9696.697840
1067.293855,612.876398,-814.226536,9326.594869
1067.294171,229.828649,-518.144159,9178.553681
1067.294487,689.485948,-444.123565,9104.533087
1067.294803,919.314598,-518.144159,9178.553681
1067.295119,766.095498,-0.000000,9252.574275
1067.295435,153.219100,296.082377,9474.636058
1067.295750,153.219100,444.123565,9474.636058
1067.296066,306.438199,-0.000000,9696.697840
1067.296382,612.876398,-0.000000,9770.718434
1067.296698,689.485948,296.082377,9696.697840
1067.297014,689.485948,592.164754,9104.533087
1067.297330,1302.362347,-0.000000,9252.574275
1067.297646,1378.971896,-592.164754,9474.636058
1067.297961,919.314598,518.144159,9548.656652
1067.298277,459.657299,962.267725,9474.636058
1067.298593,306.438199,666.185348,9992.780217
1067.298909,919.314598,-0.000000,10066.800811
1067.299225,153.219100,740.205942,9770.718434
1067.299541,229.828649,814.226536,9696.697840
1067.299856,459.657299,444.123565,9548.656652
1067.300172,766.095498,-0.000000,9622.677246
1067.300488,536.266849,296.082377,9770.718434
1067.300804,153.219100,-74.020594,9474.636058
1067.301120,0.000000,-0.000000,9918.759623
1067.301436,0.000000,-222.061783,10658.965565
1067.301752,0.000000,-148.041188,9918.759623
1067.302067,0.000000,148.041188,9622.677246
1067.302383,689.485948,222.061783,9252.574275
1067.302699,995.924147,-0.000000,9622.677246
1067.303015,612.876398,592.164754,9474.636058
1067.303331,536.266849,370.102971,9030.512492
1067.303647,383.047749,-444.123565,9548.656652
1067.303962,536.266849,962.267725,10362.883188
1067.304278,383.047749,-592.164754,9474.636058
1067.304594,536.266849,-148.041188,9178.553681
1067.304910,76.609550,296.082377,9474.636058
1067.305226,0.000000,-444.123565,9178.553681
1067.305542,459.657299,-0.000000,9400.615463
1067.305857,153.219100,-0.000000,9548.656652
1067.306173,-153.219100,-296.082377,9474.636058
1067.306489,153.219100,-370.102971,9918.759623
1067.306805,229.828649,-740.205942,9918.759623
1067.307121,459.657299,-814.226536,9622.677246
1067.307437,383.047749,-888.247130,9030.512492
1067.307753,459.657299,-888.247130,9104.533087
1067.308068,842.705048,-370.102971,9622.677246
1067.308384,536.266849,-296.082377,9326.594869
1067.308700,459.657299,-0.000000,9030.512492
1067.309016,995.924147,-74.020594,9548.656652
1067.309332,842.705048,-518.144159,9696.697840
1067.309648,995.924147,-518.144159,9252.574275
1067.309963,1225.752797,-518.144159,8808.450710
1067.310279,1149.143247,-444.123565,8290.306550
1067.310595,1225.752797,-222.061783,8660.409521
1067.310911,1378.971896,-1110.308913,9252.574275
1067.311227,536.266849,-814.226536,9178.553681
1067.311543,612.876398,-666.185348,10066.800811
1067.311858,612.876398,-1110.308913,9918.759623
1067.312174,383.047749,-740.205942,9548.656652
1067.312490,536.266849,-740.205942,9400.615463
1067.312806,536.266849,-888.247130,9178.553681
1067.313122,919.314598,-1110.308913,9474.636058
1067.313438,1225.752797,-1036.288319,9548.656652
1067.313754,536.266849,-888.247130,9474.636058
1067.314069,612.876398,-666.185348,9622.677246
1067.314385,383.047749,-888.247130,9548.656652
1067.314701,306.438199,-888.247130,9474.636058
1067.315017,689.485948,-370.102971,9252.574275
1067.315333,76.609550,-0.000000,8734.430116
1067.315649,842.705048,-518.144159,9104.533087
1067.315964,612.876398,-962.267725,9844.739029
1067.316280,459.657299,-888.247130,9178.553681
1067.316596,0.000000,-592.164754,9696.697840
1067.316912,306.438199,-1258.350101,10066.800811
1067.317228,306.438199,-962.267725,9992.780217
1067.317544,306.438199,-444.123565,9400.615463
1067.317859,612.876398,-0.000000,8734.430116
1067.318175,459.657299,814.226536,9252.574275
1067.318491,1149.143247,222.061783,8808.450710
1067.318807,612.876398,370.102971,9030.512492
1067.319123,306.438199,296.082377,9400.615463
1067.319439,689.485948,370.102971,9400.615463
1067.319755,612.876398,-74.020594,9252.574275
1067.320070,842.705048,148.041188,9548.656652
1067.320386,689.485948,-74.020594,9104.533087
1067.320702,383.047749,222.061783,8808.450710
1067.321018,229.828649,-0.000000,9474.636058
1067.321334,766.095498,-0.000000,10140.821405
1067.321650,-76.609550,740.205942,9474.636058
1067.321965,-153.219100,740.205942,9622.677246
1067.322281,0.000000,148.041188,10214.842000
1067.322597,76.609550,370.102971,9844.739029
1067.322913,459.657299,296.082377,9178.553681
1067.323229,536.266849,518.144159,9178.553681
1067.323545,919.314598,222.061783,9474.636058
1067.323860,689.485948,814.226536,9622.677246
1067.324176,536.266849,814.226536,9696.697840
1067.324492,0.000000,1036.288319,10436.903782
1067.324808,153.219100,666.185348,9992.780217
1067.325124,459.657299,962.267725,9844.739029
1067.325440,229.828649,740.205942,9548.656652
1067.325756,229.828649,444.123565,9548.656652
1067.326071,612.876398,518.144159,9770.718434
1067.326387,1149.143247,222.061783,9548.656652
1067.326703,766.095498,666.185348,9696.697840
1067.327019,229.828649,666.185348,9992.780217
1067.327335,0.000000,296.082377,9918.759623
1067.327651,0.000000,222.061783,10362.883188
1067.327966,-306.438199,296.082377,9844.739029
1067.328282,-919.314598,74.020594,9844.739029
1067.328598,-383.047749,-0.000000,9696.697840
1067.328914,-153.219100,444.123565,9844.739029
1067.329230,0.000000,-0.000000,9622.677246
1067.329546,-383.047749,-296.082377,9770.718434
1067.329862,-383.047749,-518.144159,9918.759623
1067.330177,0.000000,-888.247130,10140.821405
1067.330493,229.828649,-814.226536,9326.594869
1067.330809,-229.828649,-296.082377,9548.656652
1067.331125,459.657299,222.061783,9030.512492
1067.331441,612.876398,370.102971,8882.471304
1067.331757,383.047749,-0.000000,9104.533087
1067.332072,383.047749,-148.041188,8882.471304
1067.332388,383.047749,-296.082377,9474.636058
1067.332704,76.609550,-370.102971,9326.594869
1067.333020,842.705048,-740.205942,9474.636058
1067.333336,383.047749,-592.164754,9326.594869
1067.333652,153.219100,-370.102971,8734.430116
1067.333967,306.438199,-370.102971,9178.553681
1067.334283,306.438199,-444.123565,9178.553681
1067.334599,153.219100,-222.061783,9474.636058
1067.334915,0.000000,-148.041188,8882.471304
1067.335231,536.266849,-1036.288319,9326.594869
1067.335547,612.876398,-1332.370696,9696.697840
1067.335863,689.485948,-1036.288319,8660.409521
1067.336178,612.876398,-592.164754,8512.368333
1067.336494,919.314598,-1036.288319,9178.553681
1067.336810,1225.752797,-1110.308913,9030.512492
1067.337126,1302.362347,-370.102971,9178.553681
1067.337442,995.924147,-592.164754,8734.430116
1067.337758,766.095498,-888.247130,9474.636058
1067.338073,1225.752797,-1036.288319,9474.636058
1067.338389,919.314598,-814.226536,9178.553681
1067.338705,919.314598,-814.226536,8956.491898
1067.339021,766.095498,-962.267725,9104.533087
1067.339337,1225.752797,-888.247130,8808.450710
1067.339653,689.485948,-1184.329507,9400.615463
1067.339968,612.876398,-814.226536,9992.780217
1067.340284,153.219100,-962.267725,9548.656652
1067.340600,153.219100,-888.247130,10140.821405
1067.340916,76.609550,-1184.329507,10584.944971
1067.341232,153.219100,-740.205942,9770.718434
1067.341548,536.266849,-148.041188,9178.553681
1067.341864,689.485948,-444.123565,9474.636058
1067.342179,766.095498,-666.185348,9992.780217
1067.342495,995.924147,-222.061783,9770.718434
1067.342811,459.657299,-444.123565,9844.739029
1067.343127,919.314598,-518.144159,9918.759623
1067.343443,766.095498,-296.082377,9918.759623
1067.343759,612.876398,-0.000000,9474.636058
1067.344074,689.485948,370.102971,9474.636058
1067.344390,1532.190996,444.123565,9696.697840
1067.344706,995.924147,296.082377,9622.677246
1067.345022,766.095498,592.164754,9548.656652
1067.345338,536.266849,592.164754,9696.697840
1067.345654,459.657299,222.061783,9696.697840
1067.345970,612.876398,-74.020594,9918.759623
1067.346285,766.095498,-74.020594,10140.821405
1067.346601,229.828649,-0.000000,9474.636058
1067.346917,306.438199,518.144159,9252.574275
1067.347233,383.047749,222.061783,9474.636058
1067.347549,383.047749,-222.061783,10066.800811
1067.347865,153.219100,592.164754,9548.656652
1067.348181,0.000000,518.144159,9474.636058
1067.348496,229.828649,370.102971,9474.636058
1067.348812,153.219100,148.041188,9770.718434
1067.349128,459.657299,-0.000000,9178.553681
1067.349444,536.266849,518.144159,8882.471304
1067.349760,1072.533697,-0.000000,8956.491898
1067.350076,919.314598,222.061783,9400.615463
1067.350392,306.438199,666.185348,9252.574275
1067.350707,76.609550,592.164754,9474.636058
1067.351023,0.000000,888.247130,9548.656652
1067.351339,0.000000,444.123565,9548.656652
1067.351655,-306.438199,518.144159,9178.553681
1067.351971,0.000000,222.061783,9252.574275
1067.352287,-306.438199,-0.000000,9326.594869
1067.352603,0.000000,-814.226536,9844.739029
1067.352919,0.000000,-296.082377,9918.759623
1067.353234,-459.657299,148.041188,9622.677246
1067.353550,-536.266849,-370.102971,9844.739029
1067.353866,0.000000,-0.000000,10066.800811
1067.354182,0.000000,518.144159,9030.512492
1067.354498,76.609550,370.102971,8734.430116
1067.354814,383.047749,222.061783,9030.512492
1067.355130,919.314598,-74.020594,9326.594869
1067.355445,459.657299,148.041188,9030.512492
1067.355761,383.047749,592.164754,9104.533087
1067.356077,76.609550,-0.000000,9400.615463
1067.356393,306.438199,-74.020594,9548.656652
1067.356709,0.000000,-148.041188,8734.430116
1067.357025,-153.219100,-0.000000,9400.615463
1067.357341,0.000000,-222.061783,9770.718434
1067.357656,76.609550,-444.123565,9400.615463
1067.357972,306.438199,-592.164754,10066.800811
1067.358288,0.000000,-74.020594,9844.739029
1067.358604,0.000000,-148.041188,9992.780217
1067.358920,229.828649,-444.123565,10362.883188
1067.359236,459.657299,-518.144159,9696.697840
1067.359552,689.485948,-0.000000,9844.739029
1067.359867,842.705048,-0.000000,9104.533087
1067.360183,1302.362347,-296.082377,9104.533087
1067.360499,1532.190996,-370.102971,9178.553681
1067.360815,1072.533697,-0.000000,9030.512492
1067.361131,995.924147,-148.041188,9474.636058
1067.361447,1225.752797,-74.020594,9548.656652
1067.361763,995.924147,-444.123565,9844.739029
1067.362078,1149.143247,-518.144159,9474.636058
1067.362394,689.485948,-740.205942,9104.533087
1067.362710,995.924147,-1184.329507,9622.677246
1067.363026,766.095498,-1332.370696,9992.780217
1067.363342,536.266849,-1406.391290,10362.883188
1067.363658,0.000000,-1184.329507,10140.821405
1067.363974,459.657299,-814.226536,9918.759623
1067.364289,536.266849,-1036.288319,10140.821405
1067.364605,842.705048,-592.164754,9474.636058
1067.364921,842.705048,-518.144159,9104.533087
1067.365237,1762.019645,-666.185348,9548.656652
1067.365553,2298.286494,-666.185348,9400.615463
1067.365869,1455.581446,-0.000000,8956.491898
1067.366185,919.314598,-518.144159,9178.553681
1067.366501,842.705048,-666.185348,9770.718434
1067.366816,536.266849,-0.000000,9844.739029
1067.367132,306.438199,-962.267725,9548.656652
1067.367448,153.219100,-814.226536,9548.656652
1067.367764,0.000000,-814.226536,9474.636058
1067.368080,229.828649,-888.247130,9326.594869
1067.368396,153.219100,-814.226536,9844.739029
1067.368712,-306.438199,-1110.308913,9844.739029
1067.369027,0.000000,-962.267725,9548.656652
1067.369343,153.219100,-1036.288319,9622.677246
1067.369659,76.609550,-666.185348,9474.636058
1067.369975,383.047749,-148.041188,9030.512492
1067.370291,383.047749,-0.000000,8438.347739
1067.370607,689.485948,-0.000000,8808.450710
1067.370923,766.095498,148.041188,8586.388927
1067.371238,612.876398,-74.020594,8660.409521
1067.371554,229.828649,148.041188,9178.553681
1067.371870,229.828649,-296.082377,9178.553681
1067.372186,459.657299,-0.000000,9474.636058
1067.372502,536.266849,-148.041188,9252.574275
1067.372818,383.047749,666.185348,8808.450710
1067.373134,0.000000,-0.000000,9030.512492
1067.373449,306.438199,-0.000000,9252.574275
1067.373765,229.828649,-74.020594,9400.615463
1067.374081,0.000000,148.041188,9622.677246
1067.374397,-153.219100,-0.000000,9474.636058
1067.374713,306.438199,-0.000000,9770.718434
1067.375029,383.047749,-0.000000,9326.594869
1067.375345,383.047749,222.061783,9030.512492
1067.375660,153.219100,962.267725,8882.471304
1067.375976,689.485948,962.267725,9178.553681
1067.376292,689.485948,222.061783,9326.594869
1067.376608,0.000000,962.267725,9548.656652
1067.376924,-229.828649,740.205942,9696.697840
1067.377240,-153.219100,-0.000000,10140.821405
1067.377556,0.000000,-148.041188,10214.842000
1067.377871,0.000000,-222.061783,9548.656652
1067.378187,76.609550,222.061783,9770.718434
1067.378503,306.438199,148.041188,9696.697840
1067.378819,612.876398,148.041188,9770.718434
1067.379135,536.266849,666.185348,9622.677246
1067.379451,536.266849,222.061783,9918.759623
1067.379767,306.438199,296.082377,9844.739029
1067.380082,459.657299,-0.000000,9918.759623
1067.380398,536.266849,444.123565,9696.697840
1067.380714,459.657299,222.061783,9474.636058
1067.381030,0.000000,666.185348,9770.718434
1067.381346,536.266849,296.082377,9474.636058
1067.381662,536.266849,-0.000000,9770.718434
1067.381978,153.219100,296.082377,9992.780217
1067.382294,153.219100,-0.000000,9918.759623
1067.382609,0.000000,-518.144159,9992.780217
1067.382925,0.000000,-444.123565,10510.924376
1067.383241,0.000000,-296.082377,9400.615463
1067.383557,153.219100,-0.000000,9326.594869
1067.383873,0.000000,-444.123565,9918.759623
1067.384189,459.657299,-148.041188,9770.718434
1067.384505,0.000000,-148.041188,9400.615463
1067.384820,459.657299,-222.061783,9622.677246
1067.385136,919.314598,-222.061783,9918.759623
1067.385452,919.314598,-370.102971,9474.636058
1067.385768,536.266849,-74.020594,8956.491898
1067.386084,842.705048,-148.041188,8956.491898
1067.386400,689.485948,-592.164754,9252.574275
1067.386716,612.876398,-370.102971,9104.533087
1067.387031,0.000000,-592.164754,9252.574275
1067.387347,76.609550,-0.000000,10066.800811
1067.387663,-229.828649,-888.247130,9844.739029
1067.387979,153.219100,-888.247130,9770.718434
1067.388295,153.219100,-814.226536,9178.553681
1067.388611,0.000000,-1480.411884,9030.512492
1067.388927,459.657299,-1702.473667,9326.594869
1067.389242,919.314598,-1480.411884,9326.594869
1067.389558,536.266849,-962.267725,9400.615463
1067.389874,612.876398,-666.185348,9030.512492
1067.390190,536.266849,-740.205942,9178.553681
1067.390506,1149.143247,-888.247130,9030.512492
1067.390822,842.705048,-518.144159,8438.347739
1067.391138,1532.190996,-740.205942,8882.471304
1067.391453,1072.533697,-814.226536,8808.450710
1067.391769,1455.581446,-1258.350101,9474.636058
1067.392085,1149.143247,-888.247130,9178.553681
1067.392401,766.095498,-444.123565,9104.533087
1067.392717,0.000000,-740.205942,9252.574275
1067.393033,766.095498,-1036.288319,9918.759623
1067.393349,229.828649,-666.185348,9844.739029
1067.393664,-306.438199,-518.144159,9474.636058
1067.393980,-459.657299,-962.267725,9400.615463
1067.394296,153.219100,-1258.350101,9474.636058
1067.394612,536.266849,-740.205942,9474.636058
1067.394928,766.095498,-592.164754,9622.677246
1067.395244,536.266849,-444.123565,9548.656652
1067.395560,536.266849,-592.164754,9844.739029
1067.395876,612.876398,-370.102971,9548.656652
1067.396191,766.095498,-0.000000,9030.512492
1067.396507,766.095498,222.061783,9474.636058
1067.396823,842.705048,-0.000000,9474.636058
1067.397139,1149.143247,296.082377,9326.594869
1067.397455,842.705048,740.205942,9252.574275
1067.397771,612.876398,740.205942,9252.574275
1067.398087,766.095498,296.082377,9548.656652
1067.398402,766.095498,296.082377,9770.718434
1067.398718,383.047749,518.144159,9474.636058
1067.399034,76.609550,666.185348,9474.636058
1067.399350,383.047749,-222.061783,9622.677246
1067.399666,536.266849,-148.041188,9844.739029
1067.399982,0.000000,-0.000000,9918.759623
1067.400298,-306.438199,-0.000000,9844.739029
1067.400613,0.000000,518.144159,9992.780217
1067.400929,612.876398,-74.020594,10510.924376
1067.401245,536.266849,592.164754,10066.800811
1067.401561,536.266849,1036.288319,9104.533087
1067.401877,459.657299,592.164754,9104.533087
1067.402193,842.705048,518.144159,9178.553681
1067.402509,306.438199,296.082377,9548.656652
1067.402824,612.876398,370.102971,9474.636058
1067.403140,-153.219100,444.123565,9548.656652
1067.403456,-229.828649,148.041188,10140.821405
1067.403772,229.828649,296.082377,9770.718434
1067.404088,0.000000,370.102971,9104.533087
1067.404404,-383.047749,444.123565,9548.656652
1067.404720,0.000000,-148.041188,9400.615463
1067.405035,0.000000,-74.020594,9548.656652
1067.405351,153.219100,-148.041188,10140.821405
1067.405667,-536.266849,-222.061783,9622.677246
1067.405983,-306.438199,-444.123565,9992.780217
1067.406299,0.000000,-0.000000,9696.697840
1067.406615,0.000000,-74.020594,9696.697840
1067.406931,153.219100,666.185348,8734.430116
1067.407246,612.876398,740.205942,8512.368333
1067.407562,536.266849,296.082377,8956.491898
1067.407878,689.485948,-74.020594,9326.594869
1067.408194,459.657299,-148.041188,9474.636058
1067.408510,0.000000,-0.000000,9178.553681
1067.408826,0.000000,-74.020594,9844.739029
1067.409142,229.828649,-444.123565,9770.718434
1067.409458,-536.266849,-0.000000,9326.594869
1067.409773,-229.828649,-444.123565,8956.491898
1067.410089,0.000000,-148.041188,9326.594869
1067.410405,383.047749,-0.000000,9178.553681
1067.410721,0.000000,-444.123565,9252.574275
1067.411037,76.609550,-518.144159,9992.780217
1067.411353,459.657299,-1110.308913,10510.924376
1067.411669,612.876398,-592.164754,9622.677246
1067.411984,689.485948,-0.000000,9178.553681
1067.412300,919.314598,-0.000000,8438.347739
1067.412616,1455.581446,-0.000000,8734.430116
1067.412932,1838.629195,-0.000000,8882.471304
1067.413248,1378.971896,-0.000000,9104.533087
1067.413564,612.876398,-148.041188,9548.656652
1067.413880,689.485948,-296.082377,9696.697840
1067.414195,689.485948,-1036.288319,9770.718434
1067.414511,306.438199,-1184.329507,9326.594869
1067.414827,229.828649,-1110.308913,9326.594869
1067.415143,306.438199,-1406.391290,9696.697840
1067.415459,306.438199,-1702.473667,10214.842000
1067.415775,306.438199,-1406.391290,10140.821405
1067.416091,306.438199,-1480.411884,9918.759623
1067.416406,229.828649,-1332.370696,9918.759623
1067.416722,766.095498,-1110.308913,9992.780217
1067.417038,1225.752797,-814.226536,9548.656652
1067.417354,1302.362347,-296.082377,8808.450710
1067.417670,1225.752797,-518.144159,8586.388927
1067.417986,1685.410096,-518.144159,8808.450710
1067.418302,1302.362347,-666.185348,8882.471304
1067.418617,689.485948,-740.205942,9252.574275
1067.418933,766.095498,-888.247130,9622.677246
1067.419249,1378.971896,-962.267725,9918.759623
1067.419565,459.657299,-1036.288319,9696.697840
1067.419881,76.609550,-296.082377,9474.636058
1067.420197,0.000000,-296.082377,9474.636058
1067.420513,459.657299,-666.185348,9474.636058
1067.420828,1302.362347,-370.102971,9474.636058
1067.421144,612.876398,-444.123565,9844.739029
1067.421460,306.438199,-740.205942,9770.718434
1067.421776,153.219100,-666.185348,9548.656652
1067.422092,306.438199,-518.144159,9844.739029
1067.422408,536.266849,-222.061783,9474.636058
1067.422724,689.485948,740.205942,8438.347739
1067.423040,1149.143247,740.205942,8586.388927
1067.423355,1149.143247,444.123565,8808.450710
1067.423671,919.314598,518.144159,9400.615463
1067.423987,459.657299,-74.020594,9326.594869
1067.424303,383.047749,-0.000000,9400.615463
1067.424619,536.266849,-0.000000,9400.615463
1067.424935,306.438199,-0.000000,9474.636058
1067.425251,76.609550,-0.000000,9474.636058
1067.425566,-612.876398,-444.123565,9326.594869
1067.425882,-306.438199,-370.102971,9326.594869
1067.426198,-459.657299,-74.020594,9918.759623
1067.426514,76.609550,-0.000000,9474.636058
1067.426830,-459.657299,-0.000000,9622.677246
1067.427146,-306.438199,-740.205942,10140.821405
1067.427462,153.219100,-0.000000,9622.677246
1067.427777,0.000000,-0.000000,9252.574275
1067.428093,-229.828649,296.082377,8808.450710
1067.428409,536.266849,814.226536,9104.533087
1067.428725,153.219100,370.102971,9178.553681
1067.429041,0.000000,444.123565,9770.718434
1067.429357,0.000000,370.102971,9548.656652
1067.429673,0.000000,222.061783,9918.759623
1067.429988,612.876398,-0.000000,9918.759623
1067.430304,0.000000,296.082377,9474.636058
1067.430620,459.657299,370.102971,9474.636058
1067.430936,383.047749,370.102971,9622.677246
1067.431252,536.266849,666.185348,9474.636058
1067.431568,459.657299,666.185348,9548.656652
1067.431884,383.047749,222.061783,9622.677246
1067.432199,383.047749,-0.000000,10140.821405
1067.432515,76.609550,-0.000000,10140.821405
1067.432831,153.219100,222.061783,9696.697840
1067.433147,-766.095498,444.123565,9252.574275
1067.433463,306.438199,370.102971,9104.533087
1067.433779,689.485948,296.082377,9178.553681
1067.434095,306.438199,222.061783,9400.615463
1067.434410,153.219100,148.041188,9918.759623
1067.434726,459.657299,-296.082377,10214.842000
1067.435042,306.438199,-0.000000,9696.697840
1067.435358,0.000000,-0.000000,9918.759623
1067.435674,153.219100,-0.000000,9326.594869
1067.435990,536.266849,-148.041188,9178.553681
1067.436306,766.095498,-148.041188,9622.677246
1067.436621,612.876398,-0.000000,9622.677246
1067.436937,76.609550,-0.000000,9474.636058
1067.437253,153.219100,-148.041188,9622.677246
1067.437569,612.876398,-962.267725,10066.800811
1067.437885,689.485948,-1110.308913,9844.739029
1067.438201,689.485948,-370.102971,9474.636058
1067.438517,995.924147,-370.102971,9030.512492
1067.438833,1149.143247,-296.082377,9400.615463
1067.439148,1302.362347,-444.123565,9326.594869
1067.439464,842.705048,-0.000000,9252.574275
1067.439780,612.876398,-222.061783,9474.636058
1067.440096,842.705048,-592.164754,9622.677246
1067.440412,612.876398,-592.164754,9474.636058
1067.440728,306.438199,-1110.308913,9252.574275
1067.441044,229.828649,-1406.391290,9104.533087
1067.441359,842.705048,-1110.308913,8956.491898
1067.441675,766.095498,-1702.473667,9548.656652
1067.441991,383.047749,-1554.432478,9770.718434
1067.442307,383.047749,-1628.453072,9844.739029
1067.442623,153.219100,-1554.432478,10066.800811
1067.442939,536.266849,-1628.453072,9548.656652
1067.443255,766.095498,-1110.308913,9326.594869
1067.443570,919.314598,-814.226536,8808.450710
1067.443886,1149.143247,-666.185348,8586.388927
1067.444202,1915.238745,-740.205942,8586.388927
1067.444518,1302.362347,-518.144159,8660.409521
1067.444834,1072.533697,-222.061783,8956.491898
1067.445150,919.314598,-592.164754,9104.533087
1067.445466,766.095498,-666.185348,9844.739029
1067.445781,536.266849,-814.226536,9474.636058
1067.446097,153.219100,-888.247130,9326.594869
1067.446413,76.609550,-1258.350101,9548.656652
1067.446729,612.876398,-1184.329507,9770.718434
1067.447044,536.266849,-1110.308913,9474.636058
1067.447360,0.000000,-444.123565,9696.697840
1067.447676,306.438199,-148.041188,9622.677246
1067.447992,459.657299,-444.123565,9770.718434
1067.448308,766.095498,-296.082377,9548.656652
1067.448623,612.876398,-0.000000,9178.553681
1067.448939,689.485948,-0.000000,9030.512492
1067.449255,1378.971896,370.102971,9030.512492
1067.449571,995.924147,370.102971,9030.512492
1067.449887,919.314598,888.247130,9252.574275
1067.450202,229.828649,1036.288319,9252.574275
1067.450518,383.047749,592.164754,9622.677246
1067.450834,689.485948,370.102971,10066.800811
1067.451150,229.828649,296.082377,9400.615463
1067.451465,0.000000,-0.000000,9474.636058
1067.451781,0.000000,-148.041188,9474.636058
1067.452097,0.000000,-222.061783,9844.739029
1067.452413,-153.219100,-0.000000,10214.842000
1067.452729,-306.438199,-0.000000,10140.821405
1067.453044,0.000000,-0.000000,10362.883188
1067.453360,229.828649,-0.000000,10288.862594
1067.453676,766.095498,518.144159,9474.636058
1067.453992,383.047749,1110.308913,9178.553681
1067.454307,766.095498,1258.350101,9030.512492
1067.454623,1378.971896,1036.288319,8882.471304
1067.454939,1149.143247,1258.350101,9474.636058
1067.455255,306.438199,1406.391290,9178.553681
1067.455571,0.000000,518.144159,9474.636058
1067.455886,0.000000,-0.000000,10214.842000
1067.456202,-229.828649,-148.041188,10362.883188
1067.456518,-459.657299,222.061783,9696.697840
1067.456834,-153.219100,370.102971,9918.759623
1067.457150,0.000000,444.123565,9844.739029
1067.457465,612.876398,222.061783,9844.739029
1067.457781,306.438199,296.082377,9844.739029
1067.458097,229.828649,-0.000000,9696.697840
1067.458413,459.657299,-74.020594,10066.800811
1067.458728,766.095498,-296.082377,9622.677246
1067.459044,536.266849,-0.000000,9474.636058
1067.459360,689.485948,148.041188,8956.491898
1067.459676,1149.143247,962.267725,8438.347739
1067.459992,1072.533697,1406.391290,8586.388927
1067.460307,612.876398,370.102971,8882.471304
1067.460623,536.266849,518.144159,9474.636058
1067.460939,383.047749,-0.000000,9696.697840
1067.461255,0.000000,-814.226536,9622.677246
1067.461570,-229.828649,-1184.329507,9622.677246
1067.461886,-689.485948,-814.226536,9696.697840
1067.462202,-612.876398,-1184.329507,9548.656652
1067.462518,0.000000,-740.205942,9844.739029
1067.462834,0.000000,-444.123565,9548.656652
1067.463149,-229.828649,-592.164754,9548.656652
1067.463465,459.657299,-370.102971,9918.759623
1067.463781,612.876398,-666.185348,9548.656652
1067.464097,842.705048,-592.164754,9178.553681
1067.464413,459.657299,-222.061783,8660.409521
1067.464728,689.485948,-222.061783,8660.409521
1067.465044,1455.581446,-370.102971,8734.430116
1067.465360,995.924147,-666.185348,8882.471304
1067.465676,459.657299,-296.082377,9030.512492
1067.465991,306.438199,-444.123565,9400.615463
1067.466307,612.876398,-1110.308913,9696.697840
1067.466623,919.314598,-1628.453072,9844.739029
1067.466939,229.828649,-1036.288319,9326.594869
1067.467255,306.438199,-1332.370696,9474.636058
1067.467570,612.876398,-1406.391290,9178.553681
1067.467886,766.095498,-1258.350101,9400.615463
1067.468202,536.266849,-740.205942,8956.491898
1067.468518,383.047749,-1184.329507,9474.636058
1067.468833,383.047749,-1332.370696,9844.739029
1067.469149,689.485948,-1258.350101,9770.718434
1067.469465,842.705048,-1036.288319,9400.615463
1067.469781,536.266849,-592.164754,8586.388927
1067.470097,995.924147,-518.144159,9474.636058
1067.470412,1455.581446,-296.082377,8882.471304
1067.470728,919.314598,-296.082377,9178.553681
1067.471044,612.876398,-296.082377,9178.553681
1067.471360,536.266849,-740.205942,9918.759623
1067.471676,536.266849,-1184.329507,9770.718434
1067.471991,383.047749,-962.267725,9474.636058
1067.472307,153.219100,-444.123565,9474.636058
1067.472623,306.438199,-444.123565,9474.636058
1067.472939,612.876398,-0.000000,9548.656652
1067.473254,536.266849,-0.000000,9474.636058
1067.473570,76.609550,-0.000000,9844.739029
1067.473886,306.438199,-444.123565,10066.800811
1067.474202,536.266849,-888.247130,9844.739029
1067.474518,536.266849,-444.123565,9696.697840
1067.474833,689.485948,-296.082377,9400.615463
1067.475149,766.095498,-0.000000,9178.553681
1067.475465,842.705048,444.123565,9104.533087
1067.475781,612.876398,592.164754,9252.574275
1067.476096,842.705048,888.247130,8808.450710
1067.476412,153.219100,888.247130,9252.574275
1067.476728,459.657299,148.041188,9474.636058
1067.477044,306.438199,-148.041188,9918.759623
1067.477360,-153.219100,-74.020594,9474.636058
1067.477675,0.000000,-222.061783,9622.677246
1067.477991,153.219100,-148.041188,9622.677246
1067.478307,0.000000,518.144159,9622.677246
1067.478623,-153.219100,370.102971,9474.636058
1067.478939,0.000000,518.144159,9770.718434
1067.479254,-536.266849,222.061783,10362.883188
1067.479570,76.609550,296.082377,10066.800811
1067.479886,153.219100,296.082377,9474.636058
1067.480202,306.438199,962.267725,9104.533087
1067.480517,536.266849,370.102971,8956.491898
1067.480833,995.924147,814.226536,9178.553681
1067.481149,1149.143247,962.267725,9252.574275
1067.481465,689.485948,1406.391290,9104.533087
1067.481781,383.047749,1036.288319,9474.636058
1067.482096,383.047749,370.102971,9844.739029
1067.482412,153.219100,444.123565,9696.697840
1067.482728,-229.828649,962.267725,9326.594869
1067.483044,76.609550,444.123565,9474.636058
1067.483359,153.219100,148.041188,9548.656652
1067.483675,229.828649,-0.000000,10066.800811
1067.483991,0.000000,148.041188,9474.636058
1067.484307,-229.828649,-518.144159,10066.800811
1067.484623,0.000000,-740.205942,10510.924376
1067.484938,766.095498,-592.164754,10214.842000
1067.485254,76.609550,-296.082377,9474.636058
1067.485570,459.657299,518.144159,9104.533087
1067.485886,383.047749,444.123565,8734.430116
1067.486201,1378.971896,814.226536,8438.347739
1067.486517,842.705048,518.144159,8734.430116
1067.486833,459.657299,-0.000000,9400.615463
1067.487149,153.219100,-444.123565,9696.697840
1067.487465,229.828649,-592.164754,9622.677246
1067.487780,-229.828649,-518.144159,9474.636058
1067.488096,0.000000,-962.267725,9548.656652
1067.488412,-306.438199,-1480.411884,9696.697840
1067.488728,-153.219100,-888.247130,9770.718434
1067.489044,-383.047749,-962.267725,9844.739029
1067.489359,-306.438199,-370.102971,9992.780217
1067.489675,0.000000,-1702.473667,10288.862594
1067.489991,306.438199,-1036.288319,9844.739029
1067.490307,612.876398,-592.164754,9252.574275
1067.490622,766.095498,-814.226536,8734.430116
1067.490938,1072.533697,-296.082377,8734.430116
1067.491254,1378.971896,-666.185348,9030.512492
1067.491570,1072.533697,-444.123565,8734.430116
1067.491886,612.876398,-222.061783,9178.553681
1067.492201,306.438199,-592.164754,9400.615463
1067.492517,766.095498,-666.185348,9918.759623
1067.492833,459.657299,-1184.329507,9548.656652
1067.493149,153.219100,-1332.370696,9548.656652
1067.493464,306.438199,-1406.391290,9474.636058
1067.493780,459.657299,-1480.411884,9770.718434
1067.494096,612.876398,-1258.350101,9400.615463
1067.494412,689.485948,-1184.329507,9548.656652
1067.494728,459.657299,-1110.308913,9844.739029
1067.495043,1149.143247,-1332.370696,9992.780217
1067.495359,919.314598,-1332.370696,9548.656652
1067.495675,1225.752797,-1258.350101,9178.553681
1067.495991,1378.971896,-666.185348,8586.388927
1067.496307,1532.190996,-518.144159,8512.368333
1067.496622,1915.238745,-518.144159,8734.430116
1067.496938,1838.629195,-74.020594,8956.491898
1067.497254,1225.752797,-444.123565,9178.553681
1067.497570,995.924147,-74.020594,9696.697840
1067.497885,766.095498,-592.164754,9474.636058
1067.498201,459.657299,-740.205942,9770.718434
1067.498517,0.000000,-814.226536,9548.656652
1067.498833,0.000000,-740.205942,9770.718434
1067.499149,229.828649,-666.185348,9770.718434
1067.499464,459.657299,-444.123565,9696.697840
1067.499780,153.219100,-148.041188,9548.656652
1067.500096,383.047749,-518.144159,9770.718434
1067.500412,459.657299,-518.144159,9622.677246
1067.500727,766.095498,-222.061783,9326.594869
1067.501043,995.924147,-0.000000,9030.512492
1067.501359,919.314598,222.061783,8734.430116
1067.501675,612.876398,444.123565,8438.347739
1067.501991,766.095498,-0.000000,8808.450710
1067.502306,76.609550,740.205942,9030.512492
1067.502622,-229.828649,814.226536,9474.636058
1067.502938,0.000000,296.082377,9770.718434
1067.503254,-536.266849,-148.041188,9918.759623
1067.503570,-383.047749,-74.020594,9400.615463
1067.503885,0.000000,148.041188,9770.718434
1067.504201,0.000000,-0.000000,9622.677246
1067.504517,383.047749,-0.000000,10066.800811
1067.504833,153.219100,740.205942,9844.739029
1067.505148,153.219100,1036.288319,9622.677246
1067.505464,-153.219100,1184.329507,9770.718434
1067.505780,306.438199,888.247130,9918.759623
1067.506096,459.657299,814.226536,9918.759623
1067.506412,612.876398,1480.411884,9252.574275
1067.506727,459.657299,1184.329507,8808.450710
1067.507043,919.314598,1036.288319,9400.615463
1067.507359,766.095498,1036.288319,9548.656652
1067.507675,229.828649,962.267725,9548.656652
1067.507990,76.609550,1036.288319,9696.697840
1067.508306,76.609550,444.123565,10140.821405
1067.508622,0.000000,222.061783,10140.821405
1067.508938,0.000000,666.185348,9844.739029
1067.509254,0.000000,148.041188,9474.636058
1067.509569,306.438199,-0.000000,9844.739029
1067.509885,306.438199,-0.000000,9770.718434
1067.510201,76.609550,592.164754,9696.697840
1067.510517,153.219100,-148.041188,10066.800811
1067.510833,76.609550,-74.020594,10140.821405
1067.511148,76.609550,-296.082377,9918.759623
1067.511464,383.047749,444.123565,9474.636058
1067.511780,306.438199,444.123565,9474.636058
1067.512096,459.657299,740.205942,9696.697840
1067.512411,766.095498,370.102971,9252.574275
1067.512727,306.438199,518.144159,9178.553681
1067.513043,0.000000,370.102971,9696.697840
1067.513359,229.828649,222.061783,9918.759623
1067.513675,459.657299,-518.144159,9770.718434
1067.513990,0.000000,-296.082377,9696.697840
1067.514306,-229.828649,-444.123565,9770.718434
1067.514622,-229.828649,-666.185348,9696.697840
1067.514938,76.609550,-370.102971,9400.615463
1067.515253,0.000000,-518.144159,9770.718434
1067.515569,-536.266849,-740.205942,9548.656652
1067.515885,-229.828649,-1184.329507,9844.739029
1067.516201,383.047749,-1110.308913,9844.739029
1067.516517,536.266849,-1258.350101,9474.636058
1067.516832,1072.533697,-518.144159,8734.430116
1067.517148,995.924147,-74.020594,8438.347739
1067.517464,1378.971896,-592.164754,8586.388927
1067.517780,1455.581446,-814.226536,8660.409521
1067.518096,1149.143247,-740.205942,9104.533087
1067.518411,842.705048,-740.205942,8808.450710
1067.518727,689.485948,-888.247130,9474.636058
1067.519043,1149.143247,-1184.329507,9474.636058
1067.519359,766.095498,-666.185348,8438.347739
1067.519674,766.095498,-1036.288319,8586.388927
1067.519990,1072.533697,-1258.350101,9178.553681
1067.520306,995.924147,-1628.453072,9474.636058
1067.520622,536.266849,-1850.514855,9548.656652
1067.520938,383.047749,-1702.473667,9770.718434
1067.521253,689.485948,-2146.597232,10066.800811
1067.521569,842.705048,-1480.411884,9474.636058
1067.521885,919.314598,-1036.288319,9252.574275
1067.522201,689.485948,-888.247130,8734.430116
1067.522516,1149.143247,-814.226536,9252.574275
1067.522832,1838.629195,-1258.350101,8882.471304
1067.523148,1455.581446,-888.247130,8882.471304
1067.523464,1225.752797,-592.164754,8882.471304
1067.523780,919.314598,-1036.288319,9474.636058
1067.524095,1149.143247,-1036.288319,9548.656652
1067.524411,766.095498,-962.267725,9400.615463
1067.524727,229.828649,-444.123565,8882.471304
1067.525043,459.657299,-444.123565,9104.533087
1067.525358,229.828649,-296.082377,9326.594869
1067.525674,306.438199,-814.226536,9548.656652
1067.525990,153.219100,-962.267725,10436.903782
1067.526306,-306.438199,-1110.308913,10288.862594
1067.526622,76.609550,-1036.288319,10214.842000
1067.526937,0.000000,-666.185348,9696.697840
1067.527253,229.828649,-222.061783,9622.677246
1067.527569,306.438199,444.123565,9252.574275
1067.527885,612.876398,518.144159,9474.636058
1067.528201,766.095498,666.185348,9178.553681
1067.528516,383.047749,1184.329507,9400.615463
1067.528832,76.609550,962.267725,9104.533087
1067.529148,229.828649,370.102971,9548.656652
1067.529464,612.876398,222.061783,9992.780217
1067.529779,153.219100,666.185348,9622.677246
1067.530095,0.000000,1036.288319,9474.636058
1067.530411,383.047749,592.164754,9548.656652
1067.530727,153.219100,296.082377,9770.718434
1067.531043,0.000000,518.144159,9844.739029
1067.531358,-612.876398,296.082377,10436.903782
1067.531674,-306.438199,518.144159,10436.903782
1067.531990,76.609550,370.102971,10436.903782
1067.532306,153.219100,666.185348,9474.636058
1067.532621,0.000000,888.247130,9400.615463
1067.532937,766.095498,1258.350101,8956.491898
1067.533253,842.705048,1332.370696,8734.430116
1067.533569,536.266849,1110.308913,8882.471304
1067.533885,612.876398,1184.329507,9326.594869
1067.534200,383.047749,888.247130,9474.636058
1067.534516,0.000000,518.144159,9770.718434
1067.534832,0.000000,666.185348,9844.739029
1067.535148,-383.047749,370.102971,9400.615463
1067.535464,-459.657299,74.020594,9474.636058
1067.535779,153.219100,148.041188,9400.615463
1067.536095,306.438199,222.061783,9474.636058
1067.536411,0.000000,518.144159,10066.800811
1067.536727,-153.219100,296.082377,10214.842000
1067.537042,76.609550,-74.020594,10140.821405
1067.537358,306.438199,-0.000000,9474.636058
1067.537674,306.438199,370.102971,9030.512492
1067.537990,536.266849,148.041188,9326.594869
1067.538306,842.705048,444.123565,8882.471304
1067.538621,766.095498,444.123565,9252.574275
1067.538937,536.266849,222.061783,9474.636058
1067.539253,76.609550,666.185348,9474.636058
1067.539569,383.047749,444.123565,9474.636058
1067.539884,153.219100,-0.000000,9696.697840
1067.540200,153.219100,-0.000000,9252.574275
1067.540516,-153.219100,-148.041188,9178.553681
1067.540832,229.828649,-1110.308913,9548.656652
1067.541148,229.828649,-1184.329507,9548.656652
1067.541463,76.609550,-740.205942,9474.636058
1067.541779,-153.219100,-592.164754,9400.615463
1067.542095,229.828649,-1036.288319,9992.780217
1067.542411,459.657299,-592.164754,9992.780217
1067.542727,995.924147,-740.205942,9326.594869
1067.543042,536.266849,-1258.350101,8956.491898
1067.543358,995.924147,-1110.308913,9030.512492
1067.543674,1302.362347,-1036.288319,8734.430116
1067.543990,1991.848295,-1110.308913,9474.636058
1067.544305,919.314598,-370.102971,9178.553681
1067.544621,689.485948,-518.144159,9104.533087
1067.544937,536.266849,-888.247130,9474.636058
1067.545253,842.705048,-1184.329507,9770.718434
1067.545569,689.485948,-1036.288319,9252.574275
1067.545884,919.314598,-1036.288319,9104.533087
1067.546200,1302.362347,-1480.411884,9474.636058
1067.546516,1149.143247,-1406.391290,9400.615463
1067.546832,1149.143247,-1258.350101,9622.677246
1067.547148,459.657299,-1776.494261,9548.656652
1067.547463,919.314598,-1332.370696,9918.759623
1067.547779,1072.533697,-740.205942,9178.553681
1067.548095,612.876398,-814.226536,9252.574275
1067.548411,919.314598,-740.205942,9030.512492
1067.548727,1378.971896,-1332.370696,9030.512492
1067.549042,1072.533697,-1332.370696,9104.533087
1067.549358,1072.533697,-1110.308913,9474.636058
1067.549674,459.657299,-814.226536,9548.656652
1067.549990,459.657299,-962.267725,9696.697840
1067.550306,689.485948,-962.267725,9992.780217
1067.550621,306.438199,-1036.288319,9400.615463
1067.550937,0.000000,-592.164754,9178.553681
1067.551253,153.219100,-962.267725,9252.574275
1067.551569,536.266849,-1036.288319,9474.636058
1067.551885,919.314598,-592.164754,9622.677246
1067.552201,76.609550,-666.185348,9696.697840
1067.552516,383.047749,-518.144159,9400.615463
1067.552832,536.266849,-296.082377,9326.594869
1067.553148,536.266849,-74.020594,9178.553681
1067.553464,766.095498,-0.000000,9104.533087
1067.553780,459.657299,222.061783,8882.471304
1067.554095,536.266849,370.102971,9104.533087
1067.554411,612.876398,148.041188,9548.656652
1067.554727,306.438199,-0.000000,9178.553681
1067.555043,76.609550,444.123565,9548.656652
1067.555359,383.047749,444.123565,9474.636058
1067.555675,459.657299,296.082377,9030.512492
1067.555990,0.000000,740.205942,9104.533087
1067.556306,-153.219100,370.102971,9178.553681
1067.556622,0.000000,518.144159,9548.656652
1067.556938,0.000000,518.144159,9474.636058
1067.557254,0.000000,592.164754,9474.636058
1067.557569,-306.438199,666.185348,9622.677246
1067.557885,0.000000,592.164754,9918.759623
1067.558201,0.000000,296.082377,10140.821405
1067.558517,76.609550,666.185348,9400.615463
1067.558833,76.609550,592.164754,9326.594869
1067.559149,459.657299,888.247130,9252.574275
1067.559464,1072.533697,888.247130,9178.553681
1067.559780,689.485948,1036.288319,9252.574275
1067.560096,459.657299,1184.329507,9548.656652
1067.560412,459.657299,1184.329507,9622.677246
1067.560728,459.657299,962.267725,9696.697840
1067.561043,76.609550,814.226536,9696.697840
1067.561359,-229.828649,666.185348,9474.636058
1067.561675,0.000000,370.102971,9918.759623
1067.561991,153.219100,222.061783,10066.800811
1067.562307,229.828649,518.144159,9474.636058
1067.562622,-229.828649,592.164754,9770.718434
1067.562938,-689.485948,-222.061783,10510.924376
1067.563254,-153.219100,-148.041188,10658.965565
1067.563570,0.000000,-0.000000,10288.862594
1067.563886,0.000000,444.123565,9696.697840
1067.564202,306.438199,-0.000000,9400.615463
1067.564517,919.314598,-0.000000,9252.574275
1067.564833,995.924147,-0.000000,9548.656652
1067.565149,383.047749,-0.000000,9548.656652
1067.565465,383.047749,-0.000000,9696.697840
1067.565781,689.485948,222.061783,9474.636058
1067.566096,536.266849,-148.041188,9548.656652
1067.566412,459.657299,-74.020594,9178.553681
1067.566728,306.438199,-222.061783,9178.553681
1067.567044,306.438199,-444.123565,8882.471304
1067.567360,459.657299,-592.164754,9474.636058
1067.567676,0.000000,-592.164754,9770.718434
1067.567991,-153.219100,-1406.391290,9252.574275
1067.568307,-383.047749,-962.267725,10288.862594
1067.568623,0.000000,-1332.370696,10658.965565
1067.568939,459.657299,-1480.411884,9474.636058
1067.569255,0.000000,-814.226536,8956.491898
1067.569570,76.609550,-888.247130,9030.512492
1067.569886,842.705048,-962.267725,9474.636058
1067.570202,1072.533697,-444.123565,9030.512492
1067.570518,306.438199,-148.041188,8364.327145
1067.570834,689.485948,-444.123565,9696.697840
1067.571149,459.657299,-1258.350101,9548.656652
1067.571465,766.095498,-1332.370696,9548.656652
1067.571781,536.266849,-1406.391290,9030.512492
1067.572097,766.095498,-1480.411884,8660.409521
1067.572413,1532.190996,-1110.308913,9104.533087
1067.572729,1378.971896,-962.267725,8956.491898
1067.573044,766.095498,-1110.308913,8808.450710
1067.573360,689.485948,-1184.329507,9400.615463
1067.573676,766.095498,-1258.350101,9474.636058
1067.573992,842.705048,-1702.473667,9770.718434
1067.574308,842.705048,-1480.411884,9474.636058
1067.574623,1225.752797,-1702.473667,8956.491898
1067.574939,1225.752797,-1406.391290,8734.430116
1067.575255,1225.752797,-1184.329507,9326.594869
1067.575571,1072.533697,-1406.391290,9178.553681
1067.575887,612.876398,-592.164754,9400.615463
1067.576203,842.705048,-814.226536,9104.533087
1067.576518,842.705048,-1110.308913,9178.553681
1067.576834,766.095498,-444.123565,9844.739029
1067.577150,689.485948,-444.123565,8808.450710
1067.577466,76.609550,-592.164754,9252.574275
1067.577782,459.657299,-814.226536,9474.636058
1067.578097,153.219100,-814.226536,9474.636058
1067.578413,0.000000,-370.102971,9770.718434
1067.578729,0.000000,-592.164754,10066.800811
1067.579045,0.000000,-518.144159,10066.800811
1067.579361,536.266849,-74.020594,9622.677246
1067.579676,229.828649,740.205942,9030.512492
1067.579992,383.047749,666.185348,8956.491898
1067.580308,76.609550,222.061783,9252.574275
1067.580624,689.485948,814.226536,9104.533087
1067.580940,229.828649,666.185348,9474.636058
1067.581256,76.609550,962.267725,9548.656652
1067.581571,229.828649,592.164754,9770.718434
1067.581887,76.609550,148.041188,9918.759623
1067.582203,0.000000,-0.000000,9992.780217
1067.582519,0.000000,370.102971,9474.636058
1067.582835,76.609550,740.205942,9622.677246
1067.583150,383.047749,444.123565,9474.636058
1067.583466,-383.047749,1110.308913,10066.800811
1067.583782,76.609550,962.267725,10288.862594
1067.584098,76.609550,888.247130,9770.718434
1067.584414,383.047749,740.205942,10066.800811
1067.584730,842.705048,518.144159,9696.697840
1067.585045,306.438199,962.267725,9326.594869
1067.585361,383.047749,962.267725,9474.636058
1067.585677,995.924147,666.185348,9474.636058
1067.585993,612.876398,1110.308913,9548.656652
1067.586309,76.609550,1554.432478,9770.718434
1067.586624,459.657299,1258.350101,9770.718434
1067.586940,153.219100,370.102971,10214.842000
1067.587256,76.609550,666.185348,9844.739029
1067.587572,0.000000,888.247130,9400.615463
1067.587888,-76.609550,370.102971,9474.636058
1067.588203,459.657299,-0.000000,9548.656652
1067.588519,153.219100,-0.000000,9548.656652
1067.588835,-383.047749,-0.000000,10214.842000
1067.589151,0.000000,-0.000000,10066.800811
1067.589467,306.438199,-0.000000,9548.656652
1067.589783,536.266849,518.144159,9474.636058
1067.590098,153.219100,518.144159,8734.430116
1067.590414,459.657299,-0.000000,9030.512492
1067.590730,842.705048,-0.000000,8882.471304
1067.591046,612.876398,-740.205942,9474.636058
1067.591362,612.876398,-74.020594,9326.594869
1067.591677,153.219100,-0.000000,9030.512492
1067.591993,76.609550,-74.020594,9622.677246
1067.592309,-383.047749,-888.247130,9770.718434
1067.592625,-153.219100,-1110.308913,9622.677246
1067.592941,0.000000,-592.164754,9178.553681
1067.593257,-76.609550,-592.164754,9178.553681
1067.593572,153.219100,-740.205942,9622.677246
1067.593888,153.219100,-518.144159,9622.677246
1067.594204,383.047749,-444.123565,9770.718434
1067.594520,459.657299,-518.144159,9326.594869
1067.594836,536.266849,-444.123565,9326.594869
1067.595151,459.657299,-888.247130,9178.553681
1067.595467,229.828649,-1110.308913,9030.512492
1067.595783,766.095498,-962.267725,8956.491898
1067.596099,1455.581446,-666.185348,8808.450710
1067.596415,1302.362347,-666.185348,9030.512492
1067.596730,1072.533697,-666.185348,9696.697840
1067.597046,612.876398,-962.267725,9474.636058
1067.597362,612.876398,-1406.391290,9474.636058
1067.597678,1378.971896,-1184.329507,9474.636058
1067.597994,1149.143247,-1406.391290,8882.471304
1067.598310,1378.971896,-1258.350101,9400.615463
1067.598625,1149.143247,-1554.432478,9400.615463
1067.598941,919.314598,-1776.494261,9548.656652
1067.599257,766.095498,-814.226536,9622.677246
1067.599573,383.047749,-888.247130,9326.594869
1067.599889,306.438199,-1110.308913,9844.739029
1067.600204,1072.533697,-1924.535449,9844.739029
1067.600520,536.266849,-1554.432478,9326.594869
1067.600836,919.314598,-888.247130,9326.594869
1067.601152,919.314598,-1258.350101,9474.636058
1067.601468,919.314598,-962.267725,9474.636058
1067.601784,995.924147,-370.102971,9252.574275
1067.602099,689.485948,-148.041188,9104.533087
1067.602415,919.314598,-370.102971,9474.636058
1067.602731,766.095498,-444.123565,9474.636058
1067.603047,612.876398,-1036.288319,9696.697840
1067.603363,306.438199,-592.164754,9326.594869
1067.603678,612.876398,-740.205942,9252.574275
1067.603994,612.876398,-370.102971,9474.636058
1067.604310,536.266849,148.041188,9548.656652
1067.604626,0.000000,370.102971,9474.636058
1067.604942,0.000000,-0.000000,9770.718434
1067.605257,0.000000,-296.082377,10140.821405
1067.605573,0.000000,-296.082377,9548.656652
1067.605889,-229.828649,-0.000000,9696.697840
1067.606205,229.828649,74.020594,9548.656652
1067.606521,766.095498,296.082377,9178.553681
1067.606837,383.047749,740.205942,9326.594869
1067.607152,153.219100,814.226536,9474.636058
1067.607468,0.000000,666.185348,9400.615463
1067.607784,383.047749,222.061783,10214.842000
1067.608100,689.485948,592.164754,9696.697840
1067.608416,0.000000,370.102971,9252.574275
1067.608731,229.828649,518.144159,9474.636058
1067.609047,306.438199,666.185348,9474.636058
1067.609363,842.705048,666.185348,9844.739029
1067.609679,0.000000,1184.329507,9326.594869
1067.609995,-153.219100,1480.411884,9474.636058
1067.610311,76.609550,666.185348,9844.739029
1067.610626,153.219100,74.020594,9844.739029
1067.610942,229.828649,-0.000000,9844.739029
1067.611258,0.000000,-0.000000,9474.636058
1067.611574,459.657299,518.144159,9548.656652
1067.611890,459.657299,1036.288319,9622.677246
1067.612205,306.438199,1258.350101,9400.615463
1067.612521,306.438199,1406.391290,9104.533087
1067.612837,0.000000,1332.370696,9400.615463
1067.613153,0.000000,666.185348,9992.780217
1067.613469,229.828649,222.061783,9548.656652
1067.613784,76.609550,370.102971,9178.553681
1067.614100,0.000000,518.144159,9104.533087
1067.614416,306.438199,-222.061783,9474.636058
1067.614732,153.219100,-148.041188,9696.697840
1067.615048,-153.219100,-0.000000,10066.800811
1067.615364,0.000000,370.102971,10140.821405
1067.615679,0.000000,-74.020594,10140.821405
1067.615995,153.219100,-222.061783,9622.677246
1067.616311,229.828649,-0.000000,9474.636058
1067.616627,536.266849,-0.000000,9844.739029
1067.616943,842.705048,222.061783,9548.656652
1067.617258,995.924147,666.185348,8956.491898
1067.617574,766.095498,962.267725,8956.491898
1067.617890,459.657299,592.164754,9326.594869
1067.618206,1149.143247,-222.061783,9548.656652
1067.618522,842.705048,-814.226536,9992.780217
1067.618838,229.828649,-1258.350101,9770.718434
1067.619153,0.000000,-666.185348,9400.615463
1067.619469,0.000000,-814.226536,9474.636058
1067.619785,612.876398,-1258.350101,9992.780217
1067.620101,306.438199,-370.102971,9622.677246
1067.620417,153.219100,-296.082377,9548.656652
1067.620732,229.828649,-666.185348,9622.677246
1067.621048,612.876398,-1554.432478,9770.718434
1067.621364,612.876398,-1480.411884,9474.636058
1067.621680,306.438199,-1110.308913,8882.471304
1067.621996,995.924147,-1036.288319,8882.471304
1067.622311,919.314598,-740.205942,9104.533087
1067.622627,919.314598,-444.123565,9030.512492
1067.622943,612.876398,-592.164754,9474.636058
1067.623259,612.876398,-518.144159,9400.615463
1067.623575,919.314598,-1258.350101,9474.636058
1067.623891,919.314598,-1332.370696,9548.656652
1067.624206,229.828649,-1110.308913,8882.471304
1067.624522,1072.533697,-1332.370696,9178.553681
1067.624838,919.314598,-1702.473667,9252.574275
1067.625154,1149.143247,-1110.308913,9400.615463
1067.625470,536.266849,-888.247130,9104.533087
1067.625785,689.485948,-1110.308913,9918.759623
1067.626101,612.876398,-1258.350101,10066.800811
1067.626417,995.924147,-1332.370696,9178.553681
1067.626733,383.047749,-1110.308913,8734.430116
1067.627049,689.485948,-1110.308913,9178.553681
1067.627365,1762.019645,-962.267725,9252.574275
1067.627680,1149.143247,-592.164754,9030.512492
1067.627996,153.219100,-592.164754,8956.491898
1067.628312,383.047749,-1036.288319,9178.553681
1067.628628,306.438199,-888.247130,9622.677246
1067.628944,76.609550,-1258.350101,9696.697840
1067.629259,0.000000,-1184.329507,9770.718434
1067.629575,0.000000,-1036.288319,9178.553681
1067.629891,229.828649,-888.247130,9326.594869
1067.630207,689.485948,-888.247130,9474.636058
1067.630523,995.924147,-592.164754,9252.574275
1067.630838,995.924147,-444.123565,9030.512492
1067.631154,229.828649,-370.102971,9548.656652
1067.631470,612.876398,-148.041188,9474.636058
1067.631786,536.266849,-222.061783,9178.553681
1067.632102,229.828649,222.061783,9104.533087
1067.632418,612.876398,222.061783,9104.533087
1067.632733,919.314598,-0.000000,9252.574275
1067.633049,612.876398,296.082377,9400.615463
1067.633365,0.000000,740.205942,9622.677246
1067.633681,-306.438199,518.144159,9622.677246
1067.633997,153.219100,518.144159,9918.759623
1067.634312,229.828649,-0.000000,10214.842000
1067.634628,153.219100,148.041188,9696.697840
1067.634944,-306.438199,740.205942,8882.471304
1067.635260,76.609550,518.144159,9400.615463
1067.635576,383.047749,222.061783,9992.780217
1067.635892,0.000000,1258.350101,9548.656652
1067.636207,0.000000,1406.391290,9696.697840
1067.636523,0.000000,592.164754,9918.759623
1067.636839,459.657299,518.144159,10288.862594
1067.637155,536.266849,370.102971,9918.759623
1067.637471,612.876398,814.226536,9326.594869
1067.637786,536.266849,1036.288319,9770.718434
1067.638102,766.095498,1036.288319,9770.718434
1067.638418,689.485948,1332.370696,9474.636058
1067.638734,0.000000,1776.494261,9548.656652
1067.639050,0.000000,1554.432478,9992.780217
1067.639365,229.828649,740.205942,10066.800811
1067.639681,0.000000,444.123565,10066.800811
1067.639997,306.438199,666.185348,9918.759623
1067.640313,383.047749,740.205942,9474.636058
1067.640629,612.876398,-0.000000,9474.636058
1067.640945,459.657299,148.041188,9548.656652
1067.641260,153.219100,592.164754,9696.697840
1067.641576,229.828649,-0.000000,10140.821405
1067.641892,76.609550,-222.061783,9992.780217
1067.642208,459.657299,-0.000000,9622.677246
1067.642524,153.219100,222.061783,9030.512492
1067.642839,306.438199,-74.020594,9252.574275
1067.643155,459.657299,-148.041188,9178.553681
1067.643471,536.266849,-666.185348,9622.677246
1067.643787,229.828649,-444.123565,9548.656652
1067.644103,-306.438199,-444.123565,9474.636058
1067.644419,76.609550,-444.123565,9548.656652
1067.644734,229.828649,-592.164754,9696.697840
1067.645050,76.609550,-444.123565,9548.656652
1067.645366,-229.828649,-592.164754,9030.512492
1067.645682,0.000000,-1184.329507,9326.594869
1067.645998,612.876398,-1258.350101,9474.636058
1067.646313,153.219100,-740.205942,9104.533087
1067.646629,76.609550,-1036.288319,9622.677246
1067.646945,229.828649,-1036.288319,9474.636058
1067.647261,612.876398,-1480.411884,9622.677246
1067.647577,842.705048,-888.247130,9474.636058
1067.647892,612.876398,-592.164754,8882.471304
1067.648207,995.924147,-666.185348,8808.450710
1067.648523,1225.752797,-518.144159,8956.491898
1067.648839,1225.752797,-592.164754,8956.491898
1067.649155,919.314598,-814.226536,9252.574275
1067.649471,766.095498,-1036.288319,9474.636058
1067.649787,842.705048,-1110.308913,9696.697840
1067.650103,919.314598,-1258.350101,9104.533087
1067.650419,766.095498,-1036.288319,8808.450710
1067.650735,842.705048,-1258.350101,9030.512492
1067.651051,995.924147,-1406.391290,9770.718434
1067.651366,995.924147,-1628.453072,9548.656652
1067.651682,306.438199,-962.267725,9252.574275
1067.651998,306.438199,-1332.370696,9696.697840
1067.652314,229.828649,-1776.494261,9918.759623
1067.652630,0.000000,-1554.432478,9992.780217
1067.652946,0.000000,-1036.288319,9030.512492
1067.653262,689.485948,-740.205942,9030.512492
1067.653578,536.266849,-592.164754,8882.471304
1067.653894,995.924147,-740.205942,9400.615463
1067.654210,459.657299,-370.102971,9030.512492
1067.654525,229.828649,-814.226536,9548.656652
1067.654841,0.000000,-888.247130,9696.697840
1067.655157,306.438199,-814.226536,9918.759623
1067.655473,76.609550,-592.164754,9400.615463
1067.655789,229.828649,-666.185348,9326.594869
1067.656105,383.047749,-592.164754,9474.636058
1067.656421,842.705048,-370.102971,9622.677246
1067.656737,536.266849,296.082377,9918.759623
1067.657053,76.609550,296.082377,9400.615463
1067.657369,306.438199,296.082377,9918.759623
1067.657684,689.485948,-0.000000,9918.759623
1067.658000,306.438199,-0.000000,9696.697840
1067.658316,153.219100,370.102971,9326.594869
1067.658632,229.828649,296.082377,9178.553681
1067.658948,536.266849,370.102971,9104.533087
1067.659264,995.924147,-148.041188,9622.677246
1067.659580,0.000000,444.123565,9400.615463
1067.659896,76.609550,666.185348,9696.697840
1067.660212,153.219100,148.041188,9992.780217
1067.660528,995.924147,296.082377,9696.697840
1067.660843,229.828649,518.144159,9622.677246
1067.661159,153.219100,888.247130,9104.533087
1067.661475,536.266849,814.226536,9400.615463
1067.661791,842.705048,592.164754,9400.615463
1067.662107,612.876398,1184.329507,9622.677246
1067.662423,306.438199,518.144159,9844.739029
1067.662739,0.000000,666.185348,9844.739029
1067.663055,612.876398,740.205942,9548.656652
1067.663371,459.657299,740.205942,9178.553681
1067.663687,612.876398,1258.350101,9548.656652
1067.664002,306.438199,1036.288319,9252.574275
1067.664318,689.485948,1036.288319,9474.636058
1067.664634,153.219100,1258.350101,9326.594869
1067.664950,-383.047749,1332.370696,9474.636058
1067.665266,0.000000,814.226536,9844.739029
1067.665582,153.219100,296.082377,9918.759623
1067.665898,-229.828649,-0.000000,9992.780217
1067.666214,-612.876398,296.082377,9548.656652
1067.666530,-612.876398,-0.000000,9474.636058
1067.666846,612.876398,-0.000000,10658.965565
1067.667162,153.219100,296.082377,9400.615463
1067.667477,76.609550,518.144159,9548.656652
1067.667793,0.000000,-0.000000,9992.780217
1067.668109,229.828649,-0.000000,10066.800811
1067.668425,383.047749,148.041188,9918.759623
1067.668741,229.828649,592.164754,8956.491898
1067.669057,459.657299,148.041188,9104.533087
1067.669373,842.705048,-74.020594,9252.574275
1067.669689,766.095498,222.061783,9252.574275
1067.670005,153.219100,-0.000000,9474.636058
1067.670321,0.000000,-0.000000,9696.697840
1067.670636,153.219100,-592.164754,9622.677246
1067.670952,-153.219100,-444.123565,9622.677246
1067.671268,153.219100,-888.247130,9548.656652
1067.671584,76.609550,-962.267725,9844.739029
1067.671900,-229.828649,-1406.391290,9696.697840
1067.672216,76.609550,-1702.473667,9992.780217
1067.672532,0.000000,-1036.288319,9474.636058
1067.672848,76.609550,-1036.288319,9770.718434
1067.673164,536.266849,-1258.350101,10214.842000
1067.673480,536.266849,-814.226536,9548.656652
1067.673795,1072.533697,-962.267725,9104.533087
1067.674111,919.314598,-518.144159,8586.388927
1067.674427,1685.410096,-814.226536,9178.553681
1067.674743,1608.800546,-518.144159,8734.430116
1067.675059,1378.971896,-370.102971,8438.347739
1067.675375,919.314598,-370.102971,9400.615463
1067.675691,612.876398,-666.185348,8956.491898
1067.676007,1072.533697,-962.267725,9474.636058
1067.676323,689.485948,-1554.432478,9252.574275
1067.676639,0.000000,-1702.473667,9326.594869
1067.676954,306.438199,-2072.576638,9844.739029
1067.677270,383.047749,-2146.597232,9622.677246
1067.677586,536.266849,-1554.432478,9770.718434
1067.677902,229.828649,-1480.411884,9326.594869
1067.678218,76.609550,-1480.411884,9548.656652
1067.678534,306.438199,-1406.391290,10140.821405
1067.678850,842.705048,-1110.308913,9474.636058
1067.679166,1532.190996,-1036.288319,9178.553681
1067.679482,1378.971896,-592.164754,8660.409521
1067.679798,1762.019645,-666.185348,8882.471304
1067.680113,1532.190996,-518.144159,8808.450710
1067.680429,1378.971896,-370.102971,8808.450710
1067.680745,766.095498,-222.061783,9474.636058
1067.681061,612.876398,-518.144159,9474.636058
1067.681377,842.705048,-666.185348,9548.656652
1067.681693,383.047749,-444.123565,9400.615463
1067.682009,383.047749,-962.267725,9622.677246
1067.682325,919.314598,-592.164754,9770.718434
1067.682641,766.095498,-666.185348,9622.677246
1067.682957,459.657299,-74.020594,9622.677246
1067.683273,306.438199,-148.041188,9696.697840
1067.683588,536.266849,-0.000000,10288.862594
1067.683904,766.095498,-222.061783,10436.903782
1067.684220,612.876398,-148.041188,9474.636058
1067.684536,842.705048,518.144159,9030.512492
1067.684852,689.485948,370.102971,8956.491898
1067.685168,919.314598,518.144159,9326.594869
1067.685484,919.314598,888.247130,9252.574275
1067.685800,153.219100,1258.350101,9252.574275
1067.686116,229.828649,1110.308913,9474.636058
1067.686432,459.657299,518.144159,9696.697840
1067.686747,229.828649,296.082377,9844.739029
1067.687063,76.609550,666.185348,9622.677246
1067.687379,0.000000,444.123565,9474.636058
1067.687695,76.609550,-0.000000,9548.656652
1067.688011,0.000000,444.123565,9474.636058
1067.688327,-536.266849,518.144159,8956.491898
1067.688643,-612.876398,888.247130,9918.759623
1067.688959,-612.876398,888.247130,9844.739029
1067.689275,-612.876398,592.164754,10066.800811
1067.689591,-383.047749,518.144159,9474.636058
1067.689906,-229.828649,296.082377,9400.615463
1067.690222,0.000000,592.164754,9474.636058
1067.690538,76.609550,518.144159,9548.656652
1067.690854,-153.219100,1036.288319,9548.656652
1067.691170,-306.438199,1480.411884,9770.718434
1067.691486,0.000000,1258.350101,9622.677246
1067.691802,-153.219100,740.205942,9918.759623
1067.692118,76.609550,666.185348,9474.636058
1067.692434,0.000000,222.061783,9178.553681
1067.692750,0.000000,-148.041188,9696.697840
1067.693065,612.876398,296.082377,9844.739029
1067.693381,459.657299,370.102971,9622.677246
1067.693697,153.219100,518.144159,9548.656652
1067.694013,76.609550,148.041188,9918.759623
1067.694329,153.219100,-444.123565,10436.903782
1067.694645,306.438199,-148.041188,9548.656652
1067.694961,306.438199,370.102971,9696.697840
1067.695277,689.485948,-0.000000,9474.636058
1067.695593,1072.533697,444.123565,8882.471304
1067.695909,1072.533697,666.185348,9030.512492
1067.696224,306.438199,592.164754,9326.594869
1067.696540,383.047749,-0.000000,9770.718434
1067.696856,383.047749,-592.164754,10288.862594
1067.697172,536.266849,-962.267725,9918.759623
1067.697488,306.438199,-740.205942,9400.615463
1067.697804,459.657299,-1110.308913,9326.594869
1067.698120,1149.143247,-814.226536,9622.677246
1067.698436,995.924147,-518.144159,9548.656652
1067.698752,1149.143247,-296.082377,9400.615463
1067.699068,766.095498,-666.185348,9474.636058
1067.699383,766.095498,-814.226536,9918.759623
1067.699699,995.924147,-444.123565,9622.677246
1067.700015,842.705048,-666.185348,9178.553681
1067.700331,1455.581446,-962.267725,9178.553681
1067.700647,919.314598,-962.267725,9400.615463
1067.700963,1532.190996,-666.185348,9474.636058
1067.701279,1225.752797,-592.164754,8956.491898
1067.701595,995.924147,-296.082377,9030.512492
1067.701911,612.876398,-1036.288319,9548.656652
1067.702227,1149.143247,-1554.432478,10066.800811
1067.702543,1072.533697,-1406.391290,9178.553681
1067.702858,383.047749,-1406.391290,9104.533087
1067.703174,612.876398,-1776.494261,9474.636058
1067.703490,842.705048,-1628.453072,9400.615463
1067.703806,1149.143247,-740.205942,8956.491898
1067.704122,766.095498,-740.205942,9030.512492
1067.704438,612.876398,-962.267725,9548.656652
1067.704754,1072.533697,-1554.432478,9474.636058
1067.705070,612.876398,-1628.453072,9622.677246
1067.705386,536.266849,-1850.514855,9548.656652
1067.705702,919.314598,-1184.329507,8882.471304
1067.706017,842.705048,-888.247130,8808.450710
1067.706333,995.924147,-962.267725,9030.512492
1067.706649,383.047749,-444.123565,9474.636058
1067.706965,229.828649,-0.000000,9474.636058
1067.707281,0.000000,-296.082377,9326.594869
1067.707597,76.609550,-814.226536,9548.656652
1067.707913,612.876398,-592.164754,9844.739029
1067.708229,76.609550,-740.205942,9400.615463
1067.708545,383.047749,-1036.288319,9178.553681
1067.708861,459.657299,-370.102971,9622.677246
1067.709176,76.609550,-148.041188,9548.656652
1067.709492,459.657299,-148.041188,9622.677246
1067.709808,153.219100,-0.000000,9548.656652
1067.710124,229.828649,-74.020594,9918.759623
1067.710440,536.266849,-296.082377,9474.636058
1067.710756,306.438199,-0.000000,8882.471304
1067.711072,459.657299,296.082377,9178.553681
1067.711388,766.095498,444.123565,9326.594869
1067.711704,306.438199,888.247130,9104.533087
1067.712020,0.000000,888.247130,9178.553681
1067.712335,-612.876398,740.205942,9474.636058
1067.712651,-612.876398,-148.041188,9770.718434
1067.712967,-612.876398,-296.082377,10214.842000
1067.713283,-383.047749,370.102971,9770.718434
1067.713599,-459.657299,-0.000000,9696.697840
1067.713915,-383.047749,-0.000000,9770.718434
1067.714231,0.000000,296.082377,9992.780217
1067.714547,0.000000,518.144159,9696.697840
1067.714863,0.000000,740.205942,9844.739029
1067.715179,76.609550,888.247130,9844.739029
1067.715494,995.924147,296.082377,9400.615463
1067.715810,306.438199,666.185348,9622.677246
1067.716126,842.705048,1184.329507,8956.491898
1067.716442,1225.752797,1184.329507,8660.409521
1067.716758,1532.190996,1110.308913,9252.574275
1067.717074,1072.533697,1628.453072,9400.615463
1067.717390,536.266849,1480.411884,9474.636058
1067.717706,229.828649,888.247130,9548.656652
1067.718022,229.828649,592.164754,10214.842000
1067.718338,76.609550,740.205942,9992.780217
1067.718653,-383.047749,370.102971,9622.677246
1067.718969,0.000000,-0.000000,9918.759623
1067.719285,76.609550,-74.020594,10288.862594
1067.719601,229.828649,444.123565,9770.718434
1067.719917,0.000000,592.164754,9770.718434
1067.720233,76.609550,296.082377,10732.986159
1067.720549,689.485948,-0.000000,9992.780217
1067.720865,612.876398,222.061783,9696.697840
1067.721181,842.705048,296.082377,9252.574275
1067.721497,842.705048,-0.000000,9474.636058
1067.721813,1149.143247,296.082377,9474.636058
1067.722128,842.705048,592.164754,8956.491898
1067.722444,919.314598,888.247130,9400.615463
1067.722760,536.266849,444.123565,9474.636058
1067.723076,689.485948,-0.000000,9844.739029
1067.723392,612.876398,-518.144159,9696.697840
1067.723708,-153.219100,-518.144159,9400.615463
1067.724024,-459.657299,-1110.308913,9844.739029
1067.724340,-153.219100,-1554.432478,10214.842000
1067.724656,229.828649,-1332.370696,10288.862594
1067.724972,0.000000,-740.205942,9770.718434
1067.725287,0.000000,-814.226536,9770.718434
1067.725603,383.047749,-1332.370696,9844.739029
1067.725919,459.657299,-888.247130,9770.718434
1067.726235,1225.752797,-444.123565,8882.471304
1067.726551,842.705048,-592.164754,8512.368333
1067.726867,995.924147,-1036.288319,8956.491898
1067.727183,1378.971896,-1184.329507,8956.491898
1067.727499,1072.533697,-1036.288319,8586.388927
1067.727815,306.438199,-1110.308913,9400.615463
1067.728131,612.876398,-1258.350101,9474.636058
1067.728446,612.876398,-1554.432478,9178.553681
1067.728762,229.828649,-1184.329507,9104.533087
1067.729078,0.000000,-1258.350101,9104.533087
1067.729394,153.219100,-1850.514855,9104.533087
1067.729710,536.266849,-1628.453072,9326.594869
1067.730026,306.438199,-1332.370696,8882.471304
1067.730342,383.047749,-1480.411884,9696.697840
1067.730658,306.438199,-1924.535449,9622.677246
1067.730974,229.828649,-1702.473667,9548.656652
1067.731290,1072.533697,-1406.391290,8956.491898
1067.731605,1072.533697,-740.205942,8512.368333
1067.731921,842.705048,-592.164754,8660.409521
1067.732237,1225.752797,-296.082377,9030.512492
1067.732553,1149.143247,-518.144159,8808.450710
1067.732869,689.485948,-296.082377,9252.574275
1067.733185,459.657299,-444.123565,9326.594869
1067.733501,383.047749,-1036.288319,9474.636058
1067.733817,612.876398,-1480.411884,10066.800811
1067.734133,306.438199,-962.267725,9252.574275
1067.734449,229.828649,-888.247130,9474.636058
1067.734764,919.314598,-592.164754,9474.636058
1067.735080,1072.533697,-370.102971,9622.677246
1067.735396,612.876398,296.082377,9178.553681
1067.735712,383.047749,222.061783,9770.718434
1067.736028,383.047749,-74.020594,9992.780217
1067.736344,612.876398,-222.061783,9992.780217
1067.736660,842.705048,-0.000000,9622.677246
1067.736976,536.266849,-0.000000,8956.491898
1067.737292,459.657299,444.123565,9104.533087
1067.737608,919.314598,222.061783,9474.636058
1067.737923,689.485948,740.205942,9474.636058
1067.738239,0.000000,666.185348,9548.656652
1067.738555,229.828649,666.185348,9474.636058
1067.738871,0.000000,370.102971,9770.718434
1067.739187,0.000000,370.102971,9844.739029
1067.739503,-229.828649,518.144159,9400.615463
1067.739819,0.000000,-0.000000,9696.697840
1067.740135,0.000000,518.144159,9622.677246
1067.740451,306.438199,592.164754,9548.656652
1067.740767,-229.828649,962.267725,9474.636058
1067.741083,-306.438199,814.226536,9696.697840
1067.741398,76.609550,518.144159,10140.821405
1067.741714,229.828649,666.185348,9844.739029
1067.742030,153.219100,1184.329507,9178.553681
1067.742346,306.438199,1258.350101,9104.533087
1067.742662,536.266849,1406.391290,8808.450710
1067.742978,766.095498,962.267725,8882.471304
1067.743294,306.438199,1036.288319,9400.615463
1067.743610,76.609550,740.205942,9696.697840
1067.743926,153.219100,666.185348,10362.883188
1067.744242,689.485948,666.185348,9474.636058
1067.744557,76.609550,888.247130,9252.574275
1067.744873,0.000000,222.061783,9696.697840
1067.745189,-229.828649,-0.000000,9918.759623
1067.745505,153.219100,148.041188,9918.759623
1067.745821,153.219100,222.061783,9696.697840
1067.746137,153.219100,-0.000000,9770.718434
1067.746453,306.438199,-74.020594,10288.862594
1067.746769,919.314598,-74.020594,10066.800811
1067.747085,842.705048,-0.000000,9400.615463
1067.747401,995.924147,370.102971,9326.594869
1067.747716,919.314598,296.082377,9030.512492
1067.748032,1455.581446,370.102971,9178.553681
1067.748348,1378.971896,296.082377,8882.471304
1067.748664,689.485948,444.123565,8956.491898
1067.748980,612.876398,-148.041188,9474.636058
1067.749296,229.828649,-444.123565,9918.759623
1067.749611,383.047749,-888.247130,9622.677246
1067.749927,-229.828649,-888.247130,9696.697840
1067.750243,0.000000,-1110.308913,9474.636058
1067.750559,383.047749,-1332.370696,9400.615463
1067.750874,383.047749,-1480.411884,9918.759623
1067.751190,0.000000,-666.185348,9844.739029
1067.751506,-153.219100,-1258.350101,9844.739029
1067.751822,-153.219100,-1258.350101,9770.718434
1067.752137,76.609550,-1628.453072,9622.677246
1067.752453,229.828649,-888.247130,9474.636058
1067.752769,536.266849,-444.123565,8512.368333
1067.753085,612.876398,-592.164754,8660.409521
1067.753400,1149.143247,-740.205942,8808.450710
1067.753716,612.876398,-962.267725,8364.327145
1067.754032,306.438199,-814.226536,8882.471304
1067.754348,612.876398,-1184.329507,9178.553681
1067.754663,383.047749,-1702.473667,9474.636058
1067.754979,536.266849,-1406.391290,9030.512492
1067.755295,153.219100,-1184.329507,9030.512492
1067.755611,459.657299,-1258.350101,9252.574275
1067.755926,1072.533697,-1406.391290,9474.636058
1067.756242,689.485948,-1184.329507,9252.574275
1067.756558,842.705048,-1036.288319,9622.677246
1067.756874,842.705048,-1628.453072,9844.739029
1067.757190,1149.143247,-1480.411884,9770.718434
1067.757505,919.314598,-1184.329507,9622.677246
1067.757821,919.314598,-962.267725,9178.553681
1067.758137,1149.143247,-814.226536,9252.574275
1067.758453,1378.971896,-518.144159,8734.430116
1067.758768,1455.581446,-296.082377,8882.471304
1067.759084,995.924147,-74.020594,9326.594869
1067.759400,919.314598,-222.061783,9474.636058
1067.759716,1072.533697,-666.185348,9696.697840
1067.760031,536.266849,-1332.370696,9622.677246
1067.760347,612.876398,-1332.370696,9326.594869
1067.760663,76.609550,-888.247130,9770.718434
1067.760979,612.876398,-1110.308913,9844.739029
1067.761294,919.314598,-518.144159,9770.718434
1067.761610,229.828649,-370.102971,9844.739029
1067.761926,153.219100,-0.000000,10362.883188
1067.762242,536.266849,-296.082377,9844.739029
1067.762557,919.314598,-0.000000,9992.780217
1067.762873,766.095498,444.123565,9326.594869
1067.763189,919.314598,740.205942,8438.347739
1067.763505,1378.971896,814.226536,8660.409521
1067.763820,1532.190996,666.185348,9178.553681
1067.764136,766.095498,814.226536,9252.574275
1067.764452,153.219100,740.205942,9622.677246
1067.764768,-229.828649,-0.000000,9696.697840
1067.765083,0.000000,444.123565,10140.821405
1067.765399,-153.219100,666.185348,9844.739029
1067.765715,-459.657299,592.164754,9474.636058
1067.766031,-153.219100,518.144159,9474.636058
1067.766346,229.828649,296.082377,9178.553681
1067.766662,383.047749,296.082377,9178.553681
1067.766978,-536.266849,666.185348,9696.697840
1067.767294,0.000000,666.185348,10066.800811
1067.767609,0.000000,518.144159,9844.739029
1067.767925,0.000000,592.164754,9400.615463
1067.768241,383.047749,740.205942,9696.697840
1067.768557,383.047749,962.267725,8882.471304
1067.768872,689.485948,1406.391290,8956.491898
1067.769188,842.705048,1480.411884,9178.553681
1067.769504,612.876398,1480.411884,9252.574275
1067.769820,-229.828649,1702.473667,9252.574275
1067.770135,0.000000,740.205942,9548.656652
1067.770451,0.000000,444.123565,9918.759623
1067.770767,-153.219100,-0.000000,9918.759623
1067.771083,-612.876398,-0.000000,9918.759623
1067.771398,-383.047749,-148.041188,9696.697840
1067.771714,153.219100,-222.061783,9770.718434
1067.772030,0.000000,148.041188,9770.718434
1067.772346,-306.438199,148.041188,10214.842000
1067.772661,-306.438199,148.041188,9770.718434
1067.772977,612.876398,-0.000000,10066.800811
1067.773293,383.047749,296.082377,9474.636058
1067.773609,0.000000,-0.000000,9474.636058
1067.773924,229.828649,-148.041188,9252.574275
1067.774240,842.705048,-222.061783,8956.491898
1067.774556,306.438199,-444.123565,9696.697840
1067.774872,0.000000,148.041188,9622.677246
1067.775187,0.000000,444.123565,9252.574275
1067.775503,76.609550,-74.020594,9474.636058
1067.775819,0.000000,-518.144159,10140.821405
1067.776135,0.000000,-666.185348,9696.697840
1067.776450,0.000000,-592.164754,9326.594869
1067.776766,383.047749,-666.185348,9178.553681
1067.777082,383.047749,-814.226536,9622.677246
1067.777398,-76.609550,-962.267725,9474.636058
1067.777714,-153.219100,-962.267725,9696.697840
1067.778029,76.609550,-1184.329507,9918.759623
1067.778345,76.609550,-1184.329507,9918.759623
1067.778661,153.219100,-1036.288319,9104.533087
1067.778977,536.266849,-888.247130,9030.512492
1067.779292,536.266849,-962.267725,9104.533087
1067.779608,1302.362347,-814.226536,8956.491898
1067.779924,766.095498,-370.102971,8808.450710
1067.780240,766.095498,-370.102971,9178.553681
1067.780555,919.314598,-1184.329507,9326.594869
1067.780871,1378.971896,-1184.329507,9178.553681
1067.781187,1225.752797,-1110.308913,8808.450710
1067.781503,1072.533697,-1110.308913,8956.491898
1067.781818,1225.752797,-1480.411884,9178.553681
1067.782134,1072.533697,-1480.411884,9252.574275
1067.782450,1149.143247,-1110.308913,9474.636058
1067.782766,995.924147,-888.247130,9622.677246
1067.783081,995.924147,-1332.370696,9622.677246
1067.783397,1302.362347,-1480.411884,9992.780217
1067.783713,1455.581446,-1554.432478,9474.636058
1067.784029,1225.752797,-1036.288319,9104.533087
1067.784344,1225.752797,-888.247130,8734.430116
1067.784660,1302.362347,-1184.329507,9178.553681
1067.784976,995.924147,-888.247130,9178.553681
1067.785292,1072.533697,-666.185348,9622.677246
1067.785607,919.314598,-222.061783,9252.574275
1067.785923,766.095498,-740.205942,9548.656652
1067.786239,1149.143247,-444.123565,9474.636058
1067.786555,842.705048,-296.082377,8808.450710
1067.786870,1072.533697,-592.164754,9400.615463
1067.787186,995.924147,-592.164754,9474.636058
1067.787502,612.876398,-666.185348,9252.574275
1067.787818,383.047749,-370.102971,9696.697840
1067.788133,76.609550,-1110.308913,10288.862594
1067.788449,0.000000,-814.226536,10066.800811
1067.788765,153.219100,-740.205942,9992.780217
1067.789081,383.047749,-592.164754,9622.677246
1067.789396,229.828649,-74.020594,9548.656652
1067.789712,612.876398,370.102971,9104.533087
1067.790028,612.876398,740.205942,8882.471304
1067.790344,842.705048,1332.370696,8660.409521
1067.790659,0.000000,1184.329507,9030.512492
1067.790975,0.000000,592.164754,9770.718434
1067.791291,0.000000,296.082377,9696.697840
1067.791607,-536.266849,296.082377,9696.697840
1067.791922,-306.438199,740.205942,9326.594869
1067.792238,-306.438199,518.144159,9252.574275
1067.792554,-459.657299,296.082377,9622.677246
1067.792870,0.000000,370.102971,9770.718434
1067.793185,-229.828649,666.185348,9474.636058
1067.793501,-459.657299,814.226536,9918.759623
1067.793817,-229.828649,370.102971,10066.800811
1067.794133,0.000000,444.123565,9992.780217
1067.794448,229.828649,518.144159,9622.677246
1067.794764,0.000000,1184.329507,9326.594869
1067.795080,383.047749,1480.411884,9178.553681
1067.795396,919.314598,1406.391290,9104.533087
1067.795711,229.828649,1332.370696,9104.533087
1067.796027,612.876398,1184.329507,9548.656652
1067.796343,383.047749,814.226536,9844.739029
1067.796659,153.219100,518.144159,9548.656652
1067.796974,153.219100,296.082377,9770.718434
1067.797290,383.047749,-0.000000,9696.697840
1067.797606,0.000000,-0.000000,10214.842000
1067.797922,383.047749,444.123565,10214.842000
1067.798238,306.438199,592.164754,9474.636058
1067.798553,0.000000,370.102971,9696.697840
1067.798869,229.828649,-296.082377,10510.924376
1067.799185,536.266849,-444.123565,10288.862594
1067.799501,612.876398,-148.041188,9992.780217
1067.799816,383.047749,-148.041188,9474.636058
1067.800132,842.705048,-0.000000,8956.491898
1067.800448,1302.362347,-148.041188,9178.553681
1067.800764,1302.362347,370.102971,8882.471304
1067.801079,766.095498,592.164754,9104.533087
1067.801395,229.828649,74.020594,9326.594869
1067.801711,306.438199,-148.041188,9992.780217
1067.802027,459.657299,-1036.288319,9918.759623
1067.802342,0.000000,-518.144159,9548.656652
1067.802658,-153.219100,-592.164754,9548.656652
1067.802974,306.438199,-1036.288319,9622.677246
1067.803290,919.314598,-888.247130,9770.718434
1067.803605,383.047749,-444.123565,9030.512492
1067.803921,0.000000,-666.185348,9844.739029
1067.804237,612.876398,-1184.329507,9770.718434
1067.804553,842.705048,-888.247130,9400.615463
1067.804868,689.485948,-518.144159,9030.512492
1067.805184,995.924147,-814.226536,8438.347739
1067.805500,1149.143247,-666.185348,8956.491898
1067.805816,1302.362347,-518.144159,8956.491898
1067.806131,842.705048,-222.061783,9104.533087
1067.806447,842.705048,-74.020594,8882.471304
1067.806763,766.095498,-888.247130,9104.533087
1067.807079,689.485948,-1258.350101,9474.636058
1067.807394,153.219100,-1480.411884,9548.656652
1067.807710,229.828649,-1702.473667,9400.615463
1067.808026,306.438199,-2072.576638,9474.636058
1067.808342,536.266849,-2072.576638,9400.615463
1067.808657,459.657299,-1110.308913,9178.553681
1067.808973,306.438199,-888.247130,9622.677246
1067.809289,766.095498,-1406.391290,9770.718434
1067.809605,995.924147,-1776.494261,9548.656652
1067.809920,1149.143247,-1110.308913,9474.636058
1067.810236,1149.143247,-1036.288319,8734.430116
1067.810552,1225.752797,-1184.329507,8586.388927
1067.810868,1991.848295,-592.164754,8882.471304
1067.811183,1302.362347,-370.102971,9030.512492
1067.811499,766.095498,-148.041188,9104.533087
1067.811815,689.485948,-222.061783,9548.656652
1067.812131,1072.533697,-666.185348,9474.636058
1067.812446,383.047749,-666.185348,9400.615463
1067.812762,306.438199,-962.267725,9474.636058
1067.813078,76.609550,-1110.308913,9252.574275
1067.813394,383.047749,-962.267725,9696.697840
1067.813709,459.657299,-444.123565,9474.636058
1067.814025,0.000000,-0.000000,9474.636058
1067.814341,-459.657299,-370.102971,9696.697840
1067.814657,-459.657299,-666.185348,9918.759623
1067.814972,-459.657299,-370.102971,9992.780217
1067.815288,-153.219100,-370.102971,9770.718434
1067.815604,-153.219100,-74.020594,9400.615463
1067.815920,229.828649,-222.061783,9622.677246
1067.816235,229.828649,296.082377,9400.615463
1067.816551,229.828649,888.247130,9030.512492
1067.816867,76.609550,1110.308913,9622.677246
1067.817183,383.047749,888.247130,9992.780217
1067.817498,153.219100,1184.329507,9104.533087
1067.817814,76.609550,666.185348,9400.615463
1067.818130,-153.219100,444.123565,9326.594869
1067.818446,153.219100,518.144159,9474.636058
1067.818762,612.876398,1036.288319,9474.636058
1067.819077,229.828649,1258.350101,9474.636058
1067.819393,-229.828649,888.247130,9918.759623
1067.819709,-306.438199,814.226536,10288.862594
1067.820025,0.000000,740.205942,10066.800811
1067.820340,0.000000,592.164754,10140.821405
1067.820656,0.000000,666.185348,10214.842000
1067.820972,153.219100,740.205942,9252.574275
1067.821288,612.876398,1110.308913,9474.636058
1067.821603,1072.533697,962.267725,9548.656652
1067.821919,536.266849,1480.411884,9622.677246
1067.822235,306.438199,1184.329507,9474.636058
1067.822551,612.876398,518.144159,9918.759623
1067.822866,919.314598,370.102971,9918.759623
1067.823182,1455.581446,518.144159,9474.636058
1067.823498,1302.362347,814.226536,8586.388927
1067.823814,1455.581446,814.226536,9030.512492
1067.824129,1915.238745,888.247130,9474.636058
1067.824445,1225.752797,962.267725,8808.450710
1067.824761,76.609550,1036.288319,9622.677246
1067.825077,76.609550,148.041188,10658.965565
1067.825392,76.609550,-296.082377,10066.800811
1067.825708,0.000000,-74.020594,9770.718434
1067.826024,-306.438199,-592.164754,9844.739029
1067.826340,-536.266849,-740.205942,9770.718434
1067.826655,153.219100,-888.247130,9918.759623
1067.826971,-612.876398,-74.020594,9622.677246
1067.827287,-306.438199,370.102971,9770.718434
1067.827603,-459.657299,296.082377,9770.718434
1067.827918,0.000000,296.082377,9474.636058
1067.828234,0.000000,-518.144159,9474.636058
1067.828550,0.000000,-518.144159,9178.553681
1067.828866,383.047749,-888.247130,9030.512492
1067.829181,536.266849,-1036.288319,9474.636058
1067.829497,842.705048,-592.164754,9104.533087
1067.829813,153.219100,-740.205942,9474.636058
1067.830129,383.047749,-814.226536,9918.759623
1067.830444,612.876398,-518.144159,9696.697840
1067.830760,842.705048,-888.247130,9548.656652
1067.831076,919.314598,-962.267725,9252.574275
1067.831392,689.485948,-1184.329507,8956.491898
1067.831707,1225.752797,-814.226536,9326.594869
1067.832023,1455.581446,-592.164754,9326.594869
1067.832339,612.876398,-814.226536,8808.450710
1067.832655,995.924147,-888.247130,9326.594869
1067.832970,689.485948,-1258.350101,9030.512492
1067.833286,536.266849,-1406.391290,9104.533087
1067.833602,689.485948,-1184.329507,9400.615463
1067.833918,306.438199,-1480.411884,9104.533087
1067.834233,689.485948,-1776.494261,9030.512492
1067.834549,766.095498,-1332.370696,9030.512492
1067.834865,459.657299,-1480.411884,9178.553681
1067.835181,306.438199,-1332.370696,9474.636058
1067.835496,383.047749,-1776.494261,10066.800811
1067.835812,612.876398,-1702.473667,9548.656652
1067.836128,459.657299,-1554.432478,9178.553681
1067.836444,689.485948,-1702.473667,8956.491898
1067.836759,536.266849,-1258.350101,9104.533087
1067.837075,1302.362347,-814.226536,9178.553681
1067.837391,1149.143247,-592.164754,8808.450710
1067.837707,1072.533697,74.020594,8882.471304
1067.838023,766.095498,222.061783,9030.512492
1067.838338,766.095498,-148.041188,8956.491898
1067.838654,612.876398,-222.061783,9548.656652
1067.838970,459.657299,-1258.350101,9474.636058
1067.839286,383.047749,-888.247130,9252.574275
1067.839601,612.876398,-666.185348,9844.739029
1067.839917,383.047749,-592.164754,9696.697840
1067.840233,0.000000,-222.061783,10140.821405
1067.840549,-229.828649,296.082377,9918.759623
1067.840864,0.000000,222.061783,9992.780217
1067.841180,0.000000,370.102971,9474.636058
1067.841496,0.000000,148.041188,9104.533087
1067.841812,153.219100,-0.000000,9400.615463
1067.842127,612.876398,-0.000000,9474.636058
1067.842443,766.095498,370.102971,9474.636058
1067.842759,306.438199,518.144159,9474.636058
1067.843075,-229.828649,592.164754,9622.677246
1067.843390,76.609550,518.144159,10214.842000
1067.843706,306.438199,296.082377,9770.718434
1067.844022,-76.609550,740.205942,9696.697840
1067.844338,0.000000,1036.288319,9474.636058
1067.844653,76.609550,518.144159,9326.594869
1067.844969,919.314598,888.247130,9770.718434
1067.845285,766.095498,888.247130,9696.697840
1067.845601,76.609550,888.247130,10066.800811
1067.845916,306.438199,592.164754,10288.862594
1067.846232,306.438199,592.164754,9770.718434
1067.846548,459.657299,666.185348,9622.677246
1067.846864,612.876398,1036.288319,9474.636058
1067.847179,919.314598,666.185348,9252.574275
1067.847495,995.924147,1036.288319,9548.656652
1067.847811,919.314598,1036.288319,9474.636058
1067.848127,383.047749,888.247130,9030.512492
1067.848442,0.000000,888.247130,9474.636058
1067.848758,536.266849,740.205942,9770.718434
1067.849074,153.219100,666.185348,9622.677246
1067.849390,-153.219100,592.164754,9400.615463
1067.849705,536.266849,148.041188,9252.574275
1067.850021,306.438199,-370.102971,9844.739029
1067.850337,459.657299,-222.061783,9696.697840
1067.850653,0.000000,444.123565,9622.677246
1067.850968,0.000000,296.082377,9844.739029
1067.851284,459.657299,-0.000000,10214.842000
1067.851600,459.657299,-0.000000,9622.677246
1067.851916,229.828649,370.102971,9400.615463
1067.852232,383.047749,-74.020594,9326.594869
1067.852547,536.266849,-444.123565,9326.594869
1067.852863,306.438199,-0.000000,9474.636058
1067.853179,612.876398,-0.000000,9696.697840
1067.853495,0.000000,148.041188,9178.553681
1067.853810,0.000000,-0.000000,9770.718434
1067.854126,76.609550,-518.144159,9844.739029
1067.854442,76.609550,-962.267725,10066.800811
1067.854758,0.000000,-518.144159,9326.594869
1067.855073,0.000000,-814.226536,9252.574275
1067.855389,766.095498,-1258.350101,9400.615463
1067.855705,612.876398,-814.226536,9178.553681
1067.856021,-153.219100,-148.041188,9474.636058
1067.856336,0.000000,-518.144159,9844.739029
1067.856652,229.828649,-1258.350101,9474.636058
1067.856968,229.828649,-592.164754,9400.615463
1067.857284,0.000000,-1184.329507,9474.636058
1067.857600,306.438199,-1184.329507,9326.594869
1067.857915,766.095498,-814.226536,9178.553681
1067.858231,842.705048,-814.226536,9030.512492
1067.858547,689.485948,-592.164754,9104.533087
1067.858863,612.876398,-370.102971,9400.615463
1067.859178,383.047749,-814.226536,9326.594869
1067.859494,306.438199,-1258.350101,9474.636058
1067.859810,306.438199,-1480.411884,9178.553681
1067.860126,459.657299,-1480.411884,9104.533087
1067.860441,842.705048,-1480.411884,9474.636058
1067.860757,995.924147,-1332.370696,9844.739029
1067.861073,689.485948,-740.205942,9400.615463
1067.861389,536.266849,-0.000000,8660.409521
1067.861705,842.705048,-370.102971,9178.553681
1067.862020,1532.190996,-1480.411884,9030.512492
1067.862336,1302.362347,-1184.329507,9030.512492
1067.862652,995.924147,-1332.370696,9474.636058
1067.862968,1072.533697,-1480.411884,9622.677246
1067.863283,1072.533697,-1184.329507,9400.615463
1067.863599,1302.362347,-0.000000,9030.512492
1067.863915,842.705048,518.144159,8956.491898
1067.864231,842.705048,-0.000000,9178.553681
1067.864546,612.876398,-592.164754,9696.697840
1067.864862,995.924147,-1258.350101,9474.636058
1067.865178,536.266849,-888.247130,9844.739029
1067.865494,459.657299,-1406.391290,10066.800811
1067.865809,766.095498,-1110.308913,9770.718434
1067.866125,459.657299,-74.020594,9400.615463
1067.866441,153.219100,-0.000000,9844.739029
1067.866757,0.000000,148.041188,9548.656652
1067.867073,153.219100,-148.041188,9992.780217
1067.867388,229.828649,-444.123565,9918.759623
1067.867704,76.609550,-222.061783,9474.636058
1067.868020,536.266849,-370.102971,9548.656652
1067.868336,1072.533697,-0.000000,9400.615463
1067.868651,1455.581446,518.144159,9252.574275
1067.868967,1072.533697,1036.288319,9030.512492
1067.869283,536.266849,1258.350101,9252.574275
1067.869599,306.438199,518.144159,9622.677246
1067.869914,689.485948,222.061783,9918.759623
1067.870230,766.095498,444.123565,9474.636058
1067.870546,612.876398,-0.000000,9178.553681
1067.870862,0.000000,592.164754,9844.739029
1067.871178,306.438199,666.185348,9770.718434
1067.871493,153.219100,1628.453072,9104.533087
1067.871809,-229.828649,1628.453072,9104.533087
1067.872125,-306.438199,962.267725,9770.718434
1067.872441,-306.438199,-0.000000,10288.862594
1067.872756,-383.047749,-518.144159,10362.883188
1067.873072,-383.047749,-518.144159,9992.780217
1067.873388,-76.609550,-0.000000,9548.656652
1067.873704,0.000000,740.205942,9326.594869
1067.874019,383.047749,1110.308913,9326.594869
1067.874335,306.438199,1628.453072,9252.574275
1067.874651,153.219100,1110.308913,9326.594869
1067.874967,306.438199,518.144159,9844.739029
1067.875282,459.657299,-0.000000,9696.697840
1067.875598,536.266849,-74.020594,9326.594869
1067.875914,229.828649,222.061783,9178.553681
1067.876230,766.095498,-0.000000,9252.574275
1067.876546,612.876398,370.102971,9252.574275
1067.876861,0.000000,962.267725,9770.718434
1067.877177,459.657299,740.205942,10066.800811
1067.877493,76.609550,222.061783,10214.842000
1067.877809,0.000000,-74.020594,9770.718434
1067.878124,0.000000,-222.061783,9252.574275
1067.878440,76.609550,-518.144159,9400.615463
1067.878756,306.438199,-740.205942,9622.677246
1067.879072,153.219100,-592.164754,9622.677246
1067.879387,153.219100,-0.000000,9474.636058
1067.879703,-689.485948,-0.000000,9696.697840
1067.880019,-306.438199,-74.020594,9992.780217
1067.880335,0.000000,-962.267725,10362.883188
1067.880651,0.000000,-444.123565,9696.697840
1067.880966,0.000000,-222.061783,9474.636058
1067.881282,459.657299,-666.185348,9030.512492
1067.881598,919.314598,-444.123565,8882.471304
1067.881914,306.438199,-592.164754,9030.512492
1067.882229,612.876398,-518.144159,9474.636058
1067.882545,306.438199,-814.226536,9696.697840
1067.882861,536.266849,-1110.308913,9992.780217
1067.883177,766.095498,-962.267725,9992.780217
1067.883492,612.876398,-740.205942,8882.471304
1067.883808,842.705048,-740.205942,9030.512492
1067.884124,1072.533697,-1036.288319,9252.574275
1067.884440,1302.362347,-814.226536,8882.471304
1067.884755,1225.752797,-148.041188,9326.594869
1067.885071,689.485948,-592.164754,9104.533087
1067.885387,919.314598,-962.267725,9696.697840
1067.885703,842.705048,-1258.350101,9474.636058
1067.886019,459.657299,-1184.329507,9104.533087
1067.886334,306.438199,-1036.288319,9178.553681
1067.886650,689.485948,-1110.308913,9178.553681
1067.886966,766.095498,-1332.370696,9474.636058
1067.887282,1455.581446,-1184.329507,9770.718434
1067.887597,995.924147,-518.144159,9474.636058
1067.887913,995.924147,-592.164754,9400.615463
1067.888229,1225.752797,-1036.288319,9326.594869
1067.888545,1455.581446,-592.164754,9252.574275
1067.888860,842.705048,-592.164754,8956.491898
1067.889176,1302.362347,-666.185348,9252.574275
1067.889492,1225.752797,-740.205942,9178.553681
1067.889808,995.924147,-370.102971,9548.656652
1067.890124,766.095498,-74.020594,9252.574275
1067.890439,229.828649,-592.164754,9696.697840
1067.890755,459.657299,-518.144159,10140.821405
1067.891071,306.438199,-888.247130,10214.842000
1067.891387,0.000000,-518.144159,9548.656652
1067.891702,153.219100,-222.061783,9252.574275
1067.892018,612.876398,-740.205942,9252.574275
1067.892334,689.485948,-518.144159,9474.636058
1067.892650,383.047749,518.144159,10214.842000
1067.892965,0.000000,-0.000000,9918.759623
1067.893281,459.657299,-0.000000,9770.718434
1067.893597,229.828649,-0.000000,9474.636058
1067.893913,306.438199,296.082377,9104.533087
1067.894229,229.828649,592.164754,8808.450710
1067.894544,459.657299,296.082377,9252.574275
1067.894860,842.705048,-0.000000,9696.697840
1067.895176,153.219100,296.082377,9548.656652
1067.895492,-383.047749,518.144159,9474.636058
1067.895807,0.000000,-0.000000,9918.759623
1067.896123,-383.047749,-0.000000,10140.821405
1067.896439,-459.657299,666.185348,9622.677246
1067.896755,-306.438199,296.082377,9474.636058
1067.897070,-229.828649,-0.000000,9548.656652
1067.897386,0.000000,-0.000000,9918.759623
1067.897702,76.609550,444.123565,9474.636058
1067.898018,0.000000,666.185348,9178.553681
1067.898333,0.000000,740.205942,9992.780217
1067.898649,612.876398,740.205942,9918.759623
1067.898965,689.485948,888.247130,9252.574275
1067.899281,536.266849,814.226536,9030.512492
1067.899597,76.609550,962.267725,8956.491898
1067.899912,995.924147,1184.329507,8956.491898
1067.900228,842.705048,814.226536,9030.512492
1067.900544,229.828649,1406.391290,9548.656652
1067.900860,229.828649,740.205942,9474.636058
1067.901175,229.828649,222.061783,10066.800811
1067.901491,229.828649,296.082377,9770.718434
1067.901807,-536.266849,148.041188,9400.615463
1067.902123,0.000000,-222.061783,9326.594869
1067.902438,306.438199,-814.226536,9918.759623
1067.902754,-459.657299,-518.144159,9992.780217
1067.903070,-306.438199,-0.000000,9918.759623
1067.903386,-612.876398,-0.000000,9696.697840
1067.903702,229.828649,296.082377,9622.677246
1067.904017,229.828649,222.061783,9474.636058
1067.904333,383.047749,296.082377,9104.533087
1067.904649,536.266849,-74.020594,9252.574275
1067.904965,995.924147,-370.102971,9252.574275
1067.905280,995.924147,-222.061783,9178.553681
1067.905596,919.314598,-0.000000,9474.636058
1067.905912,536.266849,296.082377,9178.553681
1067.906228,536.266849,370.102971,9474.636058
1067.906543,842.705048,-296.082377,9770.718434
1067.906859,536.266849,-666.185348,9474.636058
1067.907175,0.000000,-740.205942,9474.636058
1067.907491,306.438199,-740.205942,9770.718434
1067.907806,689.485948,-888.247130,9400.615463
1067.908122,229.828649,-518.144159,9474.636058
1067.908438,0.000000,-666.185348,10066.800811
1067.908754,-76.609550,-740.205942,9770.718434
1067.909070,536.266849,-1036.288319,9992.780217
1067.909385,153.219100,-1036.288319,9252.574275
1067.909701,229.828649,-740.205942,8882.471304
1067.910017,306.438199,-1258.350101,9030.512492
1067.910333,1072.533697,-814.226536,9178.553681
1067.910648,1072.533697,-666.185348,9326.594869
1067.910964,842.705048,-740.205942,9178.553681
1067.911280,459.657299,-666.185348,9252.574275
1067.911596,536.266849,-1036.288319,9474.636058
1067.911911,1149.143247,-888.247130,9474.636058
1067.912227,919.314598,-814.226536,8956.491898
1067.912543,689.485948,-1110.308913,9326.594869
1067.912859,1302.362347,-1406.391290,9326.594869
1067.913175,1455.581446,-1332.370696,9548.656652
1067.913490,536.266849,-962.267725,9474.636058
1067.913806,76.609550,-962.267725,9696.697840
1067.914122,612.876398,-962.267725,10140.821405
1067.914438,919.314598,-888.247130,9548.656652
1067.914753,766.095498,-370.102971,9104.533087
1067.915069,229.828649,-1036.288319,9178.553681
1067.915385,995.924147,-1110.308913,9178.553681
1067.915701,1072.533697,-1332.370696,9474.636058
1067.916016,995.924147,-444.123565,9400.615463
1067.916332,229.828649,-0.000000,9622.677246
1067.916648,536.266849,-222.061783,9474.636058
1067.916964,689.485948,-296.082377,9548.656652
1067.917279,612.876398,-666.185348,9400.615463
1067.917595,689.485948,-666.185348,9178.553681
1067.917911,229.828649,-888.247130,9918.759623
1067.918227,689.485948,-1036.288319,9400.615463
1067.918543,842.705048,-222.061783,9548.656652
1067.918858,536.266849,-0.000000,9696.697840
1067.919174,383.047749,-0.000000,9474.636058
1067.919490,306.438199,-0.000000,9622.677246
1067.919806,229.828649,-444.123565,9696.697840
1067.920121,-306.438199,-0.000000,9178.553681
1067.920437,0.000000,-0.000000,9400.615463
1067.920753,0.000000,-74.020594,8734.430116
1067.921069,459.657299,370.102971,9474.636058
1067.921384,459.657299,740.205942,8956.491898
1067.921700,153.219100,592.164754,9104.533087
1067.922016,0.000000,296.082377,9770.718434
1067.922332,0.000000,-74.020594,9622.677246
1067.922648,-229.828649,296.082377,9474.636058
1067.922963,-306.438199,444.123565,9400.615463
1067.923279,-229.828649,148.041188,9548.656652
1067.923595,383.047749,296.082377,9992.780217
1067.923911,306.438199,814.226536,9252.574275
1067.924226,0.000000,1480.411884,9622.677246
1067.924542,0.000000,814.226536,9696.697840
1067.924858,536.266849,592.164754,9770.718434
1067.925174,689.485948,962.267725,9696.697840
1067.925489,0.000000,740.205942,9474.636058
1067.925805,306.438199,740.205942,9474.636058
1067.926121,919.314598,1258.350101,9474.636058
1067.926437,383.047749,1332.370696,9178.553681
1067.926752,76.609550,1406.391290,9178.553681
1067.927068,153.219100,666.185348,9918.759623
1067.927384,0.000000,-0.000000,9918.759623
1067.927700,0.000000,-222.061783,10214.842000
1067.928016,0.000000,-222.061783,9844.739029
1067.928331,0.000000,-74.020594,9844.739029
1067.928647,536.266849,-74.020594,9918.759623
1067.928963,612.876398,666.185348,9400.615463
1067.929279,153.219100,962.267725,9252.574275
1067.929594,0.000000,296.082377,9770.718434
1067.929910,229.828649,-296.082377,10140.821405
1067.930226,306.438199,-370.102971,9844.739029
1067.930542,153.219100,-222.061783,9622.677246
1067.930857,612.876398,-0.000000,9696.697840
1067.931173,995.924147,-148.041188,9474.636058
1067.931489,919.314598,444.123565,9178.553681
1067.931805,459.657299,370.102971,9326.594869
1067.932121,0.000000,296.082377,9326.594869
1067.932436,0.000000,-0.000000,9918.759623
1067.932752,0.000000,-222.061783,9770.718434
1067.933068,-153.219100,-666.185348,9844.739029
1067.933384,0.000000,-814.226536,9178.553681
1067.933699,0.000000,-1110.308913,9474.636058
1067.934015,153.219100,-1036.288319,9326.594869
1067.934331,383.047749,-518.144159,9548.656652
1067.934647,383.047749,-1036.288319,9770.718434
1067.934962,0.000000,-518.144159,9622.677246
1067.935278,536.266849,-740.205942,9622.677246
1067.935594,459.657299,-666.185348,9474.636058
1067.935910,459.657299,-1110.308913,9400.615463
1067.936225,612.876398,-592.164754,8660.409521
1067.936541,842.705048,-444.123565,8438.347739
1067.936857,842.705048,-296.082377,9104.533087
1067.937173,842.705048,-222.061783,9030.512492
1067.937489,229.828649,-222.061783,8956.491898
1067.937804,383.047749,-518.144159,9326.594869
1067.938120,459.657299,-1332.370696,9400.615463
1067.938436,459.657299,-1554.432478,9178.553681
1067.938752,0.000000,-1406.391290,9548.656652
1067.939067,459.657299,-2294.638420,9326.594869
1067.939383,536.266849,-1776.494261,9696.697840
1067.939699,536.266849,-592.164754,9252.574275
1067.940015,153.219100,-444.123565,9622.677246
1067.940330,536.266849,-1110.308913,9696.697840
1067.940646,919.314598,-1184.329507,9696.697840
1067.940962,995.924147,-666.185348,8882.471304
1067.941278,766.095498,-444.123565,8734.430116
1067.941594,1225.752797,-962.267725,9030.512492
1067.941909,1225.752797,-1184.329507,9178.553681
1067.942225,919.314598,-370.102971,9030.512492
1067.942541,612.876398,-296.082377,9104.533087
1067.942857,689.485948,-370.102971,9252.574275
1067.943172,536.266849,-592.164754,9696.697840
1067.943488,536.266849,-962.267725,9992.780217
1067.943804,383.047749,-592.164754,9622.677246
1067.944120,459.657299,-888.247130,9474.636058
1067.944435,766.095498,-888.247130,9474.636058
1067.944751,842.705048,-296.082377,9548.656652
1067.945067,766.095498,-74.020594,9030.512492
1067.945383,0.000000,370.102971,9696.697840
1067.945698,689.485948,-0.000000,10214.842000
1067.946014,842.705048,-0.000000,9918.759623
1067.946330,536.266849,148.041188,9030.512492
1067.946646,536.266849,148.041188,8734.430116
1067.946962,1455.581446,370.102971,9400.615463
1067.947277,1302.362347,370.102971,9400.615463
1067.947593,689.485948,962.267725,9252.574275
1067.947909,306.438199,888.247130,9178.553681
1067.948225,76.609550,518.144159,10140.821405
1067.948540,0.000000,222.061783,9844.739029
1067.948856,0.000000,370.102971,9992.780217
1067.949172,-383.047749,518.144159,9622.677246
1067.949488,76.609550,222.061783,9770.718434
1067.949803,536.266849,296.082377,9770.718434
1067.950119,-229.828649,370.102971,9918.759623
1067.950435,0.000000,666.185348,9918.759623
1067.950751,229.828649,666.185348,9770.718434
1067.951067,919.314598,370.102971,9696.697840
1067.951382,459.657299,814.226536,9326.594869
1067.951698,536.266849,814.226536,9104.533087
1067.952014,842.705048,888.247130,9252.574275
1067.952330,612.876398,518.144159,9178.553681
1067.952646,306.438199,814.226536,9030.512492
1067.952961,153.219100,740.205942,9474.636058
1067.953277,0.000000,814.226536,9548.656652
1067.953593,153.219100,-0.000000,10288.862594
1067.953909,229.828649,-0.000000,9622.677246
1067.954225,-306.438199,-296.082377,9844.739029
1067.954540,0.000000,-148.041188,9400.615463
1067.954856,383.047749,-0.000000,9622.677246
1067.955172,536.266849,-0.000000,9104.533087
1067.955488,153.219100,370.102971,9548.656652
1067.955804,536.266849,444.123565,9696.697840
1067.956119,76.609550,-518.144159,9844.739029
1067.956435,689.485948,-592.164754,9844.739029
1067.956751,306.438199,-444.123565,9104.533087
1067.957067,76.609550,-148.041188,9104.533087
1067.957383,766.095498,-592.164754,8956.491898
1067.957698,842.705048,-0.000000,8882.471304
1067.958014,612.876398,518.144159,9178.553681
1067.958330,153.219100,518.144159,9178.553681
1067.958646,229.828649,148.041188,9400.615463
1067.958962,383.047749,-148.041188,9474.636058
1067.959278,76.609550,-888.247130,9030.512492
1067.959593,-306.438199,-592.164754,9548.656652
1067.959909,0.000000,-1036.288319,9696.697840
1067.960225,0.000000,-1110.308913,9548.656652
1067.960541,229.828649,-592.164754,9548.656652
1067.960857,-153.219100,-444.123565,9474.636058
1067.961172,0.000000,-592.164754,9622.677246
1067.961488,306.438199,-962.267725,10066.800811
1067.961804,306.438199,-814.226536,9548.656652
1067.962120,383.047749,-518.144159,9178.553681
1067.962436,306.438199,-592.164754,9104.533087
1067.962751,1072.533697,-592.164754,9178.553681
1067.963067,995.924147,-814.226536,8882.471304
1067.963383,842.705048,-0.000000,9326.594869
1067.963699,383.047749,-296.082377,9622.677246
1067.964015,766.095498,-888.247130,9474.636058
1067.964330,536.266849,-962.267725,9400.615463
1067.964646,383.047749,-1184.329507,9104.533087
1067.964962,459.657299,-1110.308913,9400.615463
1067.965278,842.705048,-1332.370696,9548.656652
1067.965594,612.876398,-1258.350101,9622.677246
1067.965909,306.438199,-1110.308913,9844.739029
1067.966225,459.657299,-1110.308913,9696.697840
1067.966541,766.095498,-1110.308913,9696.697840
1067.966857,919.314598,-1184.329507,9474.636058
1067.967173,1225.752797,-1110.308913,9474.636058
1067.967489,919.314598,-888.247130,9178.553681
1067.967804,995.924147,-888.247130,9474.636058
1067.968120,1302.362347,-1332.370696,9548.656652
1067.968436,1225.752797,-592.164754,9178.553681
1067.968752,766.095498,-74.020594,8956.491898
1067.969068,1072.533697,222.061783,9474.636058
1067.969383,1072.533697,-148.041188,9770.718434
1067.969699,919.314598,-370.102971,8882.471304
1067.970015,689.485948,-444.123565,9326.594869
1067.970331,689.485948,-962.267725,9696.697840
1067.970647,689.485948,-814.226536,9252.574275
1067.970962,306.438199,-148.041188,9252.574275
1067.971278,153.219100,-148.041188,9844.739029
1067.971594,-306.438199,-370.102971,9844.739029
1067.971910,229.828649,-74.020594,9918.759623
1067.972226,0.000000,-222.061783,9326.594869
1067.972541,229.828649,-0.000000,9474.636058
1067.972857,536.266849,-74.020594,8882.471304
1067.973173,766.095498,592.164754,9030.512492
1067.973489,536.266849,222.061783,9178.553681
1067.973805,459.657299,370.102971,9474.636058
1067.974120,-229.828649,814.226536,9918.759623
1067.974436,-153.219100,518.144159,9770.718434
1067.974752,-383.047749,-0.000000,9474.636058
1067.975068,-383.047749,222.061783,9252.574275
1067.975384,-153.219100,148.041188,9696.697840
1067.975699,0.000000,-296.082377,9770.718434
1067.976015,0.000000,222.061783,9622.677246
1067.976331,229.828649,666.185348,9548.656652
1067.976647,-306.438199,888.247130,9326.594869
1067.976963,0.000000,370.102971,10214.842000
1067.977279,306.438199,666.185348,9770.718434
1067.977594,153.219100,814.226536,9326.594869
1067.977910,0.000000,592.164754,9326.594869
1067.978226,536.266849,518.144159,8956.491898
1067.978542,689.485948,814.226536,9474.636058
1067.978858,536.266849,888.247130,9030.512492
1067.979173,0.000000,1110.308913,9474.636058
1067.979489,0.000000,740.205942,9918.759623
1067.979805,229.828649,-0.000000,10066.800811
1067.980121,306.438199,518.144159,9474.636058
1067.980437,0.000000,148.041188,9474.636058
1067.980752,0.000000,-148.041188,9770.718434
1067.981068,383.047749,-222.061783,10214.842000
1067.981384,612.876398,-0.000000,9992.780217
1067.981700,229.828649,740.205942,9548.656652
1067.982016,383.047749,592.164754,9474.636058
1067.982331,1072.533697,-0.000000,9918.759623
1067.982647,995.924147,444.123565,9474.636058
1067.982963,689.485948,592.164754,9252.574275
1067.983279,995.924147,-0.000000,9030.512492
1067.983595,1072.533697,-0.000000,9400.615463
1067.983910,1149.143247,222.061783,9326.594869
1067.984226,842.705048,592.164754,9252.574275
1067.984542,383.047749,-0.000000,9326.594869
1067.984858,536.266849,-370.102971,10214.842000
1067.985174,0.000000,-740.205942,9992.780217
1067.985489,0.000000,-888.247130,9918.759623
1067.985805,-459.657299,-814.226536,9844.739029
1067.986121,383.047749,-962.267725,9770.718434
1067.986437,153.219100,-666.185348,9474.636058
1067.986753,229.828649,-296.082377,9474.636058
1067.987069,0.000000,-518.144159,9548.656652
1067.987384,306.438199,-1258.350101,9992.780217
1067.987700,229.828649,-1184.329507,10214.842000
1067.988016,153.219100,-1184.329507,9696.697840
1067.988332,536.266849,-888.247130,9474.636058
1067.988648,995.924147,-666.185348,8956.491898
1067.988963,1455.581446,-222.061783,9252.574275
1067.989279,1149.143247,-0.000000,8586.388927
1067.989595,306.438199,-74.020594,9030.512492
1067.989911,153.219100,-888.247130,9400.615463
1067.990227,306.438199,-1702.473667,9844.739029
1067.990542,459.657299,-1998.556043,9622.677246
1067.990858,0.000000,-1702.473667,9252.574275
1067.991174,0.000000,-1628.453072,9474.636058
1067.991490,612.876398,-1554.432478,9252.574275
1067.991806,842.705048,-592.164754,8882.471304
1067.992121,1149.143247,-222.061783,8882.471304
1067.992437,383.047749,-518.144159,9104.533087
1067.992753,612.876398,-1110.308913,9400.615463
1067.993069,995.924147,-1184.329507,9474.636058
1067.993385,1225.752797,-888.247130,8734.430116
1067.993700,1072.533697,-888.247130,8586.388927
1067.994016,1149.143247,-740.205942,8734.430116
1067.994332,1455.581446,-370.102971,9030.512492
1067.994648,766.095498,-0.000000,8586.388927
1067.994964,153.219100,222.061783,9030.512492
1067.995280,0.000000,-518.144159,9400.615463
1067.995595,612.876398,-888.247130,9770.718434
1067.995911,0.000000,-1036.288319,9252.574275
1067.996227,-229.828649,-1036.288319,9326.594869
1067.996543,229.828649,-1184.329507,9696.697840
1067.996859,229.828649,-1110.308913,9548.656652
1067.997174,689.485948,-0.000000,9326.594869
