#time,accel_x,accel_y,accel_z
1070.048233,459.657299,-0.000000,9400.615463
1070.048548,536.266849,-222.061783,9474.636058
1070.048864,766.095498,-74.020594,9252.574275
1070.049180,306.438199,-74.020594,9400.615463
1070.049495,536.266849,-296.082377,9326.594869
1070.049811,459.657299,-148.041188,9400.615463
1070.050127,459.657299,-74.020594,9326.594869
1070.050443,459.657299,-444.123565,9474.636058
1070.050758,612.876398,-148.041188,9400.615463
1070.051074,459.657299,-296.082377,9474.636058
1070.051390,383.047749,-74.020594,9400.615463
1070.051705,536.266849,-0.000000,9474.636058
1070.052021,612.876398,-74.020594,9474.636058
1070.052337,459.657299,-148.041188,9474.636058
1070.052653,306.438199,-296.082377,9400.615463
1070.052968,383.047749,-74.020594,9474.636058
1070.053284,536.266849,-444.123565,9622.677246
1070.053600,383.047749,-0.000000,9400.615463
1070.053915,383.047749,222.061783,9474.636058
1070.054231,612.876398,296.082377,9104.533087
1070.054547,459.657299,444.123565,9400.615463
1070.054863,459.657299,666.185348,9400.615463
1070.055178,842.705048,-0.000000,9474.636058
1070.055494,459.657299,370.102971,9252.574275
1070.055810,306.438199,296.082377,9326.594869
1070.056125,459.657299,296.082377,9178.553681
1070.056441,612.876398,-148.041188,9696.697840
1070.056757,689.485948,-222.061783,9548.656652
1070.057073,306.438199,148.041188,9548.656652
1070.057388,612.876398,370.102971,9326.594869
1070.057704,459.657299,296.082377,9400.615463
1070.058020,459.657299,740.205942,9400.615463
1070.058335,459.657299,962.267725,9326.594869
1070.058651,76.609550,1036.288319,9400.615463
1070.058967,536.266849,814.226536,9326.594869
1070.059283,229.828649,1110.308913,9252.574275
1070.059598,229.828649,962.267725,9252.574275
1070.059914,153.219100,666.185348,9400.615463
1070.060230,0.000000,592.164754,9400.615463
1070.060545,0.000000,1184.329507,9474.636058
1070.060861,-306.438199,1184.329507,9474.636058
1070.061177,-229.828649,1110.308913,9474.636058
1070.061493,-995.924147,1406.391290,9178.553681
1070.061808,-995.924147,1554.432478,9252.574275
1070.062124,-1149.143247,1554.432478,9400.615463
1070.062440,-1302.362347,1628.453072,9474.636058
1070.062755,-1991.848295,1184.329507,9474.636058
1070.063071,-1991.848295,1110.308913,9622.677246
1070.063387,-2374.896044,1628.453072,9992.780217
1070.063703,-2298.286494,1554.432478,9696.697840
1070.064018,-2374.896044,1406.391290,9548.656652
1070.064334,-1991.848295,1480.411884,9548.656652
1070.064650,-2374.896044,1702.473667,9548.656652
1070.064965,-1915.238745,1776.494261,9548.656652
1070.065281,-1915.238745,1554.432478,9474.636058
1070.065597,-1378.971896,1554.432478,9400.615463
1070.065913,-1762.019645,1702.473667,9400.615463
1070.066228,-1608.800546,1480.411884,9548.656652
1070.066544,-1532.190996,1554.432478,9844.739029
1070.066860,-1302.362347,1850.514855,9696.697840
1070.067175,-1378.971896,1998.556043,9622.677246
1070.067491,-1378.971896,1998.556043,9548.656652
1070.067807,-1378.971896,2146.597232,9400.615463
1070.068123,-1302.362347,2220.617826,9326.594869
1070.068438,-1378.971896,2368.659014,9400.615463
1070.068754,-1455.581446,2442.679609,9474.636058
1070.069070,-1608.800546,1776.494261,9474.636058
1070.069385,-1762.019645,1184.329507,9622.677246
1070.069701,-2068.457845,1184.329507,9548.656652
1070.070017,-1838.629195,962.267725,9548.656652
1070.070333,-1915.238745,592.164754,9622.677246
1070.070648,-2068.457845,962.267725,9770.718434
1070.070964,-2221.676944,1258.350101,9770.718434
1070.071280,-2221.676944,1184.329507,9622.677246
1070.071595,-2221.676944,1258.350101,9622.677246
1070.071911,-2145.067394,1406.391290,9770.718434
1070.072227,-1838.629195,1628.453072,9622.677246
1070.072543,-1608.800546,1850.514855,9474.636058
1070.072858,-1455.581446,1702.473667,9252.574275
1070.073174,-1149.143247,2294.638420,9030.512492
1070.073490,-1838.629195,2294.638420,8882.471304
1070.073805,-2068.457845,2442.679609,8956.491898
1070.074121,-2298.286494,2516.700203,9030.512492
1070.074437,-2374.896044,2442.679609,9326.594869
1070.074753,-2987.772442,1628.453072,9252.574275
1070.075068,-2987.772442,1628.453072,9622.677246
1070.075384,-2757.943793,962.267725,9992.780217
1070.075700,-2604.724693,296.082377,10288.862594
1070.076015,-2451.505594,148.041188,10436.903782
1070.076331,-2145.067394,370.102971,10288.862594
1070.076647,-1532.190996,666.185348,10066.800811
1070.076963,-919.314598,1184.329507,9474.636058
1070.077278,-306.438199,1998.556043,9030.512492
1070.077594,153.219100,2368.659014,8734.430116
1070.077910,612.876398,3034.844362,8068.244768
1070.078225,383.047749,3478.967927,7920.203579
1070.078541,229.828649,3404.947333,7994.224174
1070.078857,76.609550,2960.823768,7994.224174
1070.079173,-536.266849,2590.720797,8290.306550
1070.079488,-1378.971896,2590.720797,8512.368333
1070.079804,-2221.676944,1776.494261,9178.553681
1070.080120,-3217.601092,1184.329507,9844.739029
1070.080435,-3753.867940,1110.308913,10362.883188
1070.080751,-4213.525239,666.185348,10584.944971
1070.081067,-4136.915689,370.102971,11029.068536
1070.081383,-3830.477490,222.061783,11251.130318
1070.081698,-3370.820191,-0.000000,10955.047942
1070.082014,-2451.505594,444.123565,10658.965565
1070.082330,-1762.019645,1332.370696,10510.924376
1070.082645,-612.876398,1110.308913,9326.594869
1070.082961,536.266849,2146.597232,8438.347739
1070.083277,1149.143247,3478.967927,8068.244768
1070.083593,1455.581446,3627.009116,7846.182985
1070.083908,1532.190996,4663.297435,7476.080014
1070.084224,919.314598,4811.338623,7402.059420
1070.084540,0.000000,4811.338623,7179.997637
1070.084855,-1072.533697,4071.132681,8068.244768
1070.085171,-2451.505594,2960.823768,9104.533087
1070.085487,-3907.087040,1776.494261,10214.842000
1070.085803,-4673.182538,296.082377,11473.192101
1070.086118,-5286.058936,-814.226536,11917.315666
1070.086434,-5515.887586,-1554.432478,12805.562797
1070.086750,-4903.011187,-2220.617826,12657.521608
1070.087065,-4596.572988,-1554.432478,12509.480420
1070.087381,-3447.429741,-370.102971,11843.295072
1070.087697,-1838.629195,814.226536,10288.862594
1070.088013,-459.657299,2368.659014,8882.471304
1070.088328,1072.533697,3775.050304,7550.100608
1070.088644,1762.019645,5107.421000,6291.750507
1070.088960,2145.067394,5477.523971,5995.668130
1070.089275,1991.848295,5181.441594,6143.709319
1070.089591,1455.581446,4293.194464,7031.956449
1070.089907,153.219100,2960.823768,8142.265362
1070.090223,-1378.971896,1776.494261,8956.491898
1070.090538,-2834.553343,74.020594,10436.903782
1070.090854,-4060.306139,-1184.329507,11695.253884
1070.091170,-4826.401637,-1850.514855,12583.501014
1070.091485,-4213.525239,-1480.411884,12657.521608
1070.091801,-4519.963438,-740.205942,11843.295072
1070.092117,-3907.087040,-370.102971,11325.150913
1070.092433,-3447.429741,296.082377,10510.924376
1070.092748,-1838.629195,1628.453072,9400.615463
1070.093064,-995.924147,2886.803174,8364.327145
1070.093380,-229.828649,3182.885551,7698.141797
1070.093695,76.609550,3182.885551,7476.080014
1070.094011,76.609550,2442.679609,7920.203579
1070.094327,612.876398,1628.453072,8438.347739
1070.094643,229.828649,1184.329507,8586.388927
1070.094958,76.609550,1258.350101,8882.471304
1070.095274,-766.095498,740.205942,9178.553681
1070.095590,-1378.971896,296.082377,9474.636058
1070.095905,-1608.800546,-0.000000,10214.842000
1070.096221,-1838.629195,148.041188,9992.780217
1070.096537,-2604.724693,-0.000000,9918.759623
1070.096853,-2834.553343,-74.020594,9992.780217
1070.097168,-2604.724693,-592.164754,9844.739029
1070.097484,-1838.629195,-814.226536,9992.780217
1070.097800,-1225.752797,-296.082377,10066.800811
1070.098115,-995.924147,222.061783,9326.594869
1070.098431,-689.485948,666.185348,8734.430116
1070.098747,0.000000,518.144159,8808.450710
1070.099063,153.219100,370.102971,9178.553681
1070.099378,689.485948,888.247130,9326.594869
1070.099694,459.657299,888.247130,9030.512492
1070.100010,842.705048,666.185348,9252.574275
1070.100325,1302.362347,-74.020594,9178.553681
1070.100641,1072.533697,-148.041188,9326.594869
1070.100957,995.924147,-0.000000,9178.553681
1070.101273,995.924147,148.041188,8734.430116
1070.101588,842.705048,-0.000000,9030.512492
1070.101904,1838.629195,-0.000000,9474.636058
1070.102220,459.657299,370.102971,9548.656652
1070.102535,536.266849,592.164754,9844.739029
1070.102851,0.000000,444.123565,9548.656652
1070.103167,306.438199,-0.000000,9992.780217
1070.103483,459.657299,444.123565,9696.697840
1070.103798,306.438199,518.144159,9474.636058
1070.104114,536.266849,444.123565,9252.574275
1070.104430,153.219100,-0.000000,9696.697840
1070.104745,-229.828649,-148.041188,9696.697840
1070.105061,-306.438199,-444.123565,9844.739029
1070.105377,-536.266849,-222.061783,10510.924376
1070.105693,0.000000,-148.041188,10362.883188
1070.106009,229.828649,-222.061783,9918.759623
1070.106325,0.000000,-0.000000,9474.636058
1070.106640,1225.752797,-0.000000,9178.553681
1070.106956,1762.019645,148.041188,9178.553681
1070.107272,2374.896044,518.144159,9104.533087
1070.107588,1838.629195,296.082377,9030.512492
1070.107904,2221.676944,148.041188,9844.739029
1070.108220,1532.190996,-0.000000,9844.739029
1070.108536,1378.971896,-0.000000,9178.553681
1070.108852,1225.752797,370.102971,9326.594869
1070.109168,995.924147,370.102971,9252.574275
1070.109484,1225.752797,370.102971,9474.636058
1070.109799,995.924147,666.185348,9400.615463
1070.110115,536.266849,592.164754,9104.533087
1070.110431,-229.828649,-74.020594,9104.533087
1070.110747,-383.047749,-814.226536,9992.780217
1070.111063,-229.828649,-1406.391290,10288.862594
1070.111379,-612.876398,-1110.308913,10066.800811
1070.111695,-1149.143247,-370.102971,9474.636058
1070.112011,-536.266849,-296.082377,9548.656652
1070.112327,229.828649,-148.041188,9400.615463
1070.112642,-306.438199,370.102971,8956.491898
1070.112958,-153.219100,1036.288319,9252.574275
1070.113274,153.219100,-0.000000,8882.471304
1070.113590,306.438199,-370.102971,9178.553681
1070.113906,-383.047749,-222.061783,9252.574275
1070.114222,383.047749,148.041188,8734.430116
1070.114538,766.095498,-0.000000,8734.430116
1070.114854,612.876398,296.082377,8808.450710
1070.115170,229.828649,518.144159,8734.430116
1070.115486,0.000000,518.144159,9178.553681
1070.115801,-153.219100,-0.000000,9622.677246
1070.116117,-229.828649,-370.102971,9992.780217
1070.116433,-306.438199,-592.164754,10066.800811
1070.116749,-536.266849,-814.226536,9992.780217
1070.117065,-459.657299,-518.144159,9918.759623
1070.117381,0.000000,-592.164754,10140.821405
1070.117697,306.438199,-296.082377,9622.677246
1070.118013,153.219100,148.041188,9548.656652
1070.118329,919.314598,296.082377,9918.759623
1070.118645,919.314598,-0.000000,9696.697840
1070.118960,1915.238745,-0.000000,9548.656652
1070.119276,2145.067394,-0.000000,9178.553681
1070.119592,2451.505594,-0.000000,8956.491898
1070.119908,2987.772442,-148.041188,8956.491898
1070.120224,2911.162892,-0.000000,9178.553681
1070.120540,2298.286494,222.061783,8660.409521
1070.120856,1991.848295,444.123565,9548.656652
1070.121172,1532.190996,148.041188,9844.739029
1070.121488,1225.752797,-444.123565,9696.697840
1070.121804,153.219100,-296.082377,9622.677246
1070.122119,0.000000,-962.267725,10140.821405
1070.122435,0.000000,-1184.329507,10510.924376
1070.122751,0.000000,-1332.370696,10362.883188
1070.123067,-229.828649,-740.205942,9992.780217
1070.123383,-689.485948,-1184.329507,10066.800811
1070.123699,229.828649,-1184.329507,10214.842000
1070.124015,459.657299,-1036.288319,10288.862594
1070.124331,612.876398,-444.123565,9622.677246
1070.124647,1149.143247,-0.000000,9030.512492
1070.124963,1532.190996,-0.000000,8586.388927
1070.125278,1685.410096,296.082377,8882.471304
1070.125594,1455.581446,666.185348,8734.430116
1070.125910,1302.362347,740.205942,8512.368333
1070.126226,1378.971896,444.123565,8882.471304
1070.126542,1302.362347,444.123565,9104.533087
1070.126858,689.485948,518.144159,9474.636058
1070.127174,153.219100,370.102971,8808.450710
1070.127490,-229.828649,148.041188,8882.471304
1070.127806,-689.485948,-518.144159,9918.759623
1070.128122,-689.485948,-888.247130,9844.739029
1070.128437,-1378.971896,-740.205942,10288.862594
1070.128753,-919.314598,-888.247130,10807.006753
1070.129069,-766.095498,-1184.329507,10140.821405
1070.129385,0.000000,-666.185348,9252.574275
1070.129701,0.000000,-0.000000,9030.512492
1070.130017,459.657299,148.041188,8956.491898
1070.130333,995.924147,148.041188,8808.450710
1070.130649,842.705048,370.102971,8512.368333
1070.130965,1072.533697,296.082377,8956.491898
1070.131280,842.705048,370.102971,9030.512492
1070.131596,919.314598,148.041188,9474.636058
1070.131912,919.314598,222.061783,9252.574275
1070.132228,306.438199,-0.000000,9104.533087
1070.132544,536.266849,-0.000000,8956.491898
1070.132860,766.095498,-0.000000,9326.594869
1070.133176,229.828649,-222.061783,9622.677246
1070.133492,-459.657299,-0.000000,9622.677246
1070.133808,-612.876398,-148.041188,10584.944971
1070.134124,-459.657299,-666.185348,10436.903782
1070.134439,-459.657299,-740.205942,10362.883188
1070.134755,-766.095498,444.123565,9622.677246
1070.135071,0.000000,370.102971,9474.636058
1070.135387,766.095498,148.041188,9030.512492
1070.135703,689.485948,666.185348,9104.533087
1070.136019,153.219100,518.144159,9104.533087
1070.136335,153.219100,296.082377,9548.656652
1070.136651,612.876398,-0.000000,9844.739029
1070.136967,229.828649,-0.000000,9696.697840
1070.137283,153.219100,444.123565,9622.677246
1070.137598,153.219100,296.082377,9474.636058
1070.137914,612.876398,222.061783,9326.594869
1070.138230,612.876398,444.123565,9178.553681
1070.138546,459.657299,222.061783,10140.821405
1070.138862,0.000000,-0.000000,9474.636058
1070.139178,229.828649,-592.164754,10362.883188
1070.139494,76.609550,-592.164754,10362.883188
1070.139810,153.219100,-148.041188,9622.677246
1070.140126,612.876398,-0.000000,9104.533087
1070.140442,536.266849,296.082377,9400.615463
1070.140757,689.485948,444.123565,9252.574275
1070.141073,612.876398,444.123565,9030.512492
1070.141389,383.047749,-0.000000,9548.656652
1070.141705,383.047749,-296.082377,9992.780217
1070.142021,459.657299,-592.164754,10584.944971
1070.142337,766.095498,-148.041188,9474.636058
1070.142653,612.876398,-370.102971,9400.615463
1070.142969,2068.457845,-296.082377,9326.594869
1070.143285,1532.190996,-296.082377,9178.553681
1070.143601,1225.752797,-148.041188,9178.553681
1070.143916,1302.362347,-518.144159,9696.697840
1070.144232,1302.362347,-740.205942,9918.759623
1070.144548,1455.581446,-296.082377,9622.677246
1070.144864,1225.752797,-592.164754,9252.574275
1070.145180,1072.533697,-444.123565,9104.533087
1070.145496,1302.362347,-444.123565,9252.574275
1070.145812,1378.971896,-370.102971,8734.430116
1070.146128,995.924147,-592.164754,9104.533087
1070.146444,306.438199,-592.164754,9474.636058
1070.146759,383.047749,-814.226536,9918.759623
1070.147075,306.438199,-1110.308913,9622.677246
1070.147391,383.047749,-814.226536,9474.636058
1070.147707,-536.266849,-888.247130,9400.615463
1070.148023,-229.828649,-962.267725,9548.656652
1070.148339,229.828649,-1110.308913,9400.615463
1070.148655,306.438199,-1110.308913,9400.615463
1070.148971,76.609550,-888.247130,9696.697840
1070.149287,153.219100,-1332.370696,9844.739029
1070.149603,612.876398,-1036.288319,9844.739029
1070.149918,689.485948,-740.205942,9178.553681
1070.150234,76.609550,-296.082377,8882.471304
1070.150550,612.876398,370.102971,8734.430116
1070.150866,766.095498,296.082377,8364.327145
1070.151182,383.047749,518.144159,8068.244768
1070.151498,76.609550,-74.020594,9104.533087
1070.151814,-459.657299,-444.123565,9548.656652
1070.152130,153.219100,-740.205942,9918.759623
1070.152446,-153.219100,-666.185348,9252.574275
1070.152762,-766.095498,-592.164754,9548.656652
1070.153077,-612.876398,-888.247130,9474.636058
1070.153393,0.000000,-888.247130,9474.636058
1070.153709,-229.828649,-592.164754,9474.636058
1070.154025,-536.266849,-296.082377,9548.656652
1070.154341,0.000000,-0.000000,9844.739029
1070.154657,766.095498,-222.061783,9770.718434
1070.154973,842.705048,-74.020594,9992.780217
1070.155289,766.095498,296.082377,8808.450710
1070.155605,995.924147,518.144159,8216.285956
1070.155921,1838.629195,666.185348,9030.512492
1070.156236,1608.800546,444.123565,8734.430116
1070.156552,995.924147,740.205942,9104.533087
1070.156868,612.876398,814.226536,9622.677246
1070.157184,766.095498,370.102971,9696.697840
1070.157500,766.095498,222.061783,9918.759623
1070.157816,0.000000,-222.061783,10066.800811
1070.158132,153.219100,-0.000000,10214.842000
1070.158448,76.609550,-0.000000,9400.615463
1070.158764,0.000000,74.020594,9844.739029
1070.159080,76.609550,-148.041188,10288.862594
1070.159395,0.000000,370.102971,10362.883188
1070.159711,-153.219100,518.144159,10066.800811
1070.160027,612.876398,222.061783,10584.944971
1070.160343,689.485948,444.123565,9474.636058
1070.160659,612.876398,444.123565,9252.574275
1070.160975,1072.533697,1036.288319,9030.512492
1070.161291,1608.800546,-0.000000,9326.594869
1070.161607,1302.362347,370.102971,9474.636058
1070.161923,689.485948,1110.308913,9622.677246
1070.162238,229.828649,-148.041188,9696.697840
1070.162554,689.485948,-148.041188,10214.842000
1070.162870,0.000000,-0.000000,9030.512492
1070.163186,0.000000,-148.041188,9030.512492
1070.163502,306.438199,-0.000000,9622.677246
1070.163818,0.000000,-666.185348,9696.697840
1070.164134,-306.438199,-370.102971,10214.842000
1070.164450,0.000000,-444.123565,10288.862594
1070.164766,-536.266849,-888.247130,10288.862594
1070.165082,76.609550,-370.102971,10140.821405
1070.165397,306.438199,-444.123565,9548.656652
1070.165713,383.047749,-222.061783,9104.533087
1070.166029,383.047749,-370.102971,9326.594869
1070.166345,1072.533697,-666.185348,8808.450710
1070.166661,1149.143247,-148.041188,9400.615463
1070.166977,766.095498,222.061783,8956.491898
1070.167293,842.705048,444.123565,8586.388927
1070.167609,1455.581446,-592.164754,9252.574275
1070.167925,1072.533697,-222.061783,8956.491898
1070.168241,459.657299,-814.226536,8808.450710
1070.168556,919.314598,-962.267725,9030.512492
1070.168872,1072.533697,-1184.329507,8882.471304
1070.169188,306.438199,-1184.329507,9252.574275
1070.169504,383.047749,-1184.329507,9622.677246
1070.169820,0.000000,-1332.370696,9326.594869
1070.170136,76.609550,-1110.308913,10362.883188
1070.170452,383.047749,-962.267725,9474.636058
1070.170768,306.438199,-1110.308913,8290.306550
1070.171084,153.219100,-962.267725,8956.491898
1070.171400,1149.143247,-1036.288319,9030.512492
1070.171715,1455.581446,-740.205942,8734.430116
1070.172031,1072.533697,-74.020594,9474.636058
1070.172347,766.095498,-518.144159,9474.636058
1070.172663,1149.143247,-370.102971,9104.533087
1070.172979,919.314598,-148.041188,9030.512492
1070.173295,459.657299,-0.000000,8956.491898
1070.173611,1225.752797,-370.102971,9326.594869
1070.173927,766.095498,-888.247130,9104.533087
1070.174243,229.828649,-592.164754,9326.594869
1070.174559,0.000000,-666.185348,9622.677246
1070.174874,-153.219100,-1110.308913,9918.759623
1070.175190,-229.828649,-1258.350101,9918.759623
1070.175506,-153.219100,-1036.288319,10362.883188
1070.175822,0.000000,-222.061783,9474.636058
1070.176138,0.000000,-444.123565,9326.594869
1070.176454,229.828649,-222.061783,9400.615463
1070.176770,842.705048,-370.102971,9030.512492
1070.177086,0.000000,-148.041188,9252.574275
1070.177402,76.609550,148.041188,9622.677246
1070.177717,612.876398,-74.020594,9770.718434
1070.178033,766.095498,-74.020594,9770.718434
1070.178349,1072.533697,370.102971,9548.656652
1070.178665,612.876398,740.205942,8734.430116
1070.178981,1225.752797,222.061783,8956.491898
1070.179297,1302.362347,-0.000000,8956.491898
1070.179613,1532.190996,222.061783,9770.718434
1070.179929,919.314598,-222.061783,10066.800811
1070.180245,766.095498,222.061783,9844.739029
1070.180561,689.485948,740.205942,9992.780217
1070.180876,306.438199,592.164754,9474.636058
1070.181192,459.657299,962.267725,9030.512492
1070.181508,612.876398,592.164754,9548.656652
1070.181824,536.266849,444.123565,9548.656652
1070.182140,153.219100,296.082377,9770.718434
1070.182456,-229.828649,370.102971,9844.739029
1070.182772,0.000000,74.020594,10288.862594
1070.183088,306.438199,-0.000000,10436.903782
1070.183404,-612.876398,222.061783,9696.697840
1070.183720,0.000000,740.205942,9622.677246
1070.184035,306.438199,962.267725,9548.656652
1070.184351,1302.362347,592.164754,9030.512492
1070.184667,459.657299,666.185348,8882.471304
1070.184983,383.047749,740.205942,9474.636058
1070.185299,766.095498,666.185348,9918.759623
1070.185615,995.924147,740.205942,9696.697840
1070.185931,1302.362347,1332.370696,9400.615463
1070.186247,0.000000,962.267725,9400.615463
1070.186563,0.000000,518.144159,9474.636058
1070.186879,0.000000,-0.000000,9400.615463
1070.187194,-766.095498,-74.020594,9992.780217
1070.187510,-1072.533697,-740.205942,10288.862594
1070.187826,-1378.971896,-444.123565,10510.924376
1070.188142,-1149.143247,-74.020594,10288.862594
1070.188458,-1072.533697,-444.123565,10140.821405
1070.188774,-919.314598,-0.000000,9696.697840
1070.189090,-612.876398,-74.020594,9178.553681
1070.189406,0.000000,-444.123565,9252.574275
1070.189722,229.828649,-296.082377,9104.533087
1070.190038,0.000000,-296.082377,9326.594869
1070.190353,459.657299,-222.061783,9400.615463
1070.190669,995.924147,-222.061783,9474.636058
1070.190985,766.095498,-0.000000,8808.450710
1070.191301,689.485948,-0.000000,8438.347739
1070.191617,612.876398,-370.102971,8808.450710
1070.191933,995.924147,-148.041188,9104.533087
1070.192249,1149.143247,-370.102971,8956.491898
1070.192565,0.000000,-666.185348,9030.512492
1070.192881,0.000000,-592.164754,10066.800811
1070.193196,0.000000,-888.247130,9696.697840
1070.193512,-612.876398,-666.185348,10362.883188
1070.193828,76.609550,-518.144159,9474.636058
1070.194144,76.609550,-888.247130,8660.409521
1070.194460,689.485948,-1332.370696,9622.677246
1070.194776,689.485948,-1184.329507,9326.594869
1070.195092,689.485948,-1184.329507,9696.697840
1070.195408,919.314598,-1184.329507,9548.656652
1070.195724,1225.752797,-1258.350101,10066.800811
1070.196040,1838.629195,-370.102971,9030.512492
1070.196355,2068.457845,-0.000000,8660.409521
1070.196671,1608.800546,-0.000000,8660.409521
1070.196987,1915.238745,-222.061783,8586.388927
1070.197303,2298.286494,-518.144159,8734.430116
1070.197619,1685.410096,-592.164754,9104.533087
1070.197935,1072.533697,-666.185348,9474.636058
1070.198251,1149.143247,-1110.308913,9474.636058
1070.198567,612.876398,-814.226536,9918.759623
1070.198883,229.828649,-814.226536,9844.739029
1070.199199,153.219100,-1184.329507,9696.697840
1070.199514,459.657299,-1036.288319,9770.718434
1070.199830,306.438199,-1406.391290,9770.718434
1070.200146,0.000000,-1184.329507,10066.800811
1070.200462,0.000000,-1258.350101,10288.862594
1070.200778,0.000000,-814.226536,10362.883188
1070.201094,689.485948,-370.102971,10140.821405
1070.201410,766.095498,-0.000000,9326.594869
1070.201726,766.095498,518.144159,8808.450710
1070.202042,1302.362347,444.123565,9104.533087
1070.202358,1608.800546,-0.000000,8882.471304
1070.202673,1225.752797,-0.000000,9104.533087
1070.202989,689.485948,-0.000000,9474.636058
1070.203305,612.876398,-0.000000,9474.636058
1070.203621,459.657299,-148.041188,10584.944971
1070.203937,229.828649,-296.082377,9770.718434
1070.204253,0.000000,444.123565,9326.594869
1070.204569,76.609550,296.082377,9178.553681
1070.204885,76.609550,-0.000000,9474.636058
1070.205201,-459.657299,-370.102971,9918.759623
1070.205517,-229.828649,-444.123565,10288.862594
1070.205832,0.000000,-0.000000,9622.677246
1070.206148,-306.438199,-0.000000,9844.739029
1070.206464,0.000000,222.061783,9622.677246
1070.206780,0.000000,592.164754,9030.512492
1070.207096,536.266849,444.123565,8956.491898
1070.207411,766.095498,296.082377,8882.471304
1070.207727,612.876398,518.144159,9030.512492
1070.208043,689.485948,592.164754,9474.636058
1070.208358,536.266849,666.185348,9400.615463
1070.208674,1225.752797,444.123565,9548.656652
1070.208990,383.047749,592.164754,9548.656652
1070.209305,153.219100,888.247130,8734.430116
1070.209621,76.609550,592.164754,9178.553681
1070.209937,229.828649,-0.000000,9104.533087
1070.210252,0.000000,-444.123565,9548.656652
1070.210568,-229.828649,-518.144159,9770.718434
1070.210884,-459.657299,-0.000000,10214.842000
1070.211199,0.000000,-74.020594,10436.903782
1070.211515,-306.438199,444.123565,9696.697840
1070.211831,-229.828649,-0.000000,9474.636058
1070.212146,0.000000,444.123565,9030.512492
1070.212462,306.438199,444.123565,9326.594869
1070.212778,612.876398,-0.000000,8882.471304
1070.213093,306.438199,-0.000000,9474.636058
1070.213409,153.219100,222.061783,9548.656652
1070.213725,306.438199,148.041188,9400.615463
1070.214040,153.219100,370.102971,9474.636058
1070.214356,306.438199,592.164754,9178.553681
1070.214672,0.000000,666.185348,9104.533087
1070.214987,1149.143247,-370.102971,9474.636058
1070.215303,536.266849,-296.082377,9918.759623
1070.215619,153.219100,-518.144159,9696.697840
1070.215934,0.000000,-444.123565,9918.759623
1070.216250,306.438199,-592.164754,10288.862594
1070.216566,229.828649,-518.144159,10288.862594
1070.216881,153.219100,-0.000000,9696.697840
1070.217197,612.876398,296.082377,9178.553681
1070.217513,995.924147,-0.000000,8808.450710
1070.217828,1072.533697,-74.020594,9030.512492
1070.218144,612.876398,-370.102971,9104.533087
1070.218460,1149.143247,-296.082377,9474.636058
1070.218775,1149.143247,-666.185348,9844.739029
1070.219091,995.924147,-370.102971,9622.677246
1070.219407,919.314598,-296.082377,9622.677246
1070.219722,1225.752797,-444.123565,9104.533087
1070.220038,1072.533697,-740.205942,9178.553681
1070.220354,919.314598,-1406.391290,9474.636058
1070.220669,1072.533697,-1480.411884,10214.842000
1070.220985,536.266849,-1036.288319,10140.821405
1070.221301,536.266849,-1110.308913,10214.842000
1070.221616,919.314598,-740.205942,10140.821405
1070.221932,842.705048,-740.205942,9696.697840
1070.222248,842.705048,-370.102971,8808.450710
1070.222564,1455.581446,-740.205942,8956.491898
1070.222879,1149.143247,-1702.473667,9474.636058
1070.223195,766.095498,-666.185348,9474.636058
1070.223511,459.657299,-962.267725,9400.615463
1070.223826,766.095498,-888.247130,9918.759623
1070.224142,612.876398,-444.123565,9992.780217
1070.224458,919.314598,-1036.288319,9178.553681
1070.224773,229.828649,-370.102971,9252.574275
1070.225089,383.047749,-1036.288319,9326.594869
1070.225405,459.657299,-962.267725,9030.512492
1070.225720,612.876398,-1110.308913,9474.636058
1070.226036,76.609550,-1110.308913,9622.677246
1070.226352,459.657299,-962.267725,9992.780217
1070.226667,153.219100,-1036.288319,9622.677246
1070.226983,229.828649,-444.123565,9474.636058
1070.227299,306.438199,370.102971,9178.553681
1070.227614,536.266849,-0.000000,8512.368333
1070.227930,689.485948,222.061783,8586.388927
1070.228246,536.266849,-0.000000,9104.533087
1070.228561,0.000000,-222.061783,9030.512492
1070.228877,0.000000,-74.020594,9844.739029
1070.229193,-153.219100,-740.205942,9770.718434
1070.229508,229.828649,-518.144159,9548.656652
1070.229824,0.000000,370.102971,8956.491898
1070.230140,0.000000,222.061783,8586.388927
1070.230455,612.876398,-296.082377,9474.636058
1070.230771,766.095498,-222.061783,9474.636058
1070.231087,612.876398,518.144159,9252.574275
1070.231402,0.000000,592.164754,9474.636058
1070.231718,842.705048,296.082377,9474.636058
1070.232034,842.705048,370.102971,9400.615463
1070.232349,306.438199,962.267725,9104.533087
1070.232665,383.047749,666.185348,8956.491898
1070.232981,536.266849,592.164754,9104.533087
1070.233296,459.657299,296.082377,9696.697840
1070.233612,-229.828649,370.102971,9474.636058
1070.233928,-306.438199,666.185348,9992.780217
1070.234243,0.000000,148.041188,9992.780217
1070.234559,-383.047749,-0.000000,10288.862594
1070.234875,-229.828649,222.061783,10066.800811
1070.235190,0.000000,222.061783,9622.677246
1070.235506,0.000000,148.041188,9474.636058
1070.235822,766.095498,-0.000000,9696.697840
1070.236137,229.828649,222.061783,9474.636058
1070.236453,383.047749,444.123565,10288.862594
1070.236769,459.657299,-0.000000,10288.862594
1070.237084,1072.533697,222.061783,9548.656652
1070.237400,459.657299,666.185348,9400.615463
1070.237716,536.266849,666.185348,9474.636058
1070.238031,1225.752797,444.123565,9030.512492
1070.238347,842.705048,814.226536,9252.574275
1070.238663,306.438199,444.123565,9474.636058
1070.238978,0.000000,296.082377,10066.800811
1070.239294,-459.657299,148.041188,10066.800811
1070.239610,-153.219100,-222.061783,10066.800811
1070.239925,-76.609550,-148.041188,9844.739029
1070.240241,-612.876398,-74.020594,9992.780217
1070.240557,-306.438199,-296.082377,9992.780217
1070.240872,153.219100,-740.205942,9770.718434
1070.241188,306.438199,-666.185348,9992.780217
1070.241504,0.000000,-148.041188,9918.759623
1070.241820,459.657299,-222.061783,9622.677246
1070.242135,689.485948,-296.082377,9548.656652
1070.242451,1225.752797,222.061783,9548.656652
1070.242767,766.095498,-74.020594,9400.615463
1070.243082,995.924147,-222.061783,8734.430116
1070.243398,1149.143247,-370.102971,8512.368333
1070.243714,766.095498,-370.102971,9104.533087
1070.244029,459.657299,-518.144159,9326.594869
1070.244345,536.266849,-740.205942,9474.636058
1070.244661,229.828649,-740.205942,9622.677246
1070.244976,229.828649,-1184.329507,9844.739029
1070.245292,383.047749,-1332.370696,9178.553681
1070.245608,229.828649,-1036.288319,9104.533087
1070.245923,536.266849,-1110.308913,9918.759623
1070.246239,766.095498,-1258.350101,9622.677246
1070.246555,536.266849,-1480.411884,9178.553681
1070.246870,383.047749,-1184.329507,9326.594869
1070.247186,1378.971896,-1258.350101,10066.800811
1070.247502,1608.800546,-1332.370696,9326.594869
1070.247817,1532.190996,-518.144159,8512.368333
1070.248133,1532.190996,-296.082377,7994.224174
1070.248449,1991.848295,-888.247130,8512.368333
1070.248764,2298.286494,-444.123565,8142.265362
1070.249080,1149.143247,-296.082377,8290.306550
1070.249396,842.705048,-296.082377,8956.491898
1070.249711,842.705048,-814.226536,9474.636058
1070.250027,536.266849,-1332.370696,9400.615463
1070.250343,0.000000,-1406.391290,9104.533087
1070.250658,-229.828649,-1332.370696,9252.574275
1070.250974,0.000000,-1480.411884,9474.636058
1070.251290,76.609550,-1776.494261,9696.697840
1070.251605,-229.828649,-1480.411884,9992.780217
1070.251921,-383.047749,-814.226536,9770.718434
1070.252237,-306.438199,-888.247130,9992.780217
1070.252552,383.047749,-518.144159,9992.780217
1070.252868,153.219100,222.061783,9030.512492
1070.253184,229.828649,-518.144159,9104.533087
1070.253499,766.095498,-74.020594,9030.512492
1070.253815,1225.752797,-0.000000,8956.491898
1070.254131,919.314598,444.123565,9104.533087
1070.254446,306.438199,666.185348,9400.615463
1070.254762,536.266849,370.102971,9770.718434
1070.255078,995.924147,444.123565,9770.718434
1070.255393,383.047749,518.144159,9622.677246
1070.255709,0.000000,740.205942,9474.636058
1070.256025,536.266849,740.205942,9178.553681
1070.256340,689.485948,370.102971,9474.636058
1070.256656,229.828649,148.041188,9696.697840
1070.256972,0.000000,444.123565,10066.800811
1070.257287,-153.219100,370.102971,9844.739029
1070.257603,0.000000,-0.000000,10362.883188
1070.257919,383.047749,-148.041188,10214.842000
1070.258234,0.000000,148.041188,9918.759623
1070.258550,306.438199,666.185348,9622.677246
1070.258866,766.095498,-0.000000,9252.574275
1070.259181,689.485948,666.185348,9474.636058
1070.259497,153.219100,1332.370696,9400.615463
1070.259813,612.876398,888.247130,9918.759623
1070.260129,536.266849,888.247130,9474.636058
1070.260444,229.828649,222.061783,9548.656652
1070.260760,306.438199,518.144159,9548.656652
1070.261076,0.000000,-0.000000,9400.615463
1070.261391,76.609550,-0.000000,9770.718434
1070.261707,229.828649,-74.020594,9548.656652
1070.262023,-153.219100,-0.000000,9622.677246
1070.262338,-229.828649,-74.020594,10140.821405
1070.262654,-306.438199,370.102971,10288.862594
1070.262970,76.609550,370.102971,9844.739029
1070.263285,0.000000,592.164754,9400.615463
1070.263601,612.876398,296.082377,8734.430116
1070.263917,612.876398,-0.000000,8956.491898
1070.264232,306.438199,-0.000000,9104.533087
1070.264548,153.219100,296.082377,9178.553681
1070.264864,0.000000,592.164754,9178.553681
1070.265179,0.000000,-0.000000,9992.780217
1070.265495,-306.438199,-0.000000,9474.636058
1070.265811,-306.438199,148.041188,9178.553681
1070.266126,-306.438199,-0.000000,9104.533087
1070.266442,0.000000,-370.102971,9400.615463
1070.266758,306.438199,-740.205942,9844.739029
1070.267073,0.000000,-0.000000,8956.491898
1070.267389,76.609550,296.082377,9104.533087
1070.267705,383.047749,-444.123565,9474.636058
1070.268020,459.657299,-1036.288319,9992.780217
1070.268336,612.876398,-222.061783,9474.636058
1070.268652,919.314598,-0.000000,9400.615463
1070.268967,1225.752797,-0.000000,8956.491898
1070.269283,1072.533697,-0.000000,9030.512492
1070.269599,1225.752797,148.041188,8734.430116
1070.269914,1225.752797,-148.041188,9326.594869
1070.270230,612.876398,-222.061783,9400.615463
1070.270546,689.485948,-666.185348,10066.800811
1070.270861,459.657299,-962.267725,9548.656652
1070.271177,383.047749,-666.185348,9252.574275
1070.271493,306.438199,-1406.391290,9474.636058
1070.271808,689.485948,-1776.494261,9844.739029
1070.272124,995.924147,-1258.350101,9474.636058
1070.272440,459.657299,-1036.288319,9696.697840
1070.272755,766.095498,-1258.350101,9770.718434
1070.273071,995.924147,-1258.350101,9992.780217
1070.273387,1072.533697,-666.185348,9178.553681
1070.273702,1225.752797,-222.061783,8512.368333
1070.274018,1302.362347,-888.247130,8882.471304
1070.274334,1149.143247,-962.267725,9178.553681
1070.274649,1072.533697,-1258.350101,9252.574275
1070.274965,842.705048,-666.185348,9548.656652
1070.275281,153.219100,-962.267725,10288.862594
1070.275596,383.047749,-1110.308913,9992.780217
1070.275912,612.876398,-1258.350101,9918.759623
1070.276228,229.828649,-888.247130,9474.636058
1070.276543,306.438199,-740.205942,9326.594869
1070.276859,842.705048,-740.205942,9400.615463
1070.277175,536.266849,-518.144159,9474.636058
1070.277490,229.828649,-370.102971,9622.677246
1070.277806,919.314598,-740.205942,9770.718434
1070.278122,766.095498,-888.247130,10140.821405
1070.278438,689.485948,-74.020594,9770.718434
1070.278753,689.485948,-0.000000,8734.430116
1070.279069,842.705048,-148.041188,8956.491898
1070.279385,1302.362347,-148.041188,9400.615463
1070.279700,1072.533697,-0.000000,9178.553681
1070.280016,153.219100,296.082377,9252.574275
1070.280332,153.219100,148.041188,9474.636058
1070.280647,536.266849,-0.000000,9918.759623
1070.280963,229.828649,-148.041188,9252.574275
1070.281279,0.000000,148.041188,9252.574275
1070.281594,0.000000,-0.000000,9326.594869
1070.281910,153.219100,-148.041188,9474.636058
1070.282226,766.095498,222.061783,9400.615463
1070.282541,229.828649,296.082377,9178.553681
1070.282857,76.609550,148.041188,9770.718434
1070.283173,383.047749,-0.000000,9770.718434
1070.283488,306.438199,-0.000000,9474.636058
1070.283804,612.876398,222.061783,9178.553681
1070.284120,612.876398,444.123565,8586.388927
1070.284435,766.095498,962.267725,9030.512492
1070.284751,689.485948,740.205942,8882.471304
1070.285067,229.828649,1036.288319,9400.615463
1070.285382,0.000000,370.102971,9474.636058
1070.285698,0.000000,518.144159,9696.697840
1070.286014,0.000000,370.102971,10140.821405
1070.286329,-459.657299,-0.000000,9992.780217
1070.286645,-536.266849,296.082377,9548.656652
1070.286961,76.609550,444.123565,9326.594869
1070.287276,383.047749,296.082377,9474.636058
1070.287592,76.609550,666.185348,9474.636058
1070.287908,-383.047749,518.144159,9622.677246
1070.288223,76.609550,518.144159,9770.718434
1070.288539,76.609550,370.102971,9918.759623
1070.288855,76.609550,814.226536,9474.636058
1070.289170,153.219100,962.267725,9030.512492
1070.289486,383.047749,518.144159,9178.553681
1070.289802,459.657299,518.144159,9030.512492
1070.290117,0.000000,370.102971,9104.533087
1070.290433,-383.047749,-0.000000,9992.780217
1070.290749,-153.219100,-148.041188,10288.862594
1070.291064,0.000000,-0.000000,9918.759623
1070.291380,306.438199,-370.102971,9548.656652
1070.291696,0.000000,-74.020594,10066.800811
1070.292011,153.219100,296.082377,9474.636058
1070.292327,536.266849,-0.000000,9474.636058
1070.292643,153.219100,-518.144159,9770.718434
1070.292958,306.438199,-370.102971,9844.739029
1070.293274,612.876398,-296.082377,10214.842000
1070.293590,919.314598,-0.000000,10140.821405
1070.293905,842.705048,-0.000000,9474.636058
1070.294221,1072.533697,370.102971,9252.574275
1070.294537,919.314598,148.041188,9252.574275
1070.294852,1225.752797,-296.082377,9474.636058
1070.295168,995.924147,-148.041188,9474.636058
1070.295484,766.095498,-296.082377,9918.759623
1070.295799,689.485948,-666.185348,10066.800811
1070.296115,995.924147,-740.205942,9844.739029
1070.296431,536.266849,-740.205942,9252.574275
1070.296746,459.657299,-666.185348,9770.718434
1070.297062,536.266849,-1184.329507,9474.636058
1070.297378,689.485948,-1184.329507,9622.677246
1070.297694,536.266849,-1258.350101,9548.656652
1070.298009,383.047749,-1554.432478,9770.718434
1070.298325,459.657299,-1480.411884,9992.780217
1070.298641,536.266849,-1702.473667,10510.924376
1070.298956,919.314598,-1110.308913,9400.615463
1070.299272,1072.533697,-518.144159,9178.553681
1070.299588,1072.533697,-518.144159,8216.285956
1070.299903,1532.190996,-296.082377,8290.306550
1070.300219,995.924147,-740.205942,8956.491898
1070.300535,766.095498,-1406.391290,9030.512492
1070.300850,766.095498,-1480.411884,9770.718434
1070.301166,842.705048,-1924.535449,9326.594869
1070.301482,383.047749,-1480.411884,9474.636058
1070.301797,0.000000,-1406.391290,9326.594869
1070.302113,0.000000,-1184.329507,8882.471304
1070.302429,689.485948,-888.247130,9252.574275
1070.302744,383.047749,-740.205942,9030.512492
1070.303060,459.657299,-740.205942,8734.430116
1070.303376,0.000000,-1258.350101,9474.636058
1070.303691,459.657299,-1628.453072,10214.842000
1070.304007,689.485948,-1036.288319,9474.636058
1070.304323,689.485948,-518.144159,8808.450710
1070.304638,536.266849,222.061783,8290.306550
1070.304954,842.705048,-0.000000,8660.409521
1070.305270,919.314598,-74.020594,8438.347739
1070.305585,612.876398,-0.000000,8882.471304
1070.305901,0.000000,296.082377,9178.553681
1070.306217,612.876398,-0.000000,9770.718434
1070.306532,306.438199,-296.082377,9548.656652
1070.306848,0.000000,148.041188,9252.574275
1070.307164,0.000000,148.041188,8882.471304
1070.307479,229.828649,222.061783,9104.533087
1070.307795,536.266849,-0.000000,9548.656652
1070.308111,306.438199,740.205942,9252.574275
1070.308427,383.047749,222.061783,9770.718434
1070.308743,0.000000,-0.000000,10140.821405
1070.309059,306.438199,-0.000000,10362.883188
1070.309374,689.485948,592.164754,9474.636058
1070.309690,459.657299,1184.329507,9400.615463
1070.310006,306.438199,1924.535449,9548.656652
1070.310322,995.924147,1406.391290,8808.450710
1070.310638,306.438199,1480.411884,9474.636058
1070.310954,153.219100,1258.350101,9992.780217
1070.311270,153.219100,148.041188,10881.027347
1070.311585,229.828649,666.185348,10288.862594
1070.311901,-229.828649,222.061783,10214.842000
1070.312217,-153.219100,444.123565,10140.821405
1070.312533,0.000000,518.144159,10362.883188
1070.312849,0.000000,444.123565,10214.842000
1070.313165,0.000000,592.164754,9992.780217
1070.313480,0.000000,592.164754,10362.883188
1070.313796,536.266849,296.082377,10436.903782
1070.314112,842.705048,-0.000000,10362.883188
1070.314428,612.876398,740.205942,9696.697840
1070.314744,766.095498,888.247130,9326.594869
1070.315060,995.924147,1036.288319,9252.574275
1070.315376,919.314598,814.226536,9400.615463
1070.315691,459.657299,740.205942,9252.574275
1070.316007,76.609550,740.205942,9622.677246
1070.316323,0.000000,222.061783,10140.821405
1070.316639,306.438199,-296.082377,10288.862594
1070.316955,0.000000,-370.102971,9770.718434
1070.317271,229.828649,-592.164754,9844.739029
1070.317586,0.000000,-370.102971,9326.594869
1070.317902,306.438199,-444.123565,9326.594869
1070.318218,0.000000,-148.041188,9400.615463
1070.318534,-229.828649,-148.041188,9548.656652
1070.318850,-306.438199,-814.226536,9992.780217
1070.319166,459.657299,-592.164754,9474.636058
1070.319481,766.095498,-296.082377,9178.553681
1070.319797,459.657299,-370.102971,8808.450710
1070.320113,919.314598,-148.041188,8808.450710
1070.320429,1378.971896,-296.082377,8290.306550
1070.320745,842.705048,-74.020594,8586.388927
1070.321061,919.314598,-222.061783,8956.491898
1070.321377,153.219100,-444.123565,9104.533087
1070.321692,306.438199,-666.185348,9400.615463
1070.322008,76.609550,-1036.288319,9030.512492
1070.322324,229.828649,-888.247130,8734.430116
1070.322640,0.000000,-1332.370696,9178.553681
1070.322956,306.438199,-1776.494261,9104.533087
1070.323272,612.876398,-1998.556043,9474.636058
1070.323587,306.438199,-1998.556043,9400.615463
1070.323903,76.609550,-1776.494261,9252.574275
1070.324219,689.485948,-1776.494261,9622.677246
1070.324535,995.924147,-1406.391290,9178.553681
1070.324851,689.485948,-740.205942,8882.471304
1070.325167,995.924147,-444.123565,8586.388927
1070.325483,1302.362347,-888.247130,8364.327145
1070.325798,1455.581446,-592.164754,8586.388927
1070.326114,1072.533697,-740.205942,8808.450710
1070.326430,536.266849,-1110.308913,9252.574275
1070.326746,842.705048,-888.247130,10066.800811
1070.327062,766.095498,-1184.329507,9992.780217
1070.327378,306.438199,-1258.350101,9400.615463
1070.327693,0.000000,-814.226536,9400.615463
1070.328009,229.828649,-962.267725,9474.636058
1070.328325,536.266849,-814.226536,9918.759623
1070.328641,459.657299,-148.041188,9696.697840
1070.328957,0.000000,-222.061783,10066.800811
1070.329273,536.266849,-666.185348,9918.759623
1070.329589,612.876398,-814.226536,10214.842000
1070.329904,459.657299,-296.082377,9622.677246
1070.330220,689.485948,-0.000000,9326.594869
1070.330536,1225.752797,148.041188,9104.533087
1070.330852,1532.190996,444.123565,9178.553681
1070.331168,1225.752797,962.267725,9474.636058
1070.331484,383.047749,1110.308913,9548.656652
1070.331799,229.828649,1036.288319,9622.677246
1070.332115,153.219100,148.041188,9918.759623
1070.332431,306.438199,-0.000000,9992.780217
1070.332747,76.609550,-0.000000,9770.718434
1070.333063,76.609550,148.041188,9696.697840
1070.333379,153.219100,-0.000000,9696.697840
1070.333695,153.219100,-0.000000,9622.677246
1070.334010,0.000000,370.102971,9770.718434
1070.334326,-153.219100,74.020594,10732.986159
1070.334642,76.609550,-0.000000,10436.903782
1070.334958,76.609550,222.061783,10140.821405
1070.335274,459.657299,962.267725,9474.636058
1070.335590,1225.752797,888.247130,8364.327145
1070.335905,1149.143247,1258.350101,9030.512492
1070.336221,1225.752797,1036.288319,9252.574275
1070.336537,459.657299,1184.329507,9030.512492
1070.336853,383.047749,962.267725,9474.636058
1070.337169,919.314598,222.061783,9696.697840
1070.337485,383.047749,222.061783,9770.718434
1070.337801,-229.828649,370.102971,9844.739029
1070.338116,-153.219100,444.123565,9474.636058
1070.338432,153.219100,296.082377,9548.656652
1070.338748,306.438199,148.041188,9992.780217
1070.339064,0.000000,296.082377,9474.636058
1070.339380,0.000000,296.082377,9696.697840
1070.339696,0.000000,-370.102971,10066.800811
1070.340011,0.000000,-296.082377,9770.718434
1070.340327,229.828649,-222.061783,9474.636058
1070.340643,612.876398,296.082377,9104.533087
1070.340959,536.266849,370.102971,8438.347739
1070.341275,612.876398,888.247130,8882.471304
1070.341591,306.438199,740.205942,8734.430116
1070.341907,0.000000,666.185348,9104.533087
1070.342222,0.000000,222.061783,9474.636058
1070.342538,0.000000,-0.000000,9252.574275
1070.342854,-689.485948,-444.123565,9400.615463
1070.343170,-383.047749,-1258.350101,9696.697840
1070.343486,-306.438199,-1406.391290,9548.656652
1070.343802,-383.047749,-1258.350101,9844.739029
1070.344117,-383.047749,-666.185348,9474.636058
1070.344433,-919.314598,-1110.308913,9844.739029
1070.344749,-229.828649,-444.123565,10288.862594
1070.345065,306.438199,-592.164754,9992.780217
1070.345381,766.095498,-222.061783,9326.594869
1070.345697,612.876398,-74.020594,8438.347739
1070.346013,1072.533697,-1036.288319,8808.450710
1070.346328,1608.800546,-888.247130,9104.533087
1070.346644,1149.143247,-370.102971,9104.533087
1070.346960,612.876398,-148.041188,9326.594869
1070.347276,919.314598,-148.041188,9548.656652
1070.347592,1072.533697,-1258.350101,9918.759623
1070.347908,612.876398,-962.267725,9770.718434
1070.348223,229.828649,-962.267725,9548.656652
1070.348539,459.657299,-1036.288319,9918.759623
1070.348855,689.485948,-1110.308913,9474.636058
1070.349171,536.266849,-1036.288319,9696.697840
1070.349487,383.047749,-1258.350101,10066.800811
1070.349803,689.485948,-1554.432478,9992.780217
1070.350119,766.095498,-1554.432478,10140.821405
1070.350434,1302.362347,-1184.329507,10140.821405
1070.350750,1149.143247,-222.061783,9400.615463
1070.351066,1685.410096,-0.000000,8438.347739
1070.351382,1838.629195,-592.164754,8956.491898
1070.351698,1532.190996,-962.267725,9030.512492
1070.352014,995.924147,-1110.308913,9548.656652
1070.352329,1072.533697,-962.267725,9918.759623
1070.352645,1072.533697,-740.205942,9770.718434
1070.352961,612.876398,-740.205942,9548.656652
1070.353277,76.609550,-1036.288319,9474.636058
1070.353593,536.266849,-1406.391290,9474.636058
1070.353909,536.266849,-1480.411884,9622.677246
1070.354225,153.219100,-1036.288319,9918.759623
1070.354540,0.000000,-296.082377,10140.821405
1070.354856,76.609550,-0.000000,9252.574275
1070.355172,766.095498,-444.123565,9474.636058
1070.355488,612.876398,222.061783,9548.656652
1070.355804,766.095498,-296.082377,9326.594869
1070.356120,919.314598,-0.000000,8660.409521
1070.356435,1072.533697,-148.041188,8512.368333
1070.356751,995.924147,-444.123565,8734.430116
1070.357067,689.485948,-74.020594,9104.533087
1070.357383,-229.828649,-74.020594,9030.512492
1070.357699,-306.438199,-0.000000,9622.677246
1070.358015,0.000000,-148.041188,9696.697840
1070.358331,0.000000,-296.082377,8956.491898
1070.358646,-153.219100,-74.020594,8882.471304
1070.358962,383.047749,-74.020594,8956.491898
1070.359278,842.705048,-0.000000,9178.553681
1070.359594,229.828649,370.102971,9252.574275
1070.359910,383.047749,-0.000000,9548.656652
1070.360226,536.266849,296.082377,9696.697840
1070.360541,612.876398,444.123565,9548.656652
1070.360857,76.609550,888.247130,9474.636058
1070.361173,459.657299,888.247130,9104.533087
1070.361489,766.095498,740.205942,9030.512492
1070.361805,1072.533697,1480.411884,8734.430116
1070.362121,536.266849,1850.514855,8882.471304
1070.362437,536.266849,1332.370696,9326.594869
1070.362752,0.000000,740.205942,10066.800811
1070.363068,153.219100,222.061783,10510.924376
1070.363384,0.000000,518.144159,10066.800811
1070.363700,-612.876398,444.123565,9622.677246
1070.364016,-383.047749,148.041188,9844.739029
1070.364332,0.000000,444.123565,9770.718434
1070.364647,-229.828649,592.164754,9696.697840
1070.364963,-383.047749,814.226536,9844.739029
1070.365279,0.000000,444.123565,10066.800811
1070.365595,76.609550,370.102971,10288.862594
1070.365911,306.438199,518.144159,9918.759623
1070.366227,612.876398,148.041188,9400.615463
1070.366543,383.047749,148.041188,9548.656652
1070.366858,1072.533697,518.144159,9474.636058
1070.367174,229.828649,296.082377,9474.636058
1070.367490,0.000000,888.247130,9548.656652
1070.367806,0.000000,592.164754,10066.800811
1070.368122,0.000000,148.041188,10362.883188
1070.368438,0.000000,148.041188,10214.842000
1070.368753,-536.266849,-0.000000,9474.636058
1070.369069,0.000000,-370.102971,9992.780217
1070.369385,76.609550,-518.144159,9992.780217
1070.369701,76.609550,-222.061783,9548.656652
1070.370017,-383.047749,-0.000000,10140.821405
1070.370333,-383.047749,-666.185348,10362.883188
1070.370649,306.438199,-740.205942,10288.862594
1070.370964,536.266849,-444.123565,10140.821405
1070.371280,536.266849,-0.000000,9104.533087
1070.371596,1225.752797,-222.061783,9104.533087
1070.371912,1762.019645,-296.082377,8882.471304
1070.372228,1455.581446,-296.082377,8808.450710
1070.372544,1532.190996,-296.082377,9252.574275
1070.372859,1455.581446,-0.000000,8882.471304
1070.373175,1378.971896,-296.082377,9178.553681
1070.373491,1149.143247,-518.144159,9030.512492
1070.373807,919.314598,-1258.350101,9178.553681
1070.374123,689.485948,-1554.432478,9104.533087
1070.374439,766.095498,-1776.494261,9178.553681
1070.374755,766.095498,-2220.617826,9252.574275
1070.375070,459.657299,-1998.556043,9548.656652
1070.375386,689.485948,-2072.576638,9696.697840
1070.375702,383.047749,-1628.453072,9696.697840
1070.376018,842.705048,-1776.494261,9696.697840
1070.376334,995.924147,-1258.350101,8734.430116
1070.376650,1225.752797,-1332.370696,8586.388927
1070.376965,1378.971896,-1406.391290,8512.368333
1070.377281,1149.143247,-1406.391290,8734.430116
1070.377597,1072.533697,-1036.288319,8808.450710
1070.377913,766.095498,-962.267725,8882.471304
1070.378229,1455.581446,-1110.308913,9178.553681
1070.378545,1685.410096,-814.226536,9326.594869
1070.378861,766.095498,-740.205942,8808.450710
1070.379176,612.876398,-962.267725,9030.512492
1070.379492,689.485948,-1628.453072,9104.533087
1070.379808,842.705048,-1258.350101,9178.553681
1070.380124,306.438199,-1036.288319,9252.574275
1070.380440,0.000000,-1110.308913,9696.697840
1070.380756,0.000000,-1332.370696,10214.842000
1070.381071,0.000000,-962.267725,9992.780217
1070.381387,76.609550,-222.061783,9178.553681
1070.381703,0.000000,-148.041188,9030.512492
1070.382019,459.657299,-296.082377,8808.450710
1070.382335,842.705048,-148.041188,9252.574275
1070.382651,383.047749,-148.041188,9326.594869
1070.382967,0.000000,222.061783,9104.533087
1070.383282,-153.219100,518.144159,9474.636058
1070.383598,0.000000,222.061783,9770.718434
1070.383914,0.000000,592.164754,9548.656652
1070.384230,76.609550,296.082377,9326.594869
1070.384546,76.609550,148.041188,9474.636058
1070.384862,306.438199,-148.041188,9696.697840
1070.385177,153.219100,-0.000000,9474.636058
1070.385493,-153.219100,444.123565,9844.739029
1070.385809,0.000000,592.164754,10066.800811
1070.386125,306.438199,740.205942,10436.903782
1070.386441,459.657299,1184.329507,10140.821405
1070.386757,76.609550,1628.453072,9622.677246
1070.387073,306.438199,1110.308913,9252.574275
1070.387388,459.657299,1406.391290,9252.574275
1070.387704,306.438199,1406.391290,9030.512492
1070.388020,0.000000,1258.350101,9992.780217
1070.388336,0.000000,1184.329507,10288.862594
1070.388652,153.219100,666.185348,9844.739029
1070.388968,0.000000,888.247130,10510.924376
1070.389283,-306.438199,666.185348,9474.636058
1070.389599,-153.219100,888.247130,9696.697840
1070.389915,306.438199,518.144159,10066.800811
1070.390231,536.266849,666.185348,9770.718434
1070.390547,-229.828649,740.205942,9918.759623
1070.390863,-153.219100,222.061783,9844.739029
1070.391179,0.000000,-0.000000,10214.842000
1070.391494,689.485948,-0.000000,10288.862594
1070.391810,536.266849,814.226536,9252.574275
1070.392126,612.876398,1036.288319,8882.471304
1070.392442,995.924147,814.226536,8882.471304
1070.392758,766.095498,666.185348,9030.512492
1070.393074,76.609550,888.247130,9326.594869
1070.393389,306.438199,518.144159,9548.656652
1070.393705,306.438199,666.185348,9474.636058
1070.394021,-383.047749,444.123565,9696.697840
1070.394337,-612.876398,148.041188,9474.636058
1070.394653,0.000000,-370.102971,9474.636058
1070.394969,-842.705048,-444.123565,9178.553681
1070.395285,0.000000,-370.102971,9474.636058
1070.395600,76.609550,-518.144159,9844.739029
1070.395916,0.000000,-592.164754,10140.821405
1070.396232,153.219100,-962.267725,10140.821405
1070.396548,612.876398,-740.205942,9844.739029
1070.396864,612.876398,-0.000000,9252.574275
1070.397180,766.095498,148.041188,8290.306550
1070.397495,1225.752797,-74.020594,8364.327145
1070.397811,1455.581446,-444.123565,8956.491898
1070.398127,1149.143247,-370.102971,8586.388927
1070.398443,1149.143247,-962.267725,9474.636058
1070.398759,612.876398,-1184.329507,9622.677246
1070.399075,919.314598,-1184.329507,9696.697840
1070.399390,689.485948,-962.267725,9178.553681
1070.399706,689.485948,-1332.370696,9104.533087
1070.400022,1072.533697,-1406.391290,9104.533087
1070.400338,995.924147,-1480.411884,9104.533087
1070.400654,689.485948,-1406.391290,9400.615463
1070.400970,383.047749,-1850.514855,9770.718434
1070.401286,919.314598,-1554.432478,10140.821405
1070.401601,842.705048,-1702.473667,9326.594869
1070.401917,842.705048,-1628.453072,9474.636058
1070.402233,1225.752797,-1406.391290,8808.450710
1070.402549,1302.362347,-1184.329507,8882.471304
1070.402865,1532.190996,-1332.370696,9178.553681
1070.403181,1302.362347,-962.267725,9252.574275
1070.403496,689.485948,-888.247130,9400.615463
1070.403812,689.485948,-888.247130,9696.697840
1070.404128,612.876398,-1036.288319,10140.821405
1070.404444,689.485948,-1258.350101,9696.697840
1070.404760,229.828649,-888.247130,9622.677246
1070.405076,153.219100,-1406.391290,9474.636058
1070.405392,536.266849,-1184.329507,9326.594869
1070.405707,689.485948,-1184.329507,9474.636058
1070.406023,0.000000,-740.205942,9770.718434
1070.406339,153.219100,-814.226536,10214.842000
1070.406655,229.828649,-518.144159,9770.718434
1070.406971,229.828649,-74.020594,9696.697840
1070.407287,612.876398,-444.123565,9326.594869
1070.407602,919.314598,-370.102971,9030.512492
1070.407918,1225.752797,-74.020594,9030.512492
1070.408234,1149.143247,-0.000000,9030.512492
1070.408550,536.266849,-0.000000,9030.512492
1070.408866,612.876398,-74.020594,9548.656652
1070.409181,76.609550,370.102971,9844.739029
1070.409497,383.047749,370.102971,9326.594869
1070.409813,0.000000,518.144159,9178.553681
1070.410129,0.000000,296.082377,9252.574275
1070.410444,229.828649,-0.000000,9252.574275
1070.410760,306.438199,148.041188,9178.553681
1070.411076,76.609550,148.041188,9622.677246
1070.411392,-306.438199,-0.000000,9918.759623
1070.411707,0.000000,592.164754,9992.780217
1070.412023,459.657299,370.102971,9326.594869
1070.412339,229.828649,888.247130,9474.636058
1070.412654,459.657299,962.267725,8956.491898
1070.412970,919.314598,962.267725,8956.491898
1070.413286,1532.190996,888.247130,9252.574275
1070.413602,306.438199,666.185348,9622.677246
1070.413917,536.266849,1406.391290,9622.677246
1070.414233,229.828649,1258.350101,9252.574275
1070.414549,459.657299,592.164754,9696.697840
1070.414865,383.047749,592.164754,9918.759623
1070.415180,153.219100,814.226536,9474.636058
1070.415496,306.438199,518.144159,9326.594869
1070.415812,306.438199,740.205942,9474.636058
1070.416128,-153.219100,1036.288319,9548.656652
1070.416443,-612.876398,1036.288319,10066.800811
1070.416759,0.000000,666.185348,9992.780217
1070.417075,-153.219100,296.082377,9992.780217
1070.417390,-229.828649,-0.000000,9992.780217
1070.417706,0.000000,-0.000000,9992.780217
1070.418022,0.000000,148.041188,9474.636058
1070.418338,-229.828649,444.123565,9474.636058
1070.418653,76.609550,296.082377,9474.636058
1070.418969,0.000000,814.226536,9918.759623
1070.419285,-229.828649,814.226536,9622.677246
1070.419601,0.000000,444.123565,9770.718434
1070.419916,229.828649,-0.000000,10362.883188
1070.420232,0.000000,74.020594,9326.594869
1070.420548,459.657299,-74.020594,9474.636058
1070.420863,536.266849,-148.041188,9548.656652
1070.421179,383.047749,-518.144159,9548.656652
1070.421495,0.000000,-222.061783,9474.636058
1070.421811,76.609550,-222.061783,9844.739029
1070.422126,306.438199,-592.164754,10066.800811
1070.422442,536.266849,-888.247130,9548.656652
1070.422758,-153.219100,-148.041188,9474.636058
1070.423074,306.438199,-222.061783,9326.594869
1070.423389,1378.971896,-962.267725,9178.553681
1070.423705,1072.533697,-592.164754,9030.512492
1070.424021,459.657299,-296.082377,8882.471304
1070.424336,459.657299,-814.226536,9474.636058
1070.424652,766.095498,-1036.288319,9770.718434
1070.424968,612.876398,-1184.329507,9696.697840
1070.425284,689.485948,-1036.288319,9252.574275
1070.425599,612.876398,-1036.288319,9178.553681
1070.425915,1149.143247,-888.247130,9252.574275
1070.426231,1378.971896,-1184.329507,9178.553681
1070.426547,689.485948,-1110.308913,8956.491898
1070.426862,766.095498,-1554.432478,9622.677246
1070.427178,1225.752797,-1554.432478,9770.718434
1070.427494,1072.533697,-1776.494261,9474.636058
1070.427809,842.705048,-1776.494261,9326.594869
1070.428125,995.924147,-962.267725,8882.471304
1070.428441,1378.971896,-1036.288319,8882.471304
1070.428757,1608.800546,-1628.453072,9104.533087
1070.429072,1072.533697,-1332.370696,9104.533087
1070.429388,306.438199,-814.226536,9474.636058
1070.429704,689.485948,-1110.308913,9844.739029
1070.430020,689.485948,-1036.288319,9400.615463
1070.430335,383.047749,-1110.308913,8956.491898
1070.430651,153.219100,-1406.391290,9178.553681
1070.430967,459.657299,-1406.391290,9252.574275
1070.431282,612.876398,-1110.308913,9252.574275
1070.431598,229.828649,-1332.370696,9474.636058
1070.431914,-383.047749,-1332.370696,9474.636058
1070.432230,0.000000,-1036.288319,9844.739029
1070.432545,383.047749,-814.226536,9326.594869
1070.432861,306.438199,-74.020594,8808.450710
1070.433177,383.047749,-0.000000,9178.553681
1070.433493,689.485948,-592.164754,8734.430116
1070.433808,919.314598,-148.041188,8660.409521
1070.434124,536.266849,-0.000000,8808.450710
1070.434440,306.438199,370.102971,9474.636058
1070.434755,383.047749,-0.000000,9548.656652
1070.435071,0.000000,-0.000000,9844.739029
1070.435387,306.438199,666.185348,9696.697840
1070.435703,0.000000,740.205942,9252.574275
1070.436018,153.219100,888.247130,9178.553681
1070.436334,0.000000,592.164754,9252.574275
1070.436650,153.219100,296.082377,9770.718434
1070.436966,0.000000,296.082377,10066.800811
1070.437281,0.000000,592.164754,10214.842000
1070.437597,306.438199,666.185348,10288.862594
1070.437913,536.266849,1110.308913,9548.656652
1070.438228,229.828649,1554.432478,9474.636058
1070.438544,689.485948,1258.350101,9326.594869
1070.438860,842.705048,1332.370696,9252.574275
1070.439176,306.438199,1258.350101,9474.636058
1070.439491,153.219100,1184.329507,9400.615463
1070.439807,306.438199,888.247130,9770.718434
1070.440123,383.047749,666.185348,10214.842000
1070.440439,0.000000,592.164754,10140.821405
1070.440754,306.438199,518.144159,9918.759623
1070.441070,0.000000,592.164754,9622.677246
1070.441386,306.438199,740.205942,9548.656652
1070.441701,229.828649,444.123565,9474.636058
1070.442017,-383.047749,962.267725,9918.759623
1070.442333,0.000000,888.247130,10732.986159
1070.442649,0.000000,-0.000000,9918.759623
1070.442964,76.609550,222.061783,10066.800811
1070.443280,0.000000,666.185348,9474.636058
1070.443596,153.219100,666.185348,8956.491898
1070.443912,842.705048,666.185348,9622.677246
1070.444227,689.485948,518.144159,9474.636058
1070.444543,76.609550,814.226536,9326.594869
1070.444859,-229.828649,518.144159,9474.636058
1070.445174,-689.485948,-370.102971,10584.944971
1070.445490,306.438199,-666.185348,10584.944971
1070.445806,-383.047749,-296.082377,9474.636058
1070.446122,-153.219100,-0.000000,9400.615463
1070.446437,229.828649,-0.000000,9474.636058
1070.446753,383.047749,-296.082377,9474.636058
1070.447069,153.219100,-296.082377,9326.594869
1070.447385,0.000000,-148.041188,9696.697840
1070.447700,612.876398,-592.164754,9844.739029
1070.448016,612.876398,-296.082377,9252.574275
1070.448332,612.876398,-296.082377,9104.533087
1070.448647,995.924147,-740.205942,8660.409521
1070.448963,995.924147,-666.185348,9178.553681
1070.449279,1072.533697,-444.123565,8882.471304
1070.449595,842.705048,-518.144159,8882.471304
1070.449910,766.095498,-148.041188,9474.636058
1070.450226,919.314598,-888.247130,9474.636058
1070.450542,1149.143247,-1332.370696,9474.636058
1070.450858,536.266849,-1480.411884,9030.512492
1070.451173,536.266849,-1332.370696,9326.594869
1070.451489,1072.533697,-1554.432478,8882.471304
1070.451805,1072.533697,-1554.432478,9252.574275
1070.452120,689.485948,-1110.308913,9178.553681
1070.452436,536.266849,-1110.308913,9474.636058
1070.452752,612.876398,-1110.308913,9696.697840
1070.453068,919.314598,-1406.391290,9770.718434
1070.453383,536.266849,-1554.432478,9400.615463
1070.453699,383.047749,-1628.453072,9104.533087
1070.454015,1072.533697,-1628.453072,9178.553681
1070.454331,1149.143247,-1776.494261,9400.615463
1070.454646,612.876398,-1036.288319,8956.491898
1070.454962,536.266849,-740.205942,9178.553681
1070.455278,842.705048,-814.226536,9548.656652
1070.455593,995.924147,-740.205942,9622.677246
1070.455909,995.924147,-1036.288319,9104.533087
1070.456225,612.876398,-740.205942,9326.594869
1070.456541,689.485948,-1184.329507,9474.636058
1070.456856,842.705048,-1406.391290,9326.594869
1070.457172,766.095498,-1110.308913,9622.677246
1070.457488,0.000000,-666.185348,9474.636058
1070.457804,76.609550,-1184.329507,9696.697840
1070.458119,0.000000,-666.185348,10066.800811
1070.458435,0.000000,-222.061783,9696.697840
1070.458751,76.609550,-148.041188,9326.594869
1070.459067,459.657299,-148.041188,9252.574275
1070.459382,842.705048,-0.000000,9474.636058
1070.459698,689.485948,-0.000000,9326.594869
1070.460014,536.266849,370.102971,9400.615463
1070.460329,229.828649,740.205942,9474.636058
1070.460645,459.657299,370.102971,10066.800811
1070.460961,689.485948,222.061783,9548.656652
1070.461277,0.000000,370.102971,9696.697840
1070.461592,306.438199,222.061783,9400.615463
1070.461908,612.876398,518.144159,9474.636058
1070.462224,612.876398,370.102971,9844.739029
1070.462540,536.266849,888.247130,9844.739029
1070.462855,153.219100,1258.350101,9696.697840
1070.463171,306.438199,962.267725,9918.759623
1070.463487,383.047749,888.247130,9844.739029
1070.463802,229.828649,814.226536,9326.594869
1070.464118,0.000000,518.144159,9030.512492
1070.464434,76.609550,444.123565,9548.656652
1070.464750,306.438199,444.123565,9474.636058
1070.465065,153.219100,518.144159,9918.759623
1070.465381,-153.219100,814.226536,9622.677246
1070.465697,-536.266849,1036.288319,9622.677246
1070.466013,76.609550,814.226536,9770.718434
1070.466328,153.219100,1184.329507,9326.594869
1070.466644,0.000000,1036.288319,9178.553681
1070.466960,306.438199,444.123565,9104.533087
1070.467275,229.828649,-0.000000,9474.636058
1070.467591,0.000000,222.061783,9696.697840
1070.467907,-459.657299,666.185348,10066.800811
1070.468223,0.000000,518.144159,9622.677246
1070.468538,76.609550,518.144159,9844.739029
1070.468854,0.000000,222.061783,9992.780217
1070.469170,-153.219100,148.041188,9400.615463
1070.469486,306.438199,148.041188,9474.636058
1070.469801,383.047749,370.102971,9252.574275
1070.470117,229.828649,666.185348,9252.574275
1070.470433,383.047749,1036.288319,9474.636058
1070.470748,0.000000,444.123565,9474.636058
1070.471064,153.219100,222.061783,9696.697840
1070.471380,76.609550,-0.000000,9992.780217
1070.471696,-383.047749,-296.082377,9474.636058
1070.472011,383.047749,-370.102971,9474.636058
1070.472327,459.657299,-592.164754,9400.615463
1070.472643,536.266849,-814.226536,9474.636058
1070.472959,153.219100,-592.164754,9770.718434
1070.473274,459.657299,-296.082377,10140.821405
1070.473590,612.876398,-222.061783,9696.697840
1070.473906,383.047749,-222.061783,9474.636058
1070.474221,689.485948,-444.123565,9252.574275
1070.474537,689.485948,-592.164754,9178.553681
1070.474853,1225.752797,-888.247130,9178.553681
1070.475169,1149.143247,-666.185348,8956.491898
1070.475484,766.095498,-740.205942,9178.553681
1070.475800,842.705048,-814.226536,9770.718434
1070.476116,1302.362347,-740.205942,9918.759623
1070.476432,842.705048,-666.185348,9474.636058
1070.476747,612.876398,-740.205942,9326.594869
1070.477063,1378.971896,-1184.329507,9030.512492
1070.477379,1149.143247,-1628.453072,9178.553681
1070.477694,1225.752797,-1480.411884,8956.491898
1070.478010,536.266849,-1702.473667,9400.615463
1070.478326,536.266849,-1628.453072,9622.677246
1070.478642,689.485948,-1628.453072,10066.800811
1070.478957,689.485948,-1628.453072,9474.636058
1070.479273,306.438199,-1110.308913,9548.656652
1070.479589,689.485948,-1480.411884,9104.533087
1070.479905,1149.143247,-1036.288319,8586.388927
1070.480220,1225.752797,-1036.288319,8734.430116
1070.480536,612.876398,-1332.370696,8808.450710
1070.480852,76.609550,-1258.350101,9030.512492
1070.481167,536.266849,-1184.329507,9696.697840
1070.481483,383.047749,-1036.288319,9252.574275
1070.481799,766.095498,-888.247130,9030.512492
1070.482115,383.047749,-1184.329507,8956.491898
1070.482430,612.876398,-1258.350101,9252.574275
1070.482746,459.657299,-1554.432478,9104.533087
1070.483062,153.219100,-1184.329507,9400.615463
1070.483378,229.828649,-962.267725,9548.656652
1070.483693,612.876398,-1184.329507,9844.739029
1070.484009,919.314598,-444.123565,9326.594869
1070.484325,306.438199,-0.000000,8882.471304
1070.484640,459.657299,-74.020594,8882.471304
1070.484956,919.314598,-296.082377,9474.636058
1070.485272,1455.581446,222.061783,8882.471304
1070.485588,306.438199,148.041188,9030.512492
1070.485903,153.219100,-0.000000,9400.615463
1070.486219,0.000000,-0.000000,9770.718434
1070.486535,229.828649,222.061783,9992.780217
1070.486851,306.438199,370.102971,9548.656652
1070.487166,0.000000,592.164754,9030.512492
1070.487482,383.047749,666.185348,9178.553681
1070.487798,612.876398,222.061783,9400.615463
1070.488113,306.438199,518.144159,9918.759623
1070.488429,0.000000,370.102971,9992.780217
1070.488745,459.657299,518.144159,9918.759623
1070.489061,536.266849,1110.308913,10066.800811
1070.489376,306.438199,1110.308913,9474.636058
1070.489692,383.047749,1258.350101,9178.553681
1070.490008,612.876398,1184.329507,9104.533087
1070.490324,612.876398,1258.350101,9622.677246
1070.490639,459.657299,1258.350101,9844.739029
1070.490955,0.000000,1036.288319,9918.759623
1070.491271,0.000000,1036.288319,10288.862594
1070.491586,0.000000,740.205942,10510.924376
1070.491902,153.219100,814.226536,10066.800811
1070.492218,-459.657299,1110.308913,9770.718434
1070.492534,0.000000,518.144159,9844.739029
1070.492849,76.609550,592.164754,10732.986159
1070.493165,76.609550,814.226536,9918.759623
1070.493481,-229.828649,814.226536,9622.677246
1070.493797,153.219100,592.164754,10066.800811
1070.494112,306.438199,296.082377,10140.821405
1070.494428,459.657299,444.123565,10140.821405
1070.494744,229.828649,814.226536,9548.656652
1070.495059,306.438199,740.205942,8734.430116
1070.495375,766.095498,444.123565,8734.430116
1070.495691,459.657299,148.041188,9326.594869
1070.496007,76.609550,-148.041188,9770.718434
1070.496322,-536.266849,-370.102971,10066.800811
1070.496638,-383.047749,-518.144159,10658.965565
1070.496954,-306.438199,-444.123565,10066.800811
1070.497270,0.000000,-148.041188,8660.409521
1070.497585,0.000000,-0.000000,9252.574275
1070.497901,459.657299,-518.144159,9326.594869
1070.498217,536.266849,-592.164754,9326.594869
1070.498533,153.219100,-814.226536,9622.677246
1070.498848,612.876398,-962.267725,9474.636058
1070.499164,766.095498,-1036.288319,9252.574275
1070.499480,1149.143247,-592.164754,9104.533087
1070.499795,995.924147,-518.144159,9104.533087
1070.500111,1149.143247,-518.144159,9178.553681
1070.500427,1608.800546,-518.144159,8512.368333
1070.500743,1762.019645,-444.123565,8438.347739
1070.501058,842.705048,-518.144159,8734.430116
1070.501374,689.485948,-370.102971,8882.471304
1070.501690,995.924147,-1036.288319,9474.636058
1070.502006,459.657299,-1110.308913,9474.636058
1070.502321,383.047749,-1184.329507,9326.594869
1070.502637,229.828649,-1406.391290,9030.512492
1070.502953,306.438199,-1924.535449,9474.636058
1070.503268,459.657299,-1850.514855,9622.677246
1070.503584,0.000000,-1480.411884,9548.656652
1070.503900,306.438199,-1258.350101,9770.718434
1070.504216,689.485948,-1332.370696,9918.759623
1070.504531,1225.752797,-1406.391290,9770.718434
1070.504847,459.657299,-814.226536,9178.553681
1070.505163,689.485948,-1110.308913,8660.409521
1070.505479,919.314598,-888.247130,8734.430116
1070.505794,1302.362347,-1110.308913,9178.553681
1070.506110,689.485948,-888.247130,9178.553681
1070.506426,229.828649,-740.205942,9770.718434
1070.506741,459.657299,-1036.288319,9992.780217
1070.507057,766.095498,-740.205942,9696.697840
1070.507373,459.657299,-296.082377,9252.574275
1070.507689,306.438199,-518.144159,9030.512492
1070.508004,229.828649,-962.267725,9400.615463
1070.508320,459.657299,-1332.370696,9918.759623
1070.508636,612.876398,-888.247130,9474.636058
1070.508952,153.219100,-740.205942,9474.636058
1070.509267,0.000000,-888.247130,9992.780217
1070.509583,76.609550,-814.226536,10214.842000
1070.509899,-383.047749,-592.164754,9622.677246
1070.510215,0.000000,-0.000000,9252.574275
1070.510530,536.266849,444.123565,8956.491898
1070.510846,919.314598,370.102971,8956.491898
1070.511162,995.924147,370.102971,8512.368333
1070.511478,306.438199,222.061783,8956.491898
1070.511794,536.266849,518.144159,9770.718434
1070.512110,383.047749,148.041188,9622.677246
1070.512425,766.095498,370.102971,9474.636058
1070.512741,383.047749,518.144159,9178.553681
1070.513057,153.219100,518.144159,9252.574275
1070.513373,459.657299,370.102971,9622.677246
1070.513689,383.047749,370.102971,9696.697840
1070.514005,0.000000,1110.308913,9622.677246
1070.514320,229.828649,1184.329507,10436.903782
1070.514636,229.828649,518.144159,9844.739029
1070.514952,229.828649,1110.308913,9770.718434
1070.515268,0.000000,1184.329507,9326.594869
1070.515584,229.828649,962.267725,8882.471304
1070.515900,383.047749,888.247130,9474.636058
1070.516215,306.438199,814.226536,9326.594869
1070.516531,0.000000,814.226536,9474.636058
1070.516847,0.000000,592.164754,10214.842000
1070.517163,0.000000,592.164754,10140.821405
1070.517479,919.314598,1036.288319,9474.636058
1070.517795,0.000000,1184.329507,8808.450710
1070.518110,0.000000,888.247130,9252.574275
1070.518426,229.828649,370.102971,9474.636058
1070.518742,229.828649,-0.000000,9326.594869
1070.519058,-306.438199,74.020594,9770.718434
1070.519374,0.000000,148.041188,10140.821405
1070.519690,0.000000,148.041188,10362.883188
1070.520005,229.828649,444.123565,9992.780217
1070.520321,76.609550,592.164754,9474.636058
1070.520637,153.219100,592.164754,9696.697840
1070.520953,383.047749,-74.020594,8956.491898
1070.521269,306.438199,148.041188,9622.677246
1070.521585,153.219100,666.185348,9326.594869
1070.521900,0.000000,592.164754,9400.615463
1070.522216,0.000000,370.102971,9918.759623
1070.522532,0.000000,222.061783,9992.780217
1070.522848,-306.438199,-0.000000,9548.656652
1070.523164,-459.657299,-370.102971,9770.718434
1070.523480,0.000000,-592.164754,9252.574275
1070.523795,383.047749,-444.123565,9400.615463
1070.524111,229.828649,-148.041188,9400.615463
1070.524427,536.266849,-666.185348,9400.615463
1070.524743,459.657299,-888.247130,10362.883188
1070.525059,1072.533697,-666.185348,9622.677246
1070.525374,536.266849,-592.164754,9326.594869
1070.525690,536.266849,-296.082377,9030.512492
1070.526006,995.924147,-370.102971,9030.512492
1070.526322,1225.752797,-518.144159,8734.430116
1070.526638,1225.752797,-1110.308913,9252.574275
1070.526954,689.485948,-1184.329507,9474.636058
1070.527269,383.047749,-1628.453072,9548.656652
1070.527585,766.095498,-1702.473667,9918.759623
1070.527901,0.000000,-1332.370696,9474.636058
1070.528217,153.219100,-888.247130,9326.594869
1070.528533,995.924147,-962.267725,9178.553681
1070.528849,919.314598,-1480.411884,9252.574275
1070.529164,919.314598,-1628.453072,9252.574275
1070.529480,995.924147,-1184.329507,9400.615463
1070.529796,689.485948,-1406.391290,9770.718434
1070.530112,1302.362347,-1850.514855,9548.656652
1070.530428,1302.362347,-1184.329507,9474.636058
1070.530744,1378.971896,-1184.329507,8882.471304
1070.531059,1225.752797,-1406.391290,8882.471304
1070.531375,1378.971896,-1332.370696,8882.471304
1070.531691,842.705048,-1258.350101,9030.512492
1070.532007,689.485948,-666.185348,9030.512492
1070.532323,459.657299,-888.247130,9548.656652
1070.532639,689.485948,-888.247130,9252.574275
1070.532954,612.876398,-1110.308913,9326.594869
1070.533270,76.609550,-1332.370696,9030.512492
1070.533586,76.609550,-1480.411884,9252.574275
1070.533902,0.000000,-1998.556043,9178.553681
1070.534218,306.438199,-1776.494261,9992.780217
1070.534534,383.047749,-814.226536,9474.636058
1070.534849,0.000000,-518.144159,9548.656652
1070.535165,842.705048,-370.102971,9548.656652
1070.535481,459.657299,-444.123565,9474.636058
1070.535797,919.314598,370.102971,8956.491898
1070.536113,842.705048,740.205942,8438.347739
1070.536429,1532.190996,518.144159,8512.368333
1070.536744,1302.362347,148.041188,8586.388927
1070.537060,536.266849,222.061783,9474.636058
1070.537376,0.000000,-0.000000,9918.759623
1070.537692,153.219100,-0.000000,10066.800811
1070.538008,306.438199,-0.000000,9992.780217
1070.538324,0.000000,592.164754,9252.574275
1070.538639,-229.828649,-0.000000,9178.553681
1070.538955,153.219100,-0.000000,9548.656652
1070.539271,229.828649,296.082377,9770.718434
1070.539587,76.609550,370.102971,9844.739029
1070.539903,-306.438199,592.164754,10140.821405
1070.540218,-229.828649,888.247130,9844.739029
1070.540534,459.657299,814.226536,10140.821405
1070.540850,459.657299,592.164754,9918.759623
1070.541166,383.047749,962.267725,9326.594869
1070.541482,383.047749,814.226536,9178.553681
1070.541798,995.924147,666.185348,9104.533087
1070.542113,383.047749,1332.370696,9178.553681
1070.542429,0.000000,1480.411884,9474.636058
1070.542745,0.000000,962.267725,9844.739029
1070.543061,-306.438199,1110.308913,10436.903782
1070.543377,-612.876398,814.226536,9918.759623
1070.543693,-536.266849,740.205942,9474.636058
1070.544008,0.000000,296.082377,9770.718434
1070.544324,0.000000,-74.020594,10066.800811
1070.544640,0.000000,222.061783,10066.800811
1070.544956,0.000000,814.226536,10510.924376
1070.545272,-153.219100,370.102971,10214.842000
1070.545588,76.609550,740.205942,10214.842000
1070.545903,0.000000,1258.350101,9400.615463
1070.546219,383.047749,1110.308913,9030.512492
1070.546535,306.438199,1110.308913,9030.512492
1070.546851,919.314598,592.164754,9104.533087
1070.547167,689.485948,296.082377,9326.594869
1070.547483,306.438199,296.082377,9548.656652
1070.547798,229.828649,-0.000000,9992.780217
1070.548114,383.047749,-0.000000,10436.903782
1070.548430,306.438199,518.144159,9696.697840
1070.548746,0.000000,740.205942,9030.512492
1070.549062,153.219100,-74.020594,9326.594869
1070.549378,689.485948,-740.205942,9622.677246
1070.549693,995.924147,-666.185348,9918.759623
1070.550009,459.657299,-666.185348,9622.677246
1070.550325,383.047749,-888.247130,9770.718434
1070.550641,766.095498,-814.226536,10288.862594
1070.550957,1302.362347,-814.226536,9770.718434
1070.551273,995.924147,-518.144159,8882.471304
1070.551588,689.485948,-370.102971,8956.491898
1070.551904,919.314598,-592.164754,9178.553681
1070.552220,1302.362347,-1184.329507,9400.615463
1070.552536,842.705048,-814.226536,9474.636058
1070.552852,383.047749,-1036.288319,9326.594869
1070.553168,842.705048,-1258.350101,9770.718434
1070.553483,919.314598,-1184.329507,9326.594869
1070.553799,766.095498,-888.247130,9178.553681
1070.554115,612.876398,-1480.411884,9104.533087
1070.554431,1149.143247,-1480.411884,9030.512492
1070.554747,842.705048,-1776.494261,9400.615463
1070.555063,612.876398,-1480.411884,9622.677246
1070.555378,766.095498,-1628.453072,9992.780217
1070.555694,689.485948,-1628.453072,9918.759623
1070.556010,1302.362347,-592.164754,9474.636058
1070.556326,842.705048,-518.144159,8364.327145
1070.556642,1225.752797,-666.185348,8512.368333
1070.556957,1225.752797,-1184.329507,8586.388927
1070.557273,1149.143247,-1998.556043,9030.512492
1070.557589,612.876398,-1036.288319,9030.512492
1070.557905,153.219100,-1258.350101,9770.718434
1070.558221,536.266849,-1110.308913,9992.780217
1070.558537,229.828649,-1036.288319,9326.594869
1070.558852,0.000000,-666.185348,9252.574275
1070.559168,0.000000,-888.247130,9696.697840
1070.559484,536.266849,-962.267725,9252.574275
1070.559800,842.705048,-1184.329507,9326.594869
1070.560116,612.876398,-962.267725,9622.677246
1070.560432,306.438199,-1258.350101,9770.718434
1070.560747,536.266849,-740.205942,9474.636058
1070.561063,689.485948,-444.123565,9548.656652
1070.561379,766.095498,-148.041188,9030.512492
1070.561695,919.314598,148.041188,8808.450710
1070.562011,766.095498,370.102971,8364.327145
1070.562327,842.705048,148.041188,9400.615463
1070.562642,689.485948,296.082377,8734.430116
1070.562958,76.609550,222.061783,9252.574275
1070.563274,-153.219100,-74.020594,10066.800811
1070.563590,-153.219100,-444.123565,10436.903782
1070.563906,-459.657299,-0.000000,9770.718434
1070.564222,-919.314598,-0.000000,9326.594869
1070.564537,-766.095498,-0.000000,9548.656652
1070.564853,0.000000,-592.164754,9400.615463
1070.565169,-612.876398,-0.000000,9548.656652
1070.565485,-459.657299,148.041188,10066.800811
1070.565801,0.000000,666.185348,10362.883188
1070.566117,383.047749,666.185348,9992.780217
1070.566432,76.609550,666.185348,9178.553681
1070.566748,229.828649,1258.350101,9104.533087
1070.567064,919.314598,1332.370696,8734.430116
1070.567380,1225.752797,1258.350101,8956.491898
1070.567696,995.924147,1332.370696,9104.533087
1070.568012,383.047749,1628.453072,9400.615463
1070.568327,0.000000,1406.391290,9770.718434
1070.568643,76.609550,1258.350101,9844.739029
1070.568959,0.000000,1184.329507,9770.718434
1070.569275,-383.047749,1036.288319,9844.739029
1070.569591,-229.828649,592.164754,10362.883188
1070.569907,76.609550,222.061783,9696.697840
1070.570222,153.219100,296.082377,9992.780217
1070.570538,0.000000,222.061783,10214.842000
1070.570854,-306.438199,518.144159,10436.903782
1070.571170,459.657299,740.205942,10288.862594
1070.571486,459.657299,1110.308913,9770.718434
1070.571801,842.705048,1480.411884,8882.471304
1070.572117,612.876398,1332.370696,8956.491898
1070.572433,1149.143247,1036.288319,9178.553681
1070.572749,1225.752797,518.144159,9474.636058
1070.573065,766.095498,666.185348,9326.594869
1070.573381,306.438199,222.061783,9918.759623
1070.573696,383.047749,-666.185348,10362.883188
1070.574012,153.219100,-222.061783,10288.862594
1070.574328,-383.047749,-0.000000,9622.677246
1070.574644,0.000000,-74.020594,9622.677246
1070.574960,306.438199,-444.123565,9548.656652
1070.575276,536.266849,-518.144159,9474.636058
1070.575591,76.609550,-888.247130,9622.677246
1070.575907,0.000000,-888.247130,9548.656652
1070.576223,612.876398,-1184.329507,10140.821405
1070.576539,995.924147,-888.247130,9918.759623
1070.576855,536.266849,-444.123565,9104.533087
1070.577171,612.876398,-740.205942,8882.471304
1070.577486,995.924147,-814.226536,8734.430116
1070.577802,689.485948,-1036.288319,8734.430116
1070.578118,536.266849,-1036.288319,9178.553681
1070.578434,306.438199,-888.247130,9326.594869
1070.578750,459.657299,-962.267725,9474.636058
1070.579066,766.095498,-1184.329507,9548.656652
1070.579381,153.219100,-1036.288319,9104.533087
1070.579697,536.266849,-1110.308913,8956.491898
1070.580013,919.314598,-1924.535449,9030.512492
1070.580329,995.924147,-1332.370696,8734.430116
1070.580645,842.705048,-1110.308913,9030.512492
1070.580961,383.047749,-1776.494261,9252.574275
1070.581276,306.438199,-1776.494261,9770.718434
1070.581592,919.314598,-1480.411884,9918.759623
1070.581908,1072.533697,-888.247130,9178.553681
1070.582224,842.705048,-518.144159,8586.388927
1070.582540,1225.752797,-666.185348,8216.285956
1070.582856,1685.410096,-1110.308913,9104.533087
1070.583171,995.924147,-1036.288319,9178.553681
1070.583487,536.266849,-888.247130,9178.553681
1070.583803,229.828649,-962.267725,9400.615463
1070.584119,153.219100,-1332.370696,9844.739029
1070.584435,689.485948,-1406.391290,10066.800811
1070.584751,229.828649,-1332.370696,9326.594869
1070.585066,306.438199,-1184.329507,9252.574275
1070.585382,612.876398,-1554.432478,9696.697840
1070.585698,383.047749,-1258.350101,9474.636058
1070.586014,766.095498,-592.164754,9622.677246
1070.586330,459.657299,-888.247130,9844.739029
1070.586646,689.485948,-740.205942,9844.739029
1070.586961,919.314598,-370.102971,9548.656652
1070.587277,536.266849,-0.000000,9178.553681
1070.587593,306.438199,-0.000000,8364.327145
1070.587909,766.095498,518.144159,9030.512492
1070.588225,842.705048,370.102971,9252.574275
1070.588540,0.000000,592.164754,9104.533087
1070.588856,0.000000,222.061783,9474.636058
1070.589172,0.000000,-74.020594,9844.739029
1070.589488,306.438199,-444.123565,10214.842000
1070.589804,-459.657299,-0.000000,9326.594869
1070.590120,-383.047749,222.061783,9474.636058
1070.590435,0.000000,370.102971,9696.697840
1070.590751,306.438199,222.061783,9178.553681
1070.591067,0.000000,888.247130,9696.697840
1070.591383,229.828649,740.205942,9770.718434
1070.591699,0.000000,518.144159,10140.821405
1070.592015,689.485948,666.185348,9992.780217
1070.592330,919.314598,1110.308913,9622.677246
1070.592646,842.705048,814.226536,9474.636058
1070.592962,842.705048,1258.350101,9104.533087
1070.593278,1072.533697,1628.453072,9326.594869
1070.593594,612.876398,1924.535449,8882.471304
1070.593910,0.000000,2072.576638,9696.697840
1070.594225,0.000000,1184.329507,9622.677246
1070.594541,0.000000,814.226536,10140.821405
1070.594857,-229.828649,740.205942,10140.821405
1070.595173,-459.657299,666.185348,9474.636058
1070.595489,536.266849,222.061783,9992.780217
1070.595805,229.828649,370.102971,10214.842000
1070.596120,0.000000,444.123565,9844.739029
1070.596436,-229.828649,296.082377,10362.883188
1070.596752,-153.219100,296.082377,10362.883188
1070.597068,766.095498,296.082377,10140.821405
1070.597384,689.485948,740.205942,9474.636058
1070.597700,536.266849,740.205942,9030.512492
1070.598015,919.314598,222.061783,9252.574275
1070.598331,1302.362347,444.123565,9400.615463
1070.598647,995.924147,1036.288319,8586.388927
1070.598963,459.657299,1110.308913,9326.594869
1070.599279,306.438199,444.123565,9770.718434
1070.599595,689.485948,222.061783,9696.697840
1070.599910,0.000000,-0.000000,9548.656652
1070.600226,-383.047749,-296.082377,9474.636058
1070.600542,-459.657299,-1184.329507,9992.780217
1070.600858,0.000000,-740.205942,9622.677246
1070.601174,-229.828649,-592.164754,9622.677246
1070.601490,-612.876398,-740.205942,9918.759623
1070.601805,0.000000,-962.267725,10214.842000
1070.602121,0.000000,-1110.308913,10214.842000
1070.602437,0.000000,-666.185348,9770.718434
1070.602753,383.047749,-518.144159,9104.533087
1070.603069,842.705048,-296.082377,8290.306550
1070.603384,919.314598,-444.123565,8956.491898
1070.603700,1302.362347,-592.164754,8882.471304
1070.604016,689.485948,-222.061783,8882.471304
1070.604332,536.266849,-740.205942,9030.512492
1070.604648,459.657299,-1332.370696,9548.656652
1070.604964,842.705048,-1110.308913,8956.491898
1070.605279,536.266849,-1184.329507,8660.409521
1070.605595,536.266849,-1480.411884,9326.594869
1070.605911,995.924147,-2146.597232,9474.636058
1070.606227,689.485948,-1924.535449,9030.512492
1070.606543,536.266849,-1184.329507,9992.780217
1070.606859,383.047749,-1628.453072,9622.677246
1070.607174,766.095498,-1554.432478,9992.780217
1070.607490,1072.533697,-1258.350101,9326.594869
1070.607806,689.485948,-1036.288319,8956.491898
1070.608122,1149.143247,-1184.329507,9252.574275
1070.608438,1378.971896,-1332.370696,8734.430116
1070.608754,1532.190996,-1406.391290,9178.553681
1070.609070,919.314598,-740.205942,9326.594869
1070.609385,1378.971896,-444.123565,8956.491898
1070.609701,1378.971896,-370.102971,9178.553681
1070.610017,1225.752797,-592.164754,9178.553681
1070.610333,766.095498,-888.247130,9326.594869
1070.610649,459.657299,-962.267725,9178.553681
1070.610965,766.095498,-1628.453072,9178.553681
1070.611281,383.047749,-1702.473667,9474.636058
1070.611596,306.438199,-1702.473667,10140.821405
1070.611912,0.000000,-1258.350101,10214.842000
1070.612228,536.266849,-1258.350101,10362.883188
1070.612544,1685.410096,-888.247130,10066.800811
1070.612860,153.219100,222.061783,9326.594869
1070.613176,229.828649,148.041188,9104.533087
1070.613492,919.314598,222.061783,8808.450710
1070.613807,1149.143247,296.082377,8734.430116
1070.614123,383.047749,-0.000000,9178.553681
1070.614439,306.438199,296.082377,9474.636058
1070.614755,153.219100,148.041188,9844.739029
1070.615071,153.219100,370.102971,9992.780217
1070.615387,76.609550,592.164754,9548.656652
1070.615703,153.219100,592.164754,9326.594869
1070.616018,0.000000,518.144159,9326.594869
1070.616334,536.266849,296.082377,9844.739029
1070.616650,76.609550,296.082377,9770.718434
1070.616966,-229.828649,740.205942,9770.718434
1070.617282,153.219100,592.164754,10288.862594
1070.617598,229.828649,740.205942,9992.780217
1070.617914,229.828649,1406.391290,9474.636058
1070.618229,0.000000,1406.391290,9030.512492
1070.618545,383.047749,1258.350101,9030.512492
1070.618861,306.438199,148.041188,9400.615463
1070.619177,0.000000,296.082377,9548.656652
1070.619493,-306.438199,592.164754,10066.800811
1070.619809,-459.657299,740.205942,10510.924376
1070.620125,0.000000,1110.308913,9992.780217
1070.620440,0.000000,962.267725,9770.718434
1070.620756,-306.438199,1258.350101,9400.615463
1070.621072,306.438199,1184.329507,9178.553681
1070.621388,766.095498,444.123565,9178.553681
1070.621704,919.314598,370.102971,9548.656652
1070.622020,536.266849,-0.000000,10066.800811
1070.622336,306.438199,296.082377,9548.656652
1070.622651,536.266849,592.164754,10140.821405
1070.622967,306.438199,518.144159,10362.883188
1070.623283,306.438199,814.226536,9400.615463
1070.623599,76.609550,1406.391290,9030.512492
1070.623915,536.266849,962.267725,8808.450710
1070.624231,383.047749,444.123565,9548.656652
1070.624546,0.000000,370.102971,9918.759623
1070.624862,-536.266849,148.041188,9622.677246
1070.625178,-383.047749,-370.102971,10510.924376
1070.625494,-383.047749,-296.082377,10214.842000
1070.625810,-766.095498,-148.041188,9696.697840
1070.626126,-536.266849,-0.000000,9622.677246
1070.626442,-229.828649,-0.000000,9400.615463
1070.626757,383.047749,-74.020594,9474.636058
1070.627073,0.000000,-592.164754,9474.636058
1070.627389,0.000000,-444.123565,9696.697840
1070.627705,229.828649,-888.247130,10140.821405
1070.628021,842.705048,-666.185348,9474.636058
1070.628337,689.485948,-222.061783,8956.491898
1070.628653,919.314598,-148.041188,9104.533087
1070.628968,1225.752797,-666.185348,9030.512492
1070.629284,1378.971896,-814.226536,8808.450710
1070.629600,995.924147,-740.205942,8586.388927
1070.629916,459.657299,-888.247130,9400.615463
1070.630232,689.485948,-1110.308913,10140.821405
1070.630548,995.924147,-1110.308913,9104.533087
1070.630864,689.485948,-1258.350101,9178.553681
1070.631179,612.876398,-1332.370696,9030.512492
1070.631495,766.095498,-1480.411884,9178.553681
1070.631811,1149.143247,-1776.494261,9400.615463
1070.632127,919.314598,-1850.514855,9548.656652
1070.632443,766.095498,-1702.473667,9918.759623
1070.632759,1149.143247,-1924.535449,9770.718434
1070.633075,1455.581446,-1258.350101,9696.697840
1070.633390,1225.752797,-814.226536,9178.553681
1070.633706,1225.752797,-740.205942,8734.430116
1070.634022,1762.019645,-740.205942,9104.533087
1070.634338,2145.067394,-888.247130,9104.533087
1070.634654,1762.019645,-1036.288319,9030.512492
1070.634970,1378.971896,-666.185348,9252.574275
1070.635286,1302.362347,-740.205942,9474.636058
1070.635601,1608.800546,-1258.350101,9400.615463
1070.635917,842.705048,-740.205942,9252.574275
1070.636233,689.485948,-888.247130,9400.615463
1070.636549,612.876398,-1184.329507,9326.594869
1070.636865,842.705048,-962.267725,9474.636058
1070.637181,689.485948,-814.226536,9474.636058
1070.637497,0.000000,-1036.288319,9770.718434
1070.637812,0.000000,-1554.432478,10288.862594
1070.638128,229.828649,-1258.350101,10584.944971
1070.638444,0.000000,-740.205942,9622.677246
1070.638760,0.000000,-518.144159,9326.594869
1070.639076,229.828649,-370.102971,9104.533087
1070.639392,689.485948,-370.102971,8956.491898
1070.639708,536.266849,222.061783,9104.533087
1070.640023,612.876398,518.144159,9030.512492
1070.640339,306.438199,740.205942,9548.656652
1070.640655,612.876398,740.205942,9474.636058
1070.640971,612.876398,666.185348,9030.512492
1070.641287,153.219100,296.082377,9030.512492
1070.641603,0.000000,-0.000000,9326.594869
1070.641919,0.000000,-74.020594,9474.636058
1070.642234,306.438199,296.082377,9844.739029
1070.642550,-459.657299,444.123565,9474.636058
1070.642866,-919.314598,518.144159,10214.842000
1070.643182,-383.047749,370.102971,9992.780217
1070.643498,-153.219100,814.226536,9474.636058
1070.643814,-383.047749,888.247130,9548.656652
1070.644130,-153.219100,1332.370696,9252.574275
1070.644445,612.876398,1110.308913,8882.471304
1070.644761,76.609550,1406.391290,9326.594869
1070.645077,-153.219100,1554.432478,9326.594869
1070.645393,-153.219100,1332.370696,9178.553681
1070.645709,0.000000,1036.288319,10140.821405
1070.646025,383.047749,444.123565,9918.759623
1070.646341,76.609550,962.267725,9474.636058
1070.646656,-153.219100,1036.288319,9400.615463
1070.646972,76.609550,740.205942,9400.615463
1070.647288,536.266849,740.205942,9252.574275
1070.647604,-229.828649,370.102971,9918.759623
1070.647920,-229.828649,148.041188,10584.944971
1070.648236,0.000000,296.082377,10807.006753
1070.648552,536.266849,370.102971,9696.697840
1070.648867,383.047749,666.185348,9696.697840
1070.649183,229.828649,222.061783,9918.759623
1070.649499,612.876398,888.247130,9548.656652
1070.649815,536.266849,888.247130,9178.553681
1070.650131,383.047749,814.226536,9474.636058
1070.650447,229.828649,-0.000000,9770.718434
1070.650763,-153.219100,-74.020594,9696.697840
1070.651078,229.828649,-296.082377,10510.924376
1070.651394,0.000000,-222.061783,10214.842000
1070.651710,0.000000,-296.082377,9770.718434
1070.652026,0.000000,-666.185348,9992.780217
1070.652342,842.705048,-666.185348,9992.780217
1070.652658,76.609550,-592.164754,9548.656652
1070.652974,0.000000,-74.020594,9992.780217
1070.653289,459.657299,-444.123565,10140.821405
1070.653605,995.924147,-1036.288319,10140.821405
1070.653921,995.924147,-0.000000,9548.656652
1070.654237,995.924147,-0.000000,8882.471304
1070.654553,1225.752797,-370.102971,8438.347739
1070.654869,1455.581446,-370.102971,8512.368333
1070.655184,1225.752797,-444.123565,8660.409521
1070.655500,766.095498,-740.205942,9548.656652
1070.655816,689.485948,-370.102971,9474.636058
1070.656132,459.657299,-666.185348,9474.636058
1070.656448,459.657299,-888.247130,9474.636058
1070.656764,153.219100,-962.267725,9474.636058
1070.657080,383.047749,-1924.535449,8660.409521
1070.657395,306.438199,-2220.617826,9178.553681
1070.657711,536.266849,-2294.638420,9622.677246
1070.658027,306.438199,-2368.659014,9992.780217
1070.658343,76.609550,-1702.473667,9622.677246
1070.658659,306.438199,-1406.391290,9474.636058
1070.658975,1149.143247,-1110.308913,8808.450710
1070.659291,1072.533697,-666.185348,8364.327145
1070.659606,1225.752797,-962.267725,9030.512492
1070.659922,1455.581446,-1406.391290,8438.347739
1070.660238,1838.629195,-1702.473667,7624.121203
1070.660554,1149.143247,-1406.391290,8586.388927
1070.660870,919.314598,-1110.308913,9030.512492
1070.661186,612.876398,-1332.370696,9548.656652
1070.661502,612.876398,-1036.288319,9326.594869
1070.661817,-383.047749,-1110.308913,8882.471304
1070.662133,0.000000,-1406.391290,9326.594869
1070.662449,229.828649,-1628.453072,9252.574275
1070.662765,0.000000,-1628.453072,9030.512492
1070.663081,0.000000,-1406.391290,9474.636058
1070.663397,0.000000,-1628.453072,9696.697840
1070.663713,-153.219100,-1258.350101,9992.780217
1070.664028,153.219100,-666.185348,9770.718434
1070.664344,0.000000,-518.144159,8808.450710
1070.664660,153.219100,-0.000000,9104.533087
1070.664976,689.485948,-148.041188,9104.533087
1070.665292,1149.143247,-0.000000,9030.512492
1070.665608,536.266849,222.061783,9104.533087
1070.665924,0.000000,444.123565,9104.533087
1070.666239,229.828649,370.102971,9918.759623
1070.666555,383.047749,296.082377,9474.636058
1070.666871,153.219100,740.205942,9548.656652
1070.667187,0.000000,1332.370696,9178.553681
1070.667503,153.219100,962.267725,9104.533087
1070.667819,1225.752797,666.185348,9400.615463
1070.668135,383.047749,518.144159,9844.739029
1070.668450,0.000000,740.205942,9770.718434
1070.668766,306.438199,740.205942,10288.862594
1070.669082,383.047749,814.226536,9918.759623
1070.669398,459.657299,1110.308913,10436.903782
1070.669714,229.828649,1406.391290,9770.718434
1070.670030,689.485948,1258.350101,9474.636058
1070.670346,536.266849,666.185348,9400.615463
1070.670661,536.266849,666.185348,9474.636058
1070.670977,459.657299,444.123565,9992.780217
1070.671293,459.657299,1184.329507,10214.842000
1070.671609,536.266849,1110.308913,10066.800811
1070.671925,612.876398,1406.391290,9696.697840
1070.672241,306.438199,1480.411884,9400.615463
1070.672557,153.219100,814.226536,9178.553681
1070.672872,919.314598,814.226536,9474.636058
1070.673188,766.095498,592.164754,9918.759623
1070.673504,0.000000,518.144159,10140.821405
1070.673820,0.000000,370.102971,10732.986159
1070.674136,229.828649,370.102971,11103.089130
1070.674452,0.000000,962.267725,9770.718434
1070.674768,0.000000,1110.308913,9400.615463
1070.675083,76.609550,814.226536,9326.594869
1070.675399,229.828649,518.144159,9770.718434
1070.675715,0.000000,-0.000000,9770.718434
1070.676031,-229.828649,148.041188,10066.800811
1070.676347,-383.047749,148.041188,9918.759623
1070.676663,-153.219100,-148.041188,9844.739029
1070.676979,76.609550,-74.020594,9474.636058
1070.677294,-229.828649,-0.000000,8956.491898
1070.677610,-229.828649,-148.041188,8956.491898
1070.677926,229.828649,-444.123565,8956.491898
1070.678242,306.438199,-444.123565,9030.512492
1070.678558,229.828649,-518.144159,9474.636058
1070.678874,229.828649,-518.144159,9918.759623
1070.679190,306.438199,-1036.288319,9696.697840
1070.679505,76.609550,-1258.350101,9474.636058
1070.679821,229.828649,-592.164754,8660.409521
1070.680137,306.438199,-740.205942,8956.491898
1070.680453,536.266849,-518.144159,9400.615463
1070.680769,995.924147,-740.205942,8660.409521
1070.681085,842.705048,-666.185348,8660.409521
1070.681401,536.266849,-518.144159,9104.533087
1070.681716,612.876398,-888.247130,9326.594869
1070.682032,689.485948,-1332.370696,9326.594869
1070.682348,612.876398,-1258.350101,8808.450710
1070.682664,306.438199,-1332.370696,9030.512492
1070.682980,919.314598,-1776.494261,9104.533087
1070.683296,1532.190996,-1406.391290,9030.512492
1070.683612,459.657299,-1480.411884,9252.574275
1070.683927,842.705048,-1628.453072,9696.697840
1070.684243,919.314598,-1554.432478,9696.697840
1070.684559,689.485948,-1628.453072,9474.636058
1070.684875,842.705048,-1036.288319,9474.636058
1070.685191,1149.143247,-1406.391290,9178.553681
1070.685507,1225.752797,-1332.370696,8808.450710
1070.685822,1532.190996,-1406.391290,9252.574275
1070.686138,1302.362347,-1258.350101,9104.533087
1070.686454,459.657299,-740.205942,9178.553681
1070.686770,995.924147,-1184.329507,9548.656652
1070.687086,1378.971896,-1036.288319,9770.718434
1070.687402,1072.533697,-592.164754,8808.450710
1070.687718,689.485948,-74.020594,9104.533087
1070.688033,1072.533697,-814.226536,9178.553681
1070.688349,1072.533697,-1406.391290,9030.512492
1070.688665,306.438199,-518.144159,9548.656652
1070.688981,-383.047749,-444.123565,9844.739029
1070.689297,0.000000,-1110.308913,10510.924376
1070.689613,229.828649,-888.247130,10436.903782
1070.689929,-306.438199,-148.041188,9548.656652
1070.690244,0.000000,-0.000000,9326.594869
1070.690560,76.609550,-370.102971,9474.636058
1070.690876,229.828649,-74.020594,9696.697840
1070.691192,766.095498,444.123565,9622.677246
1070.691508,-153.219100,740.205942,9696.697840
1070.691824,383.047749,962.267725,10066.800811
1070.692140,306.438199,666.185348,9474.636058
1070.692455,229.828649,740.205942,9178.553681
1070.692771,306.438199,1110.308913,9178.553681
1070.693087,536.266849,518.144159,9030.512492
1070.693403,1072.533697,666.185348,9474.636058
1070.693719,689.485948,-0.000000,9474.636058
1070.694035,229.828649,518.144159,9622.677246
1070.694351,229.828649,1258.350101,9548.656652
1070.694666,153.219100,814.226536,10066.800811
1070.694982,0.000000,444.123565,10066.800811
1070.695298,0.000000,814.226536,9622.677246
1070.695614,76.609550,888.247130,8808.450710
1070.695930,383.047749,592.164754,9474.636058
1070.696246,229.828649,888.247130,9252.574275
1070.696562,-459.657299,1258.350101,9474.636058
1070.696877,76.609550,1036.288319,9622.677246
1070.697193,-76.609550,-0.000000,10140.821405
1070.697509,-536.266849,444.123565,10140.821405
1070.697825,-306.438199,666.185348,9548.656652
1070.698141,-306.438199,518.144159,8808.450710
1070.698457,153.219100,148.041188,9622.677246
1070.698773,536.266849,444.123565,9548.656652
1070.699088,229.828649,518.144159,9770.718434
1070.699404,76.609550,1036.288319,9474.636058
1070.699720,306.438199,740.205942,9326.594869
1070.700036,995.924147,296.082377,9474.636058
1070.700352,612.876398,740.205942,9178.553681
1070.700668,612.876398,888.247130,8882.471304
1070.700984,995.924147,-0.000000,8882.471304
1070.701299,766.095498,-0.000000,8882.471304
1070.701615,0.000000,444.123565,9400.615463
1070.701931,-229.828649,296.082377,9474.636058
1070.702247,-76.609550,-222.061783,9696.697840
1070.702563,-459.657299,-222.061783,10214.842000
1070.702879,-536.266849,-814.226536,9992.780217
1070.703195,-459.657299,-740.205942,9918.759623
1070.703510,-153.219100,-888.247130,9696.697840
1070.703826,0.000000,-814.226536,9474.636058
1070.704142,383.047749,-740.205942,9696.697840
1070.704458,0.000000,-370.102971,9696.697840
1070.704774,229.828649,-296.082377,10140.821405
1070.705090,766.095498,-148.041188,10214.842000
1070.705406,842.705048,-0.000000,9252.574275
1070.705721,919.314598,444.123565,8364.327145
1070.706037,1685.410096,-296.082377,8734.430116
1070.706353,1685.410096,-666.185348,8660.409521
1070.706669,1608.800546,-370.102971,9252.574275
1070.706985,766.095498,-740.205942,8956.491898
1070.707301,919.314598,-1332.370696,9844.739029
1070.707617,842.705048,-1184.329507,10732.986159
1070.707932,689.485948,-962.267725,9622.677246
1070.708248,459.657299,-888.247130,9030.512492
1070.708564,842.705048,-814.226536,9178.553681
1070.708875,1149.143247,-1258.350101,9252.574275
1070.709191,383.047749,-1628.453072,9400.615463
1070.709506,153.219100,-1776.494261,9770.718434
1070.709822,383.047749,-2072.576638,10140.821405
1070.710138,995.924147,-1554.432478,9844.739029
1070.710454,766.095498,-1332.370696,8956.491898
1070.710769,1149.143247,-1332.370696,9104.533087
1070.711085,1149.143247,-1702.473667,9474.636058
1070.711401,1455.581446,-1776.494261,8808.450710
1070.711717,1149.143247,-1036.288319,8808.450710
1070.712033,1149.143247,-888.247130,9104.533087
1070.712348,1378.971896,-740.205942,9030.512492
1070.712664,1532.190996,-666.185348,9252.574275
1070.712980,1302.362347,-592.164754,9104.533087
1070.713296,306.438199,-296.082377,8956.491898
1070.713611,536.266849,-814.226536,9030.512492
1070.713927,536.266849,-962.267725,9400.615463
1070.714243,229.828649,-888.247130,9474.636058
1070.714559,0.000000,-1036.288319,9696.697840
1070.714874,0.000000,-962.267725,9622.677246
1070.715190,-153.219100,-1110.308913,10214.842000
1070.715506,0.000000,-814.226536,9696.697840
1070.715822,-229.828649,-0.000000,9030.512492
1070.716137,-229.828649,370.102971,9252.574275
1070.716453,306.438199,-0.000000,9252.574275
1070.716769,612.876398,-0.000000,9326.594869
1070.717085,0.000000,-0.000000,9474.636058
1070.717401,0.000000,-74.020594,9548.656652
1070.717716,536.266849,-0.000000,9696.697840
1070.718032,919.314598,370.102971,9696.697840
1070.718348,1072.533697,888.247130,9326.594869
1070.718664,612.876398,1036.288319,9252.574275
1070.718979,919.314598,888.247130,8882.471304
1070.719295,995.924147,740.205942,9104.533087
1070.719611,766.095498,814.226536,9474.636058
1070.719927,459.657299,962.267725,9622.677246
1070.720242,536.266849,888.247130,10362.883188
1070.720558,689.485948,444.123565,9918.759623
1070.720874,76.609550,592.164754,9770.718434
1070.721190,0.000000,740.205942,9474.636058
1070.721505,306.438199,814.226536,9770.718434
1070.721821,612.876398,740.205942,9548.656652
1070.722137,76.609550,888.247130,9548.656652
1070.722453,-153.219100,962.267725,9844.739029
1070.722769,-229.828649,740.205942,9918.759623
1070.723084,76.609550,592.164754,10288.862594
1070.723400,0.000000,518.144159,10066.800811
1070.723716,-153.219100,1036.288319,9326.594869
1070.724032,0.000000,888.247130,9326.594869
1070.724347,76.609550,222.061783,9548.656652
1070.724663,306.438199,-0.000000,9770.718434
1070.724979,-306.438199,-0.000000,10140.821405
1070.725295,-459.657299,222.061783,9918.759623
1070.725610,229.828649,-0.000000,10436.903782
1070.725926,153.219100,-0.000000,9918.759623
1070.726242,306.438199,1036.288319,9474.636058
1070.726558,306.438199,592.164754,9622.677246
1070.726874,842.705048,518.144159,9326.594869
1070.727189,383.047749,740.205942,8882.471304
1070.727505,153.219100,666.185348,9326.594869
1070.727821,0.000000,148.041188,9548.656652
1070.728137,306.438199,-222.061783,9696.697840
1070.728452,76.609550,-0.000000,9622.677246
1070.728768,-306.438199,222.061783,9474.636058
1070.729084,76.609550,-592.164754,9844.739029
1070.729400,612.876398,-1110.308913,9622.677246
1070.729715,0.000000,-592.164754,9770.718434
1070.730031,-383.047749,-296.082377,9918.759623
1070.730347,-229.828649,-296.082377,9844.739029
1070.730663,153.219100,-518.144159,10066.800811
1070.730978,459.657299,-1110.308913,9844.739029
1070.731294,306.438199,-444.123565,9400.615463
1070.731610,612.876398,-518.144159,8956.491898
1070.731926,1378.971896,-518.144159,8882.471304
1070.732242,1532.190996,-592.164754,8956.491898
1070.732557,1378.971896,-666.185348,8956.491898
1070.732873,689.485948,-296.082377,9326.594869
1070.733189,1455.581446,-740.205942,9474.636058
1070.733505,1302.362347,-1110.308913,9326.594869
1070.733820,1225.752797,-962.267725,8956.491898
1070.734136,919.314598,-1184.329507,8660.409521
1070.734452,1378.971896,-1110.308913,8808.450710
1070.734768,1149.143247,-1776.494261,9178.553681
1070.735083,612.876398,-1480.411884,9400.615463
1070.735399,76.609550,-1332.370696,9918.759623
1070.735715,459.657299,-1998.556043,9918.759623
1070.736031,689.485948,-1406.391290,9992.780217
1070.736346,842.705048,-814.226536,9104.533087
1070.736662,919.314598,-888.247130,9178.553681
1070.736978,2068.457845,-740.205942,8956.491898
1070.737294,1225.752797,-592.164754,8882.471304
1070.737610,766.095498,-592.164754,8882.471304
1070.737925,459.657299,-592.164754,9770.718434
1070.738241,766.095498,-962.267725,9696.697840
1070.738557,1149.143247,-740.205942,9548.656652
1070.738873,459.657299,-222.061783,9030.512492
1070.739188,459.657299,-962.267725,9474.636058
1070.739504,842.705048,-1184.329507,9400.615463
1070.739820,919.314598,-1184.329507,9622.677246
1070.740136,766.095498,-740.205942,9622.677246
1070.740451,306.438199,-74.020594,9992.780217
1070.740767,459.657299,-222.061783,9696.697840
1070.741083,612.876398,-148.041188,9918.759623
1070.741399,536.266849,-444.123565,9252.574275
1070.741715,383.047749,-148.041188,9252.574275
1070.742030,459.657299,-222.061783,9548.656652
1070.742346,919.314598,-74.020594,9474.636058
1070.742662,306.438199,222.061783,9104.533087
1070.742978,-536.266849,148.041188,9400.615463
1070.743293,-153.219100,-0.000000,10066.800811
1070.743609,0.000000,-0.000000,10288.862594
1070.743925,-153.219100,518.144159,9474.636058
1070.744241,-383.047749,444.123565,8956.491898
1070.744556,0.000000,-222.061783,9178.553681
1070.744872,612.876398,-74.020594,9400.615463
1070.745188,153.219100,-0.000000,9770.718434
1070.745504,-229.828649,296.082377,9548.656652
1070.745819,-229.828649,592.164754,10066.800811
1070.746135,459.657299,740.205942,10140.821405
1070.746451,153.219100,666.185348,9474.636058
1070.746767,153.219100,1406.391290,8956.491898
1070.747083,229.828649,1332.370696,8882.471304
1070.747398,766.095498,740.205942,9178.553681
1070.747714,995.924147,592.164754,9474.636058
1070.748030,-383.047749,740.205942,9696.697840
1070.748346,-76.609550,1258.350101,9622.677246
1070.748661,0.000000,444.123565,10140.821405
1070.748977,0.000000,740.205942,9992.780217
1070.749293,-229.828649,740.205942,8956.491898
1070.749609,306.438199,592.164754,9178.553681
1070.749924,689.485948,444.123565,9474.636058
1070.750240,612.876398,-148.041188,9770.718434
1070.750556,0.000000,592.164754,9696.697840
1070.750872,383.047749,592.164754,9992.780217
1070.751187,306.438199,222.061783,9918.759623
1070.751503,536.266849,814.226536,9770.718434
1070.751819,766.095498,814.226536,9252.574275
1070.752135,383.047749,370.102971,9548.656652
1070.752451,536.266849,-0.000000,9474.636058
1070.752766,766.095498,222.061783,9252.574275
1070.753082,76.609550,444.123565,9474.636058
1070.753398,-229.828649,-74.020594,10140.821405
1070.753714,229.828649,-74.020594,10214.842000
1070.754029,306.438199,148.041188,9844.739029
1070.754345,-229.828649,-0.000000,9474.636058
1070.754661,383.047749,-148.041188,9770.718434
1070.754977,842.705048,-370.102971,9326.594869
1070.755292,612.876398,-888.247130,9400.615463
1070.755608,229.828649,-444.123565,9696.697840
1070.755924,306.438199,-518.144159,9770.718434
1070.756240,842.705048,-518.144159,9548.656652
1070.756556,612.876398,-222.061783,9252.574275
1070.756871,689.485948,-0.000000,9400.615463
1070.757187,842.705048,-370.102971,8882.471304
1070.757503,1149.143247,-444.123565,9178.553681
1070.757819,1838.629195,-1184.329507,9252.574275
1070.758134,689.485948,-1480.411884,9252.574275
1070.758450,766.095498,-666.185348,9622.677246
1070.758766,459.657299,-1406.391290,9696.697840
1070.759082,383.047749,-1258.350101,9696.697840
1070.759397,306.438199,-1036.288319,9400.615463
1070.759713,306.438199,-814.226536,9474.636058
1070.760029,689.485948,-1036.288319,9104.533087
1070.760345,1149.143247,-1258.350101,9030.512492
1070.760660,1149.143247,-1036.288319,9104.533087
1070.760976,842.705048,-1258.350101,9474.636058
1070.761292,1225.752797,-1776.494261,9326.594869
1070.761608,1532.190996,-1258.350101,9548.656652
1070.761924,1225.752797,-962.267725,9326.594869
1070.762239,1302.362347,-1110.308913,8956.491898
1070.762555,1378.971896,-888.247130,8660.409521
1070.762871,995.924147,-962.267725,8808.450710
1070.763187,1072.533697,-592.164754,8734.430116
1070.763502,689.485948,-592.164754,8808.450710
1070.763818,459.657299,-518.144159,9400.615463
1070.764134,766.095498,-1184.329507,9548.656652
1070.764450,229.828649,-962.267725,9474.636058
1070.764765,-306.438199,-1036.288319,8808.450710
1070.765081,0.000000,-1406.391290,9622.677246
1070.765397,76.609550,-2146.597232,10066.800811
1070.765713,-76.609550,-1480.411884,9918.759623
1070.766028,-383.047749,-962.267725,9326.594869
1070.766344,-229.828649,-592.164754,9474.636058
1070.766660,0.000000,-444.123565,9696.697840
1070.766976,229.828649,-222.061783,9178.553681
1070.767292,459.657299,-0.000000,8734.430116
1070.767607,689.485948,518.144159,8660.409521
1070.767923,536.266849,296.082377,8956.491898
1070.768239,1302.362347,296.082377,8808.450710
1070.768555,612.876398,370.102971,9030.512492
1070.768870,0.000000,444.123565,9548.656652
1070.769186,0.000000,222.061783,9696.697840
1070.769502,383.047749,-0.000000,9844.739029
1070.769818,0.000000,740.205942,9400.615463
1070.770133,76.609550,518.144159,9104.533087
1070.770449,383.047749,222.061783,9474.636058
1070.770765,153.219100,296.082377,9696.697840
1070.771081,0.000000,518.144159,9548.656652
1070.771397,-229.828649,592.164754,9770.718434
1070.771712,153.219100,296.082377,10362.883188
1070.772028,229.828649,148.041188,10140.821405
1070.772344,229.828649,1110.308913,10288.862594
1070.772660,536.266849,962.267725,9548.656652
1070.772975,766.095498,1184.329507,9030.512492
1070.773291,995.924147,1406.391290,8882.471304
1070.773607,383.047749,1406.391290,9178.553681
1070.773923,306.438199,1258.350101,10140.821405
1070.774238,459.657299,1184.329507,9548.656652
1070.774554,76.609550,814.226536,9770.718434
1070.774870,229.828649,666.185348,9844.739029
1070.775186,0.000000,518.144159,9918.759623
1070.775501,383.047749,-0.000000,9696.697840
1070.775817,306.438199,222.061783,9992.780217
1070.776133,0.000000,444.123565,10436.903782
1070.776449,-153.219100,518.144159,10214.842000
1070.776765,-459.657299,740.205942,10510.924376
1070.777080,306.438199,148.041188,10807.006753
1070.777396,-689.485948,296.082377,9770.718434
1070.777712,-153.219100,444.123565,9474.636058
1070.778028,76.609550,444.123565,9548.656652
1070.778343,536.266849,222.061783,9400.615463
1070.778659,306.438199,296.082377,9326.594869
1070.778975,0.000000,370.102971,9548.656652
1070.779291,76.609550,222.061783,9918.759623
1070.779606,229.828649,-0.000000,10066.800811
1070.779922,459.657299,-0.000000,9326.594869
1070.780238,-306.438199,-74.020594,9104.533087
1070.780554,76.609550,-148.041188,9474.636058
1070.780869,536.266849,-222.061783,9326.594869
1070.781185,383.047749,-444.123565,9474.636058
1070.781501,0.000000,-592.164754,9548.656652
1070.781817,-306.438199,-1036.288319,9918.759623
1070.782133,383.047749,-1110.308913,9918.759623
1070.782448,153.219100,-888.247130,9400.615463
1070.782764,153.219100,-518.144159,9548.656652
1070.783080,383.047749,-444.123565,9178.553681
1070.783396,766.095498,-148.041188,8808.450710
1070.783711,766.095498,-592.164754,8808.450710
1070.784027,383.047749,-518.144159,8734.430116
1070.784343,383.047749,-666.185348,9474.636058
1070.784659,919.314598,-1110.308913,9326.594869
1070.784974,766.095498,-888.247130,9030.512492
1070.785290,459.657299,-962.267725,9178.553681
1070.785606,383.047749,-1406.391290,9104.533087
1070.785922,995.924147,-1554.432478,9030.512492
1070.786238,1149.143247,-1332.370696,9252.574275
1070.786553,383.047749,-1184.329507,9178.553681
1070.786869,229.828649,-1258.350101,9474.636058
1070.787185,842.705048,-1554.432478,9844.739029
1070.787501,1225.752797,-1110.308913,9326.594869
1070.787816,1072.533697,-962.267725,9104.533087
1070.788132,766.095498,-814.226536,8734.430116
1070.788448,1225.752797,-740.205942,8882.471304
1070.788764,1225.752797,-666.185348,8660.409521
1070.789079,689.485948,-444.123565,9104.533087
1070.789395,306.438199,-1332.370696,9622.677246
1070.789711,153.219100,-1332.370696,10288.862594
1070.790027,383.047749,-1110.308913,9622.677246
1070.790342,76.609550,-888.247130,9696.697840
1070.790658,76.609550,-740.205942,9474.636058
1070.790974,1072.533697,-962.267725,9548.656652
1070.791290,842.705048,-1258.350101,9252.574275
1070.791606,612.876398,-740.205942,9770.718434
1070.791921,306.438199,-296.082377,9622.677246
1070.792237,995.924147,-592.164754,10288.862594
1070.792553,1532.190996,-370.102971,9918.759623
1070.792869,536.266849,222.061783,9252.574275
1070.793184,459.657299,296.082377,9252.574275
1070.793500,1225.752797,222.061783,9104.533087
1070.793816,995.924147,444.123565,9252.574275
1070.794132,536.266849,962.267725,9474.636058
1070.794447,306.438199,370.102971,9696.697840
1070.794763,383.047749,-518.144159,10288.862594
1070.795079,306.438199,-148.041188,10140.821405
1070.795395,0.000000,-0.000000,9992.780217
1070.795710,306.438199,296.082377,9696.697840
1070.796026,306.438199,222.061783,9918.759623
1070.796342,612.876398,222.061783,9696.697840
1070.796658,383.047749,592.164754,9474.636058
1070.796974,459.657299,1110.308913,9548.656652
1070.797289,383.047749,592.164754,9622.677246
1070.797605,842.705048,370.102971,9918.759623
1070.797921,842.705048,740.205942,9474.636058
1070.798237,383.047749,1110.308913,9030.512492
1070.798552,919.314598,888.247130,8808.450710
1070.798868,689.485948,962.267725,8734.430116
1070.799184,76.609550,814.226536,9252.574275
1070.799500,-383.047749,962.267725,9770.718434
1070.799815,-306.438199,666.185348,9918.759623
1070.800131,-153.219100,222.061783,9696.697840
1070.800447,0.000000,222.061783,9696.697840
1070.800763,-153.219100,370.102971,9474.636058
1070.801079,-306.438199,444.123565,9326.594869
1070.801394,76.609550,370.102971,9252.574275
1070.801710,229.828649,444.123565,9326.594869
1070.802026,76.609550,666.185348,9252.574275
1070.802342,0.000000,666.185348,9326.594869
1070.802657,0.000000,-74.020594,10140.821405
1070.802973,153.219100,-296.082377,9992.780217
1070.803289,383.047749,-0.000000,9178.553681
1070.803605,612.876398,518.144159,8956.491898
1070.803920,689.485948,148.041188,9400.615463
1070.804236,536.266849,148.041188,8956.491898
1070.804552,76.609550,518.144159,9178.553681
1070.804868,-153.219100,370.102971,9918.759623
1070.805183,-153.219100,-0.000000,9992.780217
1070.805499,76.609550,-0.000000,9548.656652
1070.805815,-229.828649,-0.000000,9548.656652
1070.806131,-229.828649,-740.205942,9622.677246
1070.806447,-229.828649,-962.267725,9696.697840
1070.806762,459.657299,-962.267725,9622.677246
1070.807078,76.609550,-740.205942,9844.739029
1070.807394,0.000000,-444.123565,9992.780217
1070.807710,76.609550,-666.185348,10140.821405
1070.808025,1072.533697,-0.000000,9844.739029
1070.808341,689.485948,-0.000000,9030.512492
1070.808657,842.705048,-0.000000,8660.409521
1070.808973,1608.800546,-296.082377,8808.450710
1070.809288,1225.752797,-370.102971,9104.533087
1070.809604,1072.533697,-0.000000,9030.512492
1070.809920,842.705048,-296.082377,9326.594869
1070.810236,689.485948,-666.185348,9770.718434
1070.810551,689.485948,-1332.370696,9918.759623
1070.810867,536.266849,-1036.288319,9844.739029
1070.811183,459.657299,-1110.308913,9622.677246
1070.811499,612.876398,-1406.391290,9548.656652
1070.811815,919.314598,-1702.473667,9844.739029
1070.812130,612.876398,-1258.350101,9548.656652
1070.812446,383.047749,-1258.350101,9844.739029
1070.812762,459.657299,-1554.432478,9918.759623
1070.813078,766.095498,-1110.308913,9992.780217
1070.813393,919.314598,-962.267725,9696.697840
1070.813709,842.705048,-1036.288319,8956.491898
1070.814025,766.095498,-888.247130,9104.533087
1070.814341,1838.629195,-592.164754,8438.347739
1070.814657,1378.971896,-444.123565,8956.491898
1070.814972,919.314598,-444.123565,9474.636058
1070.815288,1072.533697,-814.226536,9548.656652
1070.815604,689.485948,-962.267725,9770.718434
1070.815920,536.266849,-888.247130,9400.615463
1070.816236,229.828649,-1036.288319,9178.553681
1070.816551,459.657299,-1332.370696,9548.656652
1070.816867,536.266849,-740.205942,9326.594869
1070.817183,153.219100,-814.226536,9622.677246
1070.817499,0.000000,-1406.391290,9696.697840
1070.817815,0.000000,-888.247130,9918.759623
1070.818130,842.705048,-814.226536,9696.697840
1070.818446,536.266849,-740.205942,9474.636058
1070.818762,229.828649,-222.061783,9178.553681
1070.819078,383.047749,-74.020594,8808.450710
1070.819394,842.705048,-0.000000,8882.471304
1070.819709,766.095498,666.185348,9030.512492
1070.820025,76.609550,814.226536,8660.409521
1070.820341,76.609550,444.123565,9030.512492
1070.820657,229.828649,-0.000000,9548.656652
1070.820973,536.266849,-0.000000,9696.697840
1070.821288,153.219100,-296.082377,9030.512492
1070.821604,0.000000,-0.000000,9252.574275
1070.821920,306.438199,-222.061783,10066.800811
1070.822236,383.047749,296.082377,9400.615463
1070.822551,0.000000,1184.329507,9104.533087
1070.822867,536.266849,888.247130,9474.636058
1070.823183,229.828649,370.102971,10214.842000
1070.823499,612.876398,518.144159,9770.718434
1070.823815,229.828649,740.205942,9548.656652
1070.824130,612.876398,518.144159,9326.594869
1070.824446,1225.752797,666.185348,9104.533087
1070.824762,459.657299,1110.308913,8956.491898
1070.825078,306.438199,1332.370696,9400.615463
1070.825394,76.609550,1776.494261,9844.739029
1070.825709,0.000000,1110.308913,9992.780217
1070.826025,76.609550,518.144159,9992.780217
1070.826341,0.000000,370.102971,9992.780217
1070.826657,0.000000,-74.020594,9992.780217
1070.826973,306.438199,-296.082377,9918.759623
1070.827288,842.705048,222.061783,9918.759623
1070.827604,306.438199,740.205942,9622.677246
1070.827920,229.828649,962.267725,9696.697840
1070.828236,612.876398,444.123565,10362.883188
1070.828552,842.705048,296.082377,10140.821405
1070.828867,459.657299,518.144159,9548.656652
1070.829183,536.266849,-0.000000,9030.512492
1070.829499,612.876398,296.082377,9400.615463
1070.829815,1225.752797,592.164754,9178.553681
1070.830131,536.266849,740.205942,9400.615463
1070.830446,-306.438199,888.247130,9844.739029
1070.830762,0.000000,-0.000000,10362.883188
1070.831078,383.047749,-592.164754,10066.800811
1070.831394,0.000000,-518.144159,9918.759623
1070.831710,-459.657299,-740.205942,9696.697840
1070.832025,0.000000,-888.247130,9770.718434
1070.832341,306.438199,-888.247130,9548.656652
1070.832657,306.438199,-148.041188,9400.615463
1070.832973,153.219100,-0.000000,9474.636058
1070.833288,229.828649,-666.185348,9548.656652
1070.833604,689.485948,-666.185348,9992.780217
1070.833920,766.095498,-1184.329507,9178.553681
1070.834236,766.095498,-962.267725,8512.368333
1070.834552,766.095498,-1258.350101,9104.533087
1070.834867,995.924147,-1110.308913,9178.553681
1070.835183,766.095498,-740.205942,8808.450710
1070.835499,536.266849,-74.020594,9030.512492
1070.835815,229.828649,-444.123565,9252.574275
1070.836131,612.876398,-740.205942,9326.594869
1070.836446,689.485948,-1036.288319,8808.450710
1070.836762,306.438199,-1480.411884,9178.553681
1070.837078,459.657299,-2146.597232,8734.430116
1070.837394,459.657299,-2368.659014,9400.615463
1070.837710,536.266849,-1406.391290,9252.574275
1070.838025,459.657299,-1332.370696,9474.636058
1070.838341,536.266849,-740.205942,9474.636058
1070.838657,766.095498,-888.247130,9548.656652
1070.838973,919.314598,-592.164754,8956.491898
1070.839289,1149.143247,-740.205942,8956.491898
1070.839604,1072.533697,-666.185348,8512.368333
1070.839920,2068.457845,-888.247130,8586.388927
1070.840236,1532.190996,-740.205942,8734.430116
1070.840552,689.485948,-370.102971,9104.533087
1070.840868,459.657299,-666.185348,9548.656652
1070.841183,612.876398,-1036.288319,9548.656652
1070.841499,612.876398,-370.102971,9326.594869
1070.841815,229.828649,-888.247130,9400.615463
1070.842131,383.047749,-1184.329507,9548.656652
1070.842447,766.095498,-1110.308913,9696.697840
1070.842762,612.876398,-814.226536,9622.677246
1070.843078,689.485948,-444.123565,9326.594869
1070.843394,612.876398,-222.061783,9548.656652
1070.843710,229.828649,-592.164754,9918.759623
1070.844025,612.876398,-518.144159,9844.739029
1070.844341,459.657299,-518.144159,9400.615463
1070.844657,689.485948,-222.061783,9104.533087
1070.844973,689.485948,-0.000000,9178.553681
1070.845289,612.876398,518.144159,9104.533087
1070.845604,689.485948,888.247130,9622.677246
1070.845920,0.000000,814.226536,9548.656652
1070.846236,536.266849,814.226536,10066.800811
1070.846552,0.000000,740.205942,9844.739029
1070.846868,76.609550,296.082377,9474.636058
1070.847183,0.000000,222.061783,9474.636058
1070.847499,383.047749,-0.000000,9918.759623
1070.847815,459.657299,-74.020594,10066.800811
1070.848131,0.000000,592.164754,9400.615463
1070.848447,0.000000,962.267725,9696.697840
1070.848762,153.219100,518.144159,10288.862594
1070.849078,459.657299,740.205942,9992.780217
1070.849394,383.047749,1554.432478,9770.718434
1070.849710,153.219100,592.164754,9400.615463
1070.850026,995.924147,592.164754,9770.718434
1070.850341,689.485948,814.226536,9400.615463
1070.850657,842.705048,1110.308913,8808.450710
1070.850973,229.828649,1702.473667,9104.533087
1070.851289,0.000000,1332.370696,10288.862594
1070.851605,76.609550,666.185348,10288.862594
1070.851920,306.438199,518.144159,9992.780217
1070.852236,0.000000,444.123565,9548.656652
1070.852552,76.609550,148.041188,9548.656652
1070.852868,842.705048,-370.102971,9548.656652
1070.853184,0.000000,-0.000000,9918.759623
1070.853499,76.609550,592.164754,9844.739029
1070.853815,612.876398,814.226536,10214.842000
1070.854131,306.438199,296.082377,9918.759623
1070.854447,306.438199,-0.000000,9696.697840
1070.854762,76.609550,518.144159,9474.636058
1070.855078,383.047749,-0.000000,8956.491898
1070.855394,919.314598,-222.061783,9252.574275
1070.855710,306.438199,444.123565,9104.533087
1070.856026,76.609550,740.205942,8956.491898
1070.856341,-383.047749,444.123565,9400.615463
1070.856657,153.219100,148.041188,9696.697840
1070.856973,0.000000,-444.123565,9622.677246
1070.857289,-459.657299,-740.205942,9400.615463
1070.857605,-766.095498,-1332.370696,9770.718434
