#time,accel_x,accel_y,accel_z
918.352674,536.266849,888.247130,8882.471304
918.352990,229.828649,666.185348,9104.533087
918.353306,153.219100,666.185348,9326.594869
918.353622,306.438199,666.185348,9474.636058
918.353938,383.047749,740.205942,9252.574275
918.354254,383.047749,740.205942,9696.697840
918.354569,306.438199,888.247130,9474.636058
918.354885,383.047749,814.226536,9474.636058
918.355201,766.095498,518.144159,9400.615463
918.355517,76.609550,444.123565,9622.677246
918.355833,383.047749,962.267725,9474.636058
918.356149,766.095498,1184.329507,9474.636058
918.356464,766.095498,888.247130,9548.656652
918.356780,995.924147,1258.350101,9548.656652
918.357096,1149.143247,1036.288319,9252.574275
918.357412,919.314598,1258.350101,9400.615463
918.357728,842.705048,1258.350101,9622.677246
918.358043,919.314598,962.267725,9474.636058
918.358359,842.705048,962.267725,9252.574275
918.358675,383.047749,888.247130,9400.615463
918.358991,689.485948,888.247130,9474.636058
918.359307,383.047749,814.226536,9474.636058
918.359623,459.657299,814.226536,9474.636058
918.359938,229.828649,962.267725,9622.677246
918.360254,76.609550,962.267725,9548.656652
918.360570,0.000000,666.185348,9548.656652
918.360886,-306.438199,296.082377,9844.739029
918.361202,-536.266849,222.061783,9844.739029
918.361518,-1302.362347,-74.020594,9992.780217
918.361833,-842.705048,-0.000000,10362.883188
918.362149,-919.314598,-148.041188,10140.821405
918.362465,-1072.533697,-518.144159,10214.842000
918.362781,-919.314598,-296.082377,10066.800811
918.363097,-919.314598,-370.102971,9548.656652
918.363413,-229.828649,-296.082377,9622.677246
918.363728,0.000000,-370.102971,9474.636058
918.364044,459.657299,-296.082377,9252.574275
918.364360,766.095498,-296.082377,9252.574275
918.364676,766.095498,-74.020594,9326.594869
918.364992,919.314598,-148.041188,8956.491898
918.365307,995.924147,-148.041188,9030.512492
918.365623,1072.533697,-0.000000,8808.450710
918.365939,842.705048,-444.123565,8882.471304
918.366255,459.657299,222.061783,9104.533087
918.366571,536.266849,-0.000000,9400.615463
918.366887,383.047749,-74.020594,9178.553681
918.367202,229.828649,-148.041188,9400.615463
918.367518,229.828649,-296.082377,9252.574275
918.367834,-153.219100,-444.123565,9474.636058
918.368150,-229.828649,-518.144159,9178.553681
918.368466,-153.219100,-444.123565,9326.594869
918.368782,-306.438199,-74.020594,9178.553681
918.369097,0.000000,-148.041188,9030.512492
918.369413,-383.047749,-74.020594,9178.553681
918.369729,-306.438199,-296.082377,9178.553681
918.370045,0.000000,-222.061783,9104.533087
918.370361,229.828649,-444.123565,9104.533087
918.370677,306.438199,-370.102971,9326.594869
918.370992,0.000000,-296.082377,9030.512492
918.371308,153.219100,-444.123565,9104.533087
918.371624,306.438199,-814.226536,9400.615463
918.371940,383.047749,-888.247130,9400.615463
918.372256,306.438199,-888.247130,9474.636058
918.372571,766.095498,-814.226536,9548.656652
918.372887,919.314598,-814.226536,9474.636058
918.373203,919.314598,-296.082377,9548.656652
918.373519,1455.581446,-740.205942,9622.677246
918.373835,1455.581446,-592.164754,9326.594869
918.374151,1532.190996,-222.061783,9474.636058
918.374466,1225.752797,-296.082377,9400.615463
918.374782,1302.362347,-296.082377,9548.656652
918.375098,1072.533697,-222.061783,9696.697840
918.375414,1072.533697,-296.082377,9622.677246
918.375730,766.095498,-740.205942,9548.656652
918.376046,612.876398,-296.082377,9548.656652
918.376361,842.705048,-296.082377,9548.656652
918.376677,689.485948,-74.020594,9696.697840
918.376993,612.876398,-148.041188,9770.718434
918.377309,459.657299,-74.020594,9770.718434
918.377625,689.485948,-222.061783,9548.656652
918.377941,766.095498,-370.102971,9622.677246
918.378256,459.657299,-74.020594,9622.677246
918.378572,306.438199,-0.000000,9474.636058
918.378888,383.047749,-0.000000,9696.697840
918.379204,153.219100,-0.000000,9696.697840
918.379520,229.828649,-0.000000,9474.636058
918.379835,76.609550,148.041188,9400.615463
918.380151,153.219100,-0.000000,9326.594869
918.380467,153.219100,148.041188,9326.594869
918.380783,306.438199,74.020594,9326.594869
918.381099,612.876398,-296.082377,9400.615463
918.381415,306.438199,370.102971,9252.574275
918.381730,0.000000,-0.000000,9400.615463
918.382046,229.828649,222.061783,9326.594869
918.382362,306.438199,-0.000000,9474.636058
918.382678,153.219100,-148.041188,9474.636058
918.382994,153.219100,-74.020594,9474.636058
918.383310,76.609550,-0.000000,9474.636058
918.383625,229.828649,-148.041188,9548.656652
918.383941,306.438199,-148.041188,9696.697840
918.384257,459.657299,-222.061783,9622.677246
918.384573,76.609550,-296.082377,9548.656652
918.384889,153.219100,-148.041188,9548.656652
918.385205,306.438199,-222.061783,9474.636058
918.385520,383.047749,-296.082377,9474.636058
918.385836,459.657299,-518.144159,9326.594869
918.386152,612.876398,-370.102971,9400.615463
918.386467,536.266849,-444.123565,9252.574275
918.386783,459.657299,-518.144159,9474.636058
918.387099,689.485948,-518.144159,9548.656652
918.387415,689.485948,-444.123565,9474.636058
918.387730,689.485948,-740.205942,9474.636058
918.388046,919.314598,-296.082377,9474.636058
918.388362,536.266849,-444.123565,9474.636058
918.388677,842.705048,-296.082377,9474.636058
918.388993,1302.362347,-222.061783,9474.636058
918.389309,1072.533697,-222.061783,9400.615463
918.389625,766.095498,-370.102971,9252.574275
918.389940,612.876398,-222.061783,9252.574275
918.390256,995.924147,-74.020594,9178.553681
918.390572,995.924147,-0.000000,9400.615463
918.390888,919.314598,-148.041188,9178.553681
918.391203,842.705048,-0.000000,9178.553681
918.391519,842.705048,-0.000000,9400.615463
918.391835,612.876398,-0.000000,9178.553681
918.392150,766.095498,-0.000000,9326.594869
918.392466,459.657299,-0.000000,9400.615463
918.392782,766.095498,-0.000000,9326.594869
918.393098,536.266849,-0.000000,9474.636058
918.393413,306.438199,-0.000000,9548.656652
918.393729,229.828649,-0.000000,9622.677246
918.394045,76.609550,-0.000000,9400.615463
918.394361,459.657299,-0.000000,9548.656652
918.394676,306.438199,74.020594,9474.636058
918.394992,612.876398,-74.020594,9548.656652
918.395308,536.266849,-0.000000,9326.594869
918.395623,536.266849,-0.000000,9400.615463
918.395939,459.657299,-0.000000,9326.594869
918.396255,153.219100,-0.000000,9400.615463
918.396571,459.657299,-0.000000,9622.677246
918.396886,0.000000,-222.061783,9474.636058
918.397202,153.219100,-74.020594,9622.677246
918.397518,76.609550,-0.000000,9548.656652
918.397834,0.000000,-222.061783,9622.677246
918.398149,306.438199,-222.061783,9696.697840
918.398465,153.219100,-296.082377,9474.636058
918.398781,153.219100,-296.082377,9844.739029
918.399096,0.000000,-296.082377,9770.718434
918.399412,0.000000,-296.082377,9696.697840
918.399728,0.000000,-444.123565,9548.656652
918.400044,0.000000,-222.061783,9696.697840
918.400359,306.438199,-148.041188,9622.677246
918.400675,229.828649,-148.041188,9696.697840
918.400991,76.609550,-296.082377,9918.759623
918.401307,229.828649,-0.000000,9548.656652
918.401622,306.438199,-370.102971,9474.636058
918.401938,459.657299,-74.020594,9474.636058
918.402254,229.828649,-74.020594,9474.636058
918.402569,459.657299,-148.041188,9474.636058
918.402885,383.047749,-296.082377,9622.677246
918.403201,459.657299,-296.082377,9326.594869
918.403517,612.876398,-296.082377,9548.656652
918.403832,766.095498,-148.041188,9326.594869
918.404148,842.705048,-0.000000,9252.574275
918.404464,536.266849,-74.020594,9326.594869
918.404780,689.485948,-0.000000,9326.594869
918.405095,919.314598,-74.020594,9178.553681
918.405411,842.705048,-0.000000,9326.594869
918.405727,842.705048,-74.020594,9252.574275
918.406042,536.266849,-74.020594,9252.574275
918.406358,536.266849,-148.041188,9548.656652
918.406674,459.657299,-74.020594,9326.594869
918.406990,76.609550,-370.102971,9252.574275
918.407305,306.438199,-296.082377,9326.594869
918.407621,306.438199,-296.082377,9030.512492
918.407937,229.828649,-296.082377,9326.594869
918.408252,153.219100,-222.061783,9400.615463
918.408568,153.219100,-296.082377,9252.574275
918.408884,383.047749,-296.082377,9326.594869
918.409200,76.609550,-370.102971,9474.636058
918.409515,0.000000,-444.123565,9326.594869
918.409831,0.000000,-222.061783,9474.636058
918.410147,0.000000,-370.102971,9474.636058
918.410463,229.828649,-370.102971,9474.636058
918.410778,612.876398,-370.102971,9252.574275
918.411094,306.438199,-444.123565,9326.594869
918.411410,306.438199,-148.041188,9400.615463
918.411725,459.657299,-148.041188,9474.636058
918.412041,842.705048,-74.020594,9548.656652
918.412357,459.657299,444.123565,9696.697840
918.412673,459.657299,-296.082377,9474.636058
918.412988,306.438199,-222.061783,9474.636058
918.413304,306.438199,-296.082377,9474.636058
918.413620,153.219100,-518.144159,9400.615463
918.413936,153.219100,-518.144159,9400.615463
918.414251,153.219100,-222.061783,9548.656652
918.414567,306.438199,-148.041188,9696.697840
918.414883,306.438199,-370.102971,9400.615463
918.415198,459.657299,-74.020594,9992.780217
918.415514,689.485948,-518.144159,9474.636058
918.415830,536.266849,-222.061783,9474.636058
918.416146,76.609550,-148.041188,9474.636058
918.416461,306.438199,-222.061783,9696.697840
918.416777,536.266849,-148.041188,9474.636058
918.417093,306.438199,-222.061783,9622.677246
918.417409,383.047749,-0.000000,9622.677246
918.417724,612.876398,-0.000000,9548.656652
918.418040,383.047749,-0.000000,9548.656652
918.418356,306.438199,-0.000000,9696.697840
918.418671,612.876398,-296.082377,9696.697840
918.418987,536.266849,-0.000000,9400.615463
918.419303,536.266849,-0.000000,9474.636058
918.419619,689.485948,-0.000000,9474.636058
918.419934,536.266849,-222.061783,9474.636058
918.420250,689.485948,-0.000000,9326.594869
918.420566,612.876398,-0.000000,9474.636058
918.420882,459.657299,-0.000000,9400.615463
918.421197,612.876398,-0.000000,9474.636058
918.421513,995.924147,222.061783,9474.636058
918.421829,383.047749,-0.000000,9104.533087
918.422144,383.047749,-0.000000,9548.656652
918.422460,229.828649,-74.020594,9400.615463
918.422776,383.047749,-0.000000,9400.615463
918.423092,383.047749,-296.082377,9400.615463
918.423407,459.657299,-148.041188,9400.615463
918.423723,306.438199,-74.020594,9474.636058
918.424039,536.266849,-0.000000,9474.636058
918.424355,536.266849,-296.082377,9400.615463
918.424670,919.314598,-370.102971,9474.636058
918.424986,383.047749,-148.041188,9474.636058
918.425302,612.876398,-296.082377,9474.636058
918.425617,612.876398,-222.061783,9474.636058
918.425933,459.657299,-222.061783,9400.615463
918.426249,612.876398,-370.102971,9474.636058
918.426565,612.876398,-444.123565,9326.594869
918.426880,383.047749,-370.102971,9400.615463
918.427196,536.266849,-296.082377,9474.636058
918.427512,306.438199,-592.164754,9474.636058
918.427827,459.657299,-222.061783,9474.636058
918.428143,689.485948,-444.123565,9474.636058
918.428459,153.219100,-296.082377,9474.636058
918.428775,383.047749,-444.123565,9474.636058
918.429090,766.095498,-444.123565,9548.656652
918.429406,229.828649,-296.082377,9474.636058
918.429722,383.047749,-222.061783,9474.636058
918.430038,229.828649,-222.061783,9400.615463
918.430353,306.438199,-296.082377,9474.636058
918.430669,612.876398,-370.102971,9474.636058
918.430985,383.047749,-74.020594,9474.636058
918.431300,306.438199,-296.082377,9474.636058
918.431616,306.438199,-74.020594,9548.656652
918.431932,229.828649,-370.102971,9548.656652
918.432248,459.657299,-222.061783,9622.677246
918.432563,459.657299,-74.020594,9474.636058
918.432879,383.047749,-74.020594,9474.636058
918.433195,459.657299,-148.041188,9474.636058
918.433511,76.609550,-296.082377,9474.636058
918.433826,383.047749,-0.000000,9622.677246
918.434142,536.266849,-0.000000,9622.677246
918.434458,842.705048,-148.041188,9474.636058
918.434773,612.876398,-74.020594,9400.615463
918.435089,536.266849,-0.000000,9474.636058
918.435405,766.095498,-74.020594,9474.636058
918.435721,919.314598,-0.000000,9474.636058
918.436036,536.266849,-0.000000,9474.636058
918.436352,842.705048,-296.082377,9622.677246
918.436668,689.485948,-74.020594,9548.656652
918.436984,612.876398,-74.020594,9474.636058
918.437299,1072.533697,-74.020594,9474.636058
918.437615,459.657299,-148.041188,9696.697840
918.437931,766.095498,-148.041188,9400.615463
918.438246,536.266849,-74.020594,9696.697840
918.438562,536.266849,-370.102971,9474.636058
918.438878,459.657299,-222.061783,9548.656652
918.439194,995.924147,-296.082377,9548.656652
918.439509,612.876398,-296.082377,9548.656652
918.439825,306.438199,-296.082377,9474.636058
918.440141,536.266849,-296.082377,9474.636058
918.440457,536.266849,-296.082377,9548.656652
918.440772,306.438199,-296.082377,9548.656652
918.441088,612.876398,-74.020594,9548.656652
918.441404,383.047749,-370.102971,9400.615463
918.441719,306.438199,-296.082377,9400.615463
918.442035,306.438199,-296.082377,9474.636058
918.442351,306.438199,-370.102971,9400.615463
918.442667,612.876398,-222.061783,9474.636058
918.442982,306.438199,-148.041188,9548.656652
918.443298,306.438199,-296.082377,9474.636058
918.443614,689.485948,-74.020594,9474.636058
918.443930,459.657299,-370.102971,9252.574275
918.444245,536.266849,-74.020594,9326.594869
918.444561,536.266849,-222.061783,9326.594869
918.444877,383.047749,-296.082377,9474.636058
918.445192,383.047749,-148.041188,9400.615463
918.445508,229.828649,-148.041188,9474.636058
918.445824,306.438199,-222.061783,9474.636058
918.446140,306.438199,-222.061783,9474.636058
918.446455,229.828649,-74.020594,9178.553681
918.446771,-383.047749,-74.020594,9548.656652
918.447087,306.438199,-296.082377,9400.615463
918.447402,306.438199,-222.061783,9326.594869
918.447718,459.657299,-370.102971,9400.615463
918.448034,383.047749,-222.061783,9400.615463
918.448350,229.828649,-222.061783,9474.636058
918.448665,459.657299,-296.082377,9474.636058
918.448981,306.438199,-0.000000,9548.656652
918.449297,459.657299,-296.082377,9400.615463
918.449613,383.047749,-74.020594,9548.656652
918.449928,383.047749,-370.102971,9474.636058
918.450244,306.438199,-74.020594,9696.697840
918.450560,612.876398,-74.020594,9326.594869
918.450875,459.657299,-222.061783,9622.677246
918.451191,383.047749,-0.000000,9548.656652
918.451507,536.266849,-0.000000,9696.697840
918.451823,459.657299,-74.020594,9474.636058
918.452138,612.876398,-0.000000,9400.615463
918.452454,612.876398,-296.082377,9474.636058
918.452770,459.657299,-148.041188,9622.677246
918.453086,689.485948,-0.000000,9474.636058
918.453401,766.095498,-0.000000,9622.677246
918.453717,689.485948,-0.000000,9548.656652
918.454033,536.266849,-74.020594,9474.636058
918.454348,306.438199,-0.000000,9548.656652
918.454664,0.000000,-222.061783,9844.739029
918.454980,229.828649,-74.020594,9548.656652
918.455296,153.219100,-0.000000,9696.697840
918.455611,306.438199,-74.020594,9474.636058
918.455927,306.438199,-74.020594,9622.677246
918.456243,76.609550,-296.082377,9696.697840
918.456559,0.000000,-74.020594,9622.677246
918.456874,383.047749,-0.000000,9696.697840
918.457190,459.657299,-0.000000,9474.636058
918.457506,153.219100,-0.000000,9474.636058
918.457821,229.828649,-222.061783,9474.636058
918.458137,153.219100,-74.020594,9400.615463
918.458453,153.219100,-0.000000,9622.677246
918.458769,383.047749,-0.000000,9474.636058
918.459084,459.657299,-222.061783,9548.656652
918.459400,306.438199,-296.082377,9548.656652
918.459716,153.219100,-0.000000,9622.677246
918.460032,0.000000,-74.020594,9770.718434
918.460347,153.219100,-148.041188,9474.636058
918.460663,76.609550,-222.061783,9474.636058
918.460979,229.828649,-148.041188,9474.636058
918.461294,306.438199,-74.020594,9474.636058
918.461610,383.047749,-74.020594,9474.636058
918.461926,229.828649,-0.000000,9400.615463
918.462242,153.219100,-0.000000,9548.656652
918.462557,229.828649,-222.061783,9252.574275
918.462873,153.219100,-148.041188,9548.656652
918.463189,383.047749,-148.041188,9326.594869
918.463505,306.438199,-148.041188,9326.594869
918.463820,76.609550,-370.102971,9622.677246
918.464136,383.047749,-148.041188,9474.636058
918.464452,153.219100,-444.123565,9474.636058
918.464767,459.657299,-296.082377,9400.615463
918.465083,459.657299,-296.082377,9474.636058
918.465399,153.219100,-296.082377,9548.656652
918.465715,383.047749,-0.000000,9400.615463
918.466030,459.657299,-74.020594,9178.553681
918.466346,459.657299,-74.020594,9548.656652
918.466662,383.047749,-296.082377,9474.636058
918.466977,536.266849,-222.061783,9252.574275
918.467293,383.047749,-148.041188,9400.615463
918.467609,306.438199,-148.041188,9400.615463
918.467925,536.266849,-296.082377,9474.636058
918.468240,766.095498,-0.000000,9622.677246
918.468556,689.485948,-222.061783,9474.636058
918.468872,459.657299,-222.061783,9400.615463
918.469188,612.876398,-370.102971,9622.677246
918.469503,612.876398,-148.041188,9548.656652
918.469819,459.657299,-296.082377,9400.615463
918.470135,383.047749,-222.061783,9400.615463
918.470450,536.266849,-148.041188,9326.594869
918.470766,383.047749,-444.123565,9474.636058
918.471082,229.828649,-296.082377,9622.677246
918.471398,383.047749,-296.082377,9400.615463
918.471713,459.657299,-296.082377,9474.636058
918.472029,459.657299,-444.123565,9400.615463
918.472345,459.657299,-222.061783,9474.636058
918.472661,536.266849,-370.102971,9770.718434
918.472976,766.095498,-222.061783,9326.594869
918.473292,306.438199,-222.061783,9474.636058
918.473608,306.438199,-148.041188,9474.636058
918.473923,306.438199,-74.020594,9474.636058
918.474239,689.485948,-518.144159,9474.636058
918.474555,612.876398,-148.041188,9474.636058
918.474871,383.047749,-74.020594,9548.656652
918.475186,229.828649,-222.061783,9548.656652
918.475502,459.657299,-296.082377,9474.636058
918.475818,612.876398,370.102971,9622.677246
918.476134,383.047749,-370.102971,9696.697840
918.476449,612.876398,-148.041188,9400.615463
918.476765,459.657299,-148.041188,9548.656652
918.477081,459.657299,-222.061783,9400.615463
918.477396,612.876398,-370.102971,9548.656652
918.477712,383.047749,-222.061783,9548.656652
918.478028,689.485948,-222.061783,9326.594869
918.478344,536.266849,-148.041188,9548.656652
918.478659,536.266849,-296.082377,9400.615463
918.478975,842.705048,-518.144159,9326.594869
918.479291,229.828649,-444.123565,9622.677246
918.479607,842.705048,-148.041188,9252.574275
918.479922,689.485948,-222.061783,9622.677246
918.480238,689.485948,-222.061783,9844.739029
918.480554,1072.533697,-592.164754,9474.636058
918.480869,459.657299,-74.020594,9548.656652
918.481185,536.266849,-296.082377,9474.636058
918.481501,459.657299,-148.041188,9474.636058
918.481817,612.876398,-370.102971,9474.636058
918.482132,995.924147,-296.082377,9474.636058
918.482448,459.657299,-148.041188,9474.636058
918.482764,689.485948,-74.020594,9400.615463
918.483080,459.657299,-222.061783,9474.636058
918.483395,612.876398,-0.000000,9474.636058
918.483711,995.924147,-0.000000,9252.574275
918.484027,766.095498,-74.020594,9474.636058
918.484342,612.876398,-222.061783,9400.615463
918.484658,459.657299,-74.020594,9474.636058
918.484974,689.485948,-0.000000,9474.636058
918.485290,459.657299,-0.000000,9474.636058
918.485605,612.876398,-222.061783,9400.615463
918.485921,383.047749,-296.082377,9474.636058
918.486237,536.266849,-222.061783,9400.615463
918.486553,153.219100,-296.082377,9326.594869
918.486869,383.047749,-74.020594,9474.636058
918.487185,383.047749,-74.020594,9326.594869
918.487500,383.047749,-148.041188,9400.615463
918.487816,306.438199,-74.020594,9474.636058
918.488132,536.266849,-222.061783,9474.636058
918.488448,229.828649,-222.061783,9400.615463
918.488764,536.266849,-74.020594,9474.636058
918.489079,383.047749,-296.082377,9400.615463
918.489395,153.219100,-74.020594,9622.677246
918.489711,306.438199,-370.102971,9178.553681
918.490027,459.657299,-222.061783,9474.636058
918.490342,383.047749,-0.000000,9548.656652
918.490658,459.657299,-0.000000,9622.677246
918.490974,459.657299,-0.000000,9474.636058
918.491290,536.266849,-148.041188,9548.656652
918.491605,306.438199,-74.020594,9548.656652
918.491921,536.266849,-148.041188,9622.677246
918.492237,383.047749,-296.082377,9474.636058
918.492553,536.266849,-0.000000,9696.697840
918.492869,0.000000,-296.082377,9178.553681
918.493184,459.657299,-0.000000,9548.656652
918.493500,383.047749,-222.061783,9400.615463
918.493816,459.657299,-0.000000,9844.739029
918.494132,383.047749,-296.082377,9622.677246
918.494447,612.876398,-148.041188,9622.677246
918.494763,306.438199,-148.041188,9474.636058
918.495079,536.266849,-74.020594,9400.615463
918.495395,383.047749,-0.000000,9474.636058
918.495710,383.047749,-74.020594,9548.656652
918.496026,-383.047749,-74.020594,9474.636058
918.496342,306.438199,-222.061783,9622.677246
918.496658,459.657299,-148.041188,9696.697840
918.496974,306.438199,-0.000000,9770.718434
918.497289,306.438199,222.061783,9474.636058
918.497605,459.657299,518.144159,9548.656652
918.497921,306.438199,148.041188,9696.697840
918.498237,459.657299,-0.000000,9622.677246
918.498552,766.095498,-0.000000,9400.615463
918.498868,689.485948,-0.000000,9696.697840
918.499184,919.314598,-0.000000,9400.615463
918.499500,383.047749,222.061783,9326.594869
918.499815,459.657299,-0.000000,9400.615463
918.500131,612.876398,-0.000000,9400.615463
918.500447,383.047749,-0.000000,9474.636058
918.500763,383.047749,-0.000000,9474.636058
918.501079,153.219100,-0.000000,9474.636058
918.501394,306.438199,-0.000000,9696.697840
918.501710,153.219100,-0.000000,9400.615463
918.502026,76.609550,296.082377,9178.553681
918.502342,229.828649,296.082377,9326.594869
918.502657,153.219100,444.123565,9252.574275
918.502973,306.438199,-0.000000,9252.574275
918.503289,0.000000,222.061783,9252.574275
918.503605,76.609550,222.061783,9400.615463
918.503920,0.000000,592.164754,9474.636058
918.504236,153.219100,370.102971,9178.553681
918.504552,0.000000,592.164754,9548.656652
918.504868,0.000000,814.226536,9104.533087
918.505184,0.000000,1110.308913,9030.512492
918.505499,-153.219100,1258.350101,9104.533087
918.505815,-459.657299,1332.370696,8882.471304
918.506131,-766.095498,1332.370696,9104.533087
918.506447,-689.485948,1110.308913,9252.574275
918.506762,-842.705048,1110.308913,9178.553681
918.507078,-1685.410096,666.185348,9252.574275
918.507394,-1685.410096,888.247130,9474.636058
918.507710,-1762.019645,888.247130,9474.636058
918.508025,-2068.457845,666.185348,9696.697840
918.508341,-2221.676944,444.123565,9770.718434
918.508657,-2374.896044,444.123565,9696.697840
918.508973,-2374.896044,666.185348,9918.759623
918.509289,-2374.896044,666.185348,10214.842000
918.509604,-2298.286494,1036.288319,9992.780217
918.509920,-2298.286494,666.185348,9696.697840
918.510236,-1915.238745,888.247130,9770.718434
918.510552,-1532.190996,1036.288319,9548.656652
918.510867,-1225.752797,1036.288319,9326.594869
918.511183,-919.314598,1184.329507,9252.574275
918.511499,-459.657299,1332.370696,9400.615463
918.511815,-689.485948,1036.288319,9252.574275
918.512130,-536.266849,1184.329507,9474.636058
918.512446,-536.266849,814.226536,9622.677246
918.512762,-689.485948,592.164754,9696.697840
918.513078,-383.047749,592.164754,9622.677246
918.513394,-536.266849,148.041188,9770.718434
918.513709,-229.828649,666.185348,9844.739029
918.514025,-153.219100,518.144159,9844.739029
918.514341,-229.828649,444.123565,9696.697840
918.514657,-229.828649,222.061783,9844.739029
918.514972,0.000000,222.061783,9770.718434
918.515288,76.609550,296.082377,9474.636058
918.515604,0.000000,296.082377,9400.615463
918.515920,0.000000,222.061783,9252.574275
918.516235,459.657299,-148.041188,9548.656652
918.516551,76.609550,-370.102971,9400.615463
918.516867,0.000000,-518.144159,9696.697840
918.517183,0.000000,-740.205942,9622.677246
918.517499,0.000000,-888.247130,9844.739029
918.517814,0.000000,-740.205942,9992.780217
918.518130,229.828649,-740.205942,9770.718434
918.518446,229.828649,-370.102971,9622.677246
918.518762,306.438199,-222.061783,9474.636058
918.519077,689.485948,-0.000000,9326.594869
918.519393,919.314598,-0.000000,8956.491898
918.519709,995.924147,222.061783,8734.430116
918.520025,1149.143247,-0.000000,8512.368333
918.520340,1225.752797,-74.020594,9030.512492
918.520656,1149.143247,-296.082377,9104.533087
918.520972,1072.533697,-592.164754,9178.553681
918.521288,842.705048,-666.185348,9326.594869
918.521604,612.876398,-518.144159,9252.574275
918.521919,766.095498,-518.144159,9474.636058
918.522235,766.095498,-518.144159,9400.615463
918.522551,612.876398,-444.123565,9326.594869
918.522867,612.876398,-444.123565,8882.471304
918.523182,919.314598,-592.164754,8882.471304
918.523498,842.705048,-518.144159,9104.533087
918.523814,842.705048,-814.226536,9474.636058
918.524130,1378.971896,-1036.288319,9474.636058
918.524445,1455.581446,-1036.288319,9400.615463
918.524761,1532.190996,-1258.350101,9326.594869
918.525077,1455.581446,-740.205942,9326.594869
918.525393,2068.457845,-1036.288319,9326.594869
918.525709,1838.629195,-740.205942,9400.615463
918.526024,1991.848295,-0.000000,9030.512492
918.526340,1608.800546,-0.000000,8956.491898
918.526656,2068.457845,-0.000000,8956.491898
918.526972,1302.362347,-74.020594,9252.574275
918.527287,1072.533697,-0.000000,9178.553681
918.527603,689.485948,-222.061783,9400.615463
918.527919,306.438199,-592.164754,9474.636058
918.528235,0.000000,-962.267725,9844.739029
918.528550,-306.438199,-1110.308913,9844.739029
918.528866,-536.266849,-1184.329507,9918.759623
918.529182,-459.657299,-962.267725,10140.821405
918.529498,-919.314598,-888.247130,10362.883188
918.529813,-842.705048,-1036.288319,9918.759623
918.530129,-689.485948,-444.123565,9918.759623
918.530445,-459.657299,-296.082377,9918.759623
918.530761,-306.438199,-0.000000,9622.677246
918.531077,0.000000,-74.020594,9696.697840
918.531392,153.219100,-0.000000,9326.594869
918.531708,76.609550,74.020594,9326.594869
918.532024,229.828649,148.041188,9326.594869
918.532340,0.000000,-74.020594,9400.615463
918.532655,0.000000,-370.102971,9992.780217
918.532971,153.219100,-0.000000,9474.636058
918.533287,76.609550,148.041188,9326.594869
918.533603,0.000000,592.164754,9474.636058
918.533918,0.000000,444.123565,9326.594869
918.534234,0.000000,370.102971,9326.594869
918.534550,-383.047749,814.226536,9252.574275
918.534866,-612.876398,814.226536,9400.615463
918.535182,-689.485948,592.164754,9400.615463
918.535497,-842.705048,666.185348,9474.636058
918.535813,-689.485948,-148.041188,9918.759623
918.536129,-842.705048,-0.000000,9474.636058
918.536445,-612.876398,-0.000000,9844.739029
918.536760,0.000000,148.041188,9844.739029
918.537076,0.000000,-0.000000,9844.739029
918.537392,153.219100,296.082377,10140.821405
918.537708,689.485948,444.123565,9474.636058
918.538023,919.314598,962.267725,9252.574275
918.538339,1378.971896,962.267725,9104.533087
918.538655,1838.629195,592.164754,8956.491898
918.538971,1838.629195,444.123565,8586.388927
918.539287,2221.676944,740.205942,8808.450710
918.539602,1532.190996,666.185348,8956.491898
918.539918,1991.848295,222.061783,9252.574275
918.540234,1532.190996,148.041188,9326.594869
918.540550,1455.581446,-0.000000,9770.718434
918.540865,1149.143247,148.041188,9696.697840
918.541181,995.924147,-0.000000,9844.739029
918.541497,842.705048,-74.020594,10066.800811
918.541813,919.314598,-592.164754,9622.677246
918.542128,536.266849,-370.102971,10066.800811
918.542444,383.047749,-370.102971,9844.739029
918.542760,536.266849,-592.164754,9770.718434
918.543076,536.266849,-962.267725,9918.759623
918.543392,383.047749,-1036.288319,9844.739029
918.543707,689.485948,-888.247130,9992.780217
918.544023,919.314598,-740.205942,9696.697840
918.544339,1149.143247,-370.102971,9696.697840
918.544655,1608.800546,-370.102971,9400.615463
918.544970,1302.362347,-222.061783,9400.615463
918.545286,1378.971896,-0.000000,9252.574275
918.545602,1225.752797,-296.082377,9178.553681
918.545918,1225.752797,-370.102971,9474.636058
918.546233,919.314598,-444.123565,9252.574275
918.546549,459.657299,-962.267725,9474.636058
918.546865,383.047749,-1110.308913,9622.677246
918.547181,229.828649,-740.205942,9622.677246
918.547497,0.000000,-888.247130,9696.697840
918.547812,0.000000,-592.164754,9770.718434
918.548128,-229.828649,-518.144159,9548.656652
918.548444,-459.657299,-296.082377,9326.594869
918.548760,-306.438199,-296.082377,9178.553681
918.549075,-536.266849,-518.144159,9548.656652
918.549391,-459.657299,-592.164754,9400.615463
918.549707,-766.095498,-1036.288319,9326.594869
918.550023,-536.266849,-1184.329507,9474.636058
918.550338,-383.047749,-888.247130,9326.594869
918.550654,-612.876398,-666.185348,9474.636058
918.550970,-153.219100,-444.123565,9326.594869
918.551286,0.000000,-444.123565,9400.615463
918.551602,0.000000,-74.020594,9252.574275
918.551917,153.219100,-0.000000,8882.471304
918.552233,383.047749,-0.000000,9178.553681
918.552549,612.876398,-0.000000,8956.491898
918.552865,689.485948,-444.123565,9104.533087
918.553180,306.438199,-592.164754,9178.553681
918.553496,153.219100,-592.164754,9474.636058
918.553812,229.828649,-888.247130,9474.636058
918.554128,383.047749,-814.226536,9622.677246
918.554443,383.047749,-370.102971,9548.656652
918.554759,459.657299,-222.061783,9474.636058
918.555075,0.000000,-296.082377,9474.636058
918.555391,306.438199,-0.000000,9400.615463
918.555707,383.047749,-0.000000,9326.594869
918.556022,0.000000,-0.000000,9178.553681
918.556338,153.219100,-0.000000,9474.636058
918.556654,306.438199,-222.061783,9622.677246
918.556970,306.438199,-370.102971,9770.718434
918.557285,76.609550,-666.185348,9844.739029
918.557601,306.438199,-518.144159,9770.718434
918.557917,306.438199,-370.102971,9770.718434
918.558233,612.876398,-0.000000,10066.800811
918.558548,612.876398,-0.000000,9696.697840
918.558864,766.095498,666.185348,9474.636058
918.559180,1225.752797,-0.000000,9400.615463
918.559496,1072.533697,518.144159,9030.512492
918.559812,1072.533697,814.226536,9326.594869
918.560127,1149.143247,148.041188,9474.636058
918.560443,919.314598,296.082377,9622.677246
918.560759,919.314598,-0.000000,9918.759623
918.561075,842.705048,370.102971,10288.862594
918.561390,919.314598,-0.000000,9770.718434
918.561706,919.314598,444.123565,9622.677246
918.562022,766.095498,592.164754,9474.636058
918.562338,919.314598,888.247130,9622.677246
918.562653,689.485948,814.226536,9178.553681
918.562969,766.095498,1036.288319,9252.574275
918.563285,612.876398,740.205942,9326.594869
918.563601,76.609550,666.185348,9474.636058
918.563917,-229.828649,296.082377,9844.739029
918.564232,-306.438199,-0.000000,9770.718434
918.564548,-229.828649,-222.061783,9844.739029
918.564864,-383.047749,-0.000000,9844.739029
918.565180,0.000000,-0.000000,9844.739029
918.565495,153.219100,-0.000000,9548.656652
918.565811,0.000000,222.061783,9622.677246
918.566127,76.609550,296.082377,9474.636058
918.566443,229.828649,518.144159,9178.553681
918.566758,612.876398,296.082377,9252.574275
918.567074,766.095498,-148.041188,9104.533087
918.567390,153.219100,-666.185348,9252.574275
918.567706,153.219100,-518.144159,9326.594869
918.568022,459.657299,-888.247130,9400.615463
918.568337,306.438199,-962.267725,9548.656652
918.568653,306.438199,-592.164754,9400.615463
918.568969,306.438199,-592.164754,9400.615463
918.569285,383.047749,-444.123565,9326.594869
918.569600,76.609550,-444.123565,9474.636058
918.569916,229.828649,-296.082377,9252.574275
918.570232,76.609550,-888.247130,9400.615463
918.570548,76.609550,-666.185348,9326.594869
918.570863,0.000000,-1184.329507,9474.636058
918.571179,0.000000,-1184.329507,9474.636058
918.571495,0.000000,-1036.288319,9918.759623
918.571811,0.000000,-1036.288319,9474.636058
918.572127,153.219100,-814.226536,9400.615463
918.572442,383.047749,-592.164754,9474.636058
918.572758,459.657299,-148.041188,9474.636058
918.573074,842.705048,-222.061783,9326.594869
918.573390,1225.752797,-0.000000,9104.533087
918.573705,919.314598,-592.164754,9104.533087
918.574021,995.924147,-518.144159,9252.574275
918.574337,919.314598,-518.144159,9030.512492
918.574653,766.095498,-740.205942,9622.677246
918.574968,766.095498,-814.226536,9474.636058
918.575284,766.095498,-740.205942,9400.615463
918.575600,995.924147,-592.164754,9326.594869
918.575916,842.705048,-1110.308913,9252.574275
918.576232,919.314598,-518.144159,9326.594869
918.576547,383.047749,-74.020594,9252.574275
918.576863,536.266849,148.041188,9104.533087
918.577179,459.657299,-0.000000,9104.533087
918.577495,383.047749,-74.020594,9326.594869
918.577810,76.609550,-370.102971,9548.656652
918.578126,153.219100,-444.123565,9622.677246
918.578442,0.000000,-444.123565,9474.636058
918.578758,229.828649,-370.102971,9622.677246
918.579073,0.000000,-518.144159,9622.677246
918.579389,459.657299,-222.061783,9696.697840
918.579705,612.876398,-222.061783,9400.615463
918.580021,536.266849,148.041188,9474.636058
918.580337,766.095498,370.102971,9400.615463
918.580652,766.095498,222.061783,9622.677246
918.580968,995.924147,-0.000000,9326.594869
918.581284,1072.533697,-0.000000,9400.615463
918.581600,995.924147,-0.000000,9548.656652
918.581915,995.924147,-296.082377,9548.656652
918.582231,1072.533697,-296.082377,9622.677246
918.582547,1149.143247,-0.000000,9770.718434
918.582863,766.095498,222.061783,9696.697840
918.583178,842.705048,518.144159,9696.697840
918.583494,612.876398,222.061783,9474.636058
918.583810,689.485948,444.123565,9548.656652
918.584126,536.266849,444.123565,9474.636058
918.584442,229.828649,370.102971,9474.636058
918.584757,0.000000,-0.000000,9844.739029
918.585073,153.219100,-518.144159,10140.821405
918.585389,0.000000,-370.102971,9918.759623
918.585705,-153.219100,-592.164754,9918.759623
918.586020,0.000000,-740.205942,9992.780217
918.586336,0.000000,-222.061783,9844.739029
918.586652,459.657299,74.020594,9844.739029
918.586968,383.047749,296.082377,9548.656652
918.587283,383.047749,666.185348,9474.636058
918.587599,536.266849,444.123565,9326.594869
918.587915,536.266849,222.061783,9326.594869
918.588231,919.314598,-0.000000,9696.697840
918.588546,842.705048,-0.000000,9400.615463
918.588862,612.876398,-0.000000,9400.615463
918.589178,536.266849,-296.082377,9548.656652
918.589494,459.657299,-74.020594,9770.718434
918.589809,766.095498,-0.000000,9622.677246
918.590125,612.876398,-0.000000,9326.594869
918.590441,459.657299,222.061783,9252.574275
918.590757,536.266849,296.082377,9400.615463
918.591072,153.219100,-0.000000,9178.553681
918.591388,76.609550,148.041188,9178.553681
918.591704,0.000000,-222.061783,9252.574275
918.592020,-383.047749,-444.123565,9326.594869
918.592335,-229.828649,-888.247130,9548.656652
918.592651,-919.314598,-814.226536,9770.718434
918.592967,-612.876398,-1036.288319,9474.636058
918.593283,-459.657299,-740.205942,9622.677246
918.593598,0.000000,-592.164754,9474.636058
918.593914,0.000000,-370.102971,9326.594869
918.594230,153.219100,-222.061783,9326.594869
918.594546,459.657299,-148.041188,9030.512492
918.594861,689.485948,-0.000000,9030.512492
918.595177,766.095498,-74.020594,9104.533087
918.595493,1302.362347,-222.061783,9030.512492
918.595809,306.438199,-518.144159,9030.512492
918.596124,1149.143247,-222.061783,9252.574275
918.596440,1149.143247,-592.164754,9474.636058
918.596756,1149.143247,-518.144159,9326.594869
918.597072,1225.752797,-0.000000,9400.615463
918.597387,766.095498,-518.144159,9696.697840
918.597703,766.095498,-0.000000,9474.636058
918.598019,689.485948,-148.041188,9548.656652
918.598335,766.095498,-74.020594,9474.636058
918.598650,536.266849,-148.041188,9696.697840
918.598966,383.047749,-740.205942,10140.821405
918.599282,153.219100,-666.185348,10066.800811
918.599598,459.657299,-740.205942,9844.739029
918.599913,306.438199,-888.247130,9770.718434
918.600229,383.047749,-592.164754,9844.739029
918.600545,229.828649,-592.164754,9992.780217
918.600861,612.876398,-370.102971,9696.697840
918.601176,1072.533697,-0.000000,9622.677246
918.601492,842.705048,148.041188,9400.615463
918.601808,842.705048,-0.000000,9252.574275
918.602124,1302.362347,-0.000000,9030.512492
918.602439,766.095498,-518.144159,9400.615463
918.602755,919.314598,-296.082377,9696.697840
918.603071,842.705048,-518.144159,9548.656652
918.603387,689.485948,-296.082377,9844.739029
918.603702,306.438199,-370.102971,9844.739029
918.604018,306.438199,-148.041188,9548.656652
918.604334,306.438199,-0.000000,9696.697840
918.604650,229.828649,-0.000000,9474.636058
918.604965,0.000000,-0.000000,9474.636058
918.605281,0.000000,370.102971,9622.677246
918.605597,-383.047749,-0.000000,9400.615463
918.605913,-383.047749,-0.000000,9696.697840
918.606228,-459.657299,-0.000000,9474.636058
918.606544,-536.266849,-444.123565,9696.697840
918.606860,-536.266849,-592.164754,9326.594869
918.607176,-459.657299,-222.061783,9622.677246
918.607491,-383.047749,-74.020594,9474.636058
918.607807,-153.219100,148.041188,9474.636058
918.608123,0.000000,-0.000000,9400.615463
918.608439,383.047749,518.144159,9474.636058
918.608754,0.000000,222.061783,9104.533087
918.609070,383.047749,148.041188,9178.553681
918.609386,536.266849,-0.000000,9104.533087
918.609702,612.876398,-74.020594,8882.471304
918.610017,536.266849,-148.041188,9326.594869
918.610333,536.266849,-222.061783,9474.636058
918.610649,612.876398,-296.082377,9326.594869
918.610965,536.266849,-0.000000,9400.615463
918.611280,612.876398,-0.000000,9326.594869
918.611596,536.266849,-296.082377,8882.471304
918.611912,766.095498,148.041188,9178.553681
918.612228,689.485948,-0.000000,9326.594869
918.612543,229.828649,-0.000000,9252.574275
918.612859,76.609550,-0.000000,9548.656652
918.613175,842.705048,-666.185348,9918.759623
918.613491,0.000000,-740.205942,9844.739029
918.613806,153.219100,-740.205942,9918.759623
918.614122,229.828649,-740.205942,9844.739029
918.614438,536.266849,-666.185348,9918.759623
918.614754,995.924147,-518.144159,9992.780217
918.615069,842.705048,-296.082377,9770.718434
918.615385,1149.143247,-0.000000,9474.636058
918.615701,1149.143247,148.041188,9400.615463
918.616017,1072.533697,222.061783,9252.574275
918.616332,612.876398,-0.000000,9178.553681
918.616648,1149.143247,-148.041188,9252.574275
918.616964,1072.533697,-518.144159,9400.615463
918.617280,919.314598,-592.164754,9548.656652
918.617595,766.095498,-666.185348,9770.718434
918.617911,1072.533697,-888.247130,9696.697840
918.618227,612.876398,-222.061783,9548.656652
918.618543,612.876398,-74.020594,9474.636058
918.618858,229.828649,-148.041188,9400.615463
918.619174,229.828649,-0.000000,9474.636058
918.619490,229.828649,-0.000000,9400.615463
918.619806,0.000000,148.041188,9474.636058
918.620121,-459.657299,-148.041188,9474.636058
918.620437,-306.438199,-518.144159,9548.656652
918.620753,-153.219100,-370.102971,9548.656652
918.621069,0.000000,-592.164754,9622.677246
918.621384,0.000000,-592.164754,9770.718434
918.621700,0.000000,-296.082377,9474.636058
918.622016,76.609550,-296.082377,9548.656652
918.622332,153.219100,-0.000000,9252.574275
918.622647,229.828649,-0.000000,9474.636058
918.622963,689.485948,222.061783,9178.553681
918.623279,842.705048,-0.000000,9178.553681
918.623595,1225.752797,-0.000000,9178.553681
918.623910,766.095498,-222.061783,9030.512492
918.624226,612.876398,-444.123565,9400.615463
918.624542,842.705048,-518.144159,9474.636058
918.624858,689.485948,-370.102971,9696.697840
918.625173,536.266849,-444.123565,9474.636058
918.625489,612.876398,-148.041188,9474.636058
918.625805,689.485948,-222.061783,9252.574275
918.626120,612.876398,-0.000000,9326.594869
918.626436,229.828649,-0.000000,9104.533087
918.626752,306.438199,-74.020594,9474.636058
918.627068,153.219100,-0.000000,9474.636058
918.627383,76.609550,-740.205942,9844.739029
918.627699,76.609550,-666.185348,9844.739029
918.628015,306.438199,-740.205942,9696.697840
918.628331,306.438199,-444.123565,9696.697840
918.628646,306.438199,-370.102971,9622.677246
918.628962,536.266849,-222.061783,9696.697840
918.629278,536.266849,-74.020594,9622.677246
918.629594,689.485948,148.041188,9400.615463
918.629909,612.876398,296.082377,9104.533087
918.630225,689.485948,-0.000000,9178.553681
918.630541,1302.362347,-0.000000,9400.615463
918.630857,842.705048,-0.000000,9474.636058
918.631172,383.047749,-0.000000,9326.594869
918.631488,536.266849,-74.020594,9548.656652
918.631804,612.876398,-148.041188,9548.656652
918.632120,689.485948,-74.020594,10066.800811
918.632435,536.266849,-0.000000,9326.594869
918.632751,612.876398,370.102971,9474.636058
918.633067,459.657299,370.102971,9474.636058
918.633383,536.266849,592.164754,9252.574275
918.633698,153.219100,370.102971,8808.450710
918.634014,612.876398,296.082377,9178.553681
918.634330,0.000000,-148.041188,9474.636058
918.634646,0.000000,-444.123565,9474.636058
918.634961,0.000000,-370.102971,9622.677246
918.635277,153.219100,-370.102971,9622.677246
918.635593,-153.219100,-222.061783,9622.677246
918.635909,0.000000,-0.000000,9770.718434
918.636224,0.000000,-0.000000,9770.718434
918.636540,229.828649,-0.000000,9474.636058
918.636856,459.657299,370.102971,9474.636058
918.637172,612.876398,148.041188,9178.553681
918.637487,919.314598,-0.000000,9474.636058
918.637803,919.314598,-0.000000,9252.574275
918.638119,842.705048,-0.000000,9326.594869
918.638435,1149.143247,-148.041188,9548.656652
918.638750,995.924147,-296.082377,9548.656652
918.639066,1149.143247,-148.041188,9622.677246
918.639382,995.924147,-148.041188,9474.636058
918.639698,995.924147,-148.041188,9474.636058
918.640013,536.266849,-0.000000,9326.594869
918.640329,842.705048,148.041188,9326.594869
918.640645,536.266849,-0.000000,9400.615463
918.640961,536.266849,-148.041188,9400.615463
918.641276,612.876398,-296.082377,9548.656652
918.641592,0.000000,-592.164754,9770.718434
918.641908,0.000000,-1110.308913,10066.800811
918.642224,153.219100,-888.247130,9918.759623
918.642539,0.000000,-962.267725,9844.739029
918.642855,76.609550,-518.144159,10140.821405
918.643171,153.219100,-592.164754,9696.697840
918.643487,383.047749,-444.123565,9474.636058
918.643802,536.266849,-0.000000,9178.553681
918.644118,536.266849,-74.020594,9252.574275
918.644434,1072.533697,-296.082377,9104.533087
918.644750,842.705048,-296.082377,9104.533087
918.645065,919.314598,-370.102971,9178.553681
918.645381,842.705048,-666.185348,9326.594869
918.645697,689.485948,-962.267725,9474.636058
918.646013,842.705048,-962.267725,9844.739029
918.646328,536.266849,-740.205942,9474.636058
918.646644,383.047749,-296.082377,9622.677246
918.646960,459.657299,-222.061783,9326.594869
918.647276,383.047749,-0.000000,9178.553681
918.647591,0.000000,-0.000000,9474.636058
918.647907,0.000000,-0.000000,8882.471304
918.648223,0.000000,-0.000000,9252.574275
918.648539,-306.438199,-370.102971,9548.656652
918.648854,0.000000,-1110.308913,9696.697840
918.649170,-306.438199,-740.205942,9548.656652
918.649486,0.000000,-592.164754,9474.636058
918.649802,-306.438199,-814.226536,9474.636058
918.650117,0.000000,-444.123565,9622.677246
918.650433,383.047749,-74.020594,9400.615463
918.650749,459.657299,148.041188,9400.615463
918.651065,459.657299,-0.000000,9252.574275
918.651380,766.095498,296.082377,8956.491898
918.651696,919.314598,148.041188,9104.533087
918.652012,919.314598,-148.041188,9030.512492
918.652328,919.314598,-148.041188,9178.553681
918.652643,536.266849,-222.061783,9252.574275
918.652959,842.705048,-444.123565,9400.615463
918.653275,766.095498,-148.041188,9622.677246
918.653591,383.047749,-222.061783,9770.718434
918.653906,689.485948,-0.000000,9474.636058
918.654222,306.438199,-0.000000,9474.636058
918.654538,383.047749,222.061783,9548.656652
918.654854,459.657299,74.020594,9622.677246
918.655169,229.828649,-0.000000,9622.677246
918.655485,0.000000,-148.041188,9696.697840
918.655801,0.000000,-444.123565,9918.759623
918.656117,76.609550,-518.144159,9918.759623
918.656432,76.609550,-444.123565,9770.718434
918.656748,459.657299,-222.061783,9844.739029
918.657064,612.876398,-74.020594,9770.718434
918.657380,459.657299,-0.000000,9696.697840
918.657695,536.266849,296.082377,9474.636058
918.658011,306.438199,296.082377,9178.553681
918.658327,842.705048,370.102971,9474.636058
918.658643,612.876398,222.061783,9400.615463
918.658958,689.485948,-0.000000,9548.656652
918.659274,612.876398,-148.041188,9474.636058
918.659590,459.657299,-370.102971,9622.677246
918.659906,153.219100,-370.102971,9844.739029
918.660221,536.266849,-444.123565,9696.697840
918.660537,0.000000,-74.020594,9474.636058
918.660853,153.219100,148.041188,9622.677246
918.661169,76.609550,-0.000000,9474.636058
918.661484,0.000000,74.020594,9178.553681
918.661800,76.609550,74.020594,9326.594869
918.662116,0.000000,-0.000000,9326.594869
918.662432,-229.828649,-0.000000,9474.636058
918.662747,229.828649,-296.082377,9770.718434
918.663063,-306.438199,-518.144159,9474.636058
918.663379,-153.219100,-370.102971,9548.656652
918.663695,-306.438199,-444.123565,9548.656652
918.664010,0.000000,-296.082377,9696.697840
918.664326,229.828649,-370.102971,9474.636058
918.664642,459.657299,-0.000000,9400.615463
918.664958,306.438199,-0.000000,9326.594869
918.665273,766.095498,-0.000000,9178.553681
918.665589,842.705048,148.041188,9104.533087
918.665905,842.705048,-444.123565,9104.533087
918.666221,1225.752797,-222.061783,9104.533087
918.666536,995.924147,-296.082377,9326.594869
918.666852,919.314598,-666.185348,9400.615463
918.667168,842.705048,-814.226536,9400.615463
918.667484,689.485948,-296.082377,9252.574275
918.667799,536.266849,-444.123565,9548.656652
918.668115,689.485948,-0.000000,9474.636058
918.668431,536.266849,-222.061783,9326.594869
918.668747,459.657299,-518.144159,9252.574275
918.669062,306.438199,-222.061783,9400.615463
918.669378,459.657299,-518.144159,9622.677246
918.669694,229.828649,-888.247130,9918.759623
918.670010,76.609550,-1036.288319,10066.800811
918.670325,229.828649,-1184.329507,9918.759623
918.670641,306.438199,-1258.350101,9770.718434
918.670957,0.000000,-1036.288319,9918.759623
918.671273,536.266849,-296.082377,9770.718434
918.671588,383.047749,-148.041188,9770.718434
918.671904,689.485948,-0.000000,9474.636058
918.672220,842.705048,-0.000000,9178.553681
918.672536,919.314598,296.082377,9252.574275
918.672851,995.924147,222.061783,9400.615463
918.673167,1149.143247,-148.041188,9326.594869
918.673483,842.705048,-444.123565,9252.574275
918.673799,1072.533697,-444.123565,9474.636058
918.674114,842.705048,-666.185348,9770.718434
918.674430,536.266849,-222.061783,9622.677246
918.674746,612.876398,-222.061783,9696.697840
918.675062,612.876398,-0.000000,9474.636058
918.675377,383.047749,-0.000000,9474.636058
918.675693,153.219100,222.061783,9474.636058
918.676009,153.219100,222.061783,9252.574275
918.676325,0.000000,-0.000000,9252.574275
918.676640,-153.219100,-0.000000,9474.636058
918.676956,-383.047749,-74.020594,9548.656652
918.677272,0.000000,-592.164754,9622.677246
918.677588,-306.438199,-370.102971,9474.636058
918.677903,0.000000,-518.144159,9696.697840
918.678219,-306.438199,-222.061783,9622.677246
918.678535,153.219100,-0.000000,9548.656652
918.678850,76.609550,-0.000000,9400.615463
918.679166,459.657299,296.082377,9178.553681
918.679482,842.705048,370.102971,8956.491898
918.679798,612.876398,444.123565,9104.533087
918.680113,995.924147,-0.000000,9178.553681
918.680429,919.314598,148.041188,9104.533087
918.680745,536.266849,222.061783,9252.574275
918.681061,612.876398,74.020594,9474.636058
918.681376,689.485948,-148.041188,9548.656652
918.681692,459.657299,-148.041188,9770.718434
918.682008,766.095498,148.041188,9770.718434
918.682324,689.485948,-222.061783,9474.636058
918.682639,459.657299,148.041188,9548.656652
918.682955,459.657299,222.061783,9474.636058
918.683271,229.828649,-0.000000,9474.636058
918.683587,153.219100,-0.000000,9622.677246
918.683902,459.657299,-444.123565,9696.697840
918.684218,-153.219100,-888.247130,9696.697840
918.684534,0.000000,-740.205942,9918.759623
918.684850,229.828649,-518.144159,9696.697840
918.685165,459.657299,-370.102971,9622.677246
918.685481,459.657299,-370.102971,10066.800811
918.685797,459.657299,-148.041188,9622.677246
918.686113,842.705048,-0.000000,9474.636058
918.686428,612.876398,222.061783,9474.636058
918.686744,766.095498,-0.000000,9474.636058
918.687060,766.095498,-0.000000,9474.636058
918.687376,383.047749,-74.020594,9622.677246
918.687691,1072.533697,-74.020594,9474.636058
918.688007,612.876398,-370.102971,9622.677246
918.688323,612.876398,-444.123565,9696.697840
918.688639,536.266849,-592.164754,9696.697840
918.688954,766.095498,-74.020594,9474.636058
918.689270,536.266849,-74.020594,9474.636058
918.689586,383.047749,-0.000000,9326.594869
918.689901,153.219100,-0.000000,9326.594869
918.690217,459.657299,-0.000000,9474.636058
918.690533,459.657299,-0.000000,9326.594869
918.690849,-153.219100,-370.102971,9474.636058
918.691164,0.000000,-444.123565,9474.636058
918.691480,-536.266849,-518.144159,9918.759623
918.691796,-306.438199,-740.205942,9844.739029
918.692111,0.000000,-518.144159,9474.636058
918.692427,153.219100,-444.123565,9548.656652
918.692743,229.828649,-296.082377,9548.656652
918.693058,153.219100,-148.041188,9400.615463
918.693374,766.095498,-0.000000,9326.594869
918.693690,536.266849,-0.000000,9178.553681
918.694006,1072.533697,-0.000000,9252.574275
918.694321,766.095498,-222.061783,9178.553681
918.694637,842.705048,-370.102971,8956.491898
918.694953,766.095498,-148.041188,9474.636058
918.695268,919.314598,-444.123565,9400.615463
918.695584,842.705048,-148.041188,9474.636058
918.695900,766.095498,-0.000000,9474.636058
918.696215,536.266849,-148.041188,9548.656652
918.696531,229.828649,-0.000000,9252.574275
918.696847,306.438199,-0.000000,9474.636058
918.697163,459.657299,-0.000000,9400.615463
918.697478,306.438199,-296.082377,9474.636058
918.697794,-306.438199,-592.164754,9844.739029
918.698110,76.609550,-740.205942,9696.697840
918.698425,0.000000,-1110.308913,9770.718434
918.698741,76.609550,-888.247130,9844.739029
918.699057,0.000000,-888.247130,9844.739029
918.699372,536.266849,-592.164754,9622.677246
918.699688,306.438199,-370.102971,9696.697840
918.700004,1072.533697,-0.000000,9252.574275
918.700320,766.095498,296.082377,9326.594869
918.700635,766.095498,222.061783,9252.574275
918.700951,1302.362347,-74.020594,9178.553681
918.701267,919.314598,-0.000000,9178.553681
918.701582,1149.143247,-222.061783,9178.553681
918.701898,689.485948,-370.102971,9400.615463
918.702214,383.047749,-592.164754,9696.697840
918.702529,229.828649,-666.185348,9992.780217
918.702845,229.828649,-370.102971,9992.780217
918.703161,306.438199,-0.000000,9844.739029
918.703477,76.609550,-0.000000,9474.636058
918.703792,153.219100,222.061783,9548.656652
918.704108,153.219100,444.123565,9252.574275
918.704424,0.000000,444.123565,9104.533087
918.704739,76.609550,370.102971,9326.594869
918.705055,0.000000,222.061783,9474.636058
918.705371,0.000000,-370.102971,9548.656652
918.705686,-76.609550,-222.061783,9400.615463
918.706002,-383.047749,-518.144159,9548.656652
918.706318,-153.219100,-222.061783,9696.697840
918.706634,0.000000,-74.020594,9696.697840
918.706949,0.000000,-74.020594,9622.677246
918.707265,153.219100,-0.000000,9474.636058
918.707581,383.047749,222.061783,9474.636058
918.707896,459.657299,-0.000000,9104.533087
918.708212,766.095498,370.102971,9104.533087
918.708528,689.485948,296.082377,9326.594869
918.708843,612.876398,-0.000000,9326.594869
918.709159,536.266849,-74.020594,9178.553681
918.709475,459.657299,-74.020594,9474.636058
918.709791,842.705048,-148.041188,9622.677246
918.710106,766.095498,-296.082377,9474.636058
918.710422,459.657299,-0.000000,9622.677246
918.710738,383.047749,-0.000000,9548.656652
918.711053,689.485948,222.061783,9548.656652
918.711369,766.095498,148.041188,9474.636058
918.711685,383.047749,-148.041188,9548.656652
918.712001,153.219100,-74.020594,9918.759623
918.712316,229.828649,-296.082377,9918.759623
918.712632,76.609550,-592.164754,9992.780217
918.712948,76.609550,-1110.308913,9548.656652
918.713263,76.609550,-592.164754,9622.677246
918.713579,536.266849,-296.082377,9844.739029
918.713895,459.657299,-370.102971,9770.718434
918.714210,459.657299,-148.041188,9548.656652
918.714526,1072.533697,-0.000000,9474.636058
918.714842,1225.752797,-0.000000,9474.636058
918.715158,1072.533697,-0.000000,9252.574275
918.715473,842.705048,-148.041188,9474.636058
918.715789,1225.752797,-592.164754,9400.615463
918.716105,689.485948,-666.185348,9474.636058
918.716420,612.876398,-518.144159,9548.656652
918.716736,766.095498,-444.123565,9474.636058
918.717052,766.095498,-444.123565,9548.656652
918.717367,459.657299,-296.082377,9400.615463
918.717683,766.095498,-0.000000,9400.615463
918.717999,306.438199,-0.000000,9178.553681
918.718315,383.047749,148.041188,9252.574275
918.718630,383.047749,-74.020594,9104.533087
918.718946,-229.828649,-148.041188,9548.656652
918.719262,-383.047749,-296.082377,9474.636058
918.719577,0.000000,-444.123565,9622.677246
918.719893,-383.047749,-370.102971,9474.636058
918.720209,-459.657299,-518.144159,9548.656652
918.720524,0.000000,-444.123565,9770.718434
918.720840,-229.828649,-370.102971,9474.636058
918.721156,153.219100,-74.020594,9474.636058
918.721472,153.219100,-0.000000,9252.574275
918.721787,536.266849,-0.000000,9326.594869
918.722103,306.438199,148.041188,9030.512492
918.722419,766.095498,148.041188,9326.594869
918.722734,919.314598,-0.000000,9178.553681
918.723050,995.924147,-296.082377,9252.574275
918.723366,919.314598,-222.061783,9326.594869
918.723681,842.705048,-444.123565,9548.656652
918.723997,995.924147,-148.041188,9474.636058
918.724313,842.705048,-0.000000,9474.636058
918.724629,919.314598,-0.000000,9400.615463
918.724944,842.705048,-0.000000,9400.615463
918.725260,612.876398,-0.000000,9252.574275
918.725576,536.266849,148.041188,9252.574275
918.725891,153.219100,-74.020594,9622.677246
918.726207,229.828649,-444.123565,9844.739029
918.726523,-229.828649,-888.247130,9992.780217
918.726838,0.000000,-814.226536,9918.759623
918.727154,0.000000,-888.247130,9992.780217
918.727470,306.438199,-740.205942,9918.759623
918.727786,383.047749,-518.144159,9770.718434
918.728101,383.047749,-222.061783,9992.780217
918.728417,306.438199,-0.000000,9474.636058
918.728733,612.876398,296.082377,9474.636058
918.729048,1072.533697,222.061783,9326.594869
918.729364,995.924147,-0.000000,9326.594869
918.729680,919.314598,-370.102971,9548.656652
918.729995,842.705048,-222.061783,9474.636058
918.730311,689.485948,-518.144159,9622.677246
918.730627,689.485948,-444.123565,9696.697840
918.730943,842.705048,-370.102971,9770.718434
918.731258,689.485948,-296.082377,9548.656652
918.731574,612.876398,-148.041188,9770.718434
918.731890,536.266849,-0.000000,9104.533087
918.732205,536.266849,-0.000000,9178.553681
918.732521,383.047749,592.164754,9178.553681
918.732837,229.828649,222.061783,9104.533087
918.733152,0.000000,296.082377,9178.553681
918.733468,-229.828649,-0.000000,9326.594869
918.733784,0.000000,-370.102971,9474.636058
918.734100,-459.657299,-740.205942,9474.636058
918.734415,0.000000,-962.267725,9770.718434
918.734731,-229.828649,-814.226536,9622.677246
918.735047,0.000000,-148.041188,9622.677246
918.735362,76.609550,-148.041188,9474.636058
918.735678,153.219100,-0.000000,9252.574275
918.735994,459.657299,296.082377,9326.594869
918.736309,766.095498,222.061783,9030.512492
918.736625,919.314598,148.041188,8882.471304
918.736941,842.705048,-0.000000,8956.491898
918.737257,153.219100,-0.000000,9030.512492
918.737572,919.314598,-0.000000,9326.594869
918.737888,1225.752797,-148.041188,9178.553681
918.738204,766.095498,-148.041188,9548.656652
918.738519,842.705048,-0.000000,9474.636058
918.738835,842.705048,-0.000000,9474.636058
918.739151,919.314598,-148.041188,9326.594869
918.739466,612.876398,-0.000000,9474.636058
918.739782,229.828649,-0.000000,9548.656652
918.740098,383.047749,-0.000000,9622.677246
918.740414,153.219100,-740.205942,9844.739029
918.740729,306.438199,-666.185348,10362.883188
918.741045,536.266849,-592.164754,9770.718434
918.741361,153.219100,-814.226536,9918.759623
918.741676,76.609550,-518.144159,10066.800811
918.741992,459.657299,-296.082377,9992.780217
918.742308,919.314598,-222.061783,9918.759623
918.742623,766.095498,-0.000000,9696.697840
918.742939,689.485948,-0.000000,9474.636058
918.743255,689.485948,222.061783,9548.656652
918.743571,842.705048,-222.061783,8956.491898
918.743886,842.705048,-518.144159,9178.553681
918.744202,536.266849,-444.123565,9770.718434
918.744518,689.485948,-370.102971,9548.656652
918.744833,612.876398,-592.164754,9548.656652
918.745149,689.485948,-222.061783,9696.697840
918.745465,536.266849,-74.020594,9770.718434
918.745780,459.657299,-0.000000,9326.594869
918.746096,229.828649,148.041188,9252.574275
918.746412,153.219100,148.041188,9400.615463
918.746728,306.438199,-0.000000,9178.553681
918.747043,229.828649,-0.000000,9474.636058
918.747359,-306.438199,-370.102971,9474.636058
918.747675,-229.828649,-296.082377,9474.636058
918.747990,-383.047749,-370.102971,9474.636058
918.748306,-229.828649,-296.082377,9844.739029
918.748622,-229.828649,-444.123565,9548.656652
918.748937,0.000000,-222.061783,9622.677246
918.749253,0.000000,-222.061783,9474.636058
918.749569,229.828649,-0.000000,9178.553681
918.749885,919.314598,148.041188,9326.594869
918.750200,306.438199,74.020594,9178.553681
918.750516,842.705048,296.082377,9030.512492
918.750832,842.705048,-222.061783,8956.491898
918.751147,919.314598,-148.041188,9252.574275
918.751463,689.485948,-148.041188,9326.594869
918.751779,842.705048,-444.123565,9474.636058
918.752094,689.485948,-592.164754,9400.615463
918.752410,612.876398,-0.000000,9770.718434
918.752726,536.266849,-370.102971,9548.656652
918.753042,689.485948,-0.000000,9474.636058
918.753357,459.657299,-0.000000,9400.615463
918.753673,153.219100,-0.000000,9252.574275
918.753989,383.047749,-148.041188,9326.594869
918.754304,459.657299,-444.123565,9474.636058
918.754620,0.000000,-666.185348,9622.677246
918.754936,0.000000,-962.267725,9622.677246
918.755252,0.000000,-888.247130,9992.780217
918.755567,153.219100,-962.267725,9918.759623
918.755883,459.657299,-962.267725,9770.718434
918.756199,536.266849,-518.144159,9474.636058
918.756514,536.266849,-296.082377,9548.656652
918.756830,919.314598,-0.000000,9252.574275
918.757146,919.314598,296.082377,9252.574275
918.757461,919.314598,-0.000000,9326.594869
918.757777,1149.143247,-0.000000,9104.533087
918.758093,766.095498,-296.082377,9252.574275
918.758409,536.266849,-592.164754,9326.594869
918.758724,229.828649,-888.247130,9696.697840
918.759040,459.657299,-666.185348,9770.718434
918.759356,766.095498,-296.082377,9844.739029
918.759671,459.657299,-370.102971,9474.636058
918.759987,229.828649,-0.000000,9548.656652
918.760303,383.047749,222.061783,9104.533087
918.760618,306.438199,370.102971,9326.594869
918.760934,76.609550,444.123565,9104.533087
918.761250,76.609550,222.061783,9252.574275
918.761566,-229.828649,-0.000000,9474.636058
918.761881,-306.438199,-222.061783,9326.594869
918.762197,-459.657299,-296.082377,9622.677246
918.762513,-612.876398,-592.164754,9696.697840
918.762828,0.000000,-444.123565,9622.677246
918.763144,-612.876398,-370.102971,9844.739029
918.763460,0.000000,-148.041188,9770.718434
918.763775,153.219100,-0.000000,9474.636058
918.764091,383.047749,370.102971,9474.636058
918.764407,612.876398,370.102971,9326.594869
918.764723,919.314598,222.061783,9400.615463
918.765038,1149.143247,148.041188,9252.574275
918.765354,995.924147,-0.000000,9326.594869
918.765670,995.924147,-222.061783,9400.615463
918.765985,995.924147,-222.061783,9326.594869
918.766301,919.314598,-296.082377,9696.697840
918.766617,842.705048,-74.020594,9696.697840
918.766932,995.924147,-0.000000,9696.697840
918.767248,689.485948,-0.000000,9326.594869
918.767564,612.876398,-0.000000,9400.615463
918.767880,612.876398,222.061783,9474.636058
918.768195,306.438199,-148.041188,9474.636058
918.768511,306.438199,-370.102971,9696.697840
918.768827,229.828649,-518.144159,9844.739029
918.769142,76.609550,-814.226536,9918.759623
918.769458,0.000000,-888.247130,9844.739029
918.769774,0.000000,-888.247130,9992.780217
918.770089,153.219100,-444.123565,9770.718434
918.770405,459.657299,-518.144159,9770.718434
918.770721,919.314598,-222.061783,9474.636058
918.771037,689.485948,-0.000000,9400.615463
918.771352,766.095498,-0.000000,9030.512492
918.771668,766.095498,-0.000000,9326.594869
918.771984,919.314598,-148.041188,9178.553681
918.772299,689.485948,-518.144159,9326.594869
918.772615,612.876398,-518.144159,9400.615463
918.772931,536.266849,-444.123565,9622.677246
918.773246,766.095498,-592.164754,9548.656652
918.773562,536.266849,-444.123565,9474.636058
918.773878,842.705048,-592.164754,9400.615463
918.774194,229.828649,-0.000000,9400.615463
918.774509,0.000000,-0.000000,9326.594869
918.774825,383.047749,-0.000000,9104.533087
918.775141,0.000000,222.061783,9104.533087
918.775456,-766.095498,-296.082377,9548.656652
918.775772,-306.438199,-222.061783,9474.636058
918.776088,-383.047749,-296.082377,9622.677246
918.776403,-383.047749,-592.164754,9548.656652
918.776719,0.000000,-666.185348,9548.656652
918.777035,383.047749,-74.020594,9548.656652
918.777351,229.828649,-296.082377,9622.677246
918.777666,306.438199,-0.000000,9548.656652
918.777982,689.485948,-0.000000,9326.594869
918.778298,766.095498,296.082377,9178.553681
918.778613,842.705048,-0.000000,9326.594869
918.778929,1378.971896,-148.041188,9178.553681
918.779245,1149.143247,-0.000000,9030.512492
918.779560,995.924147,-296.082377,9326.594869
918.779876,995.924147,-296.082377,9548.656652
918.780192,1149.143247,-592.164754,10066.800811
918.780508,919.314598,-74.020594,9770.718434
918.780823,919.314598,-222.061783,9474.636058
918.781139,612.876398,-0.000000,9622.677246
918.781455,689.485948,-0.000000,9474.636058
918.781770,536.266849,-74.020594,9474.636058
918.782086,229.828649,-0.000000,9474.636058
918.782402,459.657299,-0.000000,9474.636058
918.782717,229.828649,-444.123565,9622.677246
918.783033,153.219100,-814.226536,9844.739029
918.783349,383.047749,-1110.308913,9992.780217
918.783665,153.219100,-814.226536,9918.759623
918.783980,383.047749,-740.205942,9992.780217
918.784296,612.876398,-518.144159,9918.759623
918.784612,766.095498,-148.041188,9548.656652
918.784927,1149.143247,-0.000000,9548.656652
918.785243,689.485948,-0.000000,9400.615463
918.785559,842.705048,-0.000000,9178.553681
918.785874,1072.533697,-0.000000,9326.594869
918.786190,1149.143247,-0.000000,9252.574275
918.786506,612.876398,-370.102971,9548.656652
918.786822,842.705048,-518.144159,9474.636058
918.787137,459.657299,-592.164754,9696.697840
918.787453,536.266849,-666.185348,9770.718434
918.787769,153.219100,-296.082377,9474.636058
918.788084,306.438199,-0.000000,9770.718434
918.788400,153.219100,-74.020594,9548.656652
918.788716,306.438199,296.082377,9474.636058
918.789031,229.828649,370.102971,9178.553681
918.789347,0.000000,370.102971,9104.533087
918.789663,153.219100,148.041188,9252.574275
918.789979,0.000000,-74.020594,9326.594869
918.790295,0.000000,-222.061783,9474.636058
918.790611,-383.047749,-518.144159,9400.615463
918.790927,0.000000,-444.123565,9548.656652
918.791242,-306.438199,-222.061783,9474.636058
918.791558,153.219100,-74.020594,9548.656652
918.791874,0.000000,-296.082377,9474.636058
918.792190,383.047749,222.061783,9474.636058
918.792506,689.485948,-0.000000,9474.636058
918.792822,612.876398,444.123565,9030.512492
918.793138,612.876398,-0.000000,8956.491898
918.793454,919.314598,-0.000000,9178.553681
918.793770,459.657299,-148.041188,9178.553681
918.794085,383.047749,-518.144159,9178.553681
918.794401,612.876398,-370.102971,9474.636058
918.794717,459.657299,-74.020594,9400.615463
918.795033,459.657299,-148.041188,9474.636058
918.795349,536.266849,-0.000000,9400.615463
918.795665,383.047749,-0.000000,9400.615463
918.795981,383.047749,-74.020594,9400.615463
918.796297,153.219100,-0.000000,9474.636058
918.796612,306.438199,-74.020594,9622.677246
918.796928,229.828649,-444.123565,9696.697840
918.797244,76.609550,-296.082377,9770.718434
918.797560,229.828649,-518.144159,9770.718434
918.797876,76.609550,-814.226536,9696.697840
918.798192,306.438199,-444.123565,9770.718434
918.798508,536.266849,-148.041188,9844.739029
918.798824,536.266849,-296.082377,9474.636058
918.799140,536.266849,-0.000000,9548.656652
918.799455,689.485948,-0.000000,9474.636058
918.799771,842.705048,-0.000000,9326.594869
918.800087,1225.752797,-0.000000,9252.574275
918.800403,1302.362347,-148.041188,9400.615463
918.800719,1225.752797,-222.061783,9474.636058
918.801035,612.876398,-518.144159,9622.677246
918.801351,536.266849,-444.123565,9548.656652
918.801667,153.219100,-444.123565,9474.636058
918.801982,689.485948,-0.000000,9474.636058
918.802298,689.485948,-0.000000,9474.636058
918.802614,459.657299,148.041188,9474.636058
918.802930,383.047749,296.082377,9400.615463
918.803246,536.266849,296.082377,9400.615463
918.803562,153.219100,-0.000000,9326.594869
918.803878,153.219100,-0.000000,9474.636058
918.804194,0.000000,-222.061783,9622.677246
918.804509,0.000000,-296.082377,9548.656652
918.804825,0.000000,-592.164754,9696.697840
918.805141,0.000000,-518.144159,9474.636058
918.805457,0.000000,-444.123565,9548.656652
918.805773,153.219100,-148.041188,9548.656652
918.806089,-229.828649,-0.000000,9326.594869
918.806405,459.657299,222.061783,9400.615463
918.806721,612.876398,-0.000000,9104.533087
918.807037,689.485948,-0.000000,8956.491898
918.807352,919.314598,-0.000000,9400.615463
918.807668,459.657299,-296.082377,9104.533087
918.807984,919.314598,-296.082377,9474.636058
918.808300,689.485948,-666.185348,9474.636058
918.808616,689.485948,-518.144159,9474.636058
918.808932,766.095498,-296.082377,9326.594869
918.809248,689.485948,-222.061783,9474.636058
918.809564,306.438199,-222.061783,9400.615463
918.809879,459.657299,-148.041188,9400.615463
918.810195,459.657299,-0.000000,9252.574275
918.810511,0.000000,-296.082377,9252.574275
918.810827,153.219100,-370.102971,9474.636058
918.811143,0.000000,-592.164754,9696.697840
918.811459,76.609550,-1036.288319,9548.656652
918.811775,0.000000,-814.226536,9844.739029
918.812091,0.000000,-888.247130,9992.780217
918.812407,153.219100,-740.205942,9918.759623
918.812722,536.266849,-370.102971,9696.697840
918.813038,383.047749,-74.020594,9770.718434
918.813354,766.095498,-0.000000,9474.636058
918.813670,1072.533697,-0.000000,9474.636058
918.813986,1149.143247,518.144159,9252.574275
918.814302,1072.533697,74.020594,9178.553681
918.814618,1225.752797,-222.061783,9326.594869
918.814934,919.314598,-296.082377,9326.594869
918.815249,842.705048,-740.205942,9770.718434
918.815565,612.876398,-666.185348,9696.697840
918.815881,459.657299,-370.102971,9770.718434
918.816197,612.876398,-0.000000,9548.656652
918.816513,76.609550,-0.000000,9548.656652
918.816829,766.095498,148.041188,9178.553681
918.817145,76.609550,-148.041188,9104.533087
918.817461,153.219100,148.041188,9400.615463
918.817777,0.000000,444.123565,9400.615463
918.818092,0.000000,-0.000000,9326.594869
918.818408,-153.219100,-0.000000,9696.697840
918.818724,-383.047749,-444.123565,9770.718434
918.819040,-383.047749,-518.144159,9548.656652
918.819356,-306.438199,-444.123565,9844.739029
918.819672,306.438199,-74.020594,9622.677246
918.819988,76.609550,-74.020594,9696.697840
918.820304,153.219100,-0.000000,9474.636058
918.820619,306.438199,148.041188,9474.636058
918.820935,612.876398,222.061783,9252.574275
918.821251,612.876398,222.061783,9104.533087
918.821567,995.924147,296.082377,9548.656652
918.821883,1072.533697,-74.020594,9178.553681
918.822199,766.095498,-0.000000,9326.594869
918.822515,689.485948,-148.041188,9474.636058
918.822831,842.705048,-296.082377,9622.677246
918.823146,306.438199,-444.123565,9474.636058
918.823462,229.828649,-74.020594,9844.739029
918.823778,612.876398,-0.000000,9474.636058
918.824094,536.266849,-148.041188,9474.636058
918.824410,459.657299,-148.041188,9548.656652
918.824726,383.047749,-0.000000,9400.615463
918.825042,153.219100,-370.102971,9548.656652
918.825358,0.000000,-518.144159,9622.677246
918.825674,0.000000,-888.247130,9696.697840
918.825989,76.609550,-888.247130,9770.718434
918.826305,383.047749,-296.082377,9770.718434
918.826621,766.095498,-370.102971,9326.594869
918.826937,459.657299,-666.185348,9474.636058
918.827253,689.485948,-148.041188,9474.636058
918.827569,919.314598,-0.000000,9030.512492
918.827885,1225.752797,-222.061783,9178.553681
918.828201,842.705048,-0.000000,9252.574275
918.828516,995.924147,-148.041188,9252.574275
918.828832,919.314598,-444.123565,9178.553681
918.829148,536.266849,-296.082377,9474.636058
918.829464,459.657299,-370.102971,9696.697840
918.829780,306.438199,-740.205942,9696.697840
918.830096,689.485948,-0.000000,9622.677246
918.830412,459.657299,-0.000000,9474.636058
918.830728,306.438199,-0.000000,9178.553681
918.831044,689.485948,-0.000000,9400.615463
918.831359,76.609550,296.082377,9326.594869
918.831675,0.000000,148.041188,9252.574275
918.831991,0.000000,-0.000000,9252.574275
918.832307,0.000000,-0.000000,9474.636058
918.832623,0.000000,-444.123565,9622.677246
918.832939,-536.266849,-444.123565,9696.697840
918.833255,-153.219100,-296.082377,9474.636058
918.833571,0.000000,-222.061783,9696.697840
918.833886,0.000000,-370.102971,9400.615463
918.834202,0.000000,-0.000000,9622.677246
918.834518,153.219100,148.041188,9474.636058
918.834834,459.657299,148.041188,9326.594869
918.835150,612.876398,-0.000000,9252.574275
918.835466,919.314598,-0.000000,9178.553681
918.835782,1225.752797,-518.144159,9252.574275
918.836098,995.924147,-296.082377,9326.594869
918.836414,766.095498,-222.061783,9326.594869
918.836729,766.095498,-296.082377,9770.718434
918.837045,919.314598,-296.082377,9844.739029
918.837361,842.705048,-0.000000,9844.739029
918.837677,766.095498,-74.020594,9400.615463
918.837993,689.485948,-74.020594,9548.656652
918.838309,919.314598,-74.020594,9474.636058
918.838625,766.095498,-0.000000,9474.636058
918.838941,612.876398,-296.082377,9400.615463
918.839256,306.438199,-222.061783,9622.677246
918.839572,306.438199,-666.185348,9696.697840
918.839888,459.657299,-814.226536,9770.718434
918.840204,842.705048,-814.226536,9696.697840
918.840520,383.047749,-814.226536,9844.739029
918.840836,306.438199,-740.205942,9844.739029
918.841152,459.657299,-444.123565,9844.739029
918.841468,919.314598,-74.020594,9548.656652
918.841784,766.095498,-74.020594,9474.636058
918.842099,612.876398,148.041188,9178.553681
918.842415,995.924147,222.061783,9104.533087
918.842731,995.924147,-148.041188,9252.574275
918.843047,919.314598,-222.061783,9400.615463
918.843363,1378.971896,-222.061783,9326.594869
918.843679,536.266849,-444.123565,9548.656652
918.843995,536.266849,-740.205942,9548.656652
918.844311,536.266849,-222.061783,9622.677246
918.844626,229.828649,-74.020594,9474.636058
918.844942,536.266849,-0.000000,9474.636058
918.845258,612.876398,444.123565,9474.636058
918.845574,229.828649,222.061783,9030.512492
918.845890,153.219100,296.082377,9030.512492
918.846206,0.000000,-0.000000,9252.574275
918.846522,0.000000,-222.061783,9622.677246
918.846838,0.000000,-370.102971,9326.594869
918.847153,-612.876398,-666.185348,9326.594869
918.847469,-229.828649,-518.144159,9622.677246
918.847785,0.000000,-1036.288319,9622.677246
918.848101,153.219100,-222.061783,9696.697840
918.848417,0.000000,-0.000000,9770.718434
918.848733,76.609550,296.082377,9400.615463
918.849049,383.047749,296.082377,9104.533087
918.849365,612.876398,370.102971,9104.533087
918.849681,612.876398,222.061783,9326.594869
918.849996,766.095498,-148.041188,9178.553681
918.850312,689.485948,-148.041188,9326.594869
918.850628,536.266849,-370.102971,9474.636058
918.850944,689.485948,-592.164754,9400.615463
918.851260,995.924147,-592.164754,9696.697840
918.851576,536.266849,-296.082377,9622.677246
918.851892,766.095498,-74.020594,9622.677246
918.852208,459.657299,-0.000000,9474.636058
918.852523,536.266849,-74.020594,9474.636058
918.852839,536.266849,-0.000000,9548.656652
918.853155,306.438199,-0.000000,9548.656652
918.853471,383.047749,-148.041188,9622.677246
918.853787,306.438199,-296.082377,9770.718434
918.854103,383.047749,-518.144159,10140.821405
918.854419,229.828649,-666.185348,9770.718434
918.854735,612.876398,-296.082377,9622.677246
918.855051,383.047749,-370.102971,9992.780217
918.855366,383.047749,-0.000000,9770.718434
918.855682,766.095498,-74.020594,9474.636058
918.855998,919.314598,222.061783,9474.636058
918.856314,1072.533697,296.082377,9474.636058
918.856630,919.314598,-0.000000,9400.615463
918.856946,1072.533697,-0.000000,9548.656652
918.857262,1072.533697,-444.123565,9474.636058
918.857578,689.485948,-148.041188,9696.697840
918.857893,536.266849,-444.123565,9696.697840
918.858209,612.876398,-148.041188,9696.697840
918.858525,536.266849,-222.061783,9474.636058
918.858841,689.485948,-444.123565,9622.677246
918.859157,229.828649,-0.000000,9474.636058
918.859473,383.047749,-0.000000,9400.615463
918.859789,229.828649,-0.000000,9252.574275
918.860105,0.000000,222.061783,9178.553681
918.860421,0.000000,-0.000000,9474.636058
918.860736,0.000000,-148.041188,9474.636058
918.861052,-383.047749,-518.144159,9548.656652
918.861368,0.000000,-370.102971,9474.636058
918.861684,-383.047749,-370.102971,9474.636058
918.862000,-383.047749,-370.102971,9622.677246
918.862316,0.000000,-222.061783,9548.656652
918.862632,76.609550,-74.020594,9400.615463
918.862948,76.609550,-0.000000,9326.594869
918.863263,-229.828649,-0.000000,9548.656652
918.863579,536.266849,-148.041188,9326.594869
918.863895,919.314598,-0.000000,9178.553681
918.864211,612.876398,-444.123565,9400.615463
918.864527,842.705048,-74.020594,9326.594869
918.864843,1455.581446,-740.205942,9548.656652
918.865159,766.095498,-444.123565,9548.656652
918.865475,766.095498,-148.041188,9622.677246
918.865790,995.924147,-0.000000,9474.636058
918.866106,766.095498,-0.000000,9252.574275
918.866422,842.705048,74.020594,9400.615463
918.866738,689.485948,222.061783,9252.574275
918.867054,459.657299,-0.000000,9474.636058
918.867370,459.657299,-148.041188,9474.636058
918.867686,153.219100,-444.123565,9696.697840
918.868002,-153.219100,-1036.288319,9918.759623
918.868318,0.000000,-1036.288319,9918.759623
918.868633,0.000000,-962.267725,9844.739029
918.868949,306.438199,-740.205942,9918.759623
918.869265,536.266849,-296.082377,9918.759623
918.869581,536.266849,-296.082377,9622.677246
918.869897,919.314598,-148.041188,9474.636058
918.870213,919.314598,-0.000000,9104.533087
918.870529,842.705048,148.041188,9326.594869
918.870845,1072.533697,-0.000000,9474.636058
918.871160,919.314598,-518.144159,9178.553681
918.871476,689.485948,-444.123565,9400.615463
918.871792,842.705048,-370.102971,9548.656652
918.872108,766.095498,-370.102971,9696.697840
918.872424,536.266849,-370.102971,9918.759623
918.872740,689.485948,-74.020594,9474.636058
918.873056,459.657299,-370.102971,9400.615463
918.873372,383.047749,-0.000000,9474.636058
918.873688,229.828649,148.041188,9326.594869
918.874003,76.609550,296.082377,9400.615463
918.874319,0.000000,-0.000000,9178.553681
918.874635,0.000000,-0.000000,9474.636058
918.874951,-229.828649,-74.020594,9474.636058
918.875267,-306.438199,-518.144159,9844.739029
918.875583,-383.047749,-370.102971,9844.739029
918.875899,-153.219100,-370.102971,9696.697840
918.876215,0.000000,-370.102971,9770.718434
918.876530,229.828649,-444.123565,9622.677246
918.876846,459.657299,-0.000000,9622.677246
918.877162,842.705048,740.205942,9326.594869
918.877478,995.924147,518.144159,9104.533087
918.877794,842.705048,518.144159,9104.533087
918.878110,1072.533697,222.061783,9104.533087
918.878426,1378.971896,-0.000000,8734.430116
918.878742,919.314598,148.041188,9252.574275
918.879058,689.485948,-370.102971,9474.636058
918.879373,995.924147,-222.061783,9622.677246
918.879689,766.095498,-0.000000,9548.656652
918.880005,536.266849,-592.164754,9696.697840
918.880321,612.876398,-0.000000,9474.636058
918.880637,229.828649,-0.000000,9474.636058
918.880953,459.657299,-0.000000,9548.656652
918.881269,306.438199,-0.000000,9400.615463
918.881585,0.000000,-148.041188,9548.656652
918.881900,0.000000,-296.082377,9622.677246
918.882216,0.000000,-666.185348,9696.697840
918.882532,76.609550,-740.205942,9696.697840
918.882848,-459.657299,-592.164754,9622.677246
918.883164,306.438199,-1110.308913,9474.636058
918.883480,459.657299,-518.144159,9622.677246
918.883796,229.828649,-370.102971,9474.636058
918.884112,689.485948,-148.041188,9474.636058
918.884427,536.266849,-0.000000,9326.594869
918.884743,842.705048,-222.061783,9548.656652
918.885059,612.876398,-0.000000,9400.615463
918.885375,842.705048,-370.102971,9400.615463
918.885691,536.266849,-296.082377,9400.615463
918.886007,536.266849,-592.164754,9548.656652
918.886323,1302.362347,-740.205942,9400.615463
918.886639,612.876398,-296.082377,9474.636058
918.886955,383.047749,-370.102971,9548.656652
918.887270,306.438199,-0.000000,9474.636058
918.887586,459.657299,74.020594,9474.636058
918.887902,536.266849,-0.000000,9326.594869
918.888218,306.438199,-0.000000,9178.553681
918.888534,229.828649,-0.000000,9400.615463
918.888850,0.000000,-0.000000,9474.636058
918.889166,0.000000,-296.082377,9548.656652
918.889482,76.609550,-666.185348,9622.677246
918.889797,-153.219100,-518.144159,9474.636058
918.890113,0.000000,-518.144159,9696.697840
918.890429,229.828649,-148.041188,9474.636058
918.890745,229.828649,-0.000000,9622.677246
918.891061,536.266849,-148.041188,9474.636058
918.891377,766.095498,148.041188,9252.574275
918.891693,919.314598,-0.000000,9178.553681
918.892009,689.485948,-0.000000,9400.615463
918.892324,1072.533697,-0.000000,9252.574275
918.892640,1072.533697,-370.102971,9326.594869
918.892956,1225.752797,-148.041188,9548.656652
918.893272,919.314598,-592.164754,9400.615463
918.893588,919.314598,-296.082377,9622.677246
918.893904,1149.143247,-296.082377,9400.615463
918.894220,383.047749,-74.020594,9918.759623
918.894535,459.657299,-0.000000,9474.636058
918.894851,536.266849,-74.020594,9474.636058
918.895167,459.657299,-0.000000,9548.656652
918.895483,153.219100,-444.123565,9474.636058
918.895799,383.047749,-592.164754,9696.697840
918.896115,76.609550,-814.226536,9844.739029
918.896431,-153.219100,-1110.308913,9696.697840
918.896747,0.000000,-1110.308913,9918.759623
918.897062,153.219100,-962.267725,9696.697840
918.897378,0.000000,-1110.308913,9918.759623
918.897694,766.095498,-370.102971,9696.697840
918.898010,383.047749,-148.041188,9548.656652
918.898326,536.266849,296.082377,9474.636058
918.898642,689.485948,296.082377,9030.512492
918.898958,919.314598,74.020594,9252.574275
918.899273,766.095498,-0.000000,9252.574275
918.899589,919.314598,-0.000000,9178.553681
918.899905,612.876398,-444.123565,9178.553681
918.900221,153.219100,-1110.308913,9696.697840
918.900537,383.047749,-518.144159,9992.780217
918.900853,229.828649,-518.144159,9696.697840
918.901169,459.657299,-0.000000,9770.718434
918.901485,153.219100,-0.000000,9548.656652
918.901800,-76.609550,296.082377,9548.656652
918.902116,153.219100,222.061783,9252.574275
918.902432,0.000000,296.082377,9400.615463
918.902748,0.000000,296.082377,9104.533087
918.903064,0.000000,-0.000000,9252.574275
918.903380,459.657299,-296.082377,9474.636058
918.903696,-229.828649,-296.082377,9474.636058
918.904011,-153.219100,-222.061783,9474.636058
918.904327,-76.609550,-296.082377,9400.615463
918.904643,0.000000,-222.061783,9548.656652
918.904959,76.609550,-148.041188,9474.636058
918.905275,229.828649,-0.000000,9474.636058
918.905591,229.828649,-0.000000,9326.594869
918.905907,383.047749,296.082377,9252.574275
918.906222,612.876398,-0.000000,9178.553681
918.906538,612.876398,-296.082377,9030.512492
918.906854,842.705048,-0.000000,9252.574275
918.907170,766.095498,-222.061783,9400.615463
918.907486,536.266849,-444.123565,9400.615463
918.907802,919.314598,-444.123565,9622.677246
918.908118,842.705048,-370.102971,9474.636058
918.908434,612.876398,-74.020594,9474.636058
918.908749,306.438199,-222.061783,9548.656652
918.909065,612.876398,-0.000000,9474.636058
918.909381,612.876398,-0.000000,9400.615463
918.909697,536.266849,-222.061783,9252.574275
918.910013,229.828649,-74.020594,9474.636058
918.910329,0.000000,-296.082377,9696.697840
918.910645,76.609550,-666.185348,9918.759623
918.910960,-383.047749,-518.144159,9918.759623
918.911276,536.266849,-592.164754,9918.759623
918.911592,383.047749,-370.102971,9844.739029
918.911908,459.657299,-148.041188,9474.636058
918.912224,459.657299,-0.000000,9622.677246
918.912540,842.705048,-0.000000,9400.615463
918.912856,689.485948,296.082377,9400.615463
918.913171,1072.533697,222.061783,9474.636058
918.913487,766.095498,-222.061783,9474.636058
918.913803,995.924147,-222.061783,9400.615463
918.914119,919.314598,-444.123565,9548.656652
918.914435,612.876398,-740.205942,9326.594869
918.914751,689.485948,-370.102971,9844.739029
918.915067,536.266849,-222.061783,9474.636058
918.915383,689.485948,-0.000000,9474.636058
918.915698,919.314598,-148.041188,9104.533087
918.916014,536.266849,-0.000000,9178.553681
918.916330,306.438199,-74.020594,8956.491898
918.916646,306.438199,-0.000000,9178.553681
918.916962,153.219100,-148.041188,9400.615463
918.917278,76.609550,-592.164754,9474.636058
918.917594,0.000000,-518.144159,9474.636058
918.917909,0.000000,-962.267725,9474.636058
918.918225,-383.047749,-444.123565,9622.677246
918.918541,0.000000,-666.185348,9474.636058
918.918857,0.000000,-592.164754,9548.656652
918.919173,76.609550,-74.020594,9474.636058
918.919489,153.219100,-296.082377,9178.553681
918.919805,459.657299,-0.000000,9104.533087
918.920121,612.876398,-222.061783,8956.491898
918.920436,612.876398,-370.102971,9104.533087
918.920752,766.095498,-370.102971,8956.491898
918.921068,766.095498,-444.123565,9252.574275
918.921384,766.095498,-296.082377,9400.615463
918.921700,842.705048,-444.123565,9178.553681
918.922016,1072.533697,-222.061783,9400.615463
918.922332,689.485948,-148.041188,9474.636058
918.922647,689.485948,-0.000000,9474.636058
918.922963,612.876398,-0.000000,9326.594869
918.923279,919.314598,-148.041188,9326.594869
918.923595,459.657299,-0.000000,9252.574275
918.923911,383.047749,-444.123565,9696.697840
918.924227,153.219100,-296.082377,9918.759623
918.924543,0.000000,-740.205942,9918.759623
918.924858,536.266849,-888.247130,10214.842000
918.925174,0.000000,-740.205942,10066.800811
918.925490,76.609550,-666.185348,10140.821405
918.925806,536.266849,-592.164754,9992.780217
918.926122,383.047749,-296.082377,9548.656652
918.926438,689.485948,-74.020594,9400.615463
918.926754,995.924147,296.082377,9030.512492
918.927070,689.485948,-0.000000,9252.574275
918.927385,1302.362347,-0.000000,9252.574275
918.927701,1225.752797,-0.000000,9178.553681
918.928017,842.705048,-592.164754,9326.594869
918.928333,766.095498,-222.061783,9474.636058
918.928649,919.314598,-444.123565,9474.636058
918.928965,766.095498,-370.102971,9770.718434
918.929281,766.095498,-370.102971,9622.677246
918.929596,229.828649,148.041188,9770.718434
918.929912,306.438199,-0.000000,9326.594869
918.930228,153.219100,222.061783,9326.594869
918.930544,0.000000,296.082377,9252.574275
918.930860,0.000000,148.041188,9178.553681
918.931176,-153.219100,-0.000000,9474.636058
918.931492,-459.657299,-222.061783,9474.636058
918.931808,-536.266849,-518.144159,9548.656652
918.932123,-383.047749,-296.082377,9548.656652
918.932439,-536.266849,-888.247130,9844.739029
918.932755,0.000000,-222.061783,9548.656652
918.933071,-306.438199,-370.102971,9548.656652
918.933387,153.219100,-74.020594,9400.615463
918.933703,459.657299,-0.000000,9474.636058
918.934019,383.047749,518.144159,9178.553681
918.934334,536.266849,370.102971,9252.574275
918.934650,842.705048,148.041188,9104.533087
918.934966,766.095498,-0.000000,8882.471304
918.935282,842.705048,-0.000000,9474.636058
918.935598,459.657299,-222.061783,9400.615463
918.935914,612.876398,-370.102971,9400.615463
918.936230,766.095498,-222.061783,9696.697840
918.936545,536.266849,-444.123565,9622.677246
918.936861,842.705048,-148.041188,9622.677246
918.937177,383.047749,-0.000000,9474.636058
918.937493,306.438199,-0.000000,9474.636058
918.937809,459.657299,-0.000000,9474.636058
918.938125,306.438199,-148.041188,9400.615463
918.938441,383.047749,-444.123565,9548.656652
918.938757,306.438199,-814.226536,9770.718434
918.939072,383.047749,-814.226536,9474.636058
918.939388,383.047749,-740.205942,9622.677246
918.939704,459.657299,-740.205942,9622.677246
918.940020,612.876398,-444.123565,9696.697840
918.940336,766.095498,-370.102971,9474.636058
918.940652,689.485948,-148.041188,9474.636058
918.940968,766.095498,-0.000000,9474.636058
918.941283,1302.362347,-74.020594,9326.594869
918.941599,766.095498,-296.082377,9252.574275
918.941915,842.705048,-370.102971,9400.615463
918.942231,689.485948,-518.144159,9326.594869
918.942547,689.485948,-518.144159,9474.636058
918.942863,536.266849,-518.144159,9696.697840
918.943179,536.266849,-1036.288319,9474.636058
918.943494,689.485948,-222.061783,9252.574275
918.943810,459.657299,-0.000000,9252.574275
918.944126,536.266849,148.041188,9252.574275
918.944442,383.047749,370.102971,9400.615463
918.944758,229.828649,222.061783,9400.615463
918.945074,76.609550,-0.000000,9326.594869
918.945390,0.000000,-148.041188,9474.636058
918.945706,0.000000,-222.061783,9474.636058
918.946021,76.609550,-518.144159,9400.615463
918.946337,-229.828649,-740.205942,9770.718434
918.946653,-76.609550,-592.164754,9474.636058
918.946969,0.000000,-222.061783,9474.636058
918.947285,153.219100,-148.041188,9474.636058
918.947601,536.266849,-148.041188,9474.636058
918.947917,459.657299,-0.000000,9326.594869
918.948232,689.485948,222.061783,9104.533087
918.948548,689.485948,-0.000000,9400.615463
918.948864,766.095498,-0.000000,9252.574275
918.949180,919.314598,-444.123565,9326.594869
918.949496,995.924147,-222.061783,9474.636058
918.949812,842.705048,-518.144159,9400.615463
918.950128,919.314598,-222.061783,9474.636058
918.950444,689.485948,-74.020594,9474.636058
918.950759,1072.533697,-222.061783,9548.656652
918.951075,1072.533697,-0.000000,9474.636058
918.951391,689.485948,-0.000000,9252.574275
918.951707,459.657299,-0.000000,9474.636058
918.952023,536.266849,-0.000000,9400.615463
918.952339,536.266849,-518.144159,9622.677246
918.952655,76.609550,-592.164754,10066.800811
918.952970,229.828649,-666.185348,9844.739029
918.953286,153.219100,-814.226536,10066.800811
918.953602,0.000000,-888.247130,9918.759623
918.953918,0.000000,-888.247130,9992.780217
918.954234,229.828649,-370.102971,9622.677246
918.954550,459.657299,-0.000000,9474.636058
918.954866,459.657299,148.041188,9400.615463
918.955181,766.095498,370.102971,9104.533087
918.955497,766.095498,222.061783,9104.533087
918.955813,766.095498,-0.000000,9326.594869
918.956129,995.924147,-0.000000,9178.553681
918.956445,459.657299,-296.082377,9326.594869
918.956761,612.876398,-444.123565,9548.656652
918.957077,76.609550,-592.164754,9770.718434
918.957393,306.438199,-370.102971,9770.718434
918.957708,153.219100,-296.082377,9622.677246
918.958024,306.438199,-0.000000,9474.636058
918.958340,76.609550,-0.000000,9326.594869
918.958656,0.000000,296.082377,9252.574275
918.958972,0.000000,444.123565,9252.574275
918.959288,0.000000,296.082377,9178.553681
918.959604,-153.219100,-74.020594,9178.553681
918.959919,-153.219100,-222.061783,9622.677246
918.960235,-229.828649,-518.144159,9474.636058
918.960551,-153.219100,-370.102971,9696.697840
918.960867,0.000000,-444.123565,9474.636058
918.961183,0.000000,-444.123565,9474.636058
918.961499,76.609550,-74.020594,9696.697840
918.961815,229.828649,444.123565,9474.636058
918.962130,459.657299,148.041188,9400.615463
918.962446,536.266849,370.102971,9178.553681
918.962762,766.095498,148.041188,9178.553681
918.963078,1072.533697,-74.020594,9326.594869
918.963394,842.705048,-296.082377,9252.574275
918.963710,919.314598,-370.102971,9326.594869
918.964026,612.876398,-444.123565,9474.636058
918.964342,919.314598,-370.102971,9474.636058
918.964657,995.924147,-222.061783,9400.615463
918.964973,536.266849,-0.000000,9622.677246
918.965289,689.485948,222.061783,9252.574275
918.965605,612.876398,-0.000000,9474.636058
918.965921,306.438199,-0.000000,9400.615463
918.966237,612.876398,-370.102971,9548.656652
918.966553,229.828649,-222.061783,9548.656652
918.966868,76.609550,-518.144159,9696.697840
918.967184,153.219100,-814.226536,9918.759623
918.967500,76.609550,-814.226536,9918.759623
918.967816,153.219100,-814.226536,9992.780217
918.968132,229.828649,-518.144159,9622.677246
918.968448,76.609550,-370.102971,9992.780217
918.968764,612.876398,-74.020594,9548.656652
918.969080,536.266849,-0.000000,9474.636058
918.969395,383.047749,-0.000000,9474.636058
918.969711,689.485948,-0.000000,9252.574275
918.970027,842.705048,-222.061783,9400.615463
918.970343,842.705048,-370.102971,9400.615463
918.970659,1072.533697,-814.226536,9622.677246
918.970975,842.705048,-518.144159,9770.718434
918.971291,306.438199,-740.205942,9696.697840
918.971606,536.266849,-74.020594,9474.636058
918.971922,612.876398,-74.020594,9400.615463
918.972238,306.438199,-0.000000,9030.512492
918.972554,383.047749,148.041188,9178.553681
918.972870,153.219100,296.082377,9326.594869
918.973186,0.000000,148.041188,9252.574275
918.973502,0.000000,-222.061783,9252.574275
918.973817,0.000000,-296.082377,9622.677246
918.974133,-536.266849,-444.123565,9548.656652
918.974449,-536.266849,-740.205942,9622.677246
918.974765,-229.828649,-666.185348,9696.697840
918.975081,-383.047749,-296.082377,9548.656652
918.975397,-766.095498,-148.041188,9992.780217
918.975713,153.219100,-0.000000,9474.636058
918.976029,76.609550,148.041188,9400.615463
918.976344,459.657299,74.020594,9178.553681
918.976660,536.266849,148.041188,8956.491898
918.976976,689.485948,148.041188,9326.594869
918.977292,919.314598,-444.123565,9030.512492
918.977608,995.924147,-296.082377,9326.594869
918.977924,1149.143247,-222.061783,9326.594869
918.978240,1532.190996,-222.061783,9474.636058
918.978555,995.924147,-0.000000,9326.594869
918.978871,919.314598,-0.000000,9178.553681
918.979187,689.485948,444.123565,9474.636058
918.979503,766.095498,296.082377,9474.636058
918.979819,842.705048,222.061783,9252.574275
918.980135,612.876398,222.061783,9400.615463
918.980451,229.828649,-296.082377,9474.636058
918.980767,0.000000,-592.164754,9992.780217
918.981082,0.000000,-740.205942,10214.842000
918.981398,-306.438199,-962.267725,10140.821405
918.981714,76.609550,-962.267725,9992.780217
918.982030,0.000000,-814.226536,9918.759623
918.982346,383.047749,-518.144159,9844.739029
918.982662,536.266849,-0.000000,9696.697840
918.982978,842.705048,296.082377,9622.677246
918.983293,842.705048,222.061783,9400.615463
918.983609,1149.143247,296.082377,9252.574275
918.983925,842.705048,-0.000000,9104.533087
918.984241,612.876398,-0.000000,9400.615463
918.984557,995.924147,-296.082377,9400.615463
918.984873,612.876398,-444.123565,9548.656652
918.985189,459.657299,-666.185348,9770.718434
918.985504,766.095498,-592.164754,9918.759623
918.985820,766.095498,-222.061783,9030.512492
918.986136,612.876398,-0.000000,9548.656652
918.986452,383.047749,148.041188,9400.615463
918.986768,383.047749,-0.000000,9326.594869
918.987084,383.047749,444.123565,9326.594869
918.987400,0.000000,296.082377,9104.533087
918.987716,-153.219100,-74.020594,9400.615463
918.988031,0.000000,-370.102971,9548.656652
918.988347,-153.219100,-592.164754,9622.677246
918.988663,-229.828649,-518.144159,9548.656652
918.988979,0.000000,-666.185348,9474.636058
918.989295,0.000000,-296.082377,9548.656652
918.989611,-153.219100,-222.061783,9474.636058
918.989927,0.000000,-0.000000,9474.636058
918.990242,306.438199,148.041188,9474.636058
918.990558,153.219100,-0.000000,9030.512492
918.990874,536.266849,444.123565,8586.388927
918.991190,1072.533697,-0.000000,8882.471304
918.991506,766.095498,-74.020594,8956.491898
918.991822,842.705048,-0.000000,9252.574275
918.992137,919.314598,-222.061783,9548.656652
918.992453,383.047749,-370.102971,9474.636058
918.992769,612.876398,-296.082377,9548.656652
918.993085,459.657299,-0.000000,9548.656652
918.993400,383.047749,-148.041188,9474.636058
918.993716,306.438199,-0.000000,9474.636058
918.994032,536.266849,-74.020594,9474.636058
918.994348,459.657299,-0.000000,9400.615463
918.994663,0.000000,-370.102971,9474.636058
918.994979,229.828649,-518.144159,9548.656652
918.995295,383.047749,-962.267725,9622.677246
918.995611,229.828649,-740.205942,9918.759623
918.995926,153.219100,-592.164754,9918.759623
918.996242,229.828649,-666.185348,9770.718434
918.996558,383.047749,-296.082377,9770.718434
918.996874,459.657299,-0.000000,9474.636058
918.997189,766.095498,-0.000000,9474.636058
918.997505,919.314598,-0.000000,9178.553681
918.997821,1072.533697,296.082377,9400.615463
918.998137,1149.143247,296.082377,9178.553681
918.998452,1072.533697,-148.041188,9400.615463
918.998768,459.657299,-74.020594,9548.656652
918.999084,459.657299,-148.041188,9548.656652
918.999400,536.266849,-370.102971,9548.656652
918.999715,689.485948,-0.000000,10140.821405
919.000031,689.485948,-0.000000,9474.636058
919.000347,459.657299,-0.000000,9400.615463
919.000663,383.047749,222.061783,9474.636058
919.000978,153.219100,370.102971,9400.615463
919.001294,0.000000,296.082377,9474.636058
919.001610,0.000000,222.061783,9474.636058
919.001926,0.000000,-0.000000,9474.636058
919.002241,-229.828649,-148.041188,9474.636058
919.002557,-153.219100,-370.102971,9548.656652
919.002873,0.000000,-444.123565,9326.594869
919.003189,0.000000,-296.082377,9548.656652
919.003504,-306.438199,-296.082377,9474.636058
919.003820,0.000000,-0.000000,9400.615463
919.004136,0.000000,-0.000000,9252.574275
919.004452,612.876398,-370.102971,9474.636058
919.004767,689.485948,-0.000000,9030.512492
919.005083,766.095498,-0.000000,9104.533087
919.005399,919.314598,-74.020594,9104.533087
919.005715,1225.752797,-296.082377,9104.533087
919.006030,919.314598,-518.144159,9104.533087
919.006346,842.705048,-370.102971,9252.574275
919.006662,842.705048,-518.144159,9252.574275
919.006978,689.485948,-444.123565,9474.636058
919.007293,689.485948,-148.041188,9400.615463
919.007609,612.876398,-296.082377,9474.636058
919.007925,536.266849,-222.061783,9326.594869
919.008241,383.047749,-0.000000,9474.636058
919.008556,153.219100,-0.000000,9400.615463
919.008872,0.000000,-222.061783,9622.677246
919.009188,-76.609550,-444.123565,9918.759623
919.009504,76.609550,-518.144159,9844.739029
919.009819,0.000000,-962.267725,9548.656652
919.010135,76.609550,-740.205942,9770.718434
919.010451,459.657299,-592.164754,9696.697840
919.010767,306.438199,-296.082377,9770.718434
919.011082,306.438199,-0.000000,9474.636058
919.011398,842.705048,148.041188,9326.594869
919.011714,612.876398,370.102971,9178.553681
919.012030,1149.143247,222.061783,9252.574275
919.012345,1149.143247,370.102971,9474.636058
919.012661,1149.143247,-0.000000,9326.594869
919.012977,842.705048,-148.041188,9252.574275
919.013293,612.876398,-592.164754,9474.636058
919.013608,689.485948,-1110.308913,9770.718434
919.013924,766.095498,-592.164754,9770.718434
919.014240,383.047749,-222.061783,9548.656652
919.014556,383.047749,-0.000000,9474.636058
919.014871,536.266849,-0.000000,9400.615463
919.015187,612.876398,222.061783,9400.615463
919.015503,459.657299,296.082377,9178.553681
919.015819,0.000000,148.041188,9178.553681
919.016134,0.000000,-0.000000,9400.615463
919.016450,0.000000,-444.123565,9474.636058
919.016766,76.609550,-814.226536,9844.739029
919.017082,76.609550,-592.164754,9474.636058
919.017397,0.000000,-740.205942,9622.677246
919.017713,0.000000,-518.144159,9696.697840
919.018029,0.000000,-370.102971,9474.636058
919.018345,612.876398,-148.041188,9474.636058
919.018660,383.047749,222.061783,9178.553681
919.018976,689.485948,-0.000000,8808.450710
919.019292,842.705048,-0.000000,9030.512492
919.019607,919.314598,-148.041188,9104.533087
919.019923,919.314598,-148.041188,9178.553681
919.020239,842.705048,-0.000000,9178.553681
919.020555,766.095498,-296.082377,9252.574275
919.020870,766.095498,-444.123565,9400.615463
919.021186,383.047749,-666.185348,9548.656652
919.021502,612.876398,-148.041188,9844.739029
919.021818,536.266849,-0.000000,9474.636058
919.022133,459.657299,-74.020594,9474.636058
919.022449,76.609550,148.041188,9474.636058
919.022765,536.266849,-148.041188,9474.636058
919.023081,229.828649,-148.041188,9696.697840
919.023396,153.219100,-666.185348,9474.636058
919.023712,76.609550,-740.205942,9844.739029
919.024028,229.828649,-740.205942,9770.718434
919.024344,612.876398,-814.226536,9844.739029
919.024659,536.266849,-296.082377,9770.718434
919.024975,919.314598,-222.061783,9622.677246
919.025291,536.266849,-74.020594,9474.636058
919.025607,689.485948,-0.000000,9400.615463
919.025922,919.314598,-0.000000,9326.594869
919.026238,1149.143247,370.102971,9104.533087
919.026554,1225.752797,-0.000000,9326.594869
919.026870,1149.143247,-222.061783,9400.615463
919.027185,995.924147,-444.123565,9400.615463
919.027501,766.095498,-814.226536,9474.636058
919.027817,766.095498,-370.102971,9474.636058
919.028133,612.876398,-370.102971,9548.656652
919.028448,612.876398,-148.041188,9326.594869
919.028764,229.828649,-148.041188,9326.594869
919.029080,306.438199,-0.000000,9326.594869
919.029396,306.438199,222.061783,9400.615463
919.029711,153.219100,-0.000000,9252.574275
919.030027,153.219100,74.020594,9474.636058
919.030343,-459.657299,-296.082377,9844.739029
919.030659,0.000000,-148.041188,9548.656652
919.030974,-383.047749,-148.041188,9622.677246
919.031290,0.000000,-222.061783,9622.677246
919.031606,0.000000,-444.123565,9622.677246
919.031922,0.000000,-148.041188,9548.656652
919.032237,0.000000,-0.000000,9474.636058
919.032553,0.000000,148.041188,9326.594869
919.032869,229.828649,222.061783,9252.574275
919.033185,383.047749,148.041188,9474.636058
919.033500,612.876398,-0.000000,9104.533087
919.033816,919.314598,148.041188,9326.594869
919.034132,612.876398,-222.061783,9030.512492
919.034448,919.314598,-222.061783,9474.636058
919.034763,1072.533697,-370.102971,9548.656652
919.035079,689.485948,-370.102971,9474.636058
919.035395,842.705048,-0.000000,9326.594869
919.035711,536.266849,-0.000000,9622.677246
919.036026,766.095498,-0.000000,9474.636058
919.036342,689.485948,74.020594,9178.553681
919.036658,612.876398,-74.020594,9400.615463
919.036974,612.876398,-222.061783,9252.574275
919.037289,76.609550,-592.164754,9474.636058
919.037605,612.876398,-888.247130,9770.718434
919.037921,0.000000,-1110.308913,9918.759623
919.038237,153.219100,-740.205942,9770.718434
919.038552,229.828649,-888.247130,10140.821405
919.038868,306.438199,-814.226536,9622.677246
919.039184,306.438199,-370.102971,9696.697840
919.039500,766.095498,-666.185348,9622.677246
919.039815,536.266849,-0.000000,9104.533087
919.040131,842.705048,-0.000000,9178.553681
919.040447,1072.533697,148.041188,9178.553681
919.040763,1072.533697,-222.061783,9178.553681
919.041078,1532.190996,-444.123565,9474.636058
919.041394,766.095498,-666.185348,9548.656652
919.041710,536.266849,-666.185348,9548.656652
919.042026,689.485948,-592.164754,9696.697840
919.042341,612.876398,-222.061783,9622.677246
919.042657,612.876398,-444.123565,9104.533087
919.042973,536.266849,-0.000000,9474.636058
919.043289,306.438199,-0.000000,9326.594869
919.043604,306.438199,148.041188,9104.533087
919.043920,0.000000,222.061783,9104.533087
919.044236,0.000000,-0.000000,9104.533087
919.044552,-536.266849,-148.041188,9474.636058
919.044867,-306.438199,-444.123565,9548.656652
919.045183,-383.047749,-740.205942,9696.697840
919.045499,-459.657299,-666.185348,9622.677246
919.045815,-76.609550,-592.164754,9992.780217
919.046130,-229.828649,-444.123565,9474.636058
919.046446,0.000000,-296.082377,9622.677246
919.046762,153.219100,-0.000000,9474.636058
919.047078,612.876398,222.061783,9326.594869
919.047393,689.485948,296.082377,9030.512492
919.047709,842.705048,-0.000000,9252.574275
919.048025,995.924147,-74.020594,8734.430116
919.048341,766.095498,-74.020594,9104.533087
919.048656,842.705048,-148.041188,9400.615463
919.048972,766.095498,-444.123565,9548.656652
919.049288,689.485948,-296.082377,9474.636058
919.049604,383.047749,-222.061783,9844.739029
919.049919,842.705048,-0.000000,9474.636058
919.050235,612.876398,-0.000000,9548.656652
919.050551,536.266849,-0.000000,9622.677246
919.050867,459.657299,-0.000000,9474.636058
919.051182,229.828649,-0.000000,9548.656652
919.051498,306.438199,-0.000000,9696.697840
919.051814,153.219100,-296.082377,9992.780217
919.052130,229.828649,-666.185348,9844.739029
919.052445,459.657299,-370.102971,9696.697840
919.052761,306.438199,-296.082377,9770.718434
919.053077,306.438199,-296.082377,9696.697840
919.053393,766.095498,-296.082377,9770.718434
919.053708,536.266849,-0.000000,9622.677246
919.054024,612.876398,222.061783,9400.615463
919.054340,842.705048,222.061783,9474.636058
919.054656,919.314598,-0.000000,9252.574275
919.054971,766.095498,-0.000000,9178.553681
919.055287,689.485948,-222.061783,9474.636058
919.055603,536.266849,-518.144159,9474.636058
919.055919,383.047749,-518.144159,9918.759623
919.056234,612.876398,-444.123565,9696.697840
919.056550,459.657299,-222.061783,9770.718434
919.056866,229.828649,-74.020594,9474.636058
919.057182,229.828649,-74.020594,9474.636058
919.057497,383.047749,-0.000000,9252.574275
919.057813,306.438199,-0.000000,9178.553681
919.058129,229.828649,-74.020594,9326.594869
919.058445,0.000000,-148.041188,9326.594869
919.058760,-153.219100,-222.061783,9474.636058
919.059076,0.000000,-518.144159,9474.636058
919.059392,-153.219100,-222.061783,9622.677246
919.059708,-383.047749,-518.144159,9622.677246
919.060023,-153.219100,-518.144159,9474.636058
919.060339,0.000000,-296.082377,9696.697840
919.060655,76.609550,-74.020594,9400.615463
919.060971,459.657299,-0.000000,9252.574275
919.061286,536.266849,-0.000000,9252.574275
919.061602,766.095498,-0.000000,9178.553681
919.061918,842.705048,-74.020594,9252.574275
919.062234,919.314598,-74.020594,9030.512492
919.062549,459.657299,-222.061783,9326.594869
919.062865,766.095498,-814.226536,9104.533087
919.063181,995.924147,-370.102971,9400.615463
919.063497,766.095498,-74.020594,9548.656652
919.063812,919.314598,-0.000000,9326.594869
919.064128,1225.752797,148.041188,9326.594869
919.064444,766.095498,-74.020594,9252.574275
919.064760,536.266849,-0.000000,9178.553681
919.065075,766.095498,-0.000000,9252.574275
919.065391,383.047749,-222.061783,9474.636058
919.065707,612.876398,-666.185348,9696.697840
919.066022,76.609550,-814.226536,9918.759623
919.066338,-229.828649,-962.267725,10214.842000
919.066654,0.000000,-962.267725,9918.759623
919.066970,76.609550,-962.267725,10066.800811
919.067285,229.828649,-888.247130,10140.821405
919.067601,306.438199,-370.102971,9622.677246
919.067917,536.266849,-74.020594,9474.636058
919.068233,842.705048,-0.000000,9252.574275
919.068548,919.314598,222.061783,9178.553681
919.068864,995.924147,-0.000000,9326.594869
919.069180,842.705048,-370.102971,9400.615463
919.069496,536.266849,-444.123565,9474.636058
919.069811,536.266849,-592.164754,9548.656652
919.070127,689.485948,-740.205942,9548.656652
919.070443,689.485948,-444.123565,9770.718434
919.070759,536.266849,-296.082377,9548.656652
919.071074,536.266849,-0.000000,9548.656652
919.071390,383.047749,-0.000000,9326.594869
919.071706,306.438199,-148.041188,9252.574275
919.072022,0.000000,370.102971,9326.594869
919.072337,153.219100,296.082377,9326.594869
919.072653,0.000000,-0.000000,9252.574275
919.072969,-306.438199,-74.020594,9548.656652
919.073285,-229.828649,-666.185348,9474.636058
919.073600,-536.266849,-814.226536,9474.636058
919.073916,-306.438199,-370.102971,9770.718434
919.074232,-229.828649,-444.123565,9770.718434
919.074548,0.000000,-74.020594,9474.636058
919.074863,536.266849,148.041188,9326.594869
919.075179,459.657299,148.041188,9252.574275
919.075495,459.657299,518.144159,9030.512492
919.075811,459.657299,222.061783,8956.491898
919.076126,919.314598,296.082377,8956.491898
919.076442,1225.752797,-0.000000,9178.553681
919.076758,689.485948,-148.041188,9104.533087
919.077074,766.095498,-296.082377,9548.656652
919.077389,766.095498,-222.061783,9622.677246
919.077705,766.095498,-296.082377,9474.636058
919.078021,612.876398,-74.020594,9696.697840
919.078337,612.876398,-0.000000,9696.697840
919.078652,536.266849,370.102971,9622.677246
919.078968,612.876398,-0.000000,9548.656652
919.079284,612.876398,-0.000000,9326.594869
919.079600,153.219100,-74.020594,9326.594869
919.079915,153.219100,-370.102971,9474.636058
919.080231,0.000000,-814.226536,9770.718434
919.080547,0.000000,-740.205942,9844.739029
919.080863,306.438199,-666.185348,9622.677246
919.081178,383.047749,-666.185348,9770.718434
919.081494,459.657299,-222.061783,9918.759623
919.081810,766.095498,-0.000000,9474.636058
919.082126,536.266849,-0.000000,9474.636058
919.082441,995.924147,148.041188,9252.574275
919.082757,766.095498,-0.000000,9326.594869
919.083073,842.705048,-222.061783,9252.574275
919.083389,919.314598,-592.164754,9178.553681
919.083704,766.095498,-592.164754,9400.615463
919.084020,536.266849,-518.144159,9770.718434
919.084336,612.876398,-666.185348,9696.697840
919.084652,766.095498,-222.061783,9548.656652
919.084967,536.266849,-148.041188,9474.636058
919.085283,766.095498,-74.020594,9326.594869
919.085599,459.657299,148.041188,9178.553681
919.085915,459.657299,222.061783,9252.574275
919.086230,153.219100,222.061783,8956.491898
919.086546,153.219100,222.061783,9104.533087
919.086862,0.000000,-74.020594,9474.636058
919.087178,-306.438199,-370.102971,9548.656652
919.087493,-383.047749,-518.144159,9696.697840
919.087809,-383.047749,-666.185348,9548.656652
919.088125,0.000000,-740.205942,9770.718434
919.088441,-153.219100,-444.123565,9696.697840
919.088756,0.000000,-148.041188,9474.636058
919.089072,0.000000,-0.000000,9474.636058
919.089388,459.657299,148.041188,9252.574275
919.089704,536.266849,370.102971,9326.594869
919.090019,1072.533697,-148.041188,9696.697840
919.090335,995.924147,-296.082377,9326.594869
919.090651,842.705048,-148.041188,9178.553681
919.090967,919.314598,-74.020594,9548.656652
919.091282,919.314598,-370.102971,9770.718434
919.091598,919.314598,-222.061783,9696.697840
919.091914,1149.143247,296.082377,9474.636058
919.092230,842.705048,296.082377,9400.615463
919.092545,995.924147,-0.000000,9400.615463
919.092861,766.095498,-0.000000,9252.574275
919.093177,612.876398,-148.041188,9326.594869
919.093493,229.828649,-370.102971,9622.677246
919.093808,0.000000,-518.144159,9770.718434
919.094124,0.000000,-592.164754,9992.780217
919.094440,153.219100,-962.267725,9918.759623
919.094756,383.047749,-1406.391290,9918.759623
919.095072,306.438199,-814.226536,9844.739029
919.095387,0.000000,-888.247130,10066.800811
919.095703,536.266849,-296.082377,9844.739029
919.096019,612.876398,-222.061783,9474.636058
919.096335,842.705048,-296.082377,9326.594869
919.096650,766.095498,296.082377,9030.512492
919.096966,766.095498,444.123565,9326.594869
919.097282,995.924147,222.061783,9104.533087
919.097598,612.876398,-0.000000,9326.594869
919.097914,919.314598,-666.185348,9400.615463
919.098229,612.876398,-444.123565,9474.636058
919.098545,383.047749,-666.185348,9770.718434
919.098861,306.438199,-148.041188,9844.739029
919.099177,459.657299,-148.041188,9548.656652
919.099492,689.485948,-0.000000,9400.615463
919.099808,383.047749,296.082377,9474.636058
919.100124,153.219100,296.082377,9400.615463
919.100440,153.219100,444.123565,9178.553681
919.100756,0.000000,370.102971,9178.553681
919.101071,0.000000,-222.061783,9474.636058
919.101387,-383.047749,-592.164754,9326.594869
919.101703,153.219100,-444.123565,9474.636058
919.102019,0.000000,-518.144159,9474.636058
919.102334,229.828649,-296.082377,9474.636058
919.102650,306.438199,-370.102971,9548.656652
919.102966,459.657299,-0.000000,9548.656652
919.103282,536.266849,-0.000000,9400.615463
919.103598,842.705048,296.082377,9178.553681
919.103913,842.705048,370.102971,9104.533087
919.104229,612.876398,-0.000000,9030.512492
919.104545,1149.143247,-0.000000,9326.594869
919.104861,689.485948,-222.061783,8956.491898
919.105176,766.095498,-148.041188,9400.615463
919.105492,689.485948,-518.144159,9474.636058
919.105808,536.266849,-962.267725,9770.718434
919.106124,383.047749,-296.082377,9696.697840
919.106439,459.657299,-0.000000,9622.677246
919.106755,383.047749,-0.000000,9548.656652
919.107071,306.438199,-0.000000,9770.718434
919.107387,153.219100,-296.082377,9474.636058
919.107703,229.828649,-0.000000,9622.677246
919.108018,536.266849,-0.000000,9696.697840
919.108334,153.219100,-444.123565,9696.697840
919.108650,76.609550,-518.144159,9918.759623
919.108966,459.657299,-222.061783,9696.697840
919.109281,383.047749,-370.102971,9770.718434
919.109597,612.876398,-592.164754,9474.636058
919.109913,229.828649,-444.123565,9918.759623
919.110229,689.485948,-74.020594,9696.697840
919.110545,536.266849,-0.000000,9474.636058
919.110860,766.095498,-0.000000,9178.553681
919.111176,842.705048,-0.000000,9400.615463
919.111492,842.705048,-148.041188,9474.636058
919.111808,1225.752797,-74.020594,9696.697840
919.112123,689.485948,-444.123565,9548.656652
919.112439,229.828649,-592.164754,9770.718434
919.112755,383.047749,-592.164754,9622.677246
919.113071,536.266849,-296.082377,9770.718434
919.113387,459.657299,148.041188,9844.739029
919.113702,689.485948,-74.020594,9178.553681
919.114018,612.876398,222.061783,9178.553681
919.114334,383.047749,148.041188,9104.533087
919.114650,153.219100,222.061783,9104.533087
919.114965,76.609550,-0.000000,9474.636058
919.115281,0.000000,-222.061783,9400.615463
919.115597,0.000000,-222.061783,9400.615463
919.115913,0.000000,-518.144159,9400.615463
919.116229,0.000000,-518.144159,9474.636058
919.116544,-229.828649,-370.102971,9696.697840
919.116860,0.000000,-296.082377,9548.656652
919.117176,459.657299,-0.000000,9474.636058
919.117492,0.000000,-74.020594,9252.574275
919.117807,306.438199,-0.000000,9400.615463
919.118123,842.705048,-0.000000,9178.553681
919.118439,842.705048,-74.020594,9326.594869
919.118755,919.314598,-148.041188,9252.574275
919.119071,842.705048,-222.061783,9326.594869
919.119386,919.314598,-518.144159,9252.574275
919.119702,153.219100,-148.041188,9622.677246
919.120018,1072.533697,-222.061783,9400.615463
919.120334,995.924147,-74.020594,9178.553681
919.120649,766.095498,-0.000000,9104.533087
919.120965,536.266849,-0.000000,9252.574275
919.121281,919.314598,-148.041188,9252.574275
919.121597,459.657299,-0.000000,9474.636058
919.121913,459.657299,-74.020594,9474.636058
919.122228,153.219100,-444.123565,9548.656652
919.122544,76.609550,-740.205942,9918.759623
919.122860,76.609550,-962.267725,10066.800811
919.123176,153.219100,-740.205942,9844.739029
919.123491,0.000000,-962.267725,9844.739029
919.123807,306.438199,-518.144159,9770.718434
919.124123,383.047749,-222.061783,9844.739029
919.124439,536.266849,-74.020594,9474.636058
919.124754,536.266849,222.061783,9400.615463
919.125070,919.314598,296.082377,9400.615463
919.125386,995.924147,222.061783,9252.574275
919.125702,842.705048,-148.041188,9326.594869
919.126018,842.705048,-0.000000,9622.677246
919.126333,766.095498,-370.102971,9622.677246
919.126649,766.095498,-444.123565,9622.677246
919.126965,766.095498,-296.082377,9770.718434
919.127281,766.095498,-222.061783,9474.636058
919.127596,612.876398,-0.000000,9548.656652
919.127912,536.266849,222.061783,9474.636058
919.128228,229.828649,296.082377,9400.615463
919.128544,459.657299,370.102971,9252.574275
919.128860,76.609550,222.061783,9474.636058
919.129175,-229.828649,-148.041188,9252.574275
919.129491,-306.438199,-222.061783,9770.718434
919.129807,-306.438199,-444.123565,9622.677246
919.130123,-229.828649,-518.144159,9548.656652
919.130438,-689.485948,-592.164754,9696.697840
919.130754,0.000000,-222.061783,9622.677246
919.131070,0.000000,-222.061783,9770.718434
919.131386,76.609550,-222.061783,9326.594869
919.131702,229.828649,444.123565,9104.533087
919.132017,612.876398,740.205942,9030.512492
919.132333,612.876398,666.185348,9030.512492
919.132649,842.705048,222.061783,9030.512492
919.132965,919.314598,-148.041188,8882.471304
919.133280,689.485948,-148.041188,9178.553681
919.133596,536.266849,-370.102971,9400.615463
919.133912,536.266849,-740.205942,9622.677246
919.134228,459.657299,-370.102971,9696.697840
919.134544,306.438199,-296.082377,9844.739029
919.134859,536.266849,-0.000000,9622.677246
919.135175,842.705048,-0.000000,9696.697840
919.135491,459.657299,-0.000000,9400.615463
919.135807,536.266849,-0.000000,9326.594869
919.136122,383.047749,-148.041188,9400.615463
919.136438,459.657299,-296.082377,9474.636058
919.136754,383.047749,-592.164754,9474.636058
919.137070,306.438199,-740.205942,9696.697840
919.137386,383.047749,-444.123565,9770.718434
919.137701,459.657299,-444.123565,9548.656652
919.138017,459.657299,-370.102971,9696.697840
919.138333,536.266849,-222.061783,9474.636058
919.138649,689.485948,-0.000000,9252.574275
919.138964,919.314598,222.061783,9252.574275
919.139280,842.705048,-0.000000,9030.512492
919.139596,995.924147,-222.061783,9474.636058
919.139912,1072.533697,-148.041188,9400.615463
919.140228,842.705048,-222.061783,9474.636058
919.140543,842.705048,-518.144159,9770.718434
919.140859,995.924147,-888.247130,9696.697840
919.141175,612.876398,-444.123565,9844.739029
919.141491,459.657299,-74.020594,9474.636058
919.141806,459.657299,222.061783,9252.574275
919.142122,459.657299,-0.000000,9252.574275
919.142438,229.828649,222.061783,9252.574275
919.142754,229.828649,148.041188,9178.553681
919.143069,0.000000,-0.000000,9104.533087
919.143385,0.000000,-0.000000,9548.656652
919.143701,0.000000,-74.020594,9548.656652
919.144017,-153.219100,-592.164754,9326.594869
919.144333,-383.047749,-296.082377,9548.656652
919.144648,-383.047749,-444.123565,9548.656652
919.144964,-383.047749,-222.061783,9622.677246
919.145280,0.000000,-296.082377,9696.697840
919.145596,306.438199,-0.000000,9474.636058
919.145911,76.609550,222.061783,9474.636058
919.146227,459.657299,-0.000000,9252.574275
919.146543,536.266849,-0.000000,9178.553681
919.146859,689.485948,-296.082377,9400.615463
919.147175,919.314598,-74.020594,9400.615463
919.147490,919.314598,-370.102971,9326.594869
919.147806,995.924147,-370.102971,9400.615463
919.148122,536.266849,-0.000000,9918.759623
919.148438,766.095498,-444.123565,9474.636058
919.148753,1302.362347,-0.000000,9474.636058
919.149069,995.924147,-0.000000,9178.553681
919.149385,766.095498,-0.000000,9474.636058
919.149701,689.485948,-74.020594,9326.594869
919.150017,612.876398,-74.020594,8882.471304
919.150332,153.219100,-296.082377,9622.677246
919.150648,0.000000,-518.144159,9844.739029
919.150964,0.000000,-888.247130,10066.800811
919.151280,0.000000,-888.247130,10288.862594
919.151595,76.609550,-740.205942,10288.862594
919.151911,459.657299,-666.185348,9696.697840
919.152227,229.828649,-444.123565,9696.697840
919.152543,536.266849,-74.020594,9474.636058
919.152859,612.876398,148.041188,9400.615463
919.153174,842.705048,-0.000000,9474.636058
919.153490,1072.533697,-0.000000,9030.512492
919.153806,1072.533697,-74.020594,9178.553681
919.154122,995.924147,-222.061783,9178.553681
919.154437,766.095498,-592.164754,9474.636058
919.154753,995.924147,-1184.329507,9622.677246
919.155069,612.876398,-666.185348,9622.677246
919.155385,536.266849,-370.102971,9474.636058
919.155701,536.266849,-148.041188,9474.636058
919.156016,689.485948,-0.000000,9400.615463
919.156332,689.485948,-74.020594,9178.553681
919.156648,306.438199,296.082377,9326.594869
919.156964,153.219100,222.061783,9030.512492
919.157279,0.000000,-0.000000,9252.574275
919.157595,0.000000,-222.061783,9400.615463
919.157911,229.828649,-666.185348,9844.739029
919.158227,0.000000,-592.164754,9474.636058
919.158542,-459.657299,-814.226536,9474.636058
919.158858,0.000000,-370.102971,9622.677246
919.159174,-229.828649,-296.082377,9548.656652
919.159490,0.000000,-518.144159,9622.677246
919.159806,306.438199,148.041188,9474.636058
919.160121,459.657299,296.082377,9252.574275
919.160437,536.266849,444.123565,9030.512492
919.160753,612.876398,444.123565,9104.533087
919.161069,842.705048,148.041188,9030.512492
919.161384,536.266849,-0.000000,9178.553681
919.161700,766.095498,-296.082377,9252.574275
919.162016,842.705048,-296.082377,9548.656652
919.162332,612.876398,-222.061783,9696.697840
919.162648,919.314598,-222.061783,9474.636058
919.162963,689.485948,-0.000000,9770.718434
919.163279,612.876398,-0.000000,9548.656652
919.163595,153.219100,-0.000000,9622.677246
919.163911,612.876398,-148.041188,9474.636058
919.164226,306.438199,-296.082377,9844.739029
919.164542,153.219100,-666.185348,9696.697840
919.164858,76.609550,-222.061783,9770.718434
919.165174,76.609550,-666.185348,9992.780217
919.165490,306.438199,-666.185348,9696.697840
919.165805,153.219100,-592.164754,9770.718434
919.166121,383.047749,-518.144159,9770.718434
919.166437,766.095498,-296.082377,9696.697840
919.166753,536.266849,-222.061783,9474.636058
919.167068,919.314598,-0.000000,9474.636058
919.167384,1149.143247,-74.020594,9474.636058
919.167700,1225.752797,-0.000000,9252.574275
919.168016,689.485948,-222.061783,9474.636058
919.168332,689.485948,-296.082377,9474.636058
919.168647,459.657299,-592.164754,9252.574275
919.168963,995.924147,-518.144159,9326.594869
919.169279,612.876398,-444.123565,9548.656652
919.169595,612.876398,-444.123565,9400.615463
919.169910,229.828649,-74.020594,9326.594869
919.170226,689.485948,-0.000000,9400.615463
919.170542,383.047749,148.041188,9252.574275
919.170858,76.609550,296.082377,9400.615463
919.171174,76.609550,296.082377,9104.533087
919.171489,-229.828649,-0.000000,9252.574275
919.171805,0.000000,-148.041188,9474.636058
919.172121,0.000000,-444.123565,9474.636058
919.172437,-459.657299,-592.164754,9474.636058
919.172752,-153.219100,-444.123565,9474.636058
919.173068,0.000000,-370.102971,9622.677246
919.173384,-76.609550,-74.020594,9474.636058
919.173700,76.609550,-222.061783,9548.656652
919.174016,229.828649,-296.082377,9400.615463
919.174331,306.438199,222.061783,9252.574275
919.174647,766.095498,296.082377,9104.533087
919.174963,1072.533697,-222.061783,9178.553681
919.175279,766.095498,-370.102971,9178.553681
919.175594,1302.362347,-222.061783,8808.450710
919.175910,842.705048,-222.061783,9326.594869
919.176226,766.095498,-370.102971,9622.677246
919.176542,689.485948,-0.000000,9548.656652
919.176857,766.095498,-0.000000,9474.636058
919.177173,766.095498,-0.000000,9326.594869
919.177489,689.485948,-0.000000,9548.656652
919.177805,612.876398,-0.000000,9400.615463
919.178121,689.485948,-222.061783,9696.697840
919.178436,229.828649,-444.123565,9548.656652
919.178752,76.609550,-666.185348,9844.739029
919.179068,0.000000,-814.226536,10140.821405
919.179384,0.000000,-888.247130,9918.759623
919.179699,-153.219100,-814.226536,10066.800811
919.180015,76.609550,-666.185348,10066.800811
919.180331,383.047749,-444.123565,9844.739029
919.180647,459.657299,-74.020594,9622.677246
919.180963,919.314598,-0.000000,9474.636058
919.181278,919.314598,296.082377,9474.636058
919.181594,1149.143247,296.082377,9178.553681
919.181910,842.705048,148.041188,9178.553681
919.182226,842.705048,-222.061783,9252.574275
919.182541,766.095498,-296.082377,9252.574275
919.182857,766.095498,-370.102971,9696.697840
919.183173,536.266849,-666.185348,9622.677246
919.183489,229.828649,-814.226536,9548.656652
919.183805,459.657299,-444.123565,9474.636058
919.184120,536.266849,-0.000000,9622.677246
919.184436,229.828649,-222.061783,9548.656652
919.184752,153.219100,222.061783,9400.615463
919.185068,76.609550,444.123565,9326.594869
919.185383,153.219100,370.102971,9104.533087
919.185699,-459.657299,-0.000000,9252.574275
919.186015,0.000000,-370.102971,9030.512492
919.186331,-306.438199,-296.082377,9474.636058
919.186647,0.000000,-592.164754,9548.656652
919.186962,-229.828649,-370.102971,9474.636058
919.187278,-306.438199,-222.061783,9622.677246
919.187594,76.609550,-222.061783,9548.656652
919.187910,153.219100,-0.000000,9326.594869
919.188225,459.657299,296.082377,9252.574275
919.188541,536.266849,296.082377,9030.512492
919.188857,689.485948,444.123565,9104.533087
919.189173,842.705048,444.123565,9252.574275
919.189489,919.314598,-0.000000,8882.471304
