#time,accel_x,accel_y,accel_z
1097.148529,612.876398,-148.041188,9474.636058
1097.148845,459.657299,-148.041188,9474.636058
1097.149161,612.876398,-296.082377,9400.615463
1097.149477,766.095498,-592.164754,9548.656652
1097.149793,383.047749,-296.082377,9252.574275
1097.150109,306.438199,-0.000000,9548.656652
1097.150425,842.705048,-0.000000,9474.636058
1097.150741,383.047749,-222.061783,9474.636058
1097.151057,383.047749,-0.000000,9474.636058
1097.151372,459.657299,-148.041188,9474.636058
1097.151688,383.047749,-148.041188,9548.656652
1097.152004,536.266849,-222.061783,9474.636058
1097.152320,766.095498,-370.102971,9474.636058
1097.152636,383.047749,-222.061783,9400.615463
1097.152952,383.047749,-148.041188,9474.636058
1097.153268,383.047749,-0.000000,9474.636058
1097.153584,153.219100,-0.000000,9696.697840
1097.153900,689.485948,-148.041188,9474.636058
1097.154216,536.266849,-0.000000,9474.636058
1097.154532,76.609550,-0.000000,9326.594869
1097.154848,229.828649,296.082377,9400.615463
1097.155163,229.828649,222.061783,9548.656652
1097.155479,842.705048,222.061783,9252.574275
1097.155795,536.266849,444.123565,9178.553681
1097.156111,536.266849,370.102971,9104.533087
1097.156427,306.438199,296.082377,9178.553681
1097.156743,995.924147,-0.000000,9326.594869
1097.157059,689.485948,222.061783,9696.697840
1097.157375,383.047749,-0.000000,9474.636058
1097.157691,306.438199,296.082377,9622.677246
1097.158007,306.438199,592.164754,9548.656652
1097.158323,383.047749,740.205942,9474.636058
1097.158639,536.266849,1036.288319,9400.615463
1097.158954,459.657299,962.267725,9326.594869
1097.159270,383.047749,1036.288319,9400.615463
1097.159586,229.828649,1036.288319,9474.636058
1097.159902,383.047749,888.247130,9400.615463
1097.160218,383.047749,888.247130,9178.553681
1097.160534,-612.876398,740.205942,9400.615463
1097.160850,0.000000,888.247130,9252.574275
1097.161166,-383.047749,962.267725,9474.636058
1097.161482,-459.657299,1258.350101,9252.574275
1097.161798,-842.705048,1554.432478,9548.656652
1097.162114,-995.924147,1406.391290,9400.615463
1097.162430,-1072.533697,1554.432478,9252.574275
1097.162746,-1378.971896,1258.350101,9474.636058
1097.163061,-1685.410096,1406.391290,9622.677246
1097.163377,-1915.238745,1406.391290,10140.821405
1097.163693,-1685.410096,1406.391290,9696.697840
1097.164009,-2068.457845,1406.391290,9770.718434
1097.164325,-2145.067394,1480.411884,9548.656652
1097.164641,-2145.067394,1480.411884,9992.780217
1097.164957,-1762.019645,1850.514855,9696.697840
1097.165273,-1762.019645,1924.535449,9548.656652
1097.165589,-1762.019645,1776.494261,9252.574275
1097.165905,-1378.971896,1702.473667,9474.636058
1097.166221,-1455.581446,1776.494261,9548.656652
1097.166537,-1455.581446,1776.494261,9474.636058
1097.166852,-1225.752797,2072.576638,9548.656652
1097.167168,-1149.143247,1702.473667,9696.697840
1097.167484,-1225.752797,1924.535449,9474.636058
1097.167800,-1072.533697,1924.535449,9548.656652
1097.168116,-1302.362347,2220.617826,9326.594869
1097.168432,-1225.752797,2294.638420,9622.677246
1097.168748,-1225.752797,2220.617826,9400.615463
1097.169064,-1685.410096,2368.659014,9326.594869
1097.169380,-1762.019645,1702.473667,9770.718434
1097.169696,-1532.190996,1924.535449,9548.656652
1097.170012,-2068.457845,1258.350101,9844.739029
1097.170328,-2298.286494,1110.308913,9770.718434
1097.170643,-1991.848295,962.267725,9992.780217
1097.170959,-2298.286494,1184.329507,9770.718434
1097.171275,-1838.629195,1258.350101,9696.697840
1097.171591,-1991.848295,1406.391290,9622.677246
1097.171907,-2068.457845,1332.370696,9844.739029
1097.172223,-2221.676944,1184.329507,9622.677246
1097.172539,-1838.629195,1332.370696,9474.636058
1097.172855,-1608.800546,1702.473667,9474.636058
1097.173171,-1685.410096,1554.432478,9400.615463
1097.173487,-1762.019645,1776.494261,9178.553681
1097.173803,-1991.848295,1998.556043,9178.553681
1097.174119,-1991.848295,2146.597232,8660.409521
1097.174435,-2298.286494,2146.597232,8956.491898
1097.174750,-2451.505594,2146.597232,9104.533087
1097.175066,-2987.772442,2220.617826,9326.594869
1097.175382,-2911.162892,1702.473667,9622.677246
1097.175698,-3294.210641,888.247130,9696.697840
1097.176014,-2834.553343,592.164754,10214.842000
1097.176330,-2451.505594,-0.000000,10214.842000
1097.176646,-2374.896044,222.061783,10362.883188
1097.176962,-1991.848295,296.082377,9992.780217
1097.177278,-1532.190996,740.205942,10066.800811
1097.177594,-842.705048,1406.391290,9400.615463
1097.177910,0.000000,2220.617826,8808.450710
1097.178226,153.219100,2738.761985,8586.388927
1097.178541,766.095498,3182.885551,8290.306550
1097.178857,536.266849,3256.906145,7994.224174
1097.179173,383.047749,2886.803174,7772.162391
1097.179489,0.000000,2886.803174,7994.224174
1097.179805,-689.485948,2960.823768,8068.244768
1097.180121,-1532.190996,2442.679609,8660.409521
1097.180437,-2604.724693,1628.453072,9326.594869
1097.180753,-3064.381992,1258.350101,9992.780217
1097.181069,-4060.306139,1110.308913,10510.924376
1097.181385,-3983.696590,666.185348,10732.986159
1097.181701,-4060.306139,148.041188,11103.089130
1097.182017,-3600.648841,-0.000000,11177.109724
1097.182332,-2604.724693,148.041188,11103.089130
1097.182648,-2221.676944,370.102971,10584.944971
1097.182964,-1532.190996,444.123565,9918.759623
1097.183280,76.609550,1554.432478,9548.656652
1097.183596,612.876398,2516.700203,8734.430116
1097.183912,842.705048,3034.844362,8142.265362
1097.184228,1225.752797,3997.112087,7550.100608
1097.184544,1302.362347,4811.338623,7254.018232
1097.184860,383.047749,4737.318029,7179.997637
1097.185176,-383.047749,4441.235652,7402.059420
1097.185492,-1532.190996,3701.029710,8142.265362
1097.185808,-2757.943793,2368.659014,9474.636058
1097.186124,-3677.258390,1258.350101,10436.903782
1097.186439,-4826.401637,-222.061783,11843.295072
1097.186755,-5286.058936,-1036.288319,12065.356855
1097.187071,-5209.449386,-1850.514855,12731.542202
1097.187387,-5209.449386,-1776.494261,13027.624579
1097.187703,-4443.353888,-1036.288319,12361.439231
1097.188019,-3064.381992,-0.000000,11399.171507
1097.188335,-1455.581446,1850.514855,10066.800811
1097.188651,229.828649,2812.782580,7846.182985
1097.188967,842.705048,4663.297435,7031.956449
1097.189283,1532.190996,5403.503377,6291.750507
1097.189599,1838.629195,5773.606348,6217.729913
1097.189915,1532.190996,5625.565159,6291.750507
1097.190230,459.657299,4293.194464,7179.997637
1097.190546,-689.485948,2960.823768,8290.306550
1097.190862,-2298.286494,1480.411884,9696.697840
1097.191178,-3294.210641,-0.000000,11103.089130
1097.191494,-4519.963438,-1258.350101,11991.336260
1097.191810,-4519.963438,-1702.473667,12509.480420
1097.192126,-4673.182538,-814.226536,12361.439231
1097.192442,-4443.353888,-0.000000,11695.253884
1097.192758,-3753.867940,888.247130,10807.006753
1097.193074,-2604.724693,1924.535449,9918.759623
1097.193390,-1455.581446,3256.906145,9104.533087
1097.193706,-612.876398,3923.091493,8068.244768
1097.194021,153.219100,3775.050304,7402.059420
1097.194337,536.266849,3404.947333,7328.038826
1097.194653,536.266849,2368.659014,7994.224174
1097.194969,1455.581446,2072.576638,8586.388927
1097.195285,689.485948,1554.432478,8364.327145
1097.195601,-153.219100,1702.473667,9030.512492
1097.195917,-995.924147,1332.370696,9474.636058
1097.196233,-842.705048,962.267725,10140.821405
1097.196549,-1838.629195,1258.350101,10066.800811
1097.196865,-2604.724693,1406.391290,9992.780217
1097.197181,-3140.991542,592.164754,9918.759623
1097.197497,-2987.772442,-0.000000,9918.759623
1097.197812,-2604.724693,-148.041188,9992.780217
1097.198128,-2451.505594,370.102971,9474.636058
1097.198444,-2374.896044,1258.350101,9104.533087
1097.198760,-2374.896044,1850.514855,8660.409521
1097.199076,-1991.848295,1702.473667,9030.512492
1097.199392,-1915.238745,1628.453072,8956.491898
1097.199708,-2451.505594,1554.432478,9770.718434
1097.200024,-2451.505594,1332.370696,10214.842000
1097.200340,-2068.457845,592.164754,9992.780217
1097.200656,-1915.238745,148.041188,9992.780217
1097.200972,-1762.019645,222.061783,9992.780217
1097.201288,-1302.362347,-0.000000,9918.759623
1097.201604,-842.705048,148.041188,9400.615463
1097.201919,-689.485948,888.247130,9030.512492
1097.202235,-612.876398,888.247130,9326.594869
1097.202551,-153.219100,1110.308913,9474.636058
1097.202867,229.828649,1776.494261,9104.533087
1097.203183,153.219100,2368.659014,8882.471304
1097.203499,229.828649,2442.679609,8512.368333
1097.203815,0.000000,2146.597232,8364.327145
1097.204131,-153.219100,2442.679609,8216.285956
1097.204447,-689.485948,1406.391290,9400.615463
1097.204763,-1838.629195,444.123565,9992.780217
1097.205079,-2145.067394,-444.123565,10955.047942
1097.205395,-2298.286494,-1036.288319,11621.233289
1097.205710,-2374.896044,-1332.370696,11473.192101
1097.206026,-1762.019645,-888.247130,11177.109724
1097.206342,-1072.533697,-1110.308913,10288.862594
1097.206658,153.219100,-370.102971,9548.656652
1097.206974,1225.752797,-74.020594,9474.636058
1097.207290,2068.457845,814.226536,8882.471304
1097.207606,2757.943793,1184.329507,7920.203579
1097.207922,3217.601092,1628.453072,8142.265362
1097.208238,3294.210641,1998.556043,7550.100608
1097.208554,2451.505594,2368.659014,7550.100608
1097.208869,1915.238745,2368.659014,7476.080014
1097.209185,842.705048,1628.453072,8290.306550
1097.209501,-612.876398,814.226536,9030.512492
1097.209817,-1532.190996,-0.000000,9992.780217
1097.210133,-1991.848295,-814.226536,11029.068536
1097.210449,-2451.505594,-1332.370696,10732.986159
1097.210765,-3064.381992,-1998.556043,10881.027347
1097.211081,-2987.772442,-2960.823768,11547.212695
1097.211397,-2911.162892,-2738.761985,11621.233289
1097.211712,-2221.676944,-2368.659014,10955.047942
1097.212028,-1302.362347,-1554.432478,10510.924376
1097.212344,153.219100,-222.061783,9548.656652
1097.212660,1072.533697,592.164754,8734.430116
1097.212976,2221.676944,1998.556043,7179.997637
1097.213292,3064.381992,1924.535449,7105.977043
1097.213608,3140.991542,1998.556043,7328.038826
1097.213924,2757.943793,1480.411884,7698.141797
1097.214240,2604.724693,888.247130,8290.306550
1097.214556,2374.896044,518.144159,8808.450710
1097.214871,1378.971896,-222.061783,9030.512492
1097.215187,842.705048,-370.102971,9400.615463
1097.215503,383.047749,-1036.288319,10066.800811
1097.215819,-612.876398,-1850.514855,10807.006753
1097.216135,-766.095498,-1776.494261,11029.068536
1097.216451,-612.876398,-1702.473667,11029.068536
1097.216767,-459.657299,-1406.391290,10288.862594
1097.217083,0.000000,-740.205942,10066.800811
1097.217399,766.095498,-148.041188,9622.677246
1097.217714,995.924147,296.082377,9030.512492
1097.218030,1149.143247,1036.288319,9252.574275
1097.218346,1302.362347,1480.411884,8142.265362
1097.218662,1608.800546,1332.370696,8068.244768
1097.218978,1378.971896,1110.308913,8956.491898
1097.219294,1225.752797,296.082377,9104.533087
1097.219610,1378.971896,-222.061783,9400.615463
1097.219926,1072.533697,-740.205942,10436.903782
1097.220242,689.485948,-888.247130,10584.944971
1097.220558,842.705048,-518.144159,10066.800811
1097.220873,459.657299,-666.185348,9992.780217
1097.221189,459.657299,-296.082377,9844.739029
1097.221505,536.266849,-0.000000,9326.594869
1097.221821,842.705048,-148.041188,8956.491898
1097.222137,459.657299,296.082377,9326.594869
1097.222453,0.000000,740.205942,8956.491898
1097.222769,-383.047749,1036.288319,9030.512492
1097.223085,-536.266849,740.205942,9474.636058
1097.223401,-766.095498,814.226536,9252.574275
1097.223716,-1225.752797,370.102971,9252.574275
1097.224032,-1762.019645,-592.164754,9622.677246
1097.224348,-1532.190996,-1628.453072,10214.842000
1097.224664,-1685.410096,-2072.576638,10807.006753
1097.224980,-1225.752797,-2220.617826,10881.027347
1097.225296,-995.924147,-2442.679609,11695.253884
1097.225612,-383.047749,-1702.473667,10510.924376
1097.225928,383.047749,-444.123565,9844.739029
1097.226244,1225.752797,-0.000000,9030.512492
1097.226560,2298.286494,1110.308913,7994.224174
1097.226875,2528.115143,1406.391290,7328.038826
1097.227191,3140.991542,2072.576638,7698.141797
1097.227507,3064.381992,1332.370696,7772.162391
1097.227823,2451.505594,1628.453072,7772.162391
1097.228139,1838.629195,1480.411884,8290.306550
1097.228455,1302.362347,444.123565,8882.471304
1097.228771,306.438199,370.102971,9622.677246
1097.229087,-459.657299,296.082377,9696.697840
1097.229403,-1072.533697,-666.185348,10362.883188
1097.229719,-995.924147,-1184.329507,11399.171507
1097.230034,-1072.533697,-1184.329507,11103.089130
1097.230350,-689.485948,-592.164754,10288.862594
1097.230666,-306.438199,-1406.391290,10214.842000
1097.230982,76.609550,-1036.288319,10214.842000
1097.231298,689.485948,-74.020594,9474.636058
1097.231614,1378.971896,962.267725,8586.388927
1097.231930,1915.238745,814.226536,8882.471304
1097.232246,1455.581446,2442.679609,8364.327145
1097.232562,2145.067394,2812.782580,7179.997637
1097.232877,2451.505594,1184.329507,7624.121203
1097.233193,1072.533697,2294.638420,8438.347739
1097.233509,0.000000,1110.308913,8216.285956
1097.233825,229.828649,-962.267725,10214.842000
1097.234141,-459.657299,-1110.308913,10510.924376
1097.234457,-1838.629195,-1850.514855,11547.212695
1097.234773,-1532.190996,-2220.617826,11103.089130
1097.235089,-1685.410096,-2442.679609,10881.027347
1097.235405,-1915.238745,-2072.576638,11251.130318
1097.235721,-1685.410096,-666.185348,10510.924376
1097.236036,-766.095498,-1036.288319,10510.924376
1097.236352,383.047749,-148.041188,9548.656652
1097.236668,459.657299,592.164754,9030.512492
1097.236984,1072.533697,444.123565,8438.347739
1097.237300,1762.019645,-0.000000,8734.430116
1097.237616,1072.533697,518.144159,8216.285956
1097.237932,1225.752797,222.061783,9030.512492
1097.238248,1608.800546,-370.102971,9474.636058
1097.238564,1072.533697,-1258.350101,9696.697840
1097.238879,766.095498,-814.226536,10288.862594
1097.239195,919.314598,-1702.473667,10066.800811
1097.239511,459.657299,-1554.432478,10362.883188
1097.239827,612.876398,-1110.308913,9844.739029
1097.240143,612.876398,-1036.288319,9474.636058
1097.240459,1302.362347,-1554.432478,9992.780217
1097.240775,1225.752797,-666.185348,9622.677246
1097.241091,919.314598,-0.000000,8438.347739
1097.241407,1149.143247,-0.000000,8216.285956
1097.241723,1225.752797,-740.205942,8808.450710
1097.242038,612.876398,370.102971,8512.368333
1097.242354,229.828649,222.061783,8956.491898
1097.242670,229.828649,-592.164754,9474.636058
1097.242986,-306.438199,-296.082377,9844.739029
1097.243302,0.000000,-592.164754,9474.636058
1097.243618,0.000000,-1554.432478,9252.574275
1097.243934,76.609550,-1406.391290,10066.800811
1097.244250,153.219100,-1184.329507,9918.759623
1097.244566,842.705048,-666.185348,9178.553681
1097.244881,689.485948,-962.267725,9474.636058
1097.245197,612.876398,-444.123565,9474.636058
1097.245513,919.314598,518.144159,9030.512492
1097.245829,1378.971896,814.226536,7772.162391
1097.246145,1225.752797,1036.288319,8364.327145
1097.246461,1302.362347,296.082377,8660.409521
1097.246777,689.485948,222.061783,8660.409521
1097.247093,383.047749,-370.102971,9992.780217
1097.247409,-153.219100,-666.185348,9474.636058
1097.247725,0.000000,-814.226536,9770.718434
1097.248040,0.000000,-1036.288319,9622.677246
1097.248356,-689.485948,-962.267725,10584.944971
1097.248672,-383.047749,-296.082377,9844.739029
1097.248988,0.000000,-740.205942,9992.780217
1097.249304,536.266849,-592.164754,9918.759623
1097.249620,383.047749,-0.000000,9548.656652
1097.249936,842.705048,-0.000000,8660.409521
1097.250252,1378.971896,-0.000000,8586.388927
1097.250568,1685.410096,296.082377,9178.553681
1097.250884,1608.800546,1184.329507,8734.430116
1097.251199,1149.143247,1184.329507,8734.430116
1097.251515,842.705048,1184.329507,9104.533087
1097.251831,459.657299,1184.329507,9622.677246
1097.252147,153.219100,814.226536,9474.636058
1097.252463,153.219100,-0.000000,10066.800811
1097.252779,-919.314598,148.041188,10214.842000
1097.253095,-612.876398,296.082377,10658.965565
1097.253411,-612.876398,-0.000000,10436.903782
1097.253727,-229.828649,-74.020594,10510.924376
1097.254042,-459.657299,296.082377,10140.821405
1097.254358,-153.219100,296.082377,9474.636058
1097.254674,0.000000,-0.000000,9918.759623
1097.254990,229.828649,592.164754,9548.656652
1097.255306,842.705048,1554.432478,9622.677246
1097.255622,383.047749,1036.288319,9548.656652
1097.255938,383.047749,666.185348,9918.759623
1097.256254,689.485948,1110.308913,9252.574275
1097.256570,919.314598,666.185348,9178.553681
1097.256886,536.266849,-148.041188,9474.636058
1097.257201,0.000000,-296.082377,9844.739029
1097.257517,-229.828649,-518.144159,9992.780217
1097.257833,0.000000,-962.267725,10288.862594
1097.258149,-766.095498,-1184.329507,10584.944971
1097.258465,-689.485948,-296.082377,9474.636058
1097.258781,0.000000,-1110.308913,9770.718434
1097.259097,76.609550,-1258.350101,9992.780217
1097.259413,0.000000,-1184.329507,9548.656652
1097.259729,76.609550,-592.164754,9252.574275
1097.260044,536.266849,-1258.350101,9992.780217
1097.260360,612.876398,-962.267725,9770.718434
1097.260676,842.705048,-518.144159,9030.512492
1097.260992,919.314598,-666.185348,8808.450710
1097.261308,766.095498,-1184.329507,9474.636058
1097.261624,995.924147,-370.102971,9252.574275
1097.261940,1072.533697,-148.041188,8882.471304
1097.262256,1072.533697,-518.144159,9104.533087
1097.262572,842.705048,-666.185348,9178.553681
1097.262888,612.876398,-592.164754,8660.409521
1097.263203,919.314598,-1184.329507,9030.512492
1097.263519,612.876398,-1702.473667,9474.636058
1097.263835,536.266849,-814.226536,9252.574275
1097.264151,459.657299,-1184.329507,9400.615463
1097.264467,536.266849,-1258.350101,9918.759623
1097.264783,153.219100,-740.205942,9770.718434
1097.265099,383.047749,-74.020594,8808.450710
1097.265415,689.485948,-296.082377,8734.430116
1097.265731,153.219100,-444.123565,8956.491898
1097.266046,76.609550,-296.082377,9252.574275
1097.266362,842.705048,-592.164754,9104.533087
1097.266678,842.705048,-666.185348,9252.574275
1097.266994,766.095498,-370.102971,9178.553681
1097.267310,842.705048,-296.082377,8586.388927
1097.267626,995.924147,-592.164754,8660.409521
1097.267942,842.705048,-962.267725,9326.594869
1097.268258,842.705048,-0.000000,9474.636058
1097.268574,1072.533697,-296.082377,9326.594869
1097.268890,766.095498,-444.123565,9474.636058
1097.269205,995.924147,-962.267725,9696.697840
1097.269521,919.314598,-518.144159,9178.553681
1097.269837,919.314598,-518.144159,9474.636058
1097.270153,459.657299,-74.020594,9474.636058
1097.270469,842.705048,444.123565,9104.533087
1097.270785,306.438199,-74.020594,9622.677246
1097.271101,306.438199,-222.061783,9696.697840
1097.271417,76.609550,296.082377,9918.759623
1097.271733,383.047749,-74.020594,9622.677246
1097.272048,0.000000,-0.000000,9770.718434
1097.272364,536.266849,-0.000000,10436.903782
1097.272680,0.000000,222.061783,9992.780217
1097.272996,383.047749,-0.000000,9918.759623
1097.273312,612.876398,444.123565,10288.862594
1097.273628,919.314598,666.185348,10140.821405
1097.273944,1072.533697,962.267725,9178.553681
1097.274260,842.705048,666.185348,9548.656652
1097.274576,306.438199,962.267725,9474.636058
1097.274892,-153.219100,1258.350101,9696.697840
1097.275207,-383.047749,740.205942,9622.677246
1097.275523,-995.924147,814.226536,10140.821405
1097.275839,-766.095498,1258.350101,9696.697840
1097.276155,-1072.533697,888.247130,9474.636058
1097.276471,-842.705048,222.061783,10140.821405
1097.276787,-995.924147,296.082377,10362.883188
1097.277103,-1532.190996,222.061783,10362.883188
1097.277419,-1149.143247,-666.185348,10214.842000
1097.277735,-919.314598,-666.185348,11177.109724
1097.278051,-689.485948,-74.020594,10362.883188
1097.278366,76.609550,444.123565,9548.656652
1097.278682,306.438199,222.061783,9252.574275
1097.278998,612.876398,888.247130,9326.594869
1097.279314,689.485948,740.205942,8734.430116
1097.279630,1072.533697,518.144159,9104.533087
1097.279946,842.705048,518.144159,8808.450710
1097.280262,1149.143247,740.205942,8734.430116
1097.280578,1225.752797,-0.000000,8808.450710
1097.280894,995.924147,-296.082377,9178.553681
1097.281209,766.095498,-444.123565,9474.636058
1097.281525,842.705048,-444.123565,9178.553681
1097.281841,383.047749,-1184.329507,9918.759623
1097.282157,459.657299,-1036.288319,9622.677246
1097.282473,612.876398,-1036.288319,9696.697840
1097.282789,766.095498,-962.267725,8512.368333
1097.283105,842.705048,-814.226536,9326.594869
1097.283421,536.266849,-518.144159,9030.512492
1097.283737,459.657299,-592.164754,8734.430116
1097.284053,842.705048,-444.123565,9252.574275
1097.284368,612.876398,-444.123565,8956.491898
1097.284684,306.438199,-296.082377,8660.409521
1097.285000,919.314598,-592.164754,8290.306550
1097.285316,1072.533697,-814.226536,8808.450710
1097.285632,536.266849,-444.123565,9178.553681
1097.285948,612.876398,-814.226536,9844.739029
1097.286264,919.314598,-740.205942,8808.450710
1097.286580,459.657299,-222.061783,9696.697840
1097.286896,459.657299,-74.020594,9696.697840
1097.287211,612.876398,-370.102971,9030.512492
1097.287527,536.266849,-962.267725,9474.636058
1097.287843,229.828649,-518.144159,9548.656652
1097.288159,306.438199,-666.185348,10066.800811
1097.288475,153.219100,-888.247130,9992.780217
1097.288791,0.000000,-0.000000,9844.739029
1097.289107,153.219100,-74.020594,9252.574275
1097.289423,459.657299,-0.000000,8882.471304
1097.289739,229.828649,-0.000000,9474.636058
1097.290055,459.657299,-666.185348,9474.636058
1097.290370,612.876398,-1332.370696,10066.800811
1097.290686,306.438199,-1258.350101,9770.718434
1097.291002,306.438199,-814.226536,9918.759623
1097.291318,842.705048,-740.205942,9696.697840
1097.291634,919.314598,-444.123565,9696.697840
1097.291950,689.485948,-222.061783,9696.697840
1097.292266,689.485948,-0.000000,9252.574275
1097.292582,1532.190996,-592.164754,9696.697840
1097.292898,459.657299,-1110.308913,9992.780217
1097.293213,689.485948,-370.102971,9622.677246
1097.293529,1225.752797,-222.061783,9104.533087
1097.293845,842.705048,-296.082377,9252.574275
1097.294161,306.438199,-0.000000,9696.697840
1097.294477,153.219100,222.061783,9696.697840
1097.294793,306.438199,-592.164754,10288.862594
1097.295109,-153.219100,-444.123565,10510.924376
1097.295425,-919.314598,444.123565,9770.718434
1097.295741,383.047749,-222.061783,9474.636058
1097.296057,459.657299,-0.000000,9178.553681
1097.296372,0.000000,518.144159,9548.656652
1097.296688,383.047749,-0.000000,9030.512492
1097.297004,153.219100,222.061783,8956.491898
1097.297320,-229.828649,444.123565,9474.636058
1097.297636,0.000000,740.205942,9030.512492
1097.297952,0.000000,370.102971,8956.491898
1097.298268,-536.266849,-0.000000,9326.594869
1097.298584,-612.876398,-0.000000,9696.697840
1097.298900,-842.705048,-222.061783,9548.656652
1097.299215,-1225.752797,-444.123565,9844.739029
1097.299531,-766.095498,-0.000000,9844.739029
1097.299847,-536.266849,-0.000000,9622.677246
1097.300163,-153.219100,-0.000000,9178.553681
1097.300479,-383.047749,-444.123565,9104.533087
1097.300795,-459.657299,-222.061783,9474.636058
1097.301111,0.000000,-592.164754,9548.656652
1097.301427,689.485948,-518.144159,9400.615463
1097.301743,536.266849,-74.020594,9992.780217
1097.302059,612.876398,-0.000000,9030.512492
1097.302374,1378.971896,222.061783,8512.368333
1097.302690,1149.143247,-74.020594,8660.409521
1097.303006,1225.752797,-296.082377,8956.491898
1097.303322,1225.752797,-444.123565,9548.656652
1097.303638,1608.800546,-148.041188,9622.677246
1097.303954,1072.533697,-0.000000,9770.718434
1097.304270,1302.362347,-370.102971,9548.656652
1097.304586,1455.581446,-0.000000,8956.491898
1097.304902,1225.752797,-0.000000,9030.512492
1097.305218,766.095498,-0.000000,9400.615463
1097.305533,1302.362347,-222.061783,9622.677246
1097.305849,1225.752797,-444.123565,9844.739029
1097.306165,766.095498,-0.000000,9622.677246
1097.306481,842.705048,222.061783,9104.533087
1097.306797,1149.143247,-0.000000,9178.553681
1097.307113,612.876398,148.041188,9696.697840
1097.307429,536.266849,-0.000000,9696.697840
1097.307745,689.485948,-0.000000,9770.718434
1097.308060,919.314598,-666.185348,10362.883188
1097.308376,153.219100,-592.164754,10214.842000
1097.308692,612.876398,-74.020594,9252.574275
1097.309008,1302.362347,-740.205942,9104.533087
1097.309324,842.705048,148.041188,9696.697840
1097.309640,612.876398,740.205942,9474.636058
1097.309956,842.705048,-0.000000,9474.636058
1097.310271,1072.533697,-0.000000,9400.615463
1097.310587,153.219100,518.144159,9400.615463
1097.310903,536.266849,-0.000000,8882.471304
1097.311219,536.266849,-1036.288319,9474.636058
1097.311535,-306.438199,-1332.370696,10214.842000
1097.311851,-306.438199,-666.185348,9844.739029
1097.312167,-306.438199,-1332.370696,9696.697840
1097.312482,-459.657299,-1480.411884,10658.965565
1097.312798,-536.266849,-888.247130,10362.883188
1097.313114,383.047749,-666.185348,9400.615463
1097.313430,459.657299,-518.144159,9326.594869
1097.313746,306.438199,-666.185348,9400.615463
1097.314062,536.266849,-296.082377,9252.574275
1097.314378,1072.533697,-74.020594,9030.512492
1097.314693,919.314598,-0.000000,9104.533087
1097.315009,842.705048,-0.000000,9400.615463
1097.315325,1302.362347,-222.061783,9252.574275
1097.315641,1072.533697,-74.020594,9178.553681
1097.315957,536.266849,-370.102971,9104.533087
1097.316273,383.047749,-518.144159,9326.594869
1097.316589,766.095498,-962.267725,9770.718434
1097.316904,459.657299,-0.000000,9622.677246
1097.317220,153.219100,-0.000000,9474.636058
1097.317536,0.000000,-296.082377,9030.512492
1097.317852,153.219100,-370.102971,9474.636058
1097.318168,-153.219100,74.020594,9104.533087
1097.318484,0.000000,296.082377,9548.656652
1097.318800,229.828649,-222.061783,9622.677246
1097.319115,0.000000,-0.000000,9548.656652
1097.319431,-153.219100,444.123565,8956.491898
1097.319747,0.000000,666.185348,8808.450710
1097.320063,153.219100,296.082377,9178.553681
1097.320379,0.000000,444.123565,8882.471304
1097.320695,0.000000,370.102971,9400.615463
1097.321010,153.219100,-444.123565,9918.759623
1097.321326,-153.219100,-444.123565,9548.656652
1097.321642,-383.047749,-0.000000,9326.594869
1097.321958,306.438199,-370.102971,9030.512492
1097.322274,306.438199,-444.123565,9400.615463
1097.322590,0.000000,-0.000000,9400.615463
1097.322906,0.000000,-0.000000,9178.553681
1097.323221,229.828649,-370.102971,9400.615463
1097.323537,229.828649,-296.082377,9992.780217
1097.323853,459.657299,-0.000000,9400.615463
1097.324169,842.705048,-370.102971,8808.450710
1097.324485,536.266849,-518.144159,9474.636058
1097.324801,766.095498,-888.247130,9696.697840
1097.325117,459.657299,-1110.308913,10288.862594
1097.325432,229.828649,-962.267725,9770.718434
1097.325748,383.047749,-592.164754,9844.739029
1097.326064,919.314598,-0.000000,9696.697840
1097.326380,1685.410096,-222.061783,8882.471304
1097.326696,1378.971896,-0.000000,9474.636058
1097.327012,1302.362347,370.102971,8882.471304
1097.327328,1455.581446,-0.000000,9178.553681
1097.327643,1149.143247,-370.102971,9844.739029
1097.327959,842.705048,370.102971,9474.636058
1097.328275,1302.362347,518.144159,9400.615463
1097.328591,1225.752797,370.102971,9104.533087
1097.328907,766.095498,-296.082377,9770.718434
1097.329223,0.000000,-0.000000,9622.677246
1097.329539,459.657299,-592.164754,10510.924376
1097.329854,153.219100,-370.102971,10362.883188
1097.330170,153.219100,444.123565,10362.883188
1097.330486,0.000000,-74.020594,9326.594869
1097.330802,229.828649,-74.020594,9474.636058
1097.331118,76.609550,-0.000000,9474.636058
1097.331434,0.000000,-296.082377,9622.677246
1097.331750,536.266849,-0.000000,10066.800811
1097.332065,612.876398,-518.144159,9696.697840
1097.332381,766.095498,592.164754,9252.574275
1097.332697,383.047749,444.123565,8660.409521
1097.333013,766.095498,-148.041188,9104.533087
1097.333329,536.266849,296.082377,9400.615463
1097.333645,383.047749,-296.082377,9326.594869
1097.333961,306.438199,-148.041188,9844.739029
1097.334276,306.438199,-740.205942,10510.924376
1097.334592,153.219100,-370.102971,9696.697840
1097.334908,842.705048,-222.061783,9474.636058
1097.335224,459.657299,-740.205942,9104.533087
1097.335540,153.219100,-444.123565,9252.574275
1097.335856,306.438199,-296.082377,9178.553681
1097.336172,153.219100,-1110.308913,9474.636058
1097.336487,229.828649,-518.144159,9992.780217
1097.336803,-306.438199,-666.185348,9326.594869
1097.337119,229.828649,-592.164754,9400.615463
1097.337435,0.000000,-814.226536,9104.533087
1097.337751,0.000000,-592.164754,9548.656652
1097.338067,0.000000,-370.102971,9474.636058
1097.338383,0.000000,-888.247130,9696.697840
1097.338698,383.047749,-222.061783,9548.656652
1097.339014,0.000000,-222.061783,8660.409521
1097.339330,383.047749,-296.082377,8882.471304
1097.339646,306.438199,-814.226536,8882.471304
1097.339962,0.000000,-0.000000,9104.533087
1097.340278,0.000000,148.041188,9030.512492
1097.340594,306.438199,-0.000000,8956.491898
1097.340909,0.000000,740.205942,9030.512492
1097.341225,-229.828649,740.205942,8290.306550
1097.341541,76.609550,-148.041188,9178.553681
1097.341857,-229.828649,-518.144159,9992.780217
1097.342173,-536.266849,-74.020594,9770.718434
1097.342489,-536.266849,-370.102971,9400.615463
1097.342805,-306.438199,-444.123565,9992.780217
1097.343120,-459.657299,-518.144159,9844.739029
1097.343436,0.000000,148.041188,9918.759623
1097.343752,459.657299,-0.000000,9252.574275
1097.344068,612.876398,148.041188,9474.636058
1097.344384,766.095498,222.061783,8734.430116
1097.344700,919.314598,592.164754,9030.512492
1097.345016,995.924147,-0.000000,9622.677246
1097.345331,1378.971896,444.123565,9474.636058
1097.345647,1685.410096,666.185348,9252.574275
1097.345963,1302.362347,-222.061783,9104.533087
1097.346279,842.705048,-370.102971,9474.636058
1097.346595,306.438199,-296.082377,9992.780217
1097.346911,612.876398,-592.164754,10066.800811
1097.347227,919.314598,-1110.308913,11177.109724
1097.347542,76.609550,-1036.288319,10288.862594
1097.347858,689.485948,-148.041188,9918.759623
1097.348174,1225.752797,-1110.308913,9844.739029
1097.348490,536.266849,-666.185348,9622.677246
1097.348806,919.314598,592.164754,9918.759623
1097.349122,1225.752797,-296.082377,9696.697840
1097.349438,1762.019645,-370.102971,9548.656652
1097.349753,1455.581446,-148.041188,9474.636058
1097.350069,1149.143247,222.061783,8586.388927
1097.350385,1608.800546,-74.020594,8882.471304
1097.350701,919.314598,-0.000000,9474.636058
1097.351017,689.485948,-148.041188,9622.677246
1097.351333,689.485948,-444.123565,9992.780217
1097.351649,536.266849,-444.123565,10362.883188
1097.351964,-153.219100,-0.000000,9918.759623
1097.352280,229.828649,-592.164754,9474.636058
1097.352596,306.438199,-666.185348,9474.636058
1097.352912,536.266849,-666.185348,9844.739029
1097.353228,0.000000,-222.061783,9474.636058
1097.353544,153.219100,-0.000000,9548.656652
1097.353860,229.828649,-222.061783,9918.759623
1097.354175,459.657299,592.164754,9252.574275
1097.354491,536.266849,814.226536,8290.306550
1097.354807,459.657299,-0.000000,8882.471304
1097.355123,459.657299,-0.000000,9104.533087
1097.355439,383.047749,-148.041188,9178.553681
1097.355755,536.266849,-370.102971,9622.677246
1097.356070,383.047749,-814.226536,9696.697840
1097.356386,383.047749,-0.000000,9622.677246
1097.356702,459.657299,-0.000000,8882.471304
1097.357018,76.609550,-370.102971,9400.615463
1097.357334,306.438199,-370.102971,9622.677246
1097.357650,153.219100,-74.020594,8808.450710
1097.357966,842.705048,-444.123565,9474.636058
1097.358281,766.095498,-296.082377,9622.677246
1097.358597,1072.533697,-0.000000,8734.430116
1097.358913,1072.533697,444.123565,8586.388927
1097.359229,383.047749,296.082377,8808.450710
1097.359545,383.047749,444.123565,8364.327145
1097.359861,229.828649,-148.041188,8956.491898
1097.360177,76.609550,-148.041188,9844.739029
1097.360492,-306.438199,-148.041188,10140.821405
1097.360808,-153.219100,-296.082377,9178.553681
1097.361124,76.609550,-740.205942,9548.656652
1097.361440,0.000000,-666.185348,9770.718434
1097.361756,-383.047749,296.082377,9400.615463
1097.362072,-306.438199,-0.000000,9252.574275
1097.362388,0.000000,-666.185348,9844.739029
1097.362703,459.657299,-0.000000,9696.697840
1097.363019,0.000000,814.226536,8734.430116
1097.363335,536.266849,296.082377,8956.491898
1097.363651,383.047749,296.082377,9252.574275
1097.363967,-229.828649,444.123565,9474.636058
1097.364283,-229.828649,222.061783,9548.656652
1097.364599,-153.219100,-148.041188,10362.883188
1097.364914,-229.828649,-0.000000,10584.944971
1097.365230,-383.047749,-0.000000,9918.759623
1097.365546,-153.219100,-74.020594,10214.842000
1097.365862,0.000000,-370.102971,10288.862594
1097.366178,-306.438199,-74.020594,10066.800811
1097.366494,0.000000,-74.020594,10362.883188
1097.366810,383.047749,-296.082377,10436.903782
1097.367125,459.657299,-74.020594,9770.718434
1097.367441,1072.533697,444.123565,9474.636058
1097.367757,1532.190996,-0.000000,9326.594869
1097.368073,1685.410096,-0.000000,9474.636058
1097.368389,1225.752797,-0.000000,9326.594869
1097.368705,1072.533697,-0.000000,9918.759623
1097.369021,1378.971896,-518.144159,9918.759623
1097.369336,919.314598,-222.061783,10066.800811
1097.369652,1455.581446,-222.061783,10066.800811
1097.369968,1225.752797,-666.185348,9326.594869
1097.370284,1378.971896,-962.267725,9696.697840
1097.370600,842.705048,-666.185348,9844.739029
1097.370916,919.314598,-888.247130,9474.636058
1097.371232,995.924147,-814.226536,10066.800811
1097.371547,919.314598,-222.061783,9474.636058
1097.371863,1838.629195,-0.000000,8586.388927
1097.372179,1532.190996,-592.164754,8808.450710
1097.372495,1378.971896,-296.082377,8882.471304
1097.372811,612.876398,-148.041188,9030.512492
1097.373127,1072.533697,-888.247130,8882.471304
1097.373443,919.314598,-1110.308913,9178.553681
1097.373758,689.485948,-444.123565,9474.636058
1097.374074,689.485948,-962.267725,9104.533087
1097.374390,383.047749,-1332.370696,8882.471304
1097.374706,76.609550,-814.226536,9474.636058
1097.375022,459.657299,-296.082377,8956.491898
1097.375338,306.438199,-444.123565,8512.368333
1097.375654,76.609550,-814.226536,8956.491898
1097.375969,0.000000,-0.000000,8438.347739
1097.376285,0.000000,-888.247130,8734.430116
1097.376601,0.000000,-1480.411884,8956.491898
1097.376917,0.000000,-962.267725,9252.574275
1097.377233,0.000000,-518.144159,9178.553681
1097.377549,0.000000,-740.205942,9548.656652
1097.377865,0.000000,-370.102971,10214.842000
1097.378180,229.828649,-444.123565,8956.491898
1097.378496,536.266849,-370.102971,8586.388927
1097.378812,612.876398,-370.102971,9474.636058
1097.379128,383.047749,-0.000000,9326.594869
1097.379444,612.876398,370.102971,8808.450710
1097.379760,842.705048,222.061783,9030.512492
1097.380076,383.047749,-0.000000,9400.615463
1097.380391,459.657299,222.061783,9474.636058
1097.380707,536.266849,-0.000000,9548.656652
1097.381023,153.219100,222.061783,9992.780217
1097.381339,76.609550,148.041188,9918.759623
1097.381655,76.609550,-0.000000,9770.718434
1097.381971,459.657299,-148.041188,10140.821405
1097.382287,306.438199,-74.020594,10362.883188
1097.382602,229.828649,222.061783,9844.739029
1097.382918,229.828649,222.061783,9770.718434
1097.383234,0.000000,296.082377,9622.677246
1097.383550,0.000000,518.144159,9770.718434
1097.383866,306.438199,814.226536,9696.697840
1097.384182,229.828649,444.123565,9622.677246
1097.384498,0.000000,666.185348,9992.780217
1097.384813,76.609550,814.226536,9770.718434
1097.385129,0.000000,370.102971,9252.574275
1097.385445,0.000000,-74.020594,9844.739029
1097.385761,-306.438199,370.102971,9548.656652
1097.386077,-459.657299,-0.000000,10066.800811
1097.386393,-306.438199,-296.082377,10732.986159
1097.386709,-536.266849,-148.041188,10140.821405
1097.387024,-536.266849,148.041188,9770.718434
1097.387340,229.828649,-296.082377,9696.697840
1097.387656,-229.828649,-0.000000,9548.656652
1097.387972,0.000000,592.164754,9992.780217
1097.388288,153.219100,296.082377,9696.697840
1097.388604,0.000000,296.082377,9696.697840
1097.388920,229.828649,222.061783,9770.718434
1097.389235,229.828649,-0.000000,9252.574275
1097.389551,536.266849,-296.082377,9104.533087
1097.389867,229.828649,-444.123565,9622.677246
1097.390183,459.657299,-444.123565,9770.718434
1097.390499,1225.752797,-370.102971,10140.821405
1097.390815,1072.533697,-666.185348,9770.718434
1097.391130,766.095498,-666.185348,9770.718434
1097.391446,1149.143247,-592.164754,9474.636058
1097.391762,1685.410096,-666.185348,9104.533087
1097.392078,1532.190996,-0.000000,8512.368333
1097.392394,1378.971896,148.041188,8808.450710
1097.392710,1838.629195,-444.123565,9030.512492
1097.393026,1378.971896,-222.061783,9252.574275
1097.393341,1072.533697,296.082377,8734.430116
1097.393657,1149.143247,-296.082377,8586.388927
1097.393973,689.485948,-1110.308913,9104.533087
1097.394289,612.876398,-1036.288319,9548.656652
1097.394605,306.438199,-1332.370696,9770.718434
1097.394921,0.000000,-1554.432478,10066.800811
1097.395237,689.485948,-814.226536,9770.718434
1097.395552,383.047749,-74.020594,9252.574275
1097.395868,766.095498,-222.061783,8956.491898
1097.396184,995.924147,-370.102971,8882.471304
1097.396500,1072.533697,-0.000000,9326.594869
1097.396816,689.485948,148.041188,8808.450710
1097.397132,1072.533697,-370.102971,9104.533087
1097.397448,995.924147,296.082377,9030.512492
1097.397763,612.876398,-0.000000,9252.574275
1097.398079,766.095498,-0.000000,9104.533087
1097.398395,612.876398,-148.041188,9030.512492
1097.398711,76.609550,-0.000000,9252.574275
1097.399027,-306.438199,-222.061783,9474.636058
1097.399343,-229.828649,-962.267725,10510.924376
1097.399659,-536.266849,-740.205942,10214.842000
1097.399974,-383.047749,-592.164754,10140.821405
1097.400290,0.000000,-592.164754,9474.636058
1097.400606,0.000000,-1258.350101,9992.780217
1097.400922,76.609550,-592.164754,9696.697840
1097.401238,383.047749,-222.061783,9252.574275
1097.401554,689.485948,-0.000000,9400.615463
1097.401870,842.705048,-0.000000,9252.574275
1097.402185,995.924147,-0.000000,8586.388927
1097.402501,995.924147,-148.041188,9178.553681
1097.402817,766.095498,370.102971,9178.553681
1097.403133,306.438199,370.102971,9548.656652
1097.403449,383.047749,-0.000000,9474.636058
1097.403765,536.266849,-592.164754,10140.821405
1097.404081,0.000000,-518.144159,9992.780217
1097.404396,0.000000,-296.082377,9918.759623
1097.404712,0.000000,-888.247130,9844.739029
1097.405028,-306.438199,-0.000000,10066.800811
1097.405344,-229.828649,-0.000000,9474.636058
1097.405660,-229.828649,444.123565,9770.718434
1097.405976,229.828649,666.185348,9992.780217
1097.406292,536.266849,962.267725,9178.553681
1097.406607,153.219100,1036.288319,8956.491898
1097.406923,306.438199,-0.000000,9326.594869
1097.407239,229.828649,-592.164754,9474.636058
1097.407555,0.000000,-0.000000,9622.677246
1097.407871,0.000000,-296.082377,9918.759623
1097.408187,0.000000,-222.061783,9770.718434
1097.408502,-1378.971896,-0.000000,9918.759623
1097.408818,0.000000,-0.000000,9622.677246
1097.409134,383.047749,-148.041188,9326.594869
1097.409449,153.219100,-370.102971,9474.636058
1097.409765,536.266849,-444.123565,9918.759623
1097.410081,766.095498,-740.205942,10140.821405
1097.410397,1149.143247,-296.082377,9474.636058
1097.410712,1072.533697,370.102971,8808.450710
1097.411028,766.095498,-148.041188,8734.430116
1097.411344,1072.533697,-740.205942,9252.574275
1097.411660,1378.971896,-0.000000,9622.677246
1097.411975,689.485948,-0.000000,9548.656652
1097.412291,842.705048,-148.041188,9696.697840
1097.412607,1225.752797,-296.082377,9474.636058
1097.412922,766.095498,-370.102971,9178.553681
1097.413238,1378.971896,-1184.329507,9918.759623
1097.413554,1072.533697,-1258.350101,9474.636058
1097.413870,766.095498,-666.185348,9400.615463
1097.414185,383.047749,-370.102971,9474.636058
1097.414501,1225.752797,-962.267725,9992.780217
1097.414817,612.876398,-0.000000,9104.533087
1097.415133,919.314598,518.144159,8882.471304
1097.415448,1378.971896,-592.164754,8734.430116
1097.415764,1608.800546,-518.144159,9030.512492
1097.416080,536.266849,-0.000000,8512.368333
1097.416395,1149.143247,-888.247130,9178.553681
1097.416711,842.705048,-1036.288319,9474.636058
1097.417027,459.657299,-666.185348,9844.739029
1097.417343,306.438199,-518.144159,9326.594869
1097.417658,229.828649,-962.267725,9548.656652
1097.417974,229.828649,-1110.308913,9548.656652
1097.418290,0.000000,-74.020594,9104.533087
1097.418606,0.000000,148.041188,9252.574275
1097.418921,919.314598,-0.000000,9252.574275
1097.419237,536.266849,444.123565,8956.491898
1097.419553,689.485948,-0.000000,9474.636058
1097.419868,306.438199,-444.123565,9622.677246
1097.420184,383.047749,-0.000000,9252.574275
1097.420500,536.266849,-444.123565,9326.594869
1097.420816,0.000000,-518.144159,9474.636058
1097.421131,153.219100,-962.267725,10436.903782
1097.421447,153.219100,-148.041188,9770.718434
1097.421763,76.609550,222.061783,9400.615463
1097.422079,306.438199,-518.144159,9992.780217
1097.422394,612.876398,-222.061783,9992.780217
1097.422710,612.876398,296.082377,9252.574275
1097.423026,383.047749,-74.020594,9104.533087
1097.423341,536.266849,-444.123565,10658.965565
1097.423657,536.266849,-222.061783,9696.697840
1097.423973,383.047749,444.123565,8808.450710
1097.424289,536.266849,222.061783,9326.594869
1097.424604,383.047749,148.041188,9474.636058
1097.424920,306.438199,518.144159,9178.553681
1097.425236,0.000000,444.123565,9548.656652
1097.425552,-306.438199,-148.041188,10288.862594
1097.425867,0.000000,-740.205942,10140.821405
1097.426183,-229.828649,-148.041188,9622.677246
1097.426499,-536.266849,-222.061783,9992.780217
1097.426814,0.000000,-518.144159,10214.842000
1097.427130,-306.438199,222.061783,9548.656652
1097.427446,-612.876398,296.082377,10288.862594
1097.427762,0.000000,740.205942,9844.739029
1097.428077,-153.219100,1036.288319,8956.491898
1097.428393,0.000000,1036.288319,8956.491898
1097.428709,306.438199,666.185348,9474.636058
1097.429025,153.219100,1036.288319,9030.512492
1097.429340,76.609550,1258.350101,9104.533087
1097.429656,-306.438199,148.041188,9474.636058
1097.429972,0.000000,-518.144159,10140.821405
1097.430287,0.000000,-296.082377,9770.718434
1097.430603,76.609550,-518.144159,9844.739029
1097.430919,229.828649,-888.247130,9696.697840
1097.431235,229.828649,-444.123565,9474.636058
1097.431550,153.219100,-444.123565,9548.656652
1097.431866,612.876398,-222.061783,9622.677246
1097.432182,1302.362347,-370.102971,9104.533087
1097.432498,1072.533697,222.061783,9030.512492
1097.432813,1532.190996,296.082377,8586.388927
1097.433129,1838.629195,-666.185348,8808.450710
1097.433445,1302.362347,-592.164754,9548.656652
1097.433760,1225.752797,-0.000000,9178.553681
1097.434076,1378.971896,-444.123565,9474.636058
1097.434392,1378.971896,-740.205942,9844.739029
1097.434708,919.314598,-444.123565,9622.677246
1097.435023,1532.190996,-592.164754,9696.697840
1097.435339,766.095498,-1184.329507,9474.636058
1097.435655,1149.143247,-444.123565,9992.780217
1097.435971,1302.362347,-370.102971,9326.594869
1097.436286,1685.410096,-518.144159,9104.533087
1097.436602,1532.190996,-296.082377,9696.697840
1097.436918,995.924147,-0.000000,8438.347739
1097.437233,1455.581446,-666.185348,8734.430116
1097.437549,1072.533697,-740.205942,9178.553681
1097.437865,612.876398,-592.164754,9178.553681
1097.438181,1302.362347,-666.185348,9326.594869
1097.438496,842.705048,-1036.288319,9696.697840
1097.438812,383.047749,-814.226536,10066.800811
1097.439128,153.219100,-962.267725,9992.780217
1097.439443,229.828649,-740.205942,8808.450710
1097.439759,0.000000,-592.164754,9178.553681
1097.440075,76.609550,-814.226536,10066.800811
1097.440391,76.609550,-962.267725,9400.615463
1097.440706,0.000000,-814.226536,10140.821405
1097.441022,306.438199,-296.082377,9400.615463
1097.441338,612.876398,-444.123565,8956.491898
1097.441654,689.485948,-74.020594,8734.430116
1097.441969,306.438199,-222.061783,8808.450710
1097.442285,0.000000,-222.061783,9400.615463
1097.442601,229.828649,-592.164754,9622.677246
1097.442916,76.609550,-666.185348,9622.677246
1097.443232,306.438199,-814.226536,9548.656652
1097.443548,0.000000,-444.123565,9326.594869
1097.443864,-153.219100,-888.247130,9474.636058
1097.444179,0.000000,-592.164754,10140.821405
1097.444495,0.000000,-0.000000,9474.636058
1097.444811,306.438199,148.041188,9030.512492
1097.445127,306.438199,296.082377,9178.553681
1097.445442,153.219100,-0.000000,9178.553681
1097.445758,0.000000,296.082377,8956.491898
1097.446074,536.266849,-74.020594,9400.615463
1097.446389,306.438199,-148.041188,9178.553681
1097.446705,229.828649,444.123565,9326.594869
1097.447021,0.000000,444.123565,9252.574275
1097.447337,76.609550,-0.000000,9622.677246
1097.447652,229.828649,-74.020594,9844.739029
1097.447968,0.000000,296.082377,10288.862594
1097.448284,-229.828649,-74.020594,9178.553681
1097.448600,-306.438199,222.061783,9622.677246
1097.448915,0.000000,518.144159,9770.718434
1097.449231,229.828649,444.123565,9696.697840
1097.449547,76.609550,814.226536,9696.697840
1097.449862,0.000000,1554.432478,9030.512492
1097.450178,0.000000,592.164754,9400.615463
1097.450494,306.438199,370.102971,9696.697840
1097.450810,153.219100,-0.000000,9548.656652
1097.451125,383.047749,370.102971,9992.780217
1097.451441,0.000000,-0.000000,9918.759623
1097.451757,76.609550,-0.000000,10066.800811
1097.452073,76.609550,296.082377,10066.800811
1097.452388,153.219100,-0.000000,9474.636058
1097.452704,536.266849,148.041188,9844.739029
1097.453020,612.876398,-0.000000,9992.780217
1097.453335,229.828649,-74.020594,9770.718434
1097.453651,1302.362347,296.082377,9696.697840
1097.453967,1225.752797,370.102971,9474.636058
1097.454283,1225.752797,814.226536,9252.574275
1097.454598,1302.362347,-148.041188,9400.615463
1097.454914,1302.362347,-1036.288319,9400.615463
1097.455230,766.095498,-148.041188,9844.739029
1097.455546,842.705048,-666.185348,10214.842000
1097.455861,1072.533697,-888.247130,9992.780217
1097.456177,919.314598,-518.144159,9622.677246
1097.456493,842.705048,-518.144159,9474.636058
1097.456808,1455.581446,-518.144159,9326.594869
1097.457124,1225.752797,-592.164754,9178.553681
1097.457440,536.266849,-962.267725,8956.491898
1097.457756,995.924147,-148.041188,9474.636058
1097.458071,1302.362347,-592.164754,9622.677246
1097.458387,1225.752797,-296.082377,9030.512492
1097.458703,1072.533697,-222.061783,8734.430116
1097.459019,1455.581446,-740.205942,9178.553681
1097.459334,1149.143247,-592.164754,9252.574275
1097.459650,766.095498,-148.041188,9104.533087
1097.459966,689.485948,-444.123565,9178.553681
1097.460281,383.047749,-740.205942,9474.636058
1097.460597,153.219100,-740.205942,9622.677246
1097.460913,153.219100,-740.205942,9400.615463
1097.461229,306.438199,-1406.391290,9178.553681
1097.461544,0.000000,-962.267725,9474.636058
1097.461860,0.000000,-592.164754,9548.656652
1097.462176,383.047749,-1036.288319,9400.615463
1097.462492,383.047749,-592.164754,9548.656652
1097.462807,76.609550,-0.000000,9252.574275
1097.463123,459.657299,-148.041188,8956.491898
1097.463439,536.266849,-888.247130,9178.553681
1097.463754,612.876398,-740.205942,9252.574275
1097.464070,0.000000,-518.144159,9178.553681
1097.464386,0.000000,-666.185348,8956.491898
1097.464702,0.000000,-592.164754,9622.677246
1097.465017,-306.438199,-518.144159,9622.677246
1097.465333,536.266849,-592.164754,9696.697840
1097.465649,76.609550,-1184.329507,9474.636058
1097.465965,0.000000,-814.226536,9622.677246
1097.466280,-153.219100,-74.020594,9474.636058
1097.466596,306.438199,-296.082377,9474.636058
1097.466912,306.438199,-0.000000,9770.718434
1097.467227,76.609550,666.185348,9104.533087
1097.467543,536.266849,296.082377,8734.430116
1097.467859,612.876398,592.164754,8956.491898
1097.468175,153.219100,222.061783,9104.533087
1097.468490,-76.609550,222.061783,9992.780217
1097.468806,0.000000,-370.102971,9918.759623
1097.469122,0.000000,-0.000000,10214.842000
1097.469438,153.219100,592.164754,9918.759623
1097.469753,-306.438199,592.164754,9400.615463
1097.470069,919.314598,-222.061783,9770.718434
1097.470385,0.000000,370.102971,9474.636058
1097.470700,76.609550,962.267725,9696.697840
1097.471016,459.657299,666.185348,9474.636058
1097.471332,459.657299,666.185348,9474.636058
1097.471648,536.266849,1036.288319,9474.636058
1097.471963,536.266849,1036.288319,9178.553681
1097.472279,536.266849,222.061783,9252.574275
1097.472595,536.266849,444.123565,9400.615463
1097.472910,0.000000,296.082377,9474.636058
1097.473226,0.000000,-0.000000,10066.800811
1097.473542,0.000000,-370.102971,10288.862594
1097.473858,76.609550,-0.000000,10140.821405
1097.474173,0.000000,-0.000000,9474.636058
1097.474489,76.609550,-370.102971,9326.594869
1097.474805,0.000000,-0.000000,9918.759623
1097.475121,153.219100,-74.020594,10140.821405
1097.475436,689.485948,-0.000000,9474.636058
1097.475752,612.876398,-0.000000,9548.656652
1097.476068,612.876398,-0.000000,9622.677246
1097.476383,1072.533697,-148.041188,9030.512492
1097.476699,1072.533697,-888.247130,9178.553681
1097.477015,842.705048,-444.123565,9844.739029
1097.477331,1072.533697,-0.000000,9770.718434
1097.477646,1915.238745,-74.020594,8290.306550
1097.477962,1378.971896,-0.000000,9474.636058
1097.478278,995.924147,-518.144159,9918.759623
1097.478594,1149.143247,-888.247130,9474.636058
1097.478909,1378.971896,-296.082377,9030.512492
1097.479225,383.047749,-296.082377,9252.574275
1097.479541,842.705048,-444.123565,9548.656652
1097.479856,1532.190996,-518.144159,9474.636058
1097.480172,995.924147,-222.061783,9474.636058
1097.480488,536.266849,-444.123565,9474.636058
1097.480804,1149.143247,-962.267725,8956.491898
1097.481119,919.314598,-370.102971,9252.574275
1097.481435,689.485948,-0.000000,8808.450710
1097.481751,612.876398,-296.082377,9178.553681
1097.482067,1378.971896,-814.226536,9548.656652
1097.482382,459.657299,-814.226536,9252.574275
1097.482698,0.000000,-444.123565,9770.718434
1097.483014,0.000000,-1036.288319,9844.739029
1097.483329,0.000000,-888.247130,8882.471304
1097.483645,0.000000,-0.000000,9178.553681
1097.483961,383.047749,-518.144159,9326.594869
1097.484277,229.828649,-740.205942,9474.636058
1097.484592,0.000000,-518.144159,9474.636058
1097.484908,153.219100,-296.082377,9252.574275
1097.485224,306.438199,-592.164754,8660.409521
1097.485540,229.828649,-222.061783,9252.574275
1097.485855,0.000000,-148.041188,8882.471304
1097.486171,-153.219100,-962.267725,9770.718434
1097.486487,0.000000,-814.226536,9696.697840
1097.486802,-153.219100,-592.164754,9622.677246
1097.487118,0.000000,-814.226536,9696.697840
1097.487434,383.047749,-1036.288319,9696.697840
1097.487750,153.219100,-444.123565,9030.512492
1097.488065,229.828649,-222.061783,9474.636058
1097.488381,229.828649,-592.164754,9548.656652
1097.488697,459.657299,-370.102971,9548.656652
1097.489013,306.438199,296.082377,9326.594869
1097.489328,383.047749,222.061783,9104.533087
1097.489644,1072.533697,-148.041188,9252.574275
1097.489960,1072.533697,-666.185348,9104.533087
1097.490275,0.000000,-0.000000,9474.636058
1097.490591,689.485948,-592.164754,10288.862594
1097.490907,536.266849,-74.020594,9548.656652
1097.491223,76.609550,592.164754,9474.636058
1097.491538,153.219100,-0.000000,9474.636058
1097.491854,536.266849,-0.000000,9474.636058
1097.492170,536.266849,666.185348,9622.677246
1097.492486,-229.828649,370.102971,9400.615463
1097.492801,0.000000,-74.020594,10140.821405
1097.493117,-229.828649,-0.000000,9474.636058
1097.493433,-229.828649,592.164754,9326.594869
1097.493748,-306.438199,-296.082377,9696.697840
1097.494064,-306.438199,-296.082377,10066.800811
1097.494380,-459.657299,370.102971,9918.759623
1097.494696,0.000000,-0.000000,9474.636058
1097.495011,-383.047749,148.041188,9918.759623
1097.495327,153.219100,-74.020594,10436.903782
1097.495643,76.609550,814.226536,8956.491898
1097.495959,383.047749,-0.000000,9918.759623
1097.496274,536.266849,-74.020594,9696.697840
1097.496590,612.876398,444.123565,9400.615463
1097.496906,689.485948,592.164754,9178.553681
1097.497221,1072.533697,-148.041188,9770.718434
1097.497537,995.924147,370.102971,9844.739029
1097.497853,842.705048,148.041188,9474.636058
1097.498169,1072.533697,-444.123565,9622.677246
1097.498484,919.314598,-518.144159,9400.615463
1097.498800,689.485948,-74.020594,9770.718434
1097.499116,766.095498,-0.000000,9918.759623
1097.499432,995.924147,-148.041188,9622.677246
1097.499747,766.095498,222.061783,9696.697840
1097.500063,689.485948,-0.000000,9474.636058
1097.500379,1149.143247,-888.247130,9622.677246
1097.500694,842.705048,-962.267725,9474.636058
1097.501010,306.438199,-0.000000,9400.615463
1097.501326,536.266849,-0.000000,9548.656652
1097.501642,1072.533697,-222.061783,9844.739029
1097.501957,1149.143247,518.144159,9548.656652
1097.502273,612.876398,296.082377,9326.594869
1097.502589,919.314598,-0.000000,9030.512492
1097.502905,842.705048,-74.020594,9326.594869
1097.503220,459.657299,370.102971,9252.574275
1097.503536,536.266849,-222.061783,9474.636058
1097.503852,383.047749,-814.226536,9548.656652
1097.504167,306.438199,-740.205942,9696.697840
1097.504483,0.000000,-370.102971,9326.594869
1097.504799,0.000000,-518.144159,9400.615463
1097.505115,76.609550,-148.041188,9252.574275
1097.505430,0.000000,444.123565,9400.615463
1097.505746,0.000000,-444.123565,9548.656652
1097.506062,306.438199,-592.164754,9252.574275
1097.506377,0.000000,-222.061783,9252.574275
1097.506693,0.000000,-666.185348,8882.471304
1097.507009,306.438199,-814.226536,9104.533087
1097.507325,0.000000,-814.226536,9178.553681
1097.507640,0.000000,-666.185348,9326.594869
1097.507956,0.000000,-666.185348,9696.697840
1097.508272,306.438199,-592.164754,9844.739029
1097.508588,0.000000,-740.205942,9548.656652
1097.508903,229.828649,-740.205942,9252.574275
1097.509219,766.095498,-518.144159,9474.636058
1097.509535,995.924147,-370.102971,9326.594869
1097.509851,612.876398,370.102971,9030.512492
1097.510166,842.705048,518.144159,9030.512492
1097.510482,612.876398,296.082377,9030.512492
1097.510798,0.000000,296.082377,9400.615463
1097.511113,76.609550,-74.020594,9400.615463
1097.511429,0.000000,-444.123565,9400.615463
1097.511745,-229.828649,-444.123565,9770.718434
1097.512061,-306.438199,-222.061783,9992.780217
1097.512376,306.438199,-296.082377,9992.780217
1097.512692,153.219100,-0.000000,9844.739029
1097.513008,0.000000,444.123565,9770.718434
1097.513324,306.438199,370.102971,9326.594869
1097.513639,536.266849,-0.000000,9326.594869
1097.513955,459.657299,296.082377,9474.636058
1097.514271,536.266849,592.164754,9548.656652
1097.514586,536.266849,-0.000000,9326.594869
1097.514902,842.705048,888.247130,9252.574275
1097.515218,459.657299,962.267725,9104.533087
1097.515534,842.705048,370.102971,9326.594869
1097.515849,536.266849,148.041188,9326.594869
1097.516165,0.000000,296.082377,9696.697840
1097.516481,229.828649,-0.000000,10140.821405
1097.516797,153.219100,-592.164754,9918.759623
1097.517112,76.609550,-148.041188,10140.821405
1097.517428,0.000000,-370.102971,10066.800811
1097.517744,459.657299,-370.102971,9548.656652
1097.518060,0.000000,-370.102971,9474.636058
1097.518375,229.828649,-222.061783,10066.800811
1097.518691,536.266849,-296.082377,9770.718434
1097.519007,766.095498,222.061783,9622.677246
1097.519322,919.314598,-222.061783,9548.656652
1097.519638,1378.971896,-74.020594,9770.718434
1097.519954,1532.190996,-296.082377,8882.471304
1097.520270,1685.410096,-1036.288319,9548.656652
1097.520585,1302.362347,148.041188,9474.636058
1097.520901,1072.533697,-74.020594,9474.636058
1097.521217,1302.362347,-0.000000,9474.636058
1097.521533,1302.362347,-296.082377,9474.636058
1097.521848,1532.190996,-296.082377,9548.656652
1097.522164,1302.362347,-1406.391290,9474.636058
1097.522480,612.876398,-1332.370696,9622.677246
1097.522796,842.705048,-814.226536,9622.677246
1097.523111,1072.533697,-296.082377,9178.553681
1097.523427,1149.143247,-296.082377,8808.450710
1097.523743,1072.533697,370.102971,9178.553681
1097.524058,612.876398,-222.061783,8882.471304
1097.524374,919.314598,-592.164754,8956.491898
1097.524690,536.266849,-296.082377,9104.533087
1097.525006,306.438199,-1036.288319,9326.594869
1097.525321,536.266849,-740.205942,9400.615463
1097.525637,383.047749,-962.267725,9770.718434
1097.525953,0.000000,-888.247130,9696.697840
1097.526269,153.219100,-592.164754,9474.636058
1097.526584,689.485948,-1036.288319,9252.574275
1097.526900,0.000000,-444.123565,9474.636058
1097.527216,153.219100,-74.020594,9326.594869
1097.527532,459.657299,-148.041188,8882.471304
1097.527847,383.047749,-0.000000,9104.533087
1097.528163,153.219100,-0.000000,9326.594869
1097.528479,459.657299,-222.061783,8882.471304
1097.528794,306.438199,-222.061783,8882.471304
1097.529110,76.609550,-444.123565,9326.594869
1097.529426,0.000000,-592.164754,9326.594869
1097.529742,153.219100,-666.185348,9992.780217
1097.530057,-306.438199,-888.247130,10066.800811
1097.530373,-689.485948,-592.164754,9918.759623
1097.530689,-306.438199,-1110.308913,9992.780217
1097.531005,0.000000,-740.205942,9770.718434
1097.531320,0.000000,-148.041188,9178.553681
1097.531636,153.219100,-0.000000,9178.553681
1097.531952,153.219100,-0.000000,9400.615463
1097.532267,689.485948,-370.102971,9474.636058
1097.532583,689.485948,296.082377,9252.574275
1097.532899,995.924147,-0.000000,9030.512492
1097.533215,689.485948,-148.041188,9030.512492
1097.533530,842.705048,444.123565,9104.533087
1097.533846,536.266849,518.144159,9474.636058
1097.534162,459.657299,518.144159,9696.697840
1097.534478,306.438199,444.123565,9844.739029
1097.534793,76.609550,666.185348,9474.636058
1097.535109,459.657299,592.164754,9400.615463
1097.535425,153.219100,370.102971,9104.533087
1097.535741,76.609550,296.082377,9992.780217
1097.536056,0.000000,296.082377,9696.697840
1097.536372,0.000000,296.082377,9844.739029
1097.536688,0.000000,-0.000000,9918.759623
1097.537003,76.609550,148.041188,9696.697840
1097.537319,76.609550,-148.041188,9696.697840
1097.537635,459.657299,-0.000000,9474.636058
1097.537951,229.828649,-0.000000,9474.636058
1097.538266,229.828649,-74.020594,9770.718434
1097.538582,766.095498,-0.000000,9844.739029
1097.538898,766.095498,370.102971,9770.718434
1097.539214,612.876398,296.082377,9178.553681
1097.539529,766.095498,-0.000000,9474.636058
1097.539845,536.266849,-518.144159,9400.615463
1097.540161,536.266849,-370.102971,9474.636058
1097.540477,612.876398,-518.144159,9992.780217
1097.540792,306.438199,-444.123565,9696.697840
1097.541108,612.876398,-0.000000,9474.636058
1097.541424,459.657299,-222.061783,9252.574275
1097.541739,842.705048,-296.082377,9400.615463
1097.542055,842.705048,-148.041188,9474.636058
1097.542371,842.705048,-296.082377,9104.533087
1097.542687,459.657299,-666.185348,9770.718434
1097.543002,536.266849,-1110.308913,9696.697840
1097.543318,536.266849,-1184.329507,9548.656652
1097.543634,536.266849,-518.144159,9474.636058
1097.543950,689.485948,-592.164754,9474.636058
1097.544265,536.266849,-592.164754,9474.636058
1097.544581,459.657299,222.061783,8808.450710
1097.544897,459.657299,-0.000000,9326.594869
1097.545213,689.485948,-592.164754,9474.636058
1097.545528,383.047749,-0.000000,9104.533087
1097.545844,153.219100,-0.000000,8882.471304
1097.546160,459.657299,-148.041188,9548.656652
1097.546475,-229.828649,-666.185348,9252.574275
1097.546791,0.000000,-296.082377,9474.636058
1097.547107,76.609550,-888.247130,9844.739029
1097.547423,0.000000,-1110.308913,9918.759623
1097.547738,-76.609550,-222.061783,9548.656652
1097.548054,153.219100,-148.041188,9400.615463
1097.548370,689.485948,-296.082377,9252.574275
1097.548686,612.876398,222.061783,9030.512492
1097.549001,229.828649,444.123565,8882.471304
1097.549317,229.828649,-0.000000,8882.471304
1097.549633,536.266849,-518.144159,9548.656652
1097.549948,0.000000,-148.041188,9326.594869
1097.550264,229.828649,-222.061783,9326.594869
1097.550580,459.657299,-1110.308913,9178.553681
1097.550896,229.828649,-592.164754,9622.677246
1097.551211,0.000000,-592.164754,9548.656652
1097.551527,76.609550,-666.185348,9474.636058
1097.551843,76.609550,-740.205942,10140.821405
1097.552159,76.609550,-296.082377,9622.677246
1097.552474,306.438199,-0.000000,9252.574275
1097.552790,536.266849,-592.164754,9770.718434
1097.553106,766.095498,518.144159,9178.553681
1097.553422,459.657299,666.185348,9178.553681
1097.553737,842.705048,74.020594,9178.553681
1097.554053,995.924147,370.102971,9548.656652
1097.554369,536.266849,592.164754,9104.533087
1097.554684,919.314598,222.061783,9252.574275
1097.555000,536.266849,-666.185348,9400.615463
1097.555316,229.828649,-0.000000,9400.615463
1097.555632,76.609550,740.205942,9252.574275
1097.555947,229.828649,-222.061783,9548.656652
1097.556263,229.828649,-0.000000,10066.800811
1097.556579,-229.828649,370.102971,9622.677246
1097.556895,0.000000,-148.041188,9548.656652
1097.557210,612.876398,-296.082377,9474.636058
1097.557526,0.000000,296.082377,9252.574275
1097.557842,-229.828649,740.205942,9622.677246
1097.558158,459.657299,222.061783,9696.697840
1097.558473,76.609550,740.205942,9770.718434
1097.558789,0.000000,1036.288319,9030.512492
1097.559105,306.438199,518.144159,9030.512492
1097.559420,76.609550,-0.000000,9918.759623
1097.559736,-229.828649,-0.000000,9696.697840
1097.560052,0.000000,-740.205942,9992.780217
1097.560368,-153.219100,-888.247130,10658.965565
1097.560683,76.609550,-444.123565,10362.883188
1097.560999,306.438199,-222.061783,9104.533087
1097.561315,689.485948,-222.061783,9474.636058
1097.561631,842.705048,-518.144159,10140.821405
1097.561946,689.485948,296.082377,9178.553681
1097.562262,842.705048,370.102971,8882.471304
1097.562578,1072.533697,-444.123565,9696.697840
1097.562894,842.705048,-296.082377,9474.636058
1097.563209,842.705048,-148.041188,9030.512492
1097.563525,766.095498,-370.102971,9548.656652
1097.563841,612.876398,-814.226536,9622.677246
1097.564156,459.657299,-222.061783,9104.533087
1097.564472,689.485948,-222.061783,9326.594869
1097.564788,306.438199,-962.267725,10214.842000
1097.565104,536.266849,-962.267725,10066.800811
1097.565419,306.438199,-1110.308913,9622.677246
1097.565735,612.876398,-1258.350101,9178.553681
1097.566051,536.266849,-888.247130,9622.677246
1097.566367,229.828649,-370.102971,9474.636058
1097.566682,1072.533697,-888.247130,9622.677246
1097.566998,995.924147,-444.123565,9696.697840
1097.567314,766.095498,222.061783,8956.491898
1097.567630,1302.362347,666.185348,8216.285956
1097.567945,1225.752797,222.061783,7994.224174
1097.568261,536.266849,-148.041188,8956.491898
1097.568577,536.266849,-148.041188,9252.574275
1097.568892,689.485948,-740.205942,9474.636058
1097.569208,153.219100,-962.267725,9992.780217
1097.569524,0.000000,-1110.308913,10140.821405
1097.569840,229.828649,-1110.308913,9474.636058
1097.570155,306.438199,-888.247130,9696.697840
1097.570471,0.000000,-370.102971,9918.759623
1097.570787,0.000000,-296.082377,9770.718434
1097.571103,153.219100,-222.061783,9770.718434
1097.571418,842.705048,370.102971,9474.636058
1097.571734,229.828649,222.061783,9400.615463
1097.572050,766.095498,222.061783,8586.388927
1097.572365,842.705048,-0.000000,8512.368333
1097.572681,1072.533697,-296.082377,9104.533087
1097.572997,536.266849,-74.020594,9696.697840
1097.573313,229.828649,-370.102971,9548.656652
1097.573628,229.828649,-592.164754,10436.903782
1097.573944,229.828649,-0.000000,9992.780217
1097.574260,536.266849,-0.000000,9770.718434
1097.574576,766.095498,-148.041188,9474.636058
1097.574891,612.876398,-0.000000,9474.636058
1097.575207,536.266849,-0.000000,9696.697840
1097.575523,919.314598,-0.000000,9474.636058
1097.575839,1378.971896,-0.000000,9400.615463
1097.576154,995.924147,592.164754,9104.533087
1097.576470,1225.752797,222.061783,9178.553681
1097.576786,1302.362347,148.041188,9030.512492
1097.577101,689.485948,296.082377,9400.615463
1097.577417,536.266849,444.123565,9474.636058
1097.577733,306.438199,-74.020594,10140.821405
1097.578049,153.219100,-0.000000,9918.759623
1097.578364,-229.828649,444.123565,9548.656652
1097.578680,0.000000,-370.102971,10066.800811
1097.578996,383.047749,-444.123565,10288.862594
1097.579312,-153.219100,592.164754,9400.615463
1097.579627,-383.047749,-0.000000,9474.636058
1097.579943,229.828649,-74.020594,10436.903782
1097.580259,0.000000,296.082377,9474.636058
1097.580575,0.000000,666.185348,8808.450710
1097.580890,459.657299,518.144159,8660.409521
1097.581206,0.000000,-0.000000,9104.533087
1097.581522,229.828649,666.185348,9548.656652
1097.581837,0.000000,-148.041188,9326.594869
1097.582153,76.609550,-296.082377,10066.800811
1097.582469,-306.438199,-370.102971,9696.697840
1097.582785,-383.047749,-666.185348,9622.677246
1097.583100,0.000000,-740.205942,9992.780217
1097.583416,-383.047749,-814.226536,9696.697840
1097.583732,-383.047749,-148.041188,9326.594869
1097.584048,0.000000,-148.041188,9548.656652
1097.584363,0.000000,-518.144159,9696.697840
1097.584679,229.828649,-74.020594,9400.615463
1097.584995,383.047749,-296.082377,8808.450710
1097.585311,1225.752797,-962.267725,9400.615463
1097.585626,842.705048,-962.267725,9400.615463
1097.585942,689.485948,-814.226536,9030.512492
1097.586258,919.314598,-1184.329507,9696.697840
1097.586573,1302.362347,-1258.350101,10362.883188
1097.586889,766.095498,-222.061783,9622.677246
1097.587205,842.705048,-222.061783,9030.512492
1097.587521,1378.971896,-370.102971,9326.594869
1097.587836,995.924147,-814.226536,9178.553681
1097.588152,995.924147,-444.123565,8586.388927
1097.588468,1149.143247,-814.226536,9252.574275
1097.588784,995.924147,-888.247130,9548.656652
1097.589099,842.705048,-666.185348,9400.615463
1097.589415,536.266849,-444.123565,9178.553681
1097.589731,689.485948,-444.123565,9178.553681
1097.590046,153.219100,-740.205942,8808.450710
1097.590362,153.219100,-444.123565,9104.533087
1097.590678,229.828649,-1184.329507,10436.903782
1097.590994,536.266849,-1406.391290,10288.862594
1097.591309,383.047749,-666.185348,9622.677246
1097.591625,536.266849,-370.102971,9326.594869
1097.591941,842.705048,-444.123565,9326.594869
1097.592257,766.095498,296.082377,9030.512492
1097.592572,689.485948,222.061783,8734.430116
1097.592888,459.657299,296.082377,9178.553681
1097.593204,536.266849,-222.061783,9326.594869
1097.593520,306.438199,370.102971,9104.533087
1097.593835,536.266849,-0.000000,8808.450710
1097.594151,536.266849,-814.226536,9400.615463
1097.594467,76.609550,-444.123565,9696.697840
1097.594782,229.828649,-74.020594,9918.759623
1097.595098,306.438199,-1258.350101,10066.800811
1097.595414,0.000000,-814.226536,10140.821405
1097.595730,0.000000,-962.267725,9696.697840
1097.596045,383.047749,-666.185348,9548.656652
1097.596361,536.266849,-444.123565,9770.718434
1097.596677,0.000000,666.185348,8956.491898
1097.596993,383.047749,444.123565,8956.491898
1097.597308,612.876398,222.061783,9326.594869
1097.597624,689.485948,740.205942,9326.594869
1097.597940,612.876398,370.102971,9030.512492
1097.598256,919.314598,-0.000000,9178.553681
1097.598571,766.095498,-148.041188,9770.718434
1097.598887,459.657299,-0.000000,9696.697840
1097.599203,1149.143247,-0.000000,9622.677246
1097.599518,459.657299,-222.061783,10362.883188
1097.599834,153.219100,444.123565,9992.780217
1097.600150,76.609550,814.226536,9696.697840
1097.600466,76.609550,740.205942,9104.533087
1097.600781,766.095498,222.061783,10066.800811
1097.601097,76.609550,814.226536,9548.656652
1097.601413,-306.438199,814.226536,9326.594869
1097.601729,-383.047749,518.144159,9696.697840
1097.602044,-306.438199,444.123565,9400.615463
1097.602360,-536.266849,148.041188,9178.553681
1097.602676,-459.657299,370.102971,9326.594869
1097.602992,-383.047749,-0.000000,9844.739029
1097.603307,0.000000,-0.000000,10066.800811
1097.603623,-842.705048,-0.000000,9770.718434
1097.603939,-689.485948,-148.041188,10288.862594
1097.604254,-383.047749,-222.061783,9918.759623
1097.604570,76.609550,-0.000000,9178.553681
1097.604886,612.876398,-0.000000,9474.636058
1097.605202,536.266849,-74.020594,9400.615463
1097.605517,689.485948,-0.000000,9252.574275
1097.605833,536.266849,-148.041188,9474.636058
1097.606149,842.705048,-370.102971,9622.677246
1097.606465,383.047749,-296.082377,9474.636058
1097.606780,383.047749,-444.123565,9326.594869
1097.607096,1072.533697,-1184.329507,9474.636058
1097.607412,383.047749,-814.226536,9474.636058
1097.607727,536.266849,-296.082377,9622.677246
1097.608043,306.438199,-740.205942,9252.574275
1097.608359,306.438199,-1184.329507,9844.739029
1097.608675,0.000000,-1184.329507,9844.739029
1097.608990,536.266849,-962.267725,9770.718434
1097.609306,766.095498,-1036.288319,9030.512492
1097.609622,1072.533697,-1406.391290,9548.656652
1097.609938,995.924147,-814.226536,9104.533087
1097.610253,1378.971896,-814.226536,9622.677246
1097.610569,1532.190996,-740.205942,9326.594869
1097.610885,1225.752797,222.061783,9178.553681
1097.611201,1762.019645,-0.000000,8438.347739
1097.611516,1685.410096,-444.123565,8586.388927
1097.611832,1532.190996,-0.000000,9178.553681
1097.612148,766.095498,-370.102971,9030.512492
1097.612463,766.095498,-814.226536,9696.697840
1097.612779,0.000000,-888.247130,9696.697840
1097.613095,-306.438199,-962.267725,9622.677246
1097.613411,0.000000,-666.185348,9548.656652
1097.613726,0.000000,-1406.391290,9770.718434
1097.614042,0.000000,-518.144159,9400.615463
1097.614358,153.219100,-370.102971,9400.615463
1097.614673,536.266849,-740.205942,9326.594869
1097.614989,919.314598,-296.082377,9770.718434
1097.615305,689.485948,222.061783,9400.615463
1097.615621,1072.533697,-0.000000,8660.409521
1097.615936,842.705048,-0.000000,8438.347739
1097.616252,459.657299,-148.041188,9030.512492
1097.616568,536.266849,-740.205942,9326.594869
1097.616884,383.047749,-814.226536,9992.780217
1097.617199,229.828649,-740.205942,10214.842000
1097.617515,0.000000,-592.164754,9770.718434
1097.617831,229.828649,-888.247130,9622.677246
1097.618146,459.657299,-740.205942,9622.677246
1097.618462,76.609550,-0.000000,9844.739029
1097.618778,0.000000,148.041188,9622.677246
1097.619094,153.219100,-0.000000,9696.697840
1097.619409,0.000000,-222.061783,10140.821405
1097.619725,229.828649,-0.000000,9400.615463
1097.620041,536.266849,-0.000000,9030.512492
1097.620356,153.219100,222.061783,9326.594869
1097.620672,229.828649,-148.041188,9696.697840
1097.620988,229.828649,296.082377,9770.718434
1097.621304,383.047749,370.102971,9400.615463
1097.621619,0.000000,592.164754,9696.697840
1097.621935,383.047749,222.061783,9622.677246
1097.622251,536.266849,-0.000000,9622.677246
1097.622567,459.657299,296.082377,9770.718434
1097.622882,153.219100,962.267725,8882.471304
1097.623198,0.000000,666.185348,9474.636058
1097.623514,76.609550,370.102971,9918.759623
1097.623829,0.000000,740.205942,9252.574275
1097.624145,-459.657299,1036.288319,8882.471304
1097.624461,-229.828649,-0.000000,9104.533087
1097.624777,-229.828649,444.123565,9696.697840
1097.625092,-536.266849,370.102971,9326.594869
1097.625408,-995.924147,-370.102971,9696.697840
1097.625724,-459.657299,-74.020594,10066.800811
1097.626039,-766.095498,222.061783,10066.800811
1097.626355,-306.438199,-0.000000,9696.697840
1097.626671,-306.438199,-518.144159,9474.636058
1097.626987,76.609550,-370.102971,9622.677246
1097.627302,76.609550,-0.000000,9030.512492
1097.627618,76.609550,-444.123565,9622.677246
1097.627934,536.266849,-0.000000,9696.697840
1097.628250,689.485948,148.041188,9104.533087
1097.628565,919.314598,296.082377,8438.347739
1097.628881,1149.143247,-222.061783,9178.553681
1097.629197,919.314598,-518.144159,9474.636058
1097.629512,766.095498,-592.164754,9548.656652
1097.629828,1149.143247,-1036.288319,10288.862594
1097.630144,1149.143247,-592.164754,9770.718434
1097.630460,842.705048,-518.144159,9252.574275
1097.630775,1302.362347,-444.123565,9548.656652
1097.631091,1225.752797,-962.267725,9474.636058
1097.631407,612.876398,-666.185348,9400.615463
1097.631722,919.314598,-148.041188,9918.759623
1097.632038,995.924147,-666.185348,9400.615463
1097.632354,1378.971896,-222.061783,9178.553681
1097.632670,1225.752797,-148.041188,9400.615463
1097.632985,1225.752797,-888.247130,9178.553681
1097.633301,1302.362347,-592.164754,8956.491898
1097.633617,1072.533697,-518.144159,9326.594869
1097.633933,995.924147,-296.082377,9622.677246
1097.634248,1455.581446,-1036.288319,10140.821405
1097.634564,689.485948,-888.247130,9992.780217
1097.634880,536.266849,-666.185348,9178.553681
1097.635195,842.705048,-666.185348,9474.636058
1097.635511,1072.533697,-444.123565,9400.615463
1097.635827,536.266849,-296.082377,9326.594869
1097.636143,383.047749,-222.061783,9770.718434
1097.636458,842.705048,-370.102971,9474.636058
1097.636774,919.314598,-74.020594,8882.471304
1097.637090,689.485948,-148.041188,9252.574275
1097.637405,842.705048,-1554.432478,9844.739029
1097.637721,766.095498,-1036.288319,9326.594869
1097.638037,76.609550,-370.102971,9252.574275
1097.638353,229.828649,-962.267725,9622.677246
1097.638668,536.266849,-1036.288319,9918.759623
1097.638984,459.657299,-1406.391290,9178.553681
1097.639300,0.000000,-888.247130,9474.636058
1097.639616,383.047749,-1628.453072,9696.697840
1097.639931,536.266849,-1110.308913,9548.656652
1097.640247,153.219100,-74.020594,9030.512492
1097.640563,383.047749,-518.144159,8882.471304
1097.640878,1072.533697,-74.020594,9104.533087
1097.641194,1072.533697,444.123565,9030.512492
1097.641510,229.828649,222.061783,8586.388927
1097.641826,766.095498,-222.061783,8734.430116
1097.642141,612.876398,148.041188,8808.450710
1097.642457,-306.438199,296.082377,9474.636058
1097.642773,-229.828649,-444.123565,9474.636058
1097.643088,0.000000,-370.102971,10140.821405
1097.643404,-459.657299,-74.020594,9400.615463
1097.643720,-383.047749,-0.000000,9548.656652
1097.644036,-76.609550,-296.082377,9622.677246
1097.644351,-1072.533697,-0.000000,9696.697840
1097.644667,-689.485948,444.123565,9770.718434
1097.644983,-536.266849,592.164754,9622.677246
1097.645299,0.000000,518.144159,9548.656652
1097.645614,-383.047749,1406.391290,9030.512492
1097.645930,-306.438199,1036.288319,9104.533087
1097.646246,-229.828649,962.267725,8882.471304
1097.646561,-383.047749,1036.288319,9400.615463
1097.646877,0.000000,518.144159,9918.759623
1097.647193,-229.828649,-0.000000,10214.842000
1097.647509,-612.876398,222.061783,10362.883188
1097.647824,-766.095498,-0.000000,10066.800811
1097.648140,-459.657299,148.041188,9992.780217
1097.648456,383.047749,-814.226536,10066.800811
1097.648771,0.000000,-74.020594,10214.842000
1097.649087,76.609550,444.123565,10140.821405
1097.649403,459.657299,222.061783,9696.697840
1097.649719,1072.533697,296.082377,9770.718434
1097.650034,1149.143247,370.102971,9696.697840
1097.650350,1378.971896,518.144159,9030.512492
1097.650666,2068.457845,-0.000000,8882.471304
1097.650982,1455.581446,-0.000000,9030.512492
1097.651297,919.314598,296.082377,9474.636058
1097.651613,1225.752797,-148.041188,10066.800811
1097.651929,1378.971896,-296.082377,9696.697840
1097.652244,995.924147,-0.000000,9326.594869
1097.652560,995.924147,-592.164754,9696.697840
1097.652876,1225.752797,-1702.473667,9548.656652
1097.653192,995.924147,-1184.329507,10214.842000
1097.653507,1225.752797,-666.185348,10214.842000
1097.653823,1378.971896,-814.226536,9696.697840
1097.654139,1378.971896,-148.041188,9474.636058
1097.654454,1455.581446,370.102971,8882.471304
1097.654770,1762.019645,296.082377,8734.430116
1097.655086,1762.019645,370.102971,8808.450710
1097.655402,919.314598,370.102971,8660.409521
1097.655717,1378.971896,-74.020594,9400.615463
1097.656033,1225.752797,-666.185348,9548.656652
1097.656349,1302.362347,-592.164754,9400.615463
1097.656665,1072.533697,-518.144159,9252.574275
1097.656980,766.095498,-1406.391290,9326.594869
1097.657296,612.876398,-1332.370696,9548.656652
1097.657612,229.828649,-666.185348,9696.697840
1097.657927,76.609550,-666.185348,9326.594869
1097.658243,919.314598,-666.185348,9474.636058
1097.658559,689.485948,-370.102971,9178.553681
1097.658875,689.485948,-0.000000,8660.409521
1097.659190,766.095498,-74.020594,8734.430116
1097.659506,766.095498,-1036.288319,8660.409521
1097.659822,0.000000,-666.185348,8734.430116
1097.660137,0.000000,-1036.288319,9400.615463
1097.660453,153.219100,-1554.432478,9622.677246
1097.660769,-383.047749,-1628.453072,9844.739029
1097.661085,-536.266849,-1258.350101,10066.800811
1097.661400,-306.438199,-1258.350101,9770.718434
1097.661716,0.000000,-666.185348,9474.636058
1097.662032,-459.657299,-0.000000,8956.491898
1097.662348,0.000000,-370.102971,9326.594869
1097.662663,306.438199,-666.185348,9474.636058
1097.662979,383.047749,-370.102971,8734.430116
1097.663295,153.219100,-0.000000,8216.285956
1097.663610,689.485948,-740.205942,9326.594869
1097.663926,459.657299,-666.185348,9474.636058
1097.664242,0.000000,148.041188,8808.450710
1097.664558,0.000000,296.082377,9696.697840
1097.664873,0.000000,444.123565,9622.677246
1097.665189,-459.657299,666.185348,9104.533087
1097.665505,0.000000,-0.000000,9104.533087
1097.665821,-306.438199,-296.082377,9770.718434
1097.666136,-689.485948,-666.185348,10140.821405
1097.666452,-689.485948,222.061783,9622.677246
1097.666768,-459.657299,-0.000000,9400.615463
1097.667083,0.000000,-0.000000,10066.800811
1097.667399,-306.438199,888.247130,9622.677246
1097.667715,0.000000,444.123565,9252.574275
1097.668031,383.047749,148.041188,9326.594869
1097.668346,229.828649,518.144159,9400.615463
1097.668662,153.219100,518.144159,9474.636058
1097.668978,1149.143247,222.061783,9622.677246
1097.669293,229.828649,-74.020594,9992.780217
1097.669609,306.438199,-0.000000,9770.718434
1097.669925,306.438199,222.061783,9548.656652
1097.670241,153.219100,222.061783,9474.636058
1097.670556,76.609550,-222.061783,10140.821405
1097.670872,153.219100,-0.000000,10436.903782
1097.671188,536.266849,-148.041188,9992.780217
1097.671504,689.485948,444.123565,9696.697840
1097.671819,842.705048,666.185348,9548.656652
1097.672135,842.705048,-296.082377,9696.697840
1097.672451,1378.971896,-148.041188,9622.677246
1097.672766,1149.143247,148.041188,9622.677246
1097.673082,1072.533697,-296.082377,9918.759623
1097.673398,1378.971896,-962.267725,10288.862594
1097.673714,1378.971896,-148.041188,9770.718434
1097.674029,1149.143247,-0.000000,9474.636058
1097.674345,1302.362347,-296.082377,9252.574275
1097.674661,1532.190996,-518.144159,9622.677246
1097.674976,1302.362347,-0.000000,9104.533087
1097.675292,612.876398,-0.000000,9548.656652
1097.675608,1378.971896,-222.061783,9474.636058
1097.675924,1149.143247,-296.082377,9918.759623
1097.676239,842.705048,-296.082377,9178.553681
1097.676555,1455.581446,-1258.350101,9400.615463
1097.676871,1072.533697,-888.247130,9474.636058
1097.677187,689.485948,-222.061783,9030.512492
1097.677502,689.485948,-296.082377,9252.574275
1097.677818,689.485948,-296.082377,9474.636058
1097.678134,459.657299,-222.061783,9474.636058
1097.678449,76.609550,-370.102971,9474.636058
1097.678765,76.609550,-444.123565,9030.512492
1097.679081,383.047749,-740.205942,8882.471304
1097.679397,383.047749,-666.185348,9104.533087
1097.679712,766.095498,-888.247130,8882.471304
1097.680028,229.828649,-740.205942,9400.615463
1097.680344,0.000000,-370.102971,9326.594869
1097.680659,76.609550,-148.041188,8808.450710
1097.680975,0.000000,-148.041188,8882.471304
1097.681291,306.438199,-444.123565,9104.533087
1097.681607,0.000000,-888.247130,9326.594869
1097.681922,-383.047749,-1110.308913,9548.656652
1097.682238,-153.219100,-1332.370696,9844.739029
1097.682554,0.000000,-740.205942,9474.636058
1097.682870,0.000000,-814.226536,9178.553681
1097.683185,153.219100,-1110.308913,9474.636058
1097.683501,0.000000,-592.164754,9030.512492
1097.683817,-306.438199,222.061783,8956.491898
1097.684132,0.000000,-296.082377,9548.656652
1097.684448,536.266849,-296.082377,9104.533087
1097.684764,0.000000,-0.000000,9104.533087
1097.685080,153.219100,-74.020594,9030.512492
1097.685395,459.657299,-444.123565,8808.450710
1097.685711,689.485948,-296.082377,9104.533087
1097.686027,0.000000,-74.020594,9696.697840
1097.686342,0.000000,-148.041188,9622.677246
1097.686658,76.609550,-74.020594,9918.759623
1097.686974,-306.438199,296.082377,9178.553681
1097.687290,76.609550,-0.000000,9622.677246
1097.687605,459.657299,-148.041188,9992.780217
1097.687921,0.000000,-0.000000,9474.636058
1097.688237,-229.828649,740.205942,9474.636058
1097.688553,536.266849,444.123565,9474.636058
1097.688868,689.485948,666.185348,9622.677246
1097.689184,459.657299,814.226536,9104.533087
1097.689500,229.828649,592.164754,9178.553681
1097.689815,689.485948,-148.041188,9696.697840
1097.690131,536.266849,296.082377,9622.677246
1097.690447,0.000000,370.102971,9992.780217
1097.690763,383.047749,-518.144159,10066.800811
1097.691078,76.609550,-222.061783,10288.862594
1097.691394,76.609550,666.185348,10066.800811
1097.691710,612.876398,-0.000000,9622.677246
1097.692025,995.924147,-74.020594,9770.718434
1097.692341,229.828649,296.082377,9622.677246
1097.692657,459.657299,222.061783,9770.718434
1097.692973,689.485948,-148.041188,10140.821405
1097.693288,612.876398,-74.020594,9696.697840
1097.693604,766.095498,222.061783,10214.842000
1097.693920,612.876398,-74.020594,9918.759623
1097.694236,919.314598,-814.226536,9770.718434
1097.694551,919.314598,-0.000000,9326.594869
1097.694867,766.095498,-0.000000,9696.697840
1097.695183,1225.752797,-888.247130,9844.739029
1097.695498,1225.752797,-814.226536,9918.759623
1097.695814,842.705048,-444.123565,9326.594869
1097.696130,1149.143247,-592.164754,9474.636058
1097.696446,1378.971896,-740.205942,9474.636058
1097.696761,766.095498,-148.041188,9326.594869
1097.697077,1225.752797,296.082377,9326.594869
1097.697393,1532.190996,-0.000000,9474.636058
1097.697708,612.876398,296.082377,9326.594869
1097.698024,459.657299,-0.000000,8956.491898
1097.698340,919.314598,-444.123565,9326.594869
1097.698656,459.657299,-666.185348,9400.615463
1097.698971,306.438199,-222.061783,9326.594869
1097.699287,383.047749,-592.164754,9326.594869
1097.699603,383.047749,-592.164754,9548.656652
1097.699919,459.657299,-518.144159,9696.697840
1097.700234,229.828649,-666.185348,9104.533087
1097.700550,153.219100,-814.226536,9474.636058
1097.700866,153.219100,-370.102971,9474.636058
1097.701181,0.000000,-296.082377,8808.450710
1097.701497,536.266849,-444.123565,9252.574275
1097.701813,383.047749,-740.205942,9400.615463
1097.702129,76.609550,-592.164754,9178.553681
1097.702444,459.657299,-370.102971,9178.553681
1097.702760,995.924147,-740.205942,9252.574275
1097.703076,689.485948,-370.102971,9030.512492
1097.703391,383.047749,-0.000000,8956.491898
1097.703707,459.657299,148.041188,9326.594869
1097.704023,919.314598,-592.164754,9844.739029
1097.704339,536.266849,-518.144159,9474.636058
1097.704654,306.438199,-296.082377,9326.594869
1097.704970,612.876398,-518.144159,9548.656652
1097.705286,229.828649,-444.123565,9104.533087
1097.705602,153.219100,-74.020594,9474.636058
1097.705917,536.266849,-444.123565,9770.718434
1097.706233,0.000000,-444.123565,9178.553681
1097.706549,0.000000,-518.144159,9696.697840
1097.706864,0.000000,-444.123565,9326.594869
1097.707180,76.609550,-666.185348,9326.594869
1097.707496,-536.266849,-370.102971,10214.842000
1097.707812,-383.047749,-0.000000,9622.677246
1097.708127,0.000000,-148.041188,9992.780217
1097.708443,306.438199,296.082377,9696.697840
1097.708759,229.828649,222.061783,9474.636058
1097.709074,0.000000,296.082377,9548.656652
1097.709390,459.657299,296.082377,9030.512492
1097.709706,0.000000,592.164754,9252.574275
1097.710022,153.219100,444.123565,9400.615463
1097.710337,229.828649,518.144159,9844.739029
1097.710653,-153.219100,740.205942,9400.615463
1097.710969,-153.219100,666.185348,9400.615463
1097.711286,76.609550,148.041188,9992.780217
1097.711601,0.000000,-0.000000,9918.759623
1097.711917,76.609550,740.205942,10436.903782
1097.712233,0.000000,222.061783,9992.780217
1097.712549,-459.657299,-518.144159,10362.883188
1097.712864,0.000000,-0.000000,10732.986159
1097.713180,-383.047749,444.123565,9770.718434
1097.713496,0.000000,148.041188,9548.656652
1097.713811,229.828649,-0.000000,9622.677246
1097.714127,76.609550,-0.000000,9770.718434
1097.714443,229.828649,-0.000000,10140.821405
1097.714758,766.095498,-0.000000,9770.718434
1097.715074,1225.752797,-222.061783,9400.615463
1097.715390,995.924147,-0.000000,9252.574275
1097.715705,1685.410096,-296.082377,9474.636058
1097.716021,1455.581446,-148.041188,9252.574275
1097.716337,919.314598,-148.041188,9474.636058
1097.716653,919.314598,-666.185348,9474.636058
1097.716968,766.095498,-444.123565,9918.759623
1097.717284,766.095498,222.061783,9326.594869
1097.717600,766.095498,-0.000000,8956.491898
1097.717915,459.657299,-592.164754,9326.594869
1097.718231,766.095498,-1036.288319,9400.615463
1097.718547,536.266849,-370.102971,9252.574275
1097.718862,766.095498,-518.144159,9178.553681
1097.719178,306.438199,-666.185348,9326.594869
1097.719494,536.266849,-740.205942,9326.594869
1097.719810,383.047749,-296.082377,8956.491898
1097.720125,689.485948,-740.205942,9622.677246
1097.720441,766.095498,-370.102971,9474.636058
1097.720757,383.047749,-296.082377,8660.409521
1097.721072,842.705048,-666.185348,8216.285956
1097.721388,842.705048,-962.267725,9696.697840
1097.721704,919.314598,-518.144159,9696.697840
1097.722019,842.705048,-370.102971,8216.285956
1097.722335,1072.533697,-444.123565,9104.533087
1097.722651,919.314598,-296.082377,9178.553681
1097.722966,1149.143247,-74.020594,9030.512492
1097.723282,919.314598,-74.020594,8660.409521
1097.723598,536.266849,-444.123565,9696.697840
1097.723914,306.438199,-222.061783,9622.677246
1097.724229,306.438199,-444.123565,9844.739029
1097.724545,383.047749,-962.267725,9326.594869
1097.724861,689.485948,-592.164754,9178.553681
1097.725176,0.000000,-74.020594,9030.512492
1097.725492,306.438199,-888.247130,9918.759623
1097.725808,0.000000,-1036.288319,10658.965565
1097.726123,536.266849,-370.102971,10140.821405
1097.726439,76.609550,-740.205942,9400.615463
1097.726755,842.705048,-370.102971,9252.574275
1097.727070,766.095498,-296.082377,9178.553681
1097.727386,612.876398,-0.000000,9622.677246
1097.727702,995.924147,-0.000000,9548.656652
1097.728018,1225.752797,-148.041188,9178.553681
1097.728333,689.485948,592.164754,9104.533087
1097.728649,536.266849,370.102971,9252.574275
1097.728965,842.705048,-74.020594,9622.677246
1097.729280,153.219100,-148.041188,10214.842000
1097.729596,153.219100,-0.000000,9770.718434
1097.729912,0.000000,-444.123565,9918.759623
1097.730227,0.000000,-740.205942,10362.883188
1097.730543,-229.828649,-666.185348,10066.800811
1097.730859,0.000000,-0.000000,9622.677246
1097.731175,0.000000,444.123565,9400.615463
1097.731490,0.000000,888.247130,9622.677246
1097.731806,0.000000,1036.288319,9474.636058
1097.732122,-229.828649,814.226536,9252.574275
1097.732437,0.000000,814.226536,9474.636058
1097.732753,-383.047749,370.102971,9252.574275
1097.733069,-229.828649,-0.000000,9326.594869
1097.733384,0.000000,-592.164754,9992.780217
1097.733700,-383.047749,-148.041188,9844.739029
1097.734016,-612.876398,74.020594,10066.800811
1097.734331,-229.828649,-0.000000,9918.759623
1097.734647,-153.219100,-148.041188,9992.780217
1097.734963,-383.047749,-148.041188,9918.759623
1097.735279,153.219100,-74.020594,9548.656652
1097.735594,306.438199,-0.000000,9400.615463
1097.735910,383.047749,-0.000000,9178.553681
1097.736226,612.876398,222.061783,9474.636058
1097.736541,536.266849,-74.020594,9252.574275
1097.736857,612.876398,-0.000000,9400.615463
1097.737173,459.657299,-0.000000,9326.594869
1097.737488,612.876398,-592.164754,9030.512492
1097.737804,1225.752797,-296.082377,9400.615463
1097.738120,612.876398,-518.144159,9474.636058
1097.738436,76.609550,-888.247130,9622.677246
1097.738751,612.876398,-1406.391290,9844.739029
1097.739067,536.266849,-962.267725,9622.677246
1097.739383,689.485948,-518.144159,9400.615463
1097.739698,995.924147,-518.144159,9104.533087
1097.740014,1302.362347,-370.102971,8808.450710
1097.740330,995.924147,-222.061783,8882.471304
1097.740645,1225.752797,-222.061783,9252.574275
1097.740961,1532.190996,-370.102971,9400.615463
1097.741277,919.314598,-74.020594,9252.574275
1097.741592,459.657299,370.102971,9030.512492
1097.741908,1149.143247,296.082377,8142.265362
1097.742224,766.095498,148.041188,8956.491898
1097.742540,383.047749,-0.000000,9326.594869
1097.742855,459.657299,-740.205942,9844.739029
1097.743171,536.266849,-962.267725,10214.842000
1097.743487,0.000000,-814.226536,9474.636058
1097.743802,612.876398,-296.082377,9844.739029
1097.744118,459.657299,-592.164754,9474.636058
1097.744434,766.095498,-0.000000,9104.533087
1097.744749,306.438199,518.144159,9696.697840
1097.745065,1072.533697,-0.000000,9474.636058
1097.745381,612.876398,592.164754,9104.533087
1097.745696,766.095498,370.102971,8882.471304
1097.746012,1302.362347,-74.020594,9104.533087
1097.746328,919.314598,-518.144159,9622.677246
1097.746644,612.876398,-962.267725,9844.739029
1097.746959,76.609550,-296.082377,9548.656652
1097.747275,229.828649,-1036.288319,10066.800811
1097.747591,153.219100,-1036.288319,10362.883188
1097.747906,153.219100,-666.185348,9918.759623
1097.748222,766.095498,-666.185348,9770.718434
1097.748538,306.438199,-444.123565,9696.697840
1097.748853,306.438199,-222.061783,9030.512492
1097.749169,0.000000,-148.041188,9548.656652
1097.749485,766.095498,-444.123565,9474.636058
1097.749801,459.657299,-0.000000,9474.636058
1097.750116,536.266849,-0.000000,9474.636058
1097.750432,76.609550,-222.061783,9252.574275
1097.750748,689.485948,-444.123565,9474.636058
1097.751063,536.266849,-74.020594,9844.739029
1097.751379,-153.219100,518.144159,9474.636058
1097.751695,229.828649,-0.000000,9474.636058
1097.752010,153.219100,-0.000000,9474.636058
1097.752326,-229.828649,148.041188,9622.677246
1097.752642,229.828649,-222.061783,9622.677246
1097.752957,-153.219100,-148.041188,9474.636058
1097.753273,-459.657299,-0.000000,9326.594869
1097.753589,0.000000,444.123565,9326.594869
1097.753905,76.609550,370.102971,9474.636058
1097.754220,383.047749,814.226536,9770.718434
1097.754536,383.047749,740.205942,8808.450710
1097.754852,229.828649,-0.000000,9030.512492
1097.755167,76.609550,-296.082377,9474.636058
1097.755483,229.828649,-0.000000,9326.594869
1097.755799,-153.219100,296.082377,9252.574275
1097.756114,-306.438199,-296.082377,9696.697840
1097.756430,-383.047749,-0.000000,9918.759623
1097.756746,0.000000,-0.000000,9918.759623
1097.757061,76.609550,-222.061783,9992.780217
1097.757377,76.609550,-0.000000,8808.450710
1097.757693,153.219100,222.061783,8882.471304
1097.758009,306.438199,-148.041188,9474.636058
1097.758324,612.876398,-518.144159,9918.759623
1097.758640,459.657299,-370.102971,9844.739029
1097.758956,536.266849,-740.205942,9696.697840
1097.759271,995.924147,-740.205942,8586.388927
1097.759587,1225.752797,-518.144159,9104.533087
1097.759903,919.314598,-592.164754,9622.677246
1097.760218,1072.533697,-222.061783,9548.656652
1097.760534,1378.971896,-296.082377,9474.636058
1097.760850,1149.143247,-148.041188,9178.553681
1097.761166,919.314598,-74.020594,9474.636058
1097.761481,1455.581446,-962.267725,9178.553681
1097.761797,1072.533697,-592.164754,9252.574275
1097.762113,1149.143247,-0.000000,9326.594869
1097.762428,689.485948,-148.041188,9474.636058
1097.762744,1225.752797,-148.041188,9252.574275
1097.763060,842.705048,-0.000000,9474.636058
1097.763375,995.924147,-518.144159,8734.430116
1097.763691,919.314598,-814.226536,9030.512492
1097.764007,842.705048,-592.164754,9918.759623
1097.764322,536.266849,-370.102971,9696.697840
1097.764638,0.000000,-222.061783,9326.594869
1097.764954,153.219100,-444.123565,9474.636058
1097.765270,229.828649,-444.123565,9474.636058
1097.765585,536.266849,-666.185348,9770.718434
1097.765901,229.828649,-370.102971,9252.574275
1097.766217,153.219100,-0.000000,9400.615463
1097.766532,306.438199,-74.020594,9992.780217
1097.766848,76.609550,222.061783,9696.697840
1097.767164,536.266849,296.082377,9326.594869
1097.767479,229.828649,444.123565,9178.553681
1097.767795,306.438199,-148.041188,9252.574275
1097.768111,229.828649,-222.061783,9844.739029
1097.768427,536.266849,-518.144159,9918.759623
1097.768742,612.876398,148.041188,9844.739029
1097.769058,919.314598,-222.061783,9474.636058
1097.769374,536.266849,-666.185348,9992.780217
1097.769689,536.266849,-148.041188,9548.656652
1097.770005,229.828649,-518.144159,9474.636058
1097.770321,766.095498,-592.164754,9696.697840
1097.770636,536.266849,-0.000000,9400.615463
1097.770952,383.047749,222.061783,9030.512492
1097.771268,689.485948,-0.000000,9252.574275
1097.771583,689.485948,-148.041188,9622.677246
1097.771899,76.609550,-74.020594,9178.553681
1097.772215,153.219100,-0.000000,9178.553681
1097.772531,0.000000,-740.205942,9104.533087
1097.772846,0.000000,-370.102971,9918.759623
1097.773162,-383.047749,-74.020594,9844.739029
1097.773478,-229.828649,-74.020594,9548.656652
1097.773793,-919.314598,-148.041188,9622.677246
1097.774109,-612.876398,-444.123565,9770.718434
1097.774425,-306.438199,-222.061783,9918.759623
1097.774740,0.000000,-0.000000,9400.615463
1097.775056,-306.438199,444.123565,9030.512492
1097.775372,229.828649,518.144159,9326.594869
1097.775687,153.219100,-0.000000,9548.656652
1097.776003,229.828649,444.123565,9548.656652
1097.776319,153.219100,1036.288319,9030.512492
1097.776635,0.000000,814.226536,9104.533087
1097.776950,-153.219100,370.102971,9400.615463
1097.777266,0.000000,740.205942,9326.594869
1097.777582,-229.828649,518.144159,9400.615463
1097.777897,-153.219100,-74.020594,10140.821405
1097.778213,-536.266849,-592.164754,10214.842000
1097.778529,-229.828649,-592.164754,10214.842000
1097.778844,-76.609550,-740.205942,10066.800811
1097.779160,536.266849,-592.164754,9770.718434
1097.779476,229.828649,222.061783,9400.615463
1097.779792,1072.533697,-0.000000,9030.512492
1097.780107,919.314598,148.041188,9326.594869
1097.780423,1225.752797,444.123565,9474.636058
1097.780739,1378.971896,370.102971,8808.450710
1097.781054,1532.190996,-74.020594,8734.430116
1097.781370,1149.143247,-296.082377,9252.574275
1097.781686,1072.533697,-888.247130,9622.677246
1097.782001,919.314598,-592.164754,10214.842000
1097.782317,995.924147,-370.102971,9770.718434
1097.782633,766.095498,-222.061783,9844.739029
1097.782948,459.657299,-370.102971,9918.759623
1097.783264,919.314598,-888.247130,9918.759623
1097.783580,689.485948,-518.144159,9844.739029
1097.783896,766.095498,-74.020594,9844.739029
1097.784211,919.314598,-296.082377,9474.636058
1097.784527,1072.533697,-370.102971,9696.697840
1097.784843,995.924147,-0.000000,9400.615463
1097.785158,919.314598,-444.123565,9326.594869
1097.785474,919.314598,-444.123565,9178.553681
1097.785790,612.876398,-148.041188,9104.533087
1097.786105,383.047749,-74.020594,9326.594869
1097.786421,766.095498,-296.082377,10214.842000
1097.786737,842.705048,-370.102971,9548.656652
1097.787052,383.047749,148.041188,9104.533087
1097.787368,383.047749,-296.082377,9400.615463
1097.787684,612.876398,-1258.350101,9696.697840
1097.788000,306.438199,-1110.308913,9474.636058
1097.788315,76.609550,-518.144159,9252.574275
1097.788631,153.219100,-962.267725,9548.656652
1097.788947,0.000000,-1036.288319,10140.821405
1097.789262,153.219100,-518.144159,8882.471304
1097.789578,459.657299,-222.061783,8660.409521
1097.789894,842.705048,-370.102971,9104.533087
1097.790209,919.314598,-0.000000,8808.450710
1097.790525,229.828649,-0.000000,9178.553681
1097.790841,689.485948,-444.123565,9252.574275
1097.791157,383.047749,-370.102971,9474.636058
1097.791472,383.047749,-888.247130,9548.656652
1097.791788,153.219100,-1036.288319,9548.656652
1097.792104,459.657299,-1110.308913,9474.636058
1097.792419,383.047749,-148.041188,9326.594869
1097.792735,612.876398,-0.000000,9252.574275
1097.793051,536.266849,-222.061783,9918.759623
1097.793366,689.485948,-0.000000,9474.636058
1097.793682,842.705048,666.185348,8734.430116
1097.793998,612.876398,370.102971,8586.388927
1097.794313,995.924147,222.061783,9030.512492
1097.794629,459.657299,444.123565,9252.574275
1097.794945,766.095498,518.144159,9104.533087
1097.795261,229.828649,222.061783,9474.636058
1097.795576,-153.219100,-296.082377,9326.594869
1097.795892,-383.047749,-0.000000,9992.780217
1097.796208,-383.047749,-888.247130,10214.842000
1097.796523,-153.219100,-0.000000,10214.842000
1097.796839,-306.438199,888.247130,9474.636058
1097.797155,-689.485948,666.185348,8956.491898
1097.797470,-153.219100,296.082377,9770.718434
1097.797786,0.000000,-148.041188,9844.739029
1097.798102,0.000000,-0.000000,9474.636058
1097.798418,-153.219100,-0.000000,9178.553681
1097.798733,-459.657299,-296.082377,9696.697840
1097.799049,0.000000,370.102971,9548.656652
1097.799365,0.000000,444.123565,9178.553681
1097.799680,0.000000,296.082377,9992.780217
1097.799996,0.000000,-0.000000,9770.718434
1097.800312,76.609550,-444.123565,9696.697840
1097.800627,229.828649,-444.123565,10436.903782
1097.800943,383.047749,-370.102971,10140.821405
1097.801259,383.047749,-296.082377,9918.759623
1097.801574,689.485948,296.082377,9622.677246
1097.801890,612.876398,370.102971,9696.697840
1097.802206,536.266849,296.082377,9770.718434
1097.802522,612.876398,-148.041188,9474.636058
1097.802837,1378.971896,-444.123565,9696.697840
1097.803153,1225.752797,-370.102971,9844.739029
1097.803469,1378.971896,-0.000000,9400.615463
1097.803784,1225.752797,-148.041188,9548.656652
1097.804100,1149.143247,-444.123565,10214.842000
1097.804416,1302.362347,-222.061783,9474.636058
1097.804731,1532.190996,-148.041188,8882.471304
1097.805047,1838.629195,-666.185348,9770.718434
1097.805363,1532.190996,-666.185348,9918.759623
1097.805678,2221.676944,-444.123565,9178.553681
1097.805994,1685.410096,-0.000000,8364.327145
1097.806310,1455.581446,370.102971,9104.533087
1097.806626,1608.800546,-296.082377,9104.533087
1097.806941,1378.971896,-222.061783,8956.491898
1097.807257,995.924147,-296.082377,8660.409521
1097.807573,153.219100,-814.226536,9252.574275
1097.807888,306.438199,-1036.288319,9696.697840
1097.808204,0.000000,-1184.329507,9770.718434
1097.808520,153.219100,-1110.308913,10214.842000
1097.808835,383.047749,-814.226536,9474.636058
1097.809151,-459.657299,-1332.370696,9622.677246
1097.809467,-229.828649,-1258.350101,9918.759623
1097.809783,-459.657299,-592.164754,9104.533087
1097.810098,0.000000,222.061783,9104.533087
1097.810414,919.314598,-0.000000,8808.450710
1097.810730,383.047749,-148.041188,8734.430116
1097.811045,536.266849,-370.102971,9474.636058
1097.811361,0.000000,-666.185348,8512.368333
1097.811677,153.219100,-1036.288319,8956.491898
1097.811992,76.609550,-814.226536,9622.677246
1097.812308,229.828649,-518.144159,9326.594869
1097.812624,459.657299,-814.226536,9696.697840
1097.812940,306.438199,-888.247130,9696.697840
1097.813255,0.000000,-814.226536,9326.594869
1097.813571,0.000000,-1332.370696,9252.574275
1097.813887,459.657299,-814.226536,9326.594869
1097.814203,459.657299,-222.061783,9326.594869
1097.814518,153.219100,444.123565,9326.594869
1097.814834,612.876398,518.144159,9178.553681
1097.815150,153.219100,296.082377,8808.450710
1097.815465,306.438199,74.020594,8956.491898
1097.815781,536.266849,-370.102971,9474.636058
1097.816097,229.828649,-444.123565,9474.636058
1097.816413,0.000000,-148.041188,9770.718434
1097.816728,383.047749,-296.082377,9992.780217
1097.817044,689.485948,-148.041188,9844.739029
1097.817360,459.657299,222.061783,9474.636058
1097.817676,153.219100,-0.000000,9844.739029
1097.817991,919.314598,148.041188,9770.718434
1097.818307,842.705048,592.164754,9622.677246
1097.818623,536.266849,1184.329507,9474.636058
1097.818939,1072.533697,1184.329507,9326.594869
1097.819254,842.705048,666.185348,8956.491898
1097.819570,383.047749,962.267725,9474.636058
1097.819886,76.609550,518.144159,9178.553681
1097.820201,229.828649,222.061783,9474.636058
1097.820517,0.000000,-0.000000,10066.800811
1097.820833,-842.705048,222.061783,10140.821405
1097.821149,-383.047749,-0.000000,10288.862594
1097.821464,-459.657299,-370.102971,10288.862594
1097.821780,-536.266849,-518.144159,9844.739029
1097.822096,-536.266849,-740.205942,10214.842000
1097.822412,-229.828649,-1184.329507,10140.821405
1097.822727,0.000000,-518.144159,9548.656652
1097.823043,459.657299,296.082377,9474.636058
1097.823359,536.266849,222.061783,9400.615463
1097.823675,766.095498,-0.000000,9474.636058
1097.823990,995.924147,296.082377,9178.553681
1097.824306,689.485948,-74.020594,9178.553681
1097.824622,1149.143247,-444.123565,9400.615463
1097.824937,1455.581446,-296.082377,9326.594869
1097.825253,1608.800546,-296.082377,9030.512492
1097.825569,1302.362347,-0.000000,9474.636058
1097.825885,1149.143247,-296.082377,9622.677246
1097.826200,766.095498,-296.082377,9548.656652
1097.826516,842.705048,-370.102971,9770.718434
1097.826832,766.095498,-518.144159,9770.718434
1097.827148,459.657299,-444.123565,9400.615463
1097.827463,842.705048,296.082377,9104.533087
1097.827779,1072.533697,444.123565,9030.512492
1097.828095,919.314598,-0.000000,9252.574275
1097.828411,1532.190996,-0.000000,8956.491898
1097.828726,842.705048,-0.000000,8882.471304
1097.829042,536.266849,-74.020594,9178.553681
1097.829358,612.876398,148.041188,9252.574275
1097.829673,229.828649,-0.000000,9252.574275
1097.829989,536.266849,-370.102971,9696.697840
1097.830305,153.219100,-666.185348,9548.656652
1097.830621,0.000000,-666.185348,9474.636058
1097.830936,153.219100,-740.205942,9326.594869
1097.831252,459.657299,-814.226536,9622.677246
1097.831568,229.828649,-444.123565,9326.594869
1097.831884,459.657299,-0.000000,8956.491898
1097.832199,153.219100,-0.000000,8882.471304
1097.832515,383.047749,-296.082377,9252.574275
1097.832831,0.000000,-518.144159,9326.594869
1097.833147,153.219100,-740.205942,9178.553681
1097.833462,0.000000,-814.226536,9474.636058
1097.833778,0.000000,-888.247130,9104.533087
1097.834094,0.000000,-1036.288319,9696.697840
1097.834410,153.219100,-1110.308913,10436.903782
1097.834725,-229.828649,-666.185348,9844.739029
1097.835041,0.000000,-666.185348,9696.697840
1097.835357,153.219100,-888.247130,9474.636058
1097.835672,153.219100,-518.144159,9400.615463
1097.835988,229.828649,-370.102971,9918.759623
1097.836304,536.266849,-74.020594,10066.800811
1097.836620,919.314598,-148.041188,9104.533087
1097.836935,1378.971896,666.185348,9178.553681
1097.837251,1302.362347,444.123565,9104.533087
1097.837567,1685.410096,-74.020594,9178.553681
1097.837883,1149.143247,-74.020594,9326.594869
1097.838198,842.705048,666.185348,9178.553681
1097.838514,766.095498,740.205942,9474.636058
1097.838830,536.266849,444.123565,9770.718434
1097.839146,153.219100,-0.000000,9548.656652
1097.839461,76.609550,-0.000000,9696.697840
1097.839777,383.047749,-444.123565,10066.800811
1097.840093,76.609550,-222.061783,9622.677246
1097.840408,76.609550,370.102971,9770.718434
1097.840724,76.609550,148.041188,9770.718434
1097.841040,536.266849,444.123565,9548.656652
1097.841356,383.047749,592.164754,9326.594869
1097.841671,0.000000,296.082377,9030.512492
1097.841987,459.657299,-222.061783,9474.636058
1097.842303,842.705048,-74.020594,9548.656652
1097.842619,76.609550,444.123565,9326.594869
1097.842934,229.828649,592.164754,9622.677246
1097.843250,0.000000,296.082377,9696.697840
1097.843566,229.828649,222.061783,9326.594869
1097.843882,76.609550,-148.041188,9474.636058
1097.844197,0.000000,-444.123565,9474.636058
1097.844513,-153.219100,-444.123565,9696.697840
1097.844829,-153.219100,-222.061783,9844.739029
1097.845144,229.828649,-296.082377,9474.636058
1097.845460,383.047749,-370.102971,9474.636058
1097.845776,153.219100,-74.020594,9178.553681
1097.846092,229.828649,-148.041188,9252.574275
1097.846407,229.828649,-222.061783,9400.615463
1097.846723,689.485948,-888.247130,9326.594869
1097.847039,0.000000,-518.144159,9622.677246
1097.847355,383.047749,-592.164754,9770.718434
1097.847670,842.705048,-888.247130,9992.780217
1097.847986,1149.143247,-666.185348,9696.697840
1097.848302,995.924147,-888.247130,9104.533087
1097.848618,1072.533697,-888.247130,9326.594869
1097.848933,995.924147,-0.000000,8808.450710
1097.849249,1302.362347,-74.020594,9030.512492
1097.849565,1302.362347,-0.000000,9030.512492
1097.849880,1225.752797,-296.082377,9104.533087
1097.850196,919.314598,296.082377,9104.533087
1097.850512,766.095498,-0.000000,8956.491898
1097.850828,842.705048,-666.185348,9474.636058
1097.851143,153.219100,-518.144159,9326.594869
1097.851459,-153.219100,-518.144159,9696.697840
1097.851775,76.609550,-1110.308913,10288.862594
1097.852091,-153.219100,-1702.473667,10436.903782
1097.852406,-153.219100,-1036.288319,10214.842000
1097.852722,229.828649,-666.185348,9696.697840
1097.853038,459.657299,-296.082377,9474.636058
1097.853354,459.657299,296.082377,9252.574275
1097.853669,766.095498,740.205942,8808.450710
1097.853985,919.314598,666.185348,8808.450710
1097.854301,1149.143247,888.247130,8882.471304
1097.854616,689.485948,518.144159,8512.368333
1097.854932,612.876398,-592.164754,9474.636058
1097.855248,459.657299,-1554.432478,9622.677246
1097.855564,153.219100,-740.205942,9770.718434
1097.855879,-306.438199,-1332.370696,9992.780217
1097.856195,-229.828649,-1184.329507,10066.800811
1097.856511,76.609550,-814.226536,10288.862594
1097.856827,306.438199,-444.123565,9696.697840
1097.857142,689.485948,-888.247130,9548.656652
1097.857458,919.314598,-814.226536,9326.594869
1097.857774,689.485948,-148.041188,9548.656652
1097.858090,1149.143247,-0.000000,9326.594869
1097.858405,1225.752797,-222.061783,9326.594869
1097.858721,1149.143247,-0.000000,9178.553681
1097.859037,689.485948,-74.020594,9104.533087
1097.859353,919.314598,-148.041188,9918.759623
1097.859668,842.705048,-666.185348,9474.636058
1097.859984,459.657299,-0.000000,9400.615463
1097.860300,689.485948,-0.000000,9474.636058
1097.860615,766.095498,-222.061783,9844.739029
1097.860931,383.047749,296.082377,9844.739029
1097.861247,153.219100,148.041188,9252.574275
1097.861563,229.828649,-0.000000,9770.718434
1097.861878,0.000000,-0.000000,9474.636058
1097.862194,-229.828649,518.144159,8956.491898
1097.862510,0.000000,222.061783,9770.718434
1097.862826,-153.219100,-0.000000,9844.739029
1097.863141,0.000000,814.226536,8808.450710
1097.863457,-459.657299,666.185348,9178.553681
1097.863773,0.000000,-74.020594,9770.718434
1097.864089,-76.609550,370.102971,9326.594869
1097.864404,-612.876398,666.185348,8956.491898
1097.864720,-612.876398,222.061783,9696.697840
1097.865036,-229.828649,-0.000000,9622.677246
1097.865351,-229.828649,-0.000000,9474.636058
1097.865667,-383.047749,-296.082377,9474.636058
1097.865983,0.000000,-1036.288319,9770.718434
1097.866299,76.609550,-740.205942,9844.739029
1097.866614,153.219100,-222.061783,9622.677246
1097.866930,536.266849,-222.061783,9696.697840
1097.867246,1149.143247,-0.000000,9696.697840
1097.867562,842.705048,-0.000000,8956.491898
1097.867877,766.095498,-0.000000,9104.533087
1097.868193,995.924147,-148.041188,9178.553681
1097.868509,919.314598,222.061783,9474.636058
1097.868825,766.095498,-0.000000,9622.677246
1097.869140,1149.143247,-592.164754,9474.636058
1097.869456,766.095498,-148.041188,9770.718434
1097.869772,383.047749,-296.082377,9844.739029
1097.870087,459.657299,-1554.432478,10362.883188
1097.870403,459.657299,-1036.288319,10066.800811
1097.870719,306.438199,-296.082377,10288.862594
1097.871035,1225.752797,74.020594,9474.636058
1097.871350,1608.800546,-0.000000,9178.553681
1097.871666,1532.190996,-74.020594,9474.636058
1097.871982,1302.362347,444.123565,8956.491898
1097.872298,1072.533697,222.061783,8734.430116
1097.872613,1532.190996,-0.000000,8734.430116
1097.872929,919.314598,222.061783,8808.450710
1097.873245,536.266849,-74.020594,9326.594869
1097.873561,536.266849,-444.123565,9918.759623
1097.873876,0.000000,-518.144159,9548.656652
1097.874192,0.000000,-370.102971,9474.636058
1097.874508,-306.438199,-814.226536,9770.718434
1097.874823,-229.828649,-666.185348,9844.739029
1097.875139,-229.828649,-222.061783,9696.697840
1097.875455,0.000000,-222.061783,9474.636058
1097.875771,306.438199,-0.000000,9770.718434
1097.876086,383.047749,-148.041188,9400.615463
1097.876402,306.438199,-0.000000,9030.512492
1097.876718,459.657299,-296.082377,9326.594869
1097.877034,766.095498,-592.164754,9178.553681
1097.877349,919.314598,-222.061783,9030.512492
1097.877665,306.438199,-666.185348,9474.636058
1097.877981,689.485948,-814.226536,10066.800811
1097.878297,689.485948,-592.164754,9474.636058
1097.878612,0.000000,222.061783,9696.697840
1097.878928,229.828649,-222.061783,9622.677246
1097.879244,229.828649,-0.000000,9104.533087
1097.879559,0.000000,-0.000000,9030.512492
1097.879875,-153.219100,-444.123565,9622.677246
1097.880191,229.828649,-1184.329507,10140.821405
1097.880507,76.609550,-1110.308913,9696.697840
1097.880822,76.609550,-518.144159,9326.594869
1097.881138,536.266849,-518.144159,9252.574275
1097.881454,919.314598,-0.000000,9326.594869
1097.881770,459.657299,444.123565,8512.368333
1097.882085,306.438199,296.082377,8956.491898
1097.882401,766.095498,-296.082377,9326.594869
1097.882717,536.266849,-444.123565,9252.574275
1097.883033,766.095498,-666.185348,9474.636058
1097.883348,306.438199,-1110.308913,9474.636058
1097.883664,0.000000,-0.000000,9400.615463
1097.883980,229.828649,592.164754,9104.533087
1097.884296,383.047749,888.247130,9474.636058
1097.884611,0.000000,1258.350101,9178.553681
1097.884927,0.000000,962.267725,9474.636058
1097.885243,-229.828649,148.041188,9252.574275
1097.885558,0.000000,-740.205942,9992.780217
1097.885874,153.219100,-444.123565,9918.759623
1097.886190,0.000000,-0.000000,10140.821405
1097.886506,76.609550,-222.061783,10288.862594
1097.886821,-459.657299,296.082377,9622.677246
1097.887137,-689.485948,962.267725,9696.697840
1097.887453,0.000000,962.267725,9326.594869
1097.887769,0.000000,148.041188,9548.656652
1097.888084,383.047749,-370.102971,10436.903782
1097.888400,306.438199,-74.020594,9844.739029
1097.888716,612.876398,-222.061783,9548.656652
1097.889032,919.314598,-296.082377,9696.697840
1097.889347,689.485948,-518.144159,9696.697840
1097.889663,919.314598,-296.082377,9474.636058
1097.889979,1378.971896,-0.000000,9104.533087
1097.890294,1149.143247,-296.082377,9474.636058
1097.890610,1072.533697,-0.000000,9696.697840
1097.890926,1302.362347,-592.164754,9474.636058
1097.891242,842.705048,-666.185348,9400.615463
1097.891557,842.705048,-1036.288319,9696.697840
1097.891873,1302.362347,-1480.411884,9992.780217
1097.892189,612.876398,-1258.350101,9474.636058
1097.892505,1225.752797,-518.144159,9252.574275
1097.892820,1302.362347,-444.123565,9104.533087
1097.893136,1072.533697,-222.061783,9474.636058
1097.893452,1072.533697,-0.000000,9400.615463
1097.893768,995.924147,296.082377,8660.409521
1097.894083,1302.362347,-74.020594,8290.306550
1097.894399,995.924147,-740.205942,9178.553681
1097.894715,1149.143247,-222.061783,9474.636058
1097.895030,766.095498,-0.000000,9030.512492
1097.895346,919.314598,-148.041188,9474.636058
1097.895662,995.924147,-592.164754,9474.636058
1097.895978,0.000000,-444.123565,9104.533087
1097.896293,306.438199,-518.144159,9548.656652
1097.896609,229.828649,-666.185348,9622.677246
1097.896925,0.000000,148.041188,9252.574275
1097.897241,0.000000,296.082377,9326.594869
1097.897556,229.828649,296.082377,9252.574275
1097.897872,306.438199,370.102971,8956.491898
1097.898188,153.219100,148.041188,8586.388927
1097.898504,153.219100,-666.185348,8660.409521
1097.898819,306.438199,-814.226536,9178.553681
1097.899135,459.657299,-444.123565,9770.718434
1097.899451,153.219100,-814.226536,10140.821405
1097.899766,76.609550,-1036.288319,9992.780217
1097.900082,153.219100,-814.226536,9992.780217
1097.900398,0.000000,-592.164754,9918.759623
1097.900714,229.828649,-888.247130,9622.677246
1097.901029,459.657299,-148.041188,9844.739029
1097.901345,0.000000,518.144159,9030.512492
1097.901661,689.485948,296.082377,9326.594869
1097.901977,1072.533697,814.226536,9178.553681
1097.902292,383.047749,666.185348,8734.430116
1097.902608,459.657299,-814.226536,9252.574275
1097.902924,612.876398,-1258.350101,9696.697840
1097.903240,0.000000,-740.205942,10140.821405
1097.903555,0.000000,-0.000000,9918.759623
1097.903871,76.609550,296.082377,9548.656652
1097.904187,153.219100,444.123565,9548.656652
1097.904503,306.438199,962.267725,9770.718434
1097.904818,306.438199,444.123565,9104.533087
1097.905134,0.000000,-370.102971,9326.594869
1097.905450,0.000000,-296.082377,9622.677246
1097.905765,153.219100,-148.041188,9104.533087
1097.906081,229.828649,-0.000000,9770.718434
1097.906397,383.047749,-0.000000,9548.656652
1097.906713,76.609550,666.185348,9030.512492
1097.907028,153.219100,888.247130,9104.533087
1097.907344,0.000000,296.082377,9400.615463
1097.907660,-306.438199,370.102971,9252.574275
1097.907976,0.000000,-0.000000,9918.759623
1097.908291,153.219100,-666.185348,10140.821405
1097.908607,0.000000,-0.000000,9548.656652
1097.908923,-459.657299,-0.000000,9474.636058
1097.909239,0.000000,-666.185348,9474.636058
1097.909554,0.000000,-444.123565,9844.739029
1097.909870,0.000000,-0.000000,9548.656652
1097.910186,0.000000,296.082377,9548.656652
1097.910501,306.438199,-592.164754,9770.718434
1097.910817,536.266849,-888.247130,10510.924376
1097.911133,612.876398,-740.205942,9844.739029
1097.911449,919.314598,-592.164754,9400.615463
1097.911764,1378.971896,-296.082377,9030.512492
1097.912080,612.876398,-0.000000,8882.471304
1097.912396,1149.143247,-0.000000,9474.636058
1097.912712,1455.581446,-592.164754,9548.656652
1097.913027,842.705048,-740.205942,9104.533087
1097.913343,689.485948,-740.205942,9326.594869
1097.913659,766.095498,-1776.494261,9400.615463
1097.913975,1072.533697,-1702.473667,9622.677246
1097.914291,995.924147,-962.267725,9474.636058
1097.914607,689.485948,-518.144159,9178.553681
1097.914922,1378.971896,-518.144159,9030.512492
1097.915238,919.314598,-222.061783,9030.512492
1097.915554,919.314598,-222.061783,8882.471304
1097.915870,1072.533697,-740.205942,8808.450710
1097.916186,536.266849,-888.247130,9548.656652
1097.916502,459.657299,-740.205942,9474.636058
1097.916818,306.438199,-740.205942,9474.636058
1097.917133,229.828649,-370.102971,9474.636058
1097.917449,383.047749,-370.102971,9400.615463
1097.917765,76.609550,148.041188,9104.533087
1097.918081,229.828649,-518.144159,9252.574275
1097.918397,612.876398,-370.102971,9622.677246
1097.918713,459.657299,-0.000000,9548.656652
1097.919029,383.047749,148.041188,9104.533087
1097.919344,842.705048,444.123565,9252.574275
1097.919660,383.047749,370.102971,9474.636058
1097.919976,229.828649,370.102971,9474.636058
1097.920292,459.657299,-0.000000,9178.553681
1097.920608,536.266849,-0.000000,9622.677246
1097.920924,459.657299,-148.041188,9918.759623
1097.921240,306.438199,-148.041188,9400.615463
1097.921555,842.705048,-592.164754,9844.739029
1097.921871,689.485948,-740.205942,10140.821405
1097.922187,459.657299,-592.164754,9548.656652
1097.922503,842.705048,-962.267725,9770.718434
1097.922819,766.095498,-740.205942,9770.718434
1097.923135,766.095498,296.082377,9326.594869
1097.923451,1455.581446,-0.000000,9104.533087
1097.923766,1302.362347,296.082377,9030.512492
1097.924082,842.705048,-0.000000,8882.471304
1097.924398,689.485948,-222.061783,9252.574275
1097.924714,536.266849,-740.205942,9104.533087
1097.925030,153.219100,-592.164754,9030.512492
1097.925346,-459.657299,-0.000000,8882.471304
1097.925662,-766.095498,-1184.329507,9844.739029
1097.925977,-1225.752797,-1628.453072,10732.986159
1097.926293,-1608.800546,-1776.494261,10732.986159
1097.926609,-2145.067394,-1702.473667,10584.944971
1097.926925,-1762.019645,-1480.411884,10362.883188
1097.927241,-1378.971896,-1406.391290,10140.821405
1097.927557,-1302.362347,-296.082377,9548.656652
1097.927873,229.828649,-222.061783,9326.594869
1097.928188,76.609550,-814.226536,9178.553681
1097.928504,842.705048,-814.226536,9622.677246
1097.928820,766.095498,-666.185348,9104.533087
1097.929136,1455.581446,-888.247130,8882.471304
1097.929452,2145.067394,-1406.391290,9252.574275
1097.929768,1225.752797,-962.267725,9030.512492
1097.930083,1532.190996,-666.185348,9474.636058
1097.930399,1762.019645,-1184.329507,9770.718434
1097.930715,1225.752797,-1406.391290,9622.677246
1097.931031,1149.143247,-2220.617826,10214.842000
1097.931347,1302.362347,-2294.638420,9548.656652
1097.931663,1608.800546,-2368.659014,10436.903782
1097.931979,2221.676944,-1998.556043,10362.883188
1097.932294,2298.286494,-1628.453072,9178.553681
1097.932610,2374.896044,-1554.432478,9474.636058
1097.932926,2681.334243,-1776.494261,9326.594869
1097.933242,2911.162892,-1554.432478,9252.574275
1097.933558,3064.381992,-1628.453072,8512.368333
1097.933874,3677.258390,-2146.597232,9622.677246
1097.934190,3524.039291,-1776.494261,8956.491898
1097.934505,3753.867940,-1702.473667,9178.553681
1097.934821,3524.039291,-1924.535449,8882.471304
1097.935137,3447.429741,-1924.535449,9548.656652
1097.935453,3447.429741,-1776.494261,9622.677246
1097.935769,3294.210641,-1554.432478,8882.471304
1097.936085,2911.162892,-2072.576638,9400.615463
1097.936401,3294.210641,-2664.741391,9548.656652
1097.936716,3370.820191,-3108.864956,9696.697840
1097.937032,3217.601092,-3034.844362,9326.594869
1097.937348,3064.381992,-2886.803174,9326.594869
1097.937664,3677.258390,-2516.700203,9474.636058
1097.937980,3294.210641,-3108.864956,9992.780217
1097.938296,2987.772442,-1924.535449,9474.636058
1097.938612,3217.601092,-1480.411884,8808.450710
1097.938927,2987.772442,-962.267725,8660.409521
1097.939243,3064.381992,-1480.411884,8808.450710
1097.939559,2757.943793,-1776.494261,8956.491898
1097.939875,2221.676944,-1998.556043,9326.594869
1097.940191,1225.752797,-2516.700203,9474.636058
1097.940507,1838.629195,-2812.782580,10436.903782
1097.940823,1838.629195,-2812.782580,10140.821405
1097.941138,1762.019645,-2072.576638,9400.615463
1097.941454,1915.238745,-1702.473667,9178.553681
1097.941770,2757.943793,-1406.391290,9326.594869
1097.942086,3140.991542,-1258.350101,9178.553681
1097.942402,2987.772442,-962.267725,8586.388927
1097.942718,2604.724693,-1332.370696,8734.430116
1097.943034,2987.772442,-2072.576638,9696.697840
1097.943349,2987.772442,-2664.741391,9548.656652
1097.943665,3064.381992,-2738.761985,9474.636058
1097.943981,2834.553343,-2442.679609,9400.615463
1097.944297,2757.943793,-2590.720797,9992.780217
1097.944613,2757.943793,-2960.823768,10140.821405
1097.944929,2374.896044,-2368.659014,10288.862594
1097.945245,2604.724693,-740.205942,9622.677246
1097.945560,2374.896044,-444.123565,9326.594869
1097.945876,2451.505594,-814.226536,9622.677246
1097.946192,2451.505594,-1258.350101,9770.718434
1097.946508,2528.115143,-1776.494261,9622.677246
1097.946824,2451.505594,-1776.494261,8882.471304
1097.947140,1838.629195,-1702.473667,8882.471304
1097.947456,1762.019645,-1702.473667,9474.636058
1097.947771,1455.581446,-1628.453072,9548.656652
1097.948087,1608.800546,-1480.411884,9696.697840
1097.948403,1455.581446,-1258.350101,10066.800811
1097.948719,612.876398,-1628.453072,10066.800811
1097.949035,536.266849,-2368.659014,10436.903782
1097.949351,995.924147,-2960.823768,10658.965565
1097.949666,1685.410096,-3404.947333,10955.047942
1097.949982,2221.676944,-2812.782580,9918.759623
1097.950298,2451.505594,-2368.659014,9178.553681
1097.950614,2604.724693,-2146.597232,8956.491898
1097.950930,3217.601092,-2146.597232,8734.430116
1097.951246,3294.210641,-1554.432478,8956.491898
1097.951562,3447.429741,-592.164754,8512.368333
1097.951877,3294.210641,-370.102971,8290.306550
1097.952193,3370.820191,-962.267725,8660.409521
1097.952509,3600.648841,-1924.535449,9178.553681
1097.952825,3064.381992,-2442.679609,9474.636058
1097.953141,2757.943793,-2960.823768,9696.697840
1097.953457,2451.505594,-3330.926739,9918.759623
1097.953773,2145.067394,-3627.009116,10436.903782
1097.954088,2221.676944,-3330.926739,10658.965565
1097.954404,2068.457845,-2442.679609,10510.924376
1097.954720,2068.457845,-1776.494261,9770.718434
1097.955036,2451.505594,-1258.350101,9548.656652
1097.955352,2834.553343,-1036.288319,9030.512492
1097.955668,3447.429741,-1332.370696,8882.471304
1097.955984,3753.867940,-962.267725,8808.450710
1097.956299,3753.867940,-1702.473667,8808.450710
1097.956615,3677.258390,-2442.679609,9326.594869
1097.956931,3600.648841,-3627.009116,9696.697840
1097.957247,3370.820191,-4293.194464,10140.821405
1097.957563,3370.820191,-4071.132681,10584.944971
1097.957879,3600.648841,-3256.906145,10510.924376
