#time,accel_x,accel_y,accel_z
699.589623,459.657299,-148.041188,9548.656652
699.589939,459.657299,-148.041188,9548.656652
699.590254,383.047749,-222.061783,9622.677246
699.590570,383.047749,-74.020594,9548.656652
699.590886,306.438199,-222.061783,9548.656652
699.591202,383.047749,-148.041188,9474.636058
699.591517,536.266849,-148.041188,9622.677246
699.591833,229.828649,-370.102971,9400.615463
699.592149,766.095498,-0.000000,9622.677246
699.592465,383.047749,-148.041188,9474.636058
699.592780,306.438199,-148.041188,9622.677246
699.593096,383.047749,-296.082377,9474.636058
699.593412,689.485948,-148.041188,9474.636058
699.593728,383.047749,-370.102971,9474.636058
699.594043,689.485948,-222.061783,9696.697840
699.594359,153.219100,-0.000000,9474.636058
699.594675,229.828649,-0.000000,9474.636058
699.594991,842.705048,148.041188,9252.574275
699.595306,459.657299,296.082377,9104.533087
699.595622,766.095498,296.082377,9104.533087
699.595938,153.219100,-0.000000,9252.574275
699.596254,0.000000,-0.000000,9474.636058
699.596569,0.000000,-148.041188,9844.739029
699.596885,306.438199,-222.061783,9474.636058
699.597201,0.000000,-148.041188,9622.677246
699.597517,0.000000,-518.144159,9844.739029
699.597832,536.266849,-222.061783,9918.759623
699.598148,229.828649,-148.041188,9400.615463
699.598464,459.657299,444.123565,9030.512492
699.598780,536.266849,888.247130,9178.553681
699.599095,612.876398,814.226536,9326.594869
699.599411,919.314598,666.185348,9030.512492
699.599727,766.095498,518.144159,9030.512492
699.600043,536.266849,592.164754,9252.574275
699.600358,689.485948,370.102971,9326.594869
699.600674,612.876398,222.061783,9548.656652
699.600990,536.266849,-0.000000,9844.739029
699.601306,1302.362347,296.082377,9474.636058
699.601621,919.314598,814.226536,9474.636058
699.601937,766.095498,666.185348,9622.677246
699.602253,1149.143247,1036.288319,9400.615463
699.602569,1838.629195,1036.288319,9548.656652
699.602884,1685.410096,1554.432478,9104.533087
699.603200,1991.848295,1776.494261,9326.594869
699.603516,2145.067394,1554.432478,9178.553681
699.603832,2298.286494,1702.473667,9030.512492
699.604147,2298.286494,1776.494261,9104.533087
699.604463,2681.334243,1924.535449,9178.553681
699.604779,2221.676944,1702.473667,9178.553681
699.605095,2374.896044,1850.514855,9400.615463
699.605410,2451.505594,1850.514855,9474.636058
699.605726,2681.334243,2072.576638,9474.636058
699.606042,2681.334243,2220.617826,9474.636058
699.606358,2911.162892,2294.638420,9474.636058
699.606673,2911.162892,2368.659014,9474.636058
699.606989,3064.381992,2368.659014,9252.574275
699.607305,3140.991542,2442.679609,9548.656652
699.607621,3370.820191,2590.720797,9178.553681
699.607936,3524.039291,2738.761985,9178.553681
699.608252,3217.601092,2590.720797,9326.594869
699.608568,3447.429741,2738.761985,9770.718434
699.608884,3217.601092,2738.761985,9548.656652
699.609199,3064.381992,2590.720797,9696.697840
699.609515,2911.162892,2738.761985,9696.697840
699.609831,3217.601092,2590.720797,9622.677246
699.610147,2834.553343,2590.720797,9770.718434
699.610462,2911.162892,2294.638420,9770.718434
699.610778,2987.772442,2368.659014,9992.780217
699.611094,2911.162892,2146.597232,10140.821405
699.611410,2681.334243,1998.556043,10140.821405
699.611725,2757.943793,2368.659014,9992.780217
699.612041,2451.505594,2738.761985,10066.800811
699.612357,2451.505594,2516.700203,9992.780217
699.612673,3064.381992,2072.576638,9918.759623
699.612988,2681.334243,2146.597232,9770.718434
699.613304,3064.381992,2072.576638,9474.636058
699.613620,2757.943793,2294.638420,9622.677246
699.613936,2681.334243,2072.576638,9474.636058
699.614251,2834.553343,2072.576638,9474.636058
699.614567,2068.457845,1998.556043,9474.636058
699.614883,1838.629195,1406.391290,9770.718434
699.615198,1302.362347,1332.370696,9918.759623
699.615514,919.314598,666.185348,10214.842000
699.615830,612.876398,148.041188,10584.944971
699.616146,536.266849,-74.020594,10881.027347
699.616461,689.485948,-518.144159,10955.047942
699.616777,1149.143247,-592.164754,11029.068536
699.617093,1225.752797,-148.041188,10510.924376
699.617409,1991.848295,444.123565,10066.800811
699.617724,2681.334243,1110.308913,9400.615463
699.618040,3140.991542,1776.494261,8808.450710
699.618356,4060.306139,2442.679609,7624.121203
699.618672,4596.572988,2738.761985,7105.977043
699.618987,4749.792088,2738.761985,6883.915261
699.619303,4443.353888,2368.659014,7254.018232
699.619619,3753.867940,1702.473667,7476.080014
699.619935,3064.381992,1110.308913,8290.306550
699.620250,1991.848295,444.123565,8808.450710
699.620566,995.924147,296.082377,9474.636058
699.620882,76.609550,-0.000000,10066.800811
699.621198,-766.095498,-592.164754,10288.862594
699.621513,-1149.143247,-518.144159,10658.965565
699.621829,-919.314598,-962.267725,11251.130318
699.622145,-919.314598,-1036.288319,10881.027347
699.622461,-306.438199,-740.205942,10881.027347
699.622776,536.266849,-148.041188,10510.924376
699.623092,1455.581446,814.226536,9622.677246
699.623408,2834.553343,1628.453072,8956.491898
699.623724,3907.087040,2738.761985,8216.285956
699.624039,5515.887586,3478.967927,7624.121203
699.624355,6128.763984,3775.050304,6883.915261
699.624671,6588.421283,4071.132681,6513.812290
699.624987,6358.592633,4071.132681,6365.771101
699.625302,6205.373534,3849.070898,7105.977043
699.625618,5745.716235,4071.132681,7476.080014
699.625934,4519.963438,2886.803174,8364.327145
699.626250,3217.601092,1554.432478,9770.718434
699.626565,1378.971896,444.123565,10807.006753
699.626881,0.000000,-740.205942,11991.336260
699.627197,-612.876398,-740.205942,12953.603985
699.627513,-1149.143247,-740.205942,13101.645173
699.627828,-1149.143247,-0.000000,13101.645173
699.628144,-153.219100,1258.350101,12361.439231
699.628460,459.657299,2146.597232,11251.130318
699.628776,1685.410096,3108.864956,9474.636058
699.629091,3217.601092,3849.070898,8290.306550
699.629407,4903.011187,4219.173869,7476.080014
699.629723,5822.325785,4367.215058,6957.935855
699.630039,6894.859482,4071.132681,7105.977043
699.630354,6052.154434,3330.926739,7624.121203
699.630670,5439.278036,2516.700203,8660.409521
699.630986,4826.401637,2294.638420,9474.636058
699.631302,3600.648841,2146.597232,10362.883188
699.631617,2451.505594,1554.432478,11769.274478
699.631933,1685.410096,1110.308913,12287.418637
699.632249,919.314598,1850.514855,11695.253884
699.632565,459.657299,2738.761985,11177.109724
699.632880,842.705048,2960.823768,10955.047942
699.633196,1532.190996,2368.659014,10066.800811
699.633512,1762.019645,1850.514855,9844.739029
699.633828,1685.410096,1628.453072,9548.656652
699.634143,1685.410096,1184.329507,9178.553681
699.634459,2604.724693,518.144159,9696.697840
699.634775,2604.724693,1406.391290,8808.450710
699.635091,2374.896044,2146.597232,9178.553681
699.635406,1685.410096,1924.535449,9474.636058
699.635722,1302.362347,1554.432478,9326.594869
699.636038,1685.410096,1110.308913,9696.697840
699.636354,1762.019645,148.041188,10288.862594
699.636669,1608.800546,-74.020594,10510.924376
699.636985,1149.143247,-0.000000,11251.130318
699.637301,1378.971896,370.102971,11103.089130
699.637617,1915.238745,962.267725,10066.800811
699.637932,2757.943793,1628.453072,9548.656652
699.638248,2681.334243,2590.720797,7846.182985
699.638564,3140.991542,3330.926739,7105.977043
699.638880,4060.306139,2590.720797,6513.812290
699.639195,3370.820191,1628.453072,6735.874072
699.639511,3140.991542,962.267725,7179.997637
699.639827,2298.286494,-296.082377,8216.285956
699.640143,842.705048,-1776.494261,9326.594869
699.640458,76.609550,-2294.638420,10584.944971
699.640774,-1225.752797,-2220.617826,11695.253884
699.641090,-2451.505594,-1184.329507,11991.336260
699.641406,-2604.724693,-370.102971,11251.130318
699.641721,-1532.190996,-148.041188,10436.903782
699.642037,-229.828649,-814.226536,9918.759623
699.642353,0.000000,-74.020594,9696.697840
699.642668,383.047749,-0.000000,9178.553681
699.642984,1838.629195,-962.267725,8290.306550
699.643300,2604.724693,-740.205942,7920.203579
699.643616,2451.505594,222.061783,7772.162391
699.643931,2298.286494,1258.350101,7624.121203
699.644247,2681.334243,1036.288319,7846.182985
699.644563,2681.334243,296.082377,8068.244768
699.644879,2298.286494,-74.020594,8660.409521
699.645194,612.876398,-148.041188,9030.512492
699.645510,995.924147,-370.102971,9696.697840
699.645826,536.266849,-888.247130,10362.883188
699.646142,-383.047749,-814.226536,10732.986159
699.646457,-1302.362347,444.123565,10584.944971
699.646773,-1608.800546,444.123565,10288.862594
699.647089,-1072.533697,-1110.308913,9992.780217
699.647405,-153.219100,-2072.576638,9992.780217
699.647720,-383.047749,-1776.494261,9770.718434
699.648036,306.438199,-962.267725,9474.636058
699.648352,919.314598,-962.267725,9400.615463
699.648667,1072.533697,-0.000000,8808.450710
699.648983,842.705048,1110.308913,8216.285956
699.649299,1532.190996,1258.350101,8290.306550
699.649614,689.485948,962.267725,9104.533087
699.649930,76.609550,-74.020594,9622.677246
699.650245,0.000000,-518.144159,9474.636058
699.650561,-919.314598,-962.267725,9770.718434
699.650877,-919.314598,-1184.329507,10881.027347
699.651192,-842.705048,-962.267725,11251.130318
699.651508,-1225.752797,222.061783,9992.780217
699.651824,-1149.143247,1036.288319,9770.718434
699.652139,-153.219100,-0.000000,9918.759623
699.652455,0.000000,-444.123565,9326.594869
699.652771,0.000000,-740.205942,10214.842000
699.653086,76.609550,-888.247130,10066.800811
699.653402,1072.533697,-814.226536,10066.800811
699.653718,1225.752797,-444.123565,9844.739029
699.654033,842.705048,1332.370696,9104.533087
699.654349,995.924147,2294.638420,8512.368333
699.654665,1072.533697,2294.638420,8438.347739
699.654980,1378.971896,1554.432478,8808.450710
699.655296,995.924147,1628.453072,8808.450710
699.655612,689.485948,1036.288319,8882.471304
699.655927,995.924147,222.061783,9252.574275
699.656243,1302.362347,-296.082377,9844.739029
699.656559,383.047749,-0.000000,9770.718434
699.656874,76.609550,740.205942,9548.656652
699.657190,459.657299,-0.000000,9474.636058
699.657505,383.047749,-444.123565,9622.677246
699.657821,153.219100,-296.082377,9400.615463
699.658137,0.000000,-592.164754,9770.718434
699.658452,229.828649,-1036.288319,10214.842000
699.658768,-229.828649,-1036.288319,10362.883188
699.659084,0.000000,518.144159,9474.636058
699.659399,-229.828649,1776.494261,8512.368333
699.659715,76.609550,1628.453072,8438.347739
699.660031,689.485948,740.205942,9030.512492
699.660346,766.095498,370.102971,8808.450710
699.660662,689.485948,296.082377,8438.347739
699.660978,766.095498,-444.123565,9474.636058
699.661293,842.705048,-814.226536,10066.800811
699.661609,612.876398,148.041188,9622.677246
699.661925,536.266849,1184.329507,9178.553681
699.662240,842.705048,814.226536,9030.512492
699.662556,1149.143247,-148.041188,9252.574275
699.662872,383.047749,-666.185348,9474.636058
699.663187,-536.266849,-1258.350101,9696.697840
699.663503,-306.438199,-1480.411884,10807.006753
699.663819,-306.438199,-1184.329507,10658.965565
699.664134,-995.924147,370.102971,10140.821405
699.664450,-919.314598,814.226536,9844.739029
699.664766,229.828649,296.082377,9548.656652
699.665081,995.924147,-0.000000,9104.533087
699.665397,766.095498,-74.020594,8586.388927
699.665712,1225.752797,-296.082377,9104.533087
699.666028,1991.848295,-666.185348,9104.533087
699.666344,1991.848295,-370.102971,8882.471304
699.666659,1608.800546,444.123565,8808.450710
699.666975,612.876398,1480.411884,8660.409521
699.667291,612.876398,296.082377,8808.450710
699.667606,383.047749,-370.102971,9696.697840
699.667922,-459.657299,-1554.432478,10436.903782
699.668238,-612.876398,-1924.535449,10955.047942
699.668553,-459.657299,-1702.473667,11325.150913
699.668869,-766.095498,-1998.556043,10955.047942
699.669185,-383.047749,-370.102971,10510.924376
699.669500,-306.438199,592.164754,9844.739029
699.669816,459.657299,962.267725,9030.512492
699.670132,1225.752797,592.164754,9104.533087
699.670447,1302.362347,444.123565,8290.306550
699.670763,995.924147,-0.000000,8512.368333
699.671079,1838.629195,-1110.308913,9104.533087
699.671394,1608.800546,-1036.288319,8734.430116
699.671710,1072.533697,-74.020594,8808.450710
699.672026,153.219100,148.041188,9178.553681
699.672341,229.828649,-444.123565,9622.677246
699.672657,-306.438199,-1036.288319,9696.697840
699.672972,-842.705048,-1850.514855,10288.862594
699.673288,-1608.800546,-2072.576638,10881.027347
699.673604,-1302.362347,-2368.659014,11547.212695
699.673919,-1072.533697,-1998.556043,10658.965565
699.674235,-766.095498,-740.205942,10066.800811
699.674551,-153.219100,222.061783,9178.553681
699.674866,306.438199,74.020594,8512.368333
699.675182,1225.752797,-222.061783,8142.265362
699.675498,1762.019645,-0.000000,7994.224174
699.675813,1532.190996,-74.020594,7698.141797
699.676129,2374.896044,-740.205942,9104.533087
699.676445,1991.848295,-888.247130,8808.450710
699.676760,1149.143247,-0.000000,8808.450710
699.677076,842.705048,370.102971,8734.430116
699.677392,306.438199,-0.000000,9474.636058
699.677707,76.609550,-666.185348,9622.677246
699.678023,-229.828649,-1110.308913,9918.759623
699.678339,-766.095498,-1184.329507,10436.903782
699.678654,-536.266849,-1776.494261,10807.006753
699.678970,-306.438199,-1258.350101,10881.027347
699.679286,0.000000,-0.000000,9770.718434
699.679601,76.609550,1258.350101,8956.491898
699.679917,1378.971896,1406.391290,8364.327145
699.680232,1838.629195,666.185348,8290.306550
699.680548,1915.238745,518.144159,7994.224174
699.680864,1685.410096,444.123565,8512.368333
699.681179,1915.238745,-0.000000,9104.533087
699.681495,1532.190996,-0.000000,9474.636058
699.681811,689.485948,444.123565,9474.636058
699.682126,0.000000,1110.308913,9326.594869
699.682442,153.219100,444.123565,9622.677246
699.682758,0.000000,-222.061783,9844.739029
699.683073,-306.438199,-740.205942,10436.903782
699.683389,-383.047749,-1480.411884,10584.944971
699.683705,-612.876398,-1702.473667,11103.089130
699.684020,-383.047749,-888.247130,10881.027347
699.684336,-459.657299,-0.000000,10066.800811
699.684652,0.000000,1110.308913,9548.656652
699.684967,612.876398,1258.350101,9104.533087
699.685283,1225.752797,1184.329507,8512.368333
699.685599,1455.581446,666.185348,8512.368333
699.685914,1532.190996,814.226536,8364.327145
699.686230,1455.581446,-370.102971,9326.594869
699.686546,1072.533697,-518.144159,9918.759623
699.686861,306.438199,518.144159,10288.862594
699.687177,-153.219100,1850.514855,9770.718434
699.687492,-536.266849,1110.308913,9844.739029
699.687808,-459.657299,-0.000000,10436.903782
699.688124,-612.876398,-592.164754,11029.068536
699.688439,-612.876398,-1036.288319,11029.068536
699.688755,-383.047749,-1406.391290,11029.068536
699.689071,612.876398,-1036.288319,10584.944971
699.689386,766.095498,740.205942,9326.594869
699.689702,1149.143247,2146.597232,8290.306550
699.690018,1532.190996,2220.617826,7994.224174
699.690333,2911.162892,814.226536,7920.203579
699.690649,1762.019645,592.164754,7994.224174
699.690965,1532.190996,518.144159,8290.306550
699.691280,1608.800546,-814.226536,8956.491898
699.691596,1149.143247,-888.247130,9844.739029
699.691912,536.266849,-222.061783,9622.677246
699.692227,-383.047749,666.185348,9548.656652
699.692543,-153.219100,370.102971,9696.697840
699.692859,-766.095498,-444.123565,9474.636058
699.693174,-536.266849,-1184.329507,10658.965565
699.693490,-229.828649,-1110.308913,10510.924376
699.693806,-229.828649,-1628.453072,10807.006753
699.694121,306.438199,-1332.370696,10140.821405
699.694437,459.657299,-0.000000,9104.533087
699.694752,1225.752797,1110.308913,8956.491898
699.695068,1302.362347,1258.350101,7846.182985
699.695384,1991.848295,1036.288319,7402.059420
699.695699,1991.848295,-0.000000,7846.182985
699.696015,1072.533697,-74.020594,7846.182985
699.696331,1378.971896,-888.247130,9252.574275
699.696646,1532.190996,-1480.411884,9918.759623
699.696962,0.000000,-444.123565,9770.718434
699.697278,-842.705048,-0.000000,9622.677246
699.697593,-612.876398,-444.123565,9622.677246
699.697909,-689.485948,-1258.350101,9844.739029
699.698225,-1225.752797,-1702.473667,10140.821405
699.698540,-1378.971896,-2072.576638,10510.924376
699.698856,-919.314598,-3034.844362,10807.006753
699.699172,-459.657299,-2516.700203,11029.068536
699.699487,0.000000,-592.164754,9844.739029
699.699803,0.000000,666.185348,8660.409521
699.700119,1149.143247,888.247130,8586.388927
699.700434,1455.581446,740.205942,7846.182985
699.700750,1915.238745,740.205942,7846.182985
699.701066,1915.238745,-0.000000,7994.224174
699.701381,1378.971896,-1110.308913,9326.594869
699.701697,1225.752797,-1480.411884,9696.697840
699.702013,536.266849,-592.164754,9622.677246
699.702328,0.000000,-0.000000,9622.677246
699.702644,0.000000,-592.164754,9992.780217
699.702959,-229.828649,-740.205942,10436.903782
699.703275,-459.657299,-592.164754,9992.780217
699.703591,-995.924147,-1110.308913,10288.862594
699.703906,-383.047749,-2072.576638,11103.089130
699.704222,383.047749,-2294.638420,11325.150913
699.704538,76.609550,-0.000000,9918.759623
699.704853,459.657299,962.267725,8808.450710
699.705169,1455.581446,370.102971,8216.285956
699.705485,1838.629195,370.102971,8512.368333
699.705800,1838.629195,518.144159,7920.203579
699.706116,1455.581446,370.102971,8586.388927
699.706432,1762.019645,-444.123565,9474.636058
699.706747,995.924147,-1258.350101,9548.656652
699.707063,229.828649,-222.061783,9770.718434
699.707379,-383.047749,444.123565,9474.636058
699.707694,-306.438199,-148.041188,9918.759623
699.708010,-536.266849,-666.185348,9696.697840
699.708326,-612.876398,-1184.329507,10140.821405
699.708641,-766.095498,-1184.329507,10436.903782
699.708957,-766.095498,-2368.659014,10955.047942
699.709273,-995.924147,-1998.556043,10955.047942
699.709588,-383.047749,-74.020594,9918.759623
699.709904,-229.828649,1332.370696,8808.450710
699.710219,383.047749,1924.535449,8660.409521
699.710535,1072.533697,1332.370696,8290.306550
699.710851,995.924147,962.267725,7772.162391
699.711166,995.924147,740.205942,8364.327145
699.711482,1225.752797,-370.102971,9252.574275
699.711798,995.924147,-370.102971,9326.594869
699.712113,612.876398,444.123565,9696.697840
699.712429,0.000000,1036.288319,9474.636058
699.712745,0.000000,1036.288319,9548.656652
699.713060,-153.219100,-0.000000,9770.718434
699.713376,-919.314598,-518.144159,10362.883188
699.713692,-842.705048,-1110.308913,10510.924376
699.714007,-612.876398,-1628.453072,10955.047942
699.714323,-229.828649,-1554.432478,11251.130318
699.714639,-229.828649,-0.000000,10214.842000
699.714954,459.657299,1628.453072,8438.347739
699.715270,766.095498,1628.453072,8438.347739
699.715586,1378.971896,1480.411884,8364.327145
699.715901,1762.019645,1110.308913,7846.182985
699.716217,1455.581446,740.205942,8290.306550
699.716533,2068.457845,-370.102971,8882.471304
699.716848,1608.800546,-666.185348,9548.656652
699.717164,1302.362347,370.102971,9548.656652
699.717479,689.485948,962.267725,9252.574275
699.717795,612.876398,1184.329507,9844.739029
699.718111,919.314598,222.061783,9770.718434
699.718426,0.000000,-74.020594,9844.739029
699.718742,76.609550,-592.164754,10658.965565
699.719058,0.000000,-2072.576638,11473.192101
699.719373,0.000000,-1850.514855,11769.274478
699.719689,153.219100,-370.102971,10362.883188
699.720005,76.609550,1258.350101,9326.594869
699.720320,1302.362347,1628.453072,9030.512492
699.720636,1532.190996,1554.432478,7772.162391
699.720952,1762.019645,1258.350101,7994.224174
699.721267,1762.019645,222.061783,8142.265362
699.721583,2068.457845,-814.226536,8882.471304
699.721899,1838.629195,-1480.411884,9770.718434
699.722214,1072.533697,-518.144159,9622.677246
699.722530,766.095498,222.061783,8956.491898
699.722846,76.609550,-0.000000,9548.656652
699.723161,0.000000,-444.123565,9622.677246
699.723477,-612.876398,-1184.329507,9844.739029
699.723793,-536.266849,-1406.391290,10732.986159
699.724108,-842.705048,-2590.720797,10955.047942
699.724424,-536.266849,-1998.556043,10955.047942
699.724739,-153.219100,-444.123565,10436.903782
699.725055,0.000000,370.102971,8808.450710
699.725371,383.047749,666.185348,8660.409521
699.725686,1378.971896,740.205942,8068.244768
699.726002,919.314598,592.164754,7328.038826
699.726318,1378.971896,-0.000000,8512.368333
699.726633,1302.362347,-962.267725,9474.636058
699.726949,1072.533697,-1554.432478,9622.677246
699.727265,383.047749,-592.164754,9474.636058
699.727580,459.657299,-370.102971,9548.656652
699.727896,153.219100,-222.061783,10066.800811
699.728212,-536.266849,-296.082377,9548.656652
699.728527,-612.876398,-1258.350101,9770.718434
699.728843,-842.705048,-1554.432478,10584.944971
699.729159,-689.485948,-2294.638420,10807.006753
699.729474,0.000000,-2072.576638,11251.130318
699.729790,0.000000,-666.185348,9992.780217
699.730106,383.047749,814.226536,8364.327145
699.730421,1225.752797,962.267725,7994.224174
699.730737,1915.238745,888.247130,7624.121203
699.731053,2145.067394,962.267725,7254.018232
699.731368,2068.457845,-74.020594,7550.100608
699.731684,1915.238745,-1258.350101,8734.430116
699.731999,842.705048,-1480.411884,9548.656652
699.732315,383.047749,-444.123565,9548.656652
699.732631,-383.047749,-0.000000,8808.450710
699.732946,-459.657299,-296.082377,9844.739029
699.733262,-766.095498,-1184.329507,10214.842000
699.733578,-1302.362347,-1406.391290,10214.842000
699.733893,-1149.143247,-1332.370696,10510.924376
699.734209,-1225.752797,-2368.659014,10807.006753
699.734525,-995.924147,-2442.679609,10881.027347
699.734840,-229.828649,-0.000000,9992.780217
699.735156,153.219100,1184.329507,8660.409521
699.735472,842.705048,1480.411884,8068.244768
699.735787,1838.629195,1110.308913,7772.162391
699.736103,1838.629195,962.267725,7624.121203
699.736419,1685.410096,1110.308913,7846.182985
699.736734,1762.019645,-0.000000,9178.553681
699.737050,1608.800546,-666.185348,9696.697840
699.737366,766.095498,740.205942,9474.636058
699.737681,306.438199,814.226536,9252.574275
699.737997,-306.438199,740.205942,9918.759623
699.738313,0.000000,-148.041188,10140.821405
699.738628,-766.095498,-814.226536,10732.986159
699.738944,-1149.143247,-1258.350101,11399.171507
699.739260,-1225.752797,-1850.514855,11695.253884
699.739575,-306.438199,-1554.432478,11621.233289
699.739891,0.000000,444.123565,9992.780217
699.740206,536.266849,1776.494261,9474.636058
699.740522,1685.410096,2072.576638,9104.533087
699.740838,2757.943793,1480.411884,7994.224174
699.741153,2528.115143,2146.597232,7772.162391
699.741469,2528.115143,1184.329507,7772.162391
699.741785,2757.943793,296.082377,9104.533087
699.742100,2911.162892,-0.000000,9696.697840
699.742416,1455.581446,740.205942,9474.636058
699.742732,919.314598,1332.370696,9400.615463
699.743047,229.828649,888.247130,10066.800811
699.743363,153.219100,-0.000000,10288.862594
699.743679,-919.314598,-222.061783,10362.883188
699.743994,-612.876398,-1332.370696,11177.109724
699.744310,-766.095498,-2368.659014,11917.315666
699.744626,-536.266849,-2294.638420,11917.315666
699.744941,-306.438199,-0.000000,10362.883188
699.745257,-383.047749,1184.329507,8882.471304
699.745573,1225.752797,1332.370696,8808.450710
699.745888,1838.629195,1036.288319,8216.285956
699.746204,1685.410096,1036.288319,7328.038826
699.746520,1532.190996,666.185348,8068.244768
699.746835,1762.019645,-222.061783,8364.327145
699.747151,1685.410096,-814.226536,8586.388927
699.747466,1072.533697,-0.000000,8808.450710
699.747782,0.000000,-0.000000,9326.594869
699.748098,-153.219100,-74.020594,10214.842000
699.748413,-612.876398,-1110.308913,10214.842000
699.748729,-1072.533697,-1406.391290,9918.759623
699.749045,-1608.800546,-1998.556043,10807.006753
699.749360,-995.924147,-2442.679609,11695.253884
699.749676,-766.095498,-1776.494261,10658.965565
699.749992,-766.095498,-222.061783,9474.636058
699.750307,0.000000,592.164754,8956.491898
699.750623,766.095498,-0.000000,8364.327145
699.750939,1302.362347,148.041188,8216.285956
699.751254,1225.752797,-148.041188,7105.977043
699.751570,1608.800546,-444.123565,8290.306550
699.751886,2068.457845,-888.247130,9030.512492
699.752201,1991.848295,-1036.288319,9178.553681
699.752517,1302.362347,-0.000000,8956.491898
699.752833,306.438199,-0.000000,8808.450710
699.753148,842.705048,-518.144159,9252.574275
699.753464,383.047749,-888.247130,9622.677246
699.753779,229.828649,-1184.329507,10214.842000
699.754095,-153.219100,-1628.453072,10362.883188
699.754411,-153.219100,-2294.638420,10955.047942
699.754726,-229.828649,-2146.597232,10881.027347
699.755042,0.000000,-0.000000,9992.780217
699.755358,229.828649,740.205942,8438.347739
699.755673,995.924147,666.185348,8364.327145
699.755989,1302.362347,222.061783,8068.244768
699.756305,1149.143247,-0.000000,8142.265362
699.756620,1149.143247,-74.020594,8660.409521
699.756936,1225.752797,-740.205942,8956.491898
699.757252,1072.533697,-740.205942,9252.574275
699.757567,766.095498,148.041188,9474.636058
699.757883,-536.266849,370.102971,9030.512492
699.758199,-383.047749,-296.082377,9844.739029
699.758514,-612.876398,-1036.288319,10214.842000
699.758830,-919.314598,-1184.329507,10066.800811
699.759145,-1225.752797,-1628.453072,10288.862594
699.759461,-1072.533697,-1702.473667,11103.089130
699.759777,-383.047749,-1554.432478,10658.965565
699.760092,-995.924147,-222.061783,9844.739029
699.760408,-459.657299,888.247130,9104.533087
699.760724,383.047749,444.123565,9030.512492
699.761039,842.705048,592.164754,8142.265362
699.761355,689.485948,518.144159,8216.285956
699.761671,689.485948,222.061783,9030.512492
699.761986,1225.752797,-740.205942,9548.656652
699.762302,919.314598,-296.082377,9622.677246
699.762618,383.047749,814.226536,9474.636058
699.762933,-153.219100,814.226536,9474.636058
699.763249,-306.438199,-0.000000,10140.821405
699.763565,0.000000,-444.123565,10288.862594
699.763880,-306.438199,-888.247130,10510.924376
699.764196,0.000000,-1184.329507,10732.986159
699.764511,0.000000,-1480.411884,10807.006753
699.764827,229.828649,-1184.329507,10658.965565
699.765143,383.047749,370.102971,10214.842000
699.765458,383.047749,1480.411884,9030.512492
699.765774,1455.581446,1554.432478,8438.347739
699.766090,1915.238745,1332.370696,8364.327145
699.766405,1915.238745,1258.350101,7994.224174
699.766721,1762.019645,962.267725,8290.306550
699.767037,2298.286494,-0.000000,9400.615463
699.767352,2068.457845,-370.102971,9770.718434
699.767668,1225.752797,296.082377,9474.636058
699.767984,842.705048,740.205942,9326.594869
699.768299,383.047749,666.185348,9918.759623
699.768615,306.438199,-222.061783,9992.780217
699.768931,0.000000,-148.041188,10066.800811
699.769246,-153.219100,-592.164754,10436.903782
699.769562,76.609550,-1036.288319,10955.047942
699.769877,383.047749,-962.267725,10140.821405
699.770193,383.047749,444.123565,9474.636058
699.770509,766.095498,1628.453072,8808.450710
699.770824,1455.581446,1776.494261,8068.244768
699.771140,1838.629195,1332.370696,8364.327145
699.771456,1532.190996,1110.308913,8068.244768
699.771771,1225.752797,370.102971,8364.327145
699.772087,1149.143247,-444.123565,9400.615463
699.772403,995.924147,-592.164754,9400.615463
699.772718,459.657299,296.082377,9474.636058
699.773034,0.000000,814.226536,9252.574275
699.773350,-536.266849,148.041188,9474.636058
699.773665,-229.828649,-1036.288319,10140.821405
699.773981,-612.876398,-1036.288319,10288.862594
699.774297,-1225.752797,-1332.370696,10658.965565
699.774612,-689.485948,-1850.514855,11103.089130
699.774928,-612.876398,-1554.432478,10510.924376
699.775244,-536.266849,-222.061783,9918.759623
699.775559,-536.266849,444.123565,9844.739029
699.775875,306.438199,-0.000000,9104.533087
699.776190,995.924147,74.020594,8734.430116
699.776506,995.924147,-0.000000,8290.306550
699.776822,1225.752797,-148.041188,8512.368333
699.777137,1685.410096,-1110.308913,9548.656652
699.777453,1455.581446,-666.185348,9474.636058
699.777769,919.314598,222.061783,9326.594869
699.778084,383.047749,666.185348,8956.491898
699.778400,459.657299,-222.061783,9696.697840
699.778716,0.000000,-1110.308913,9622.677246
699.779031,-306.438199,-1554.432478,10288.862594
699.779347,-383.047749,-1998.556043,10881.027347
699.779663,-383.047749,-2368.659014,11103.089130
699.779978,-459.657299,-2146.597232,10807.006753
699.780294,-383.047749,-74.020594,9844.739029
699.780610,-153.219100,666.185348,8882.471304
699.780925,536.266849,518.144159,8586.388927
699.781241,1225.752797,-222.061783,8142.265362
699.781556,766.095498,-0.000000,7846.182985
699.781872,766.095498,-148.041188,7994.224174
699.782188,1225.752797,-1110.308913,8734.430116
699.782503,689.485948,-1554.432478,9696.697840
699.782819,153.219100,-814.226536,9252.574275
699.783135,-536.266849,-518.144159,8882.471304
699.783450,-229.828649,-888.247130,9474.636058
699.783766,-459.657299,-1628.453072,10140.821405
699.784082,-536.266849,-1850.514855,10214.842000
699.784397,-842.705048,-1850.514855,10288.862594
699.784713,-689.485948,-1924.535449,10807.006753
699.785029,-612.876398,-1480.411884,10140.821405
699.785344,-383.047749,-148.041188,9400.615463
699.785660,0.000000,962.267725,8660.409521
699.785976,766.095498,888.247130,7994.224174
699.786291,766.095498,222.061783,7994.224174
699.786607,1378.971896,444.123565,7624.121203
699.786922,1302.362347,-148.041188,7846.182985
699.787238,1762.019645,-1258.350101,9326.594869
699.787554,1302.362347,-1184.329507,9104.533087
699.787869,383.047749,-0.000000,9548.656652
699.788185,0.000000,370.102971,9326.594869
699.788501,-229.828649,-148.041188,9992.780217
699.788816,153.219100,-740.205942,10214.842000
699.789132,0.000000,-1184.329507,9918.759623
699.789448,-459.657299,-1332.370696,11029.068536
699.789763,153.219100,-1554.432478,11251.130318
699.790079,0.000000,-888.247130,10214.842000
699.790395,842.705048,740.205942,10066.800811
699.790710,995.924147,1998.556043,8956.491898
699.791026,2068.457845,2072.576638,8364.327145
699.791342,2374.896044,1702.473667,8068.244768
699.791657,2374.896044,1776.494261,7846.182985
699.791973,2451.505594,1258.350101,8660.409521
699.792289,2834.553343,370.102971,9474.636058
699.792604,2451.505594,222.061783,9474.636058
699.792920,1532.190996,1258.350101,9400.615463
699.793235,842.705048,1776.494261,9770.718434
699.793551,919.314598,1258.350101,9918.759623
699.793867,459.657299,222.061783,10584.944971
699.794182,0.000000,-0.000000,10658.965565
699.794498,-689.485948,-518.144159,11399.171507
699.794814,-459.657299,-1110.308913,11621.233289
699.795129,-153.219100,-888.247130,11547.212695
699.795445,-536.266849,1110.308913,9918.759623
699.795761,612.876398,1776.494261,8882.471304
699.796076,919.314598,1850.514855,8734.430116
699.796392,1378.971896,2072.576638,8808.450710
699.796708,1378.971896,1184.329507,7920.203579
699.797023,1072.533697,1332.370696,8586.388927
699.797339,1302.362347,-148.041188,9474.636058
699.797655,1072.533697,-444.123565,9918.759623
699.797970,459.657299,444.123565,9548.656652
699.798286,-689.485948,1036.288319,9400.615463
699.798601,-306.438199,-0.000000,9918.759623
699.798917,-153.219100,-592.164754,10214.842000
699.799233,-919.314598,-962.267725,10510.924376
699.799548,-1302.362347,-1480.411884,10584.944971
699.799864,-1149.143247,-2368.659014,11177.109724
699.800180,-766.095498,-1776.494261,10807.006753
699.800495,-459.657299,-74.020594,9696.697840
699.800811,-229.828649,148.041188,8808.450710
699.801127,536.266849,518.144159,8660.409521
699.801442,919.314598,74.020594,7624.121203
699.801758,1072.533697,148.041188,7772.162391
699.802074,842.705048,-0.000000,7402.059420
699.802389,1149.143247,-1184.329507,9104.533087
699.802705,1072.533697,-1406.391290,9474.636058
699.803021,459.657299,-666.185348,8956.491898
699.803336,76.609550,-0.000000,8808.450710
699.803652,-153.219100,-666.185348,9474.636058
699.803967,0.000000,-1406.391290,9548.656652
699.804283,-536.266849,-1776.494261,10066.800811
699.804599,-536.266849,-2368.659014,10362.883188
699.804914,-306.438199,-2590.720797,10584.944971
699.805230,0.000000,-2368.659014,10362.883188
699.805546,0.000000,-814.226536,9474.636058
699.805861,229.828649,296.082377,8956.491898
699.806177,842.705048,296.082377,8216.285956
699.806493,1378.971896,518.144159,7772.162391
699.806808,1225.752797,296.082377,7550.100608
699.807124,1685.410096,-370.102971,7772.162391
699.807440,1225.752797,-1554.432478,9104.533087
699.807755,1225.752797,-1776.494261,9474.636058
699.808071,383.047749,-888.247130,9400.615463
699.808387,-459.657299,-74.020594,9178.553681
699.808702,0.000000,-592.164754,9992.780217
699.809018,0.000000,-1554.432478,10066.800811
699.809334,-689.485948,-1258.350101,9622.677246
699.809649,-919.314598,-1776.494261,10510.924376
699.809965,-842.705048,-2368.659014,10732.986159
699.810280,-459.657299,-2220.617826,10955.047942
699.810596,-229.828649,-1184.329507,10066.800811
699.810912,76.609550,148.041188,9104.533087
699.811227,536.266849,370.102971,8808.450710
699.811543,1225.752797,296.082377,8586.388927
699.811859,689.485948,-0.000000,7698.141797
699.812174,1072.533697,222.061783,8290.306550
699.812490,1378.971896,-888.247130,9474.636058
699.812806,1225.752797,-740.205942,9474.636058
699.813121,459.657299,222.061783,9400.615463
699.813437,306.438199,444.123565,9178.553681
699.813753,459.657299,-0.000000,10288.862594
699.814068,459.657299,-444.123565,10140.821405
699.814384,76.609550,-74.020594,10362.883188
699.814700,-229.828649,-740.205942,10807.006753
699.815015,0.000000,-1406.391290,10807.006753
699.815331,383.047749,-1184.329507,11399.171507
699.815646,459.657299,666.185348,9918.759623
699.815962,459.657299,2368.659014,9252.574275
699.816278,1532.190996,2368.659014,8956.491898
699.816593,1991.848295,1480.411884,8364.327145
699.816909,1532.190996,1850.514855,7624.121203
699.817225,1532.190996,1554.432478,8512.368333
699.817540,1991.848295,148.041188,9400.615463
699.817856,1915.238745,-148.041188,9844.739029
699.818172,842.705048,740.205942,10140.821405
699.818487,153.219100,1554.432478,9622.677246
699.818803,612.876398,962.267725,9918.759623
699.819119,383.047749,222.061783,10436.903782
699.819434,0.000000,-148.041188,10584.944971
699.819750,-383.047749,-74.020594,10288.862594
699.820066,0.000000,-1184.329507,11029.068536
699.820381,0.000000,-1036.288319,10807.006753
699.820697,0.000000,666.185348,9844.739029
699.821012,229.828649,1998.556043,8512.368333
699.821328,612.876398,1628.453072,8660.409521
699.821644,1072.533697,1406.391290,8512.368333
699.821959,842.705048,1406.391290,7550.100608
699.822275,995.924147,1184.329507,8290.306550
699.822591,919.314598,-0.000000,9400.615463
699.822906,766.095498,-962.267725,9474.636058
699.823222,153.219100,222.061783,9326.594869
699.823538,-536.266849,666.185348,9252.574275
699.823853,-459.657299,222.061783,9696.697840
699.824169,-153.219100,-370.102971,9770.718434
699.824485,-995.924147,-814.226536,10214.842000
699.824800,-1149.143247,-1110.308913,10658.965565
699.825116,-842.705048,-1406.391290,11251.130318
699.825432,-612.876398,-1332.370696,10807.006753
699.825747,0.000000,296.082377,9696.697840
699.826063,-76.609550,1184.329507,9030.512492
699.826379,995.924147,1332.370696,8438.347739
699.826694,1302.362347,296.082377,8142.265362
699.827010,1225.752797,296.082377,8216.285956
699.827325,1762.019645,-74.020594,7994.224174
699.827641,1838.629195,-888.247130,9030.512492
699.827957,1455.581446,-1110.308913,9696.697840
699.828272,536.266849,-296.082377,9622.677246
699.828588,383.047749,-0.000000,9474.636058
699.828904,306.438199,-592.164754,9770.718434
699.829219,0.000000,-1480.411884,10140.821405
699.829535,0.000000,-1554.432478,10584.944971
699.829851,-612.876398,-2516.700203,10807.006753
699.830166,-153.219100,-2886.803174,11695.253884
699.830482,306.438199,-2738.761985,10881.027347
699.830798,459.657299,-888.247130,9548.656652
699.831113,612.876398,-0.000000,8882.471304
699.831429,1149.143247,-0.000000,8660.409521
699.831745,1378.971896,-296.082377,7920.203579
699.832060,1685.410096,-148.041188,8068.244768
699.832376,1685.410096,-0.000000,7846.182985
699.832691,1915.238745,-814.226536,8512.368333
699.833007,1915.238745,-888.247130,8882.471304
699.833323,995.924147,-518.144159,8956.491898
699.833638,229.828649,-1036.288319,9770.718434
699.833954,-229.828649,-1554.432478,9844.739029
699.834270,-229.828649,-2072.576638,10584.944971
699.834585,-612.876398,-2146.597232,10140.821405
699.834901,-919.314598,-2146.597232,10732.986159
699.835217,-689.485948,-2220.617826,10881.027347
699.835532,-383.047749,-1628.453072,10658.965565
699.835848,-306.438199,-518.144159,9104.533087
699.836164,229.828649,740.205942,8586.388927
699.836479,612.876398,148.041188,7920.203579
699.836795,1532.190996,-0.000000,7846.182985
699.837111,1302.362347,370.102971,7402.059420
699.837426,1149.143247,-74.020594,7624.121203
699.837742,1378.971896,-592.164754,8956.491898
699.838057,919.314598,-666.185348,9030.512492
699.838373,0.000000,222.061783,8956.491898
699.838689,-689.485948,592.164754,9400.615463
699.839004,-306.438199,-148.041188,9992.780217
699.839320,-383.047749,-1036.288319,10288.862594
699.839636,-1072.533697,-1628.453072,10807.006753
699.839951,-1149.143247,-1110.308913,10658.965565
699.840267,-842.705048,-1480.411884,10881.027347
699.840583,-536.266849,-962.267725,10658.965565
699.840898,-459.657299,592.164754,9992.780217
699.841214,0.000000,1702.473667,9178.553681
699.841530,1072.533697,1554.432478,8216.285956
699.841845,1455.581446,1258.350101,8216.285956
699.842161,1991.848295,1554.432478,8142.265362
699.842477,1991.848295,1184.329507,8364.327145
699.842792,1991.848295,444.123565,8956.491898
699.843108,1685.410096,518.144159,9696.697840
699.843424,1072.533697,1258.350101,9548.656652
699.843739,459.657299,1850.514855,9400.615463
699.844055,153.219100,888.247130,9622.677246
699.844370,-76.609550,-0.000000,10658.965565
699.844686,-229.828649,-222.061783,10362.883188
699.845002,-383.047749,-0.000000,10807.006753
699.845317,-306.438199,-518.144159,10955.047942
699.845633,766.095498,-592.164754,11177.109724
699.845949,153.219100,962.267725,9992.780217
699.846264,229.828649,1850.514855,9400.615463
699.846580,766.095498,1406.391290,9178.553681
699.846896,1608.800546,1406.391290,8438.347739
699.847211,1225.752797,1628.453072,8216.285956
699.847527,1225.752797,1184.329507,8290.306550
699.847843,1608.800546,222.061783,9474.636058
699.848158,1302.362347,296.082377,9548.656652
699.848474,383.047749,888.247130,9326.594869
699.848790,306.438199,1628.453072,9770.718434
699.849105,306.438199,740.205942,9992.780217
699.849421,0.000000,-666.185348,10584.944971
699.849737,-383.047749,-962.267725,10510.924376
699.850052,-842.705048,-1406.391290,11251.130318
699.850368,-612.876398,-2072.576638,11621.233289
699.850684,-306.438199,-1628.453072,11029.068536
699.850999,-306.438199,-148.041188,9992.780217
699.851315,0.000000,1036.288319,9474.636058
699.851631,612.876398,592.164754,8808.450710
699.851946,1072.533697,74.020594,9030.512492
699.852262,1225.752797,-0.000000,8290.306550
699.852578,1378.971896,-370.102971,8290.306550
699.852893,1608.800546,-1184.329507,8956.491898
699.853209,1762.019645,-1110.308913,9178.553681
699.853525,842.705048,-740.205942,8882.471304
699.853840,919.314598,-148.041188,8956.491898
699.854156,612.876398,-1406.391290,9326.594869
699.854472,383.047749,-2368.659014,9992.780217
699.854787,-153.219100,-2294.638420,9844.739029
699.855103,-153.219100,-2442.679609,10288.862594
699.855419,0.000000,-2738.761985,10732.986159
699.855734,153.219100,-2368.659014,10140.821405
699.856050,0.000000,-518.144159,9178.553681
699.856366,0.000000,-74.020594,9178.553681
699.856681,612.876398,-592.164754,8438.347739
699.856997,689.485948,-814.226536,8068.244768
699.857313,919.314598,-444.123565,7772.162391
699.857628,1225.752797,-814.226536,7846.182985
699.857944,995.924147,-1332.370696,8512.368333
699.858260,612.876398,-1628.453072,9252.574275
699.858576,0.000000,-592.164754,8808.450710
699.858891,-229.828649,-74.020594,8882.471304
699.859207,0.000000,-814.226536,9252.574275
699.859523,-306.438199,-1554.432478,9918.759623
699.859838,-689.485948,-1998.556043,10066.800811
699.860154,-995.924147,-1998.556043,10140.821405
699.860470,-536.266849,-2368.659014,10584.944971
699.860785,-306.438199,-2294.638420,9844.739029
699.861101,-153.219100,-74.020594,9252.574275
699.861417,-536.266849,814.226536,8956.491898
699.861732,229.828649,518.144159,8216.285956
699.862048,1149.143247,-0.000000,8290.306550
699.862364,689.485948,518.144159,7920.203579
699.862679,689.485948,370.102971,8142.265362
699.862995,1455.581446,-592.164754,8882.471304
699.863311,919.314598,-518.144159,9326.594869
699.863626,689.485948,148.041188,9326.594869
699.863942,0.000000,444.123565,9918.759623
699.864258,-229.828649,-74.020594,10066.800811
699.864573,-612.876398,-444.123565,10288.862594
699.864889,-306.438199,-444.123565,10288.862594
699.865205,-383.047749,-740.205942,10658.965565
699.865520,-229.828649,-1184.329507,11251.130318
699.865836,76.609550,-1036.288319,11325.150913
699.866152,459.657299,666.185348,10066.800811
699.866467,459.657299,2294.638420,9104.533087
699.866783,1532.190996,2368.659014,9104.533087
699.867099,2068.457845,1628.453072,8512.368333
699.867414,1915.238745,2072.576638,8512.368333
699.867730,1991.848295,1776.494261,8216.285956
699.868046,2221.676944,592.164754,9326.594869
699.868362,2298.286494,296.082377,9918.759623
699.868677,1149.143247,962.267725,9696.697840
699.868993,229.828649,2220.617826,9178.553681
699.869309,536.266849,1406.391290,10362.883188
699.869624,612.876398,444.123565,10584.944971
699.869940,0.000000,518.144159,11029.068536
699.870256,-76.609550,-222.061783,10807.006753
699.870571,153.219100,-1036.288319,11695.253884
699.870887,229.828649,-1036.288319,11029.068536
699.871203,459.657299,1110.308913,10362.883188
699.871518,689.485948,2220.617826,9326.594869
699.871834,1455.581446,2220.617826,8808.450710
699.872150,1685.410096,2146.597232,8512.368333
699.872465,1532.190996,1850.514855,7920.203579
699.872781,1455.581446,1184.329507,8142.265362
699.873097,1072.533697,-148.041188,9252.574275
699.873412,689.485948,-666.185348,9326.594869
699.873728,536.266849,-0.000000,9770.718434
699.874044,0.000000,444.123565,9474.636058
699.874359,-153.219100,666.185348,9622.677246
699.874675,383.047749,-296.082377,10066.800811
699.874991,-689.485948,-592.164754,10140.821405
699.875306,-995.924147,-1480.411884,10584.944971
699.875622,-766.095498,-2146.597232,11177.109724
699.875938,-229.828649,-1924.535449,10881.027347
699.876253,-459.657299,-1110.308913,9918.759623
699.876569,0.000000,370.102971,8808.450710
699.876885,766.095498,518.144159,8660.409521
699.877200,1072.533697,-74.020594,8068.244768
699.877516,1149.143247,222.061783,8068.244768
699.877832,842.705048,444.123565,7920.203579
699.878148,1532.190996,-1036.288319,8956.491898
699.878463,995.924147,-1480.411884,9252.574275
699.878779,612.876398,-1184.329507,9474.636058
699.879095,153.219100,-518.144159,9104.533087
699.879410,306.438199,-740.205942,9474.636058
699.879726,76.609550,-1628.453072,9400.615463
699.880042,-306.438199,-2146.597232,9770.718434
699.880357,-766.095498,-2294.638420,10510.924376
699.880673,-536.266849,-2812.782580,10732.986159
699.880989,0.000000,-2664.741391,10362.883188
699.881304,0.000000,-814.226536,9622.677246
699.881620,229.828649,-0.000000,8882.471304
699.881936,919.314598,-74.020594,8216.285956
699.882251,919.314598,-888.247130,8364.327145
699.882567,1072.533697,-518.144159,7846.182985
699.882883,995.924147,-666.185348,7994.224174
699.883198,766.095498,-1480.411884,8882.471304
699.883514,1225.752797,-1702.473667,9178.553681
699.883830,459.657299,-1110.308913,9104.533087
699.884145,0.000000,-296.082377,8956.491898
699.884461,306.438199,-666.185348,9474.636058
699.884777,76.609550,-1332.370696,9696.697840
699.885092,-306.438199,-1332.370696,9844.739029
699.885408,-459.657299,-1702.473667,10140.821405
699.885724,-459.657299,-1998.556043,10436.903782
699.886039,0.000000,-2146.597232,10584.944971
699.886355,-229.828649,-888.247130,10288.862594
699.886671,-229.828649,296.082377,9030.512492
699.886987,536.266849,592.164754,8290.306550
699.887302,306.438199,444.123565,8290.306550
699.887618,612.876398,666.185348,8364.327145
699.887934,766.095498,518.144159,8068.244768
699.888249,1378.971896,-148.041188,9178.553681
699.888565,995.924147,-1184.329507,9918.759623
699.888881,306.438199,148.041188,9326.594869
699.889196,-383.047749,518.144159,9622.677246
699.889512,229.828649,-0.000000,9474.636058
699.889828,0.000000,-222.061783,10066.800811
699.890143,0.000000,-444.123565,9992.780217
699.890459,-229.828649,-592.164754,10584.944971
699.890775,0.000000,-888.247130,11325.150913
699.891090,0.000000,-370.102971,11177.109724
699.891406,306.438199,888.247130,10140.821405
699.891722,76.609550,2146.597232,9252.574275
699.892037,1302.362347,2220.617826,9178.553681
699.892353,1685.410096,1332.370696,8734.430116
699.892669,1302.362347,1406.391290,8290.306550
699.892984,1838.629195,1406.391290,8808.450710
699.893300,1991.848295,-0.000000,9548.656652
699.893616,1378.971896,370.102971,9918.759623
699.893931,1225.752797,1184.329507,9696.697840
699.894247,1072.533697,1924.535449,9104.533087
699.894563,995.924147,1480.411884,9622.677246
699.894878,1149.143247,1110.308913,10362.883188
699.895194,766.095498,592.164754,10140.821405
699.895510,306.438199,-296.082377,10214.842000
699.895825,612.876398,-888.247130,11103.089130
699.896141,842.705048,-370.102971,10881.027347
699.896457,306.438199,1406.391290,9696.697840
699.896773,459.657299,2294.638420,9178.553681
699.897088,995.924147,1850.514855,8512.368333
699.897404,1149.143247,1184.329507,8290.306550
699.897720,689.485948,1258.350101,8290.306550
699.898035,766.095498,962.267725,8660.409521
699.898351,1225.752797,-148.041188,9992.780217
699.898667,842.705048,-888.247130,9622.677246
699.898982,0.000000,-0.000000,9992.780217
699.899298,-306.438199,962.267725,9474.636058
699.899614,0.000000,222.061783,9400.615463
699.899929,0.000000,-370.102971,9548.656652
699.900245,-612.876398,-888.247130,10436.903782
699.900561,-229.828649,-1110.308913,10288.862594
699.900876,-306.438199,-1480.411884,10584.944971
699.901192,0.000000,-1332.370696,10881.027347
699.901508,-612.876398,-296.082377,9696.697840
699.901823,0.000000,-0.000000,9474.636058
699.902139,612.876398,518.144159,8512.368333
699.902455,766.095498,-222.061783,8438.347739
699.902770,612.876398,-666.185348,7994.224174
699.903086,689.485948,-962.267725,8660.409521
699.903402,995.924147,-1776.494261,10140.821405
699.903717,689.485948,-1702.473667,9696.697840
699.904033,0.000000,-666.185348,9104.533087
699.904349,-536.266849,-0.000000,9104.533087
699.904664,153.219100,-1184.329507,9770.718434
699.904980,0.000000,-1554.432478,9844.739029
699.905296,-306.438199,-2294.638420,9770.718434
699.905611,-689.485948,-2664.741391,10288.862594
699.905927,-229.828649,-3330.926739,11103.089130
699.906243,76.609550,-2664.741391,10510.924376
699.906559,153.219100,-1110.308913,10140.821405
699.906874,153.219100,296.082377,8808.450710
699.907190,766.095498,370.102971,8290.306550
699.907506,1302.362347,-0.000000,8068.244768
699.907821,1378.971896,-74.020594,7624.121203
699.908137,1225.752797,-296.082377,7846.182985
699.908453,1378.971896,-1258.350101,8438.347739
699.908768,1302.362347,-1776.494261,9252.574275
699.909084,306.438199,-814.226536,9252.574275
699.909400,0.000000,-0.000000,8956.491898
699.909715,-536.266849,-444.123565,9252.574275
699.910031,0.000000,-1258.350101,10140.821405
699.910347,-459.657299,-1998.556043,9918.759623
699.910662,-995.924147,-1628.453072,10732.986159
699.910978,-995.924147,-2368.659014,10658.965565
699.911294,-612.876398,-2368.659014,11177.109724
699.911609,-459.657299,-518.144159,9844.739029
699.911925,-459.657299,444.123565,8734.430116
699.912241,766.095498,740.205942,8290.306550
699.912556,1302.362347,-74.020594,8438.347739
699.912872,842.705048,370.102971,8216.285956
699.913188,1072.533697,-0.000000,8364.327145
699.913503,1378.971896,-518.144159,8882.471304
699.913819,1149.143247,-666.185348,9918.759623
699.914135,766.095498,296.082377,9400.615463
699.914450,153.219100,1406.391290,8660.409521
699.914766,766.095498,666.185348,9252.574275
699.915082,459.657299,-0.000000,9918.759623
699.915398,153.219100,-370.102971,10066.800811
699.915713,76.609550,-666.185348,10288.862594
699.916029,153.219100,-1184.329507,10881.027347
699.916345,76.609550,-1110.308913,11251.130318
699.916660,229.828649,518.144159,10436.903782
699.916976,0.000000,2072.576638,9326.594869
699.917292,766.095498,1998.556043,8882.471304
699.917607,1225.752797,1554.432478,8512.368333
699.917923,919.314598,1702.473667,8660.409521
699.918239,1378.971896,1480.411884,8734.430116
699.918554,1685.410096,592.164754,9548.656652
699.918870,1455.581446,-370.102971,9844.739029
699.919186,1072.533697,1036.288319,9844.739029
699.919501,766.095498,2072.576638,9326.594869
699.919817,766.095498,1332.370696,9696.697840
699.920133,919.314598,518.144159,10362.883188
699.920448,536.266849,666.185348,10140.821405
699.920764,306.438199,74.020594,10140.821405
699.921080,383.047749,-444.123565,10807.006753
699.921395,842.705048,-296.082377,10658.965565
699.921711,612.876398,1480.411884,9696.697840
699.922027,689.485948,2294.638420,9178.553681
699.922342,995.924147,1998.556043,8660.409521
699.922658,1149.143247,1258.350101,8660.409521
699.922974,842.705048,814.226536,8364.327145
699.923289,536.266849,222.061783,8734.430116
699.923605,153.219100,-740.205942,9622.677246
699.923921,76.609550,-1110.308913,9992.780217
699.924236,-383.047749,-0.000000,9992.780217
699.924552,-306.438199,666.185348,9474.636058
699.924868,153.219100,148.041188,9178.553681
699.925184,0.000000,-148.041188,10066.800811
699.925499,-459.657299,-888.247130,9844.739029
699.925815,-459.657299,-888.247130,9844.739029
699.926131,-536.266849,-2220.617826,11251.130318
699.926446,76.609550,-2220.617826,10955.047942
699.926762,229.828649,-370.102971,9770.718434
699.927078,-153.219100,740.205942,8586.388927
699.927393,383.047749,888.247130,8512.368333
699.927709,1072.533697,-0.000000,8586.388927
699.928025,1225.752797,-148.041188,7846.182985
699.928340,766.095498,-518.144159,8438.347739
699.928656,919.314598,-1776.494261,9326.594869
699.928972,766.095498,-2072.576638,9622.677246
699.929287,229.828649,-1258.350101,9474.636058
699.929603,-536.266849,-740.205942,9548.656652
699.929919,-306.438199,-1110.308913,9548.656652
699.930234,-229.828649,-1776.494261,9992.780217
699.930550,-306.438199,-1628.453072,9696.697840
699.930866,-459.657299,-2146.597232,10436.903782
699.931181,306.438199,-2664.741391,11251.130318
699.931497,612.876398,-2368.659014,10066.800811
699.931813,689.485948,-666.185348,9400.615463
699.932128,689.485948,-0.000000,8364.327145
699.932444,1762.019645,-74.020594,8290.306550
699.932760,1991.848295,-0.000000,7994.224174
699.933075,1838.629195,-148.041188,7772.162391
699.933391,1608.800546,-370.102971,7846.182985
699.933707,1302.362347,-1258.350101,9104.533087
699.934022,1302.362347,-1702.473667,9178.553681
699.934338,459.657299,-962.267725,9326.594869
699.934654,-383.047749,-296.082377,8882.471304
699.934970,-229.828649,-962.267725,9104.533087
699.935285,-459.657299,-1850.514855,9696.697840
699.935601,-689.485948,-2368.659014,9844.739029
699.935917,-1149.143247,-2368.659014,10510.924376
699.936232,-842.705048,-2812.782580,11029.068536
699.936548,-229.828649,-2442.679609,10510.924376
699.936864,-153.219100,-370.102971,9326.594869
699.937179,-229.828649,1110.308913,8660.409521
699.937495,383.047749,1332.370696,8290.306550
699.937811,1302.362347,666.185348,8068.244768
699.938126,1225.752797,962.267725,7846.182985
699.938442,1072.533697,592.164754,7772.162391
699.938758,1685.410096,-518.144159,9030.512492
699.939073,919.314598,-962.267725,9696.697840
699.939389,689.485948,-444.123565,10140.821405
699.939705,-229.828649,592.164754,9622.677246
699.940020,0.000000,222.061783,9696.697840
699.940336,-229.828649,-148.041188,10436.903782
699.940652,-383.047749,-0.000000,10066.800811
699.940967,-766.095498,-148.041188,10436.903782
699.941283,0.000000,-1184.329507,11029.068536
699.941599,0.000000,-888.247130,11621.233289
699.941914,229.828649,-0.000000,10510.924376
699.942230,459.657299,1776.494261,9104.533087
699.942546,1378.971896,2146.597232,8660.409521
699.942861,2451.505594,2072.576638,8586.388927
699.943177,1838.629195,2146.597232,8290.306550
699.943493,1915.238745,2146.597232,8290.306550
699.943808,2298.286494,888.247130,9622.677246
699.944124,1915.238745,-74.020594,9474.636058
699.944440,1149.143247,1110.308913,9770.718434
699.944756,919.314598,1850.514855,9474.636058
699.945071,1072.533697,1406.391290,9400.615463
699.945387,995.924147,1110.308913,10066.800811
699.945703,229.828649,518.144159,10362.883188
699.946018,229.828649,370.102971,10658.965565
699.946334,229.828649,-592.164754,11103.089130
699.946650,76.609550,-666.185348,10732.986159
699.946965,0.000000,888.247130,10288.862594
699.947281,-76.609550,2146.597232,9474.636058
699.947597,995.924147,1924.535449,9474.636058
699.947912,995.924147,1702.473667,8438.347739
699.948228,766.095498,1776.494261,8142.265362
699.948544,1072.533697,1406.391290,8290.306550
699.948859,995.924147,370.102971,9178.553681
699.949175,1225.752797,-518.144159,9992.780217
699.949491,153.219100,-296.082377,9992.780217
699.949806,-153.219100,592.164754,9548.656652
699.950122,-153.219100,222.061783,9844.739029
699.950438,76.609550,-518.144159,10066.800811
699.950754,-229.828649,-148.041188,10066.800811
699.951069,-612.876398,-814.226536,10066.800811
699.951385,-229.828649,-2146.597232,10436.903782
699.951701,0.000000,-2072.576638,11251.130318
699.952017,0.000000,-666.185348,10066.800811
699.952332,76.609550,-0.000000,8586.388927
699.952648,612.876398,518.144159,8068.244768
699.952964,995.924147,-0.000000,8438.347739
699.953280,612.876398,-0.000000,7846.182985
699.953596,1149.143247,-74.020594,8290.306550
699.953911,1302.362347,-1406.391290,9474.636058
699.954227,766.095498,-1850.514855,9474.636058
699.954543,383.047749,-1332.370696,9474.636058
699.954859,-306.438199,-740.205942,9400.615463
699.955174,0.000000,-1480.411884,9770.718434
699.955490,459.657299,-1776.494261,10066.800811
699.955806,-306.438199,-2368.659014,10140.821405
699.956122,-536.266849,-1998.556043,10658.965565
699.956437,0.000000,-2590.720797,10584.944971
699.956753,612.876398,-1554.432478,9696.697840
699.957069,306.438199,-444.123565,9474.636058
699.957385,536.266849,-0.000000,8808.450710
699.957701,1762.019645,-296.082377,8290.306550
699.958016,1762.019645,-296.082377,7772.162391
699.958332,1608.800546,-0.000000,7698.141797
699.958648,1685.410096,-148.041188,7550.100608
699.958964,1378.971896,-1110.308913,8364.327145
699.959279,995.924147,-1480.411884,9400.615463
699.959595,689.485948,-888.247130,9474.636058
699.959911,-229.828649,-444.123565,9178.553681
699.960227,-459.657299,-1110.308913,9548.656652
699.960543,-536.266849,-2220.617826,10362.883188
699.960858,-766.095498,-2294.638420,10436.903782
699.961174,-1302.362347,-2072.576638,10362.883188
699.961490,-766.095498,-2442.679609,11029.068536
699.961806,0.000000,-2220.617826,10362.883188
699.962121,-689.485948,-370.102971,9548.656652
699.962437,0.000000,740.205942,8734.430116
699.962753,536.266849,666.185348,8142.265362
699.963069,1225.752797,888.247130,7698.141797
699.963384,689.485948,1036.288319,7624.121203
699.963700,1072.533697,222.061783,8216.285956
699.964016,1072.533697,-666.185348,9252.574275
699.964332,1072.533697,-1184.329507,9474.636058
699.964648,153.219100,-74.020594,9474.636058
699.964963,-229.828649,74.020594,9844.739029
699.965279,-306.438199,-0.000000,10066.800811
699.965595,-766.095498,-740.205942,10436.903782
699.965911,-919.314598,-666.185348,10584.944971
699.966226,-1072.533697,-296.082377,10584.944971
699.966542,-612.876398,-740.205942,10955.047942
699.966858,0.000000,-814.226536,10881.027347
699.967174,76.609550,370.102971,10214.842000
699.967489,536.266849,1554.432478,9400.615463
699.967805,1532.190996,1702.473667,8956.491898
699.968121,2068.457845,1628.453072,8142.265362
699.968437,2145.067394,2368.659014,7698.141797
699.968753,2221.676944,1850.514855,7920.203579
699.969068,2298.286494,444.123565,9400.615463
699.969384,1838.629195,370.102971,9622.677246
699.969700,1072.533697,1110.308913,9548.656652
699.970016,536.266849,1702.473667,9548.656652
699.970331,229.828649,1258.350101,9918.759623
699.970647,229.828649,370.102971,10362.883188
699.970963,-229.828649,444.123565,10658.965565
699.971279,0.000000,-0.000000,10732.986159
699.971594,-229.828649,-814.226536,11029.068536
699.971910,306.438199,-666.185348,10955.047942
699.972226,76.609550,740.205942,10288.862594
699.972542,459.657299,2220.617826,9104.533087
699.972858,1225.752797,2294.638420,8660.409521
699.973173,1532.190996,1184.329507,8586.388927
699.973489,1455.581446,1036.288319,7994.224174
699.973805,1149.143247,740.205942,8586.388927
699.974121,1685.410096,-148.041188,9252.574275
699.974436,1302.362347,-888.247130,9844.739029
699.974752,383.047749,518.144159,9770.718434
699.975068,689.485948,888.247130,9400.615463
699.975384,0.000000,296.082377,9844.739029
699.975700,0.000000,-592.164754,10214.842000
699.976015,-536.266849,-592.164754,10362.883188
699.976331,-383.047749,-1332.370696,10362.883188
699.976647,-689.485948,-2368.659014,10807.006753
699.976963,-306.438199,-2368.659014,10807.006753
699.977278,-383.047749,-1036.288319,10288.862594
699.977594,0.000000,148.041188,9178.553681
699.977910,919.314598,518.144159,8438.347739
699.978226,1149.143247,-0.000000,8364.327145
699.978541,1149.143247,296.082377,7624.121203
699.978857,1455.581446,-0.000000,7624.121203
699.979173,1685.410096,-1332.370696,8882.471304
699.979489,1608.800546,-1554.432478,9622.677246
699.979805,995.924147,-1258.350101,9474.636058
699.980120,459.657299,-74.020594,8660.409521
699.980436,306.438199,-444.123565,9178.553681
699.980752,306.438199,-1258.350101,9918.759623
699.981068,0.000000,-1110.308913,9918.759623
699.981383,0.000000,-1924.535449,10658.965565
699.981699,0.000000,-2812.782580,10955.047942
699.982015,76.609550,-2590.720797,10881.027347
699.982331,153.219100,-1036.288319,9770.718434
699.982646,459.657299,888.247130,9030.512492
699.982962,1072.533697,888.247130,7994.224174
699.983278,1608.800546,666.185348,8142.265362
699.983594,1378.971896,666.185348,7846.182985
699.983910,1532.190996,-0.000000,7846.182985
699.984225,1608.800546,-962.267725,8364.327145
699.984541,1378.971896,-1480.411884,9252.574275
699.984857,689.485948,-1036.288319,9474.636058
699.985173,0.000000,-592.164754,9178.553681
699.985488,76.609550,-1184.329507,9474.636058
699.985804,-306.438199,-1628.453072,9918.759623
699.986120,-995.924147,-1628.453072,9918.759623
699.986436,-1455.581446,-1554.432478,9992.780217
699.986752,-1072.533697,-2072.576638,10732.986159
699.987067,-766.095498,-2220.617826,10881.027347
699.987383,-766.095498,-888.247130,9622.677246
699.987699,-842.705048,148.041188,9104.533087
699.988015,-153.219100,-0.000000,8512.368333
699.988330,383.047749,-0.000000,8216.285956
699.988646,229.828649,518.144159,8290.306550
699.988962,459.657299,740.205942,8290.306550
699.989278,689.485948,-296.082377,9252.574275
699.989593,689.485948,-444.123565,9770.718434
699.989909,383.047749,666.185348,9400.615463
699.990225,-153.219100,962.267725,9548.656652
699.990541,-306.438199,1110.308913,9844.739029
699.990857,306.438199,296.082377,9770.718434
699.991172,-229.828649,-0.000000,10288.862594
699.991488,0.000000,-0.000000,10732.986159
699.991804,0.000000,-814.226536,11177.109724
699.992120,0.000000,-592.164754,10584.944971
699.992435,153.219100,814.226536,10510.924376
699.992751,459.657299,2146.597232,9178.553681
699.993067,1378.971896,2442.679609,8882.471304
699.993383,2068.457845,2590.720797,8956.491898
699.993698,1915.238745,2294.638420,7994.224174
699.994014,2221.676944,2368.659014,8068.244768
699.994330,2068.457845,1184.329507,8882.471304
699.994646,1915.238745,666.185348,9252.574275
699.994962,1762.019645,888.247130,9474.636058
699.995277,766.095498,1702.473667,9474.636058
699.995593,536.266849,962.267725,10066.800811
699.995909,383.047749,-74.020594,11103.089130
699.996225,0.000000,370.102971,10807.006753
699.996540,-383.047749,444.123565,10732.986159
699.996856,0.000000,-148.041188,10955.047942
699.997172,306.438199,-222.061783,11177.109724
699.997488,229.828649,888.247130,9992.780217
699.997804,612.876398,1184.329507,9474.636058
699.998119,1225.752797,1258.350101,9178.553681
699.998435,1455.581446,888.247130,8808.450710
699.998751,1378.971896,1332.370696,8512.368333
699.999067,1302.362347,962.267725,8364.327145
699.999382,1225.752797,-222.061783,9474.636058
699.999698,1685.410096,-370.102971,9696.697840
700.000014,612.876398,-0.000000,9548.656652
700.000330,153.219100,518.144159,9104.533087
700.000645,459.657299,-0.000000,9696.697840
700.000961,306.438199,-1258.350101,9918.759623
700.001277,-612.876398,-1628.453072,10658.965565
700.001593,-995.924147,-1998.556043,10807.006753
700.001909,-919.314598,-2738.761985,11177.109724
700.002224,-612.876398,-2886.803174,11103.089130
700.002540,-459.657299,-1406.391290,10436.903782
700.002856,76.609550,-0.000000,8956.491898
700.003172,1302.362347,370.102971,8142.265362
700.003487,1608.800546,370.102971,7698.141797
700.003803,1455.581446,222.061783,7402.059420
700.004119,1838.629195,-370.102971,8068.244768
700.004435,1838.629195,-1332.370696,8364.327145
700.004750,1378.971896,-1924.535449,9178.553681
700.005066,842.705048,-1850.514855,9474.636058
700.005382,536.266849,-888.247130,8956.491898
700.005698,0.000000,-1258.350101,9844.739029
700.006014,0.000000,-1702.473667,9992.780217
700.006329,-536.266849,-1554.432478,9622.677246
700.006645,-919.314598,-1628.453072,9770.718434
700.006961,-459.657299,-2886.803174,10955.047942
700.007277,-842.705048,-2886.803174,10658.965565
700.007592,-459.657299,-1332.370696,9474.636058
700.007908,0.000000,-222.061783,9252.574275
700.008224,383.047749,-962.267725,9030.512492
700.008540,1225.752797,-444.123565,8216.285956
700.008855,612.876398,-74.020594,7698.141797
700.009171,766.095498,-518.144159,7698.141797
700.009487,1225.752797,-962.267725,9178.553681
700.009803,842.705048,-1258.350101,9030.512492
700.010119,459.657299,-666.185348,8586.388927
700.010434,-306.438199,-148.041188,8882.471304
700.010750,-229.828649,-962.267725,9252.574275
700.011066,-459.657299,-1850.514855,9918.759623
700.011382,-1072.533697,-1998.556043,10214.842000
700.011697,-1072.533697,-1850.514855,10510.924376
700.012013,-919.314598,-2294.638420,10584.944971
700.012329,-766.095498,-2072.576638,10807.006753
700.012645,-842.705048,-222.061783,9844.739029
700.012961,-536.266849,592.164754,8882.471304
700.013276,0.000000,814.226536,8734.430116
700.013592,842.705048,370.102971,8660.409521
700.013908,612.876398,518.144159,8216.285956
700.014224,612.876398,444.123565,8142.265362
700.014539,1608.800546,-296.082377,9622.677246
700.014855,1225.752797,-814.226536,10066.800811
700.015171,536.266849,444.123565,9696.697840
700.015487,229.828649,1332.370696,9474.636058
700.015802,383.047749,666.185348,10214.842000
700.016118,612.876398,518.144159,10362.883188
700.016434,229.828649,814.226536,9770.718434
700.016750,306.438199,370.102971,9918.759623
700.017066,766.095498,-592.164754,10807.006753
700.017381,1302.362347,-444.123565,10510.924376
700.017697,1072.533697,1184.329507,9992.780217
700.018013,1149.143247,2368.659014,9030.512492
700.018329,1991.848295,2368.659014,8438.347739
700.018644,1991.848295,1776.494261,8364.327145
700.018960,1608.800546,1554.432478,8512.368333
700.019276,1149.143247,1110.308913,8808.450710
700.019592,1685.410096,370.102971,9918.759623
700.019907,1532.190996,-0.000000,9918.759623
700.020223,919.314598,1036.288319,9992.780217
700.020539,995.924147,1258.350101,9622.677246
700.020855,1149.143247,888.247130,9918.759623
700.021171,612.876398,296.082377,10214.842000
700.021486,229.828649,444.123565,10510.924376
700.021802,459.657299,-0.000000,10362.883188
700.022118,766.095498,-518.144159,10807.006753
700.022434,1072.533697,-518.144159,10881.027347
700.022749,919.314598,962.267725,9770.718434
700.023065,459.657299,2146.597232,8956.491898
700.023381,1608.800546,2220.617826,8808.450710
700.023697,1608.800546,962.267725,8660.409521
700.024013,995.924147,1258.350101,8438.347739
700.024328,766.095498,444.123565,8512.368333
700.024644,995.924147,-444.123565,9178.553681
700.024960,229.828649,-1258.350101,10066.800811
700.025276,-383.047749,-592.164754,10140.821405
700.025591,-1225.752797,222.061783,9696.697840
700.025907,-919.314598,-592.164754,10066.800811
700.026223,-1072.533697,-888.247130,9992.780217
700.026539,-689.485948,-1110.308913,10140.821405
700.026854,-919.314598,-1480.411884,10288.862594
700.027170,-766.095498,-2590.720797,10955.047942
700.027486,-459.657299,-2664.741391,10732.986159
700.027802,-153.219100,-1554.432478,9918.759623
700.028118,0.000000,-370.102971,9030.512492
700.028433,766.095498,-74.020594,8586.388927
700.028749,842.705048,-74.020594,8068.244768
700.029065,1072.533697,370.102971,7476.080014
700.029381,1378.971896,-222.061783,7772.162391
700.029696,1302.362347,-1184.329507,9178.553681
700.030012,1072.533697,-2146.597232,9252.574275
700.030328,383.047749,-1258.350101,9548.656652
700.030644,0.000000,-1036.288319,9252.574275
700.030959,76.609550,-1332.370696,9252.574275
700.031275,0.000000,-2220.617826,9696.697840
700.031591,-536.266849,-2072.576638,10066.800811
700.031907,-842.705048,-2368.659014,10140.821405
700.032223,-689.485948,-3034.844362,10436.903782
700.032538,-536.266849,-3108.864956,10658.965565
700.032854,-153.219100,-1480.411884,9474.636058
700.033170,229.828649,-0.000000,8734.430116
700.033486,1149.143247,-74.020594,7846.182985
700.033801,1225.752797,-296.082377,7550.100608
700.034117,1302.362347,370.102971,7476.080014
700.034433,1149.143247,-74.020594,6883.915261
700.034749,1455.581446,-1332.370696,8290.306550
700.035064,766.095498,-2220.617826,9030.512492
700.035380,76.609550,-1480.411884,9696.697840
700.035696,-229.828649,-814.226536,9252.574275
700.036012,-306.438199,-1110.308913,9400.615463
700.036328,-766.095498,-1332.370696,9918.759623
700.036643,-919.314598,-888.247130,9844.739029
700.036959,-1149.143247,-666.185348,10140.821405
700.037275,-919.314598,-1332.370696,10510.924376
700.037591,-536.266849,-740.205942,10658.965565
700.037906,-306.438199,-0.000000,9400.615463
700.038222,0.000000,814.226536,9252.574275
700.038538,229.828649,592.164754,9104.533087
700.038854,766.095498,-0.000000,8882.471304
700.039170,1072.533697,1184.329507,8142.265362
700.039485,1149.143247,1702.473667,8216.285956
700.039801,1532.190996,1036.288319,9178.553681
700.040117,1608.800546,666.185348,9326.594869
700.040433,1302.362347,1850.514855,9548.656652
700.040748,383.047749,2146.597232,9474.636058
700.041064,766.095498,1406.391290,9474.636058
700.041380,612.876398,518.144159,10436.903782
700.041696,229.828649,-0.000000,10510.924376
700.042011,76.609550,-74.020594,10955.047942
700.042327,0.000000,-592.164754,11325.150913
700.042643,383.047749,-148.041188,11399.171507
700.042959,612.876398,1110.308913,10510.924376
700.043275,1072.533697,2738.761985,9104.533087
700.043590,1532.190996,2738.761985,9030.512492
700.043906,2528.115143,2442.679609,8290.306550
700.044222,2298.286494,2664.741391,7846.182985
700.044538,1991.848295,2516.700203,7994.224174
700.044853,2451.505594,666.185348,8956.491898
700.045169,1991.848295,-0.000000,9770.718434
700.045485,1302.362347,1036.288319,9918.759623
700.045801,459.657299,1850.514855,9548.656652
700.046116,383.047749,1258.350101,10362.883188
700.046432,153.219100,666.185348,10807.006753
700.046748,153.219100,740.205942,10732.986159
700.047064,-306.438199,1036.288319,10658.965565
700.047380,76.609550,296.082377,10807.006753
700.047695,689.485948,-74.020594,10955.047942
700.048011,536.266849,1332.370696,10140.821405
700.048327,306.438199,2368.659014,8808.450710
700.048643,919.314598,1628.453072,8808.450710
700.048958,1302.362347,1110.308913,8512.368333
700.049274,842.705048,1332.370696,8142.265362
700.049590,919.314598,592.164754,8734.430116
700.049906,1149.143247,-74.020594,9770.718434
700.050222,459.657299,-740.205942,9696.697840
700.050537,0.000000,-148.041188,9548.656652
700.050853,-306.438199,444.123565,9474.636058
700.051169,-229.828649,-518.144159,9992.780217
700.051485,-229.828649,-1258.350101,10510.924376
700.051800,-689.485948,-1776.494261,10066.800811
700.052116,-612.876398,-1924.535449,9918.759623
700.052432,-383.047749,-2516.700203,11103.089130
700.052748,-383.047749,-2960.823768,11029.068536
700.053064,-306.438199,-1554.432478,9622.677246
700.053380,153.219100,-0.000000,8734.430116
700.053695,383.047749,-74.020594,8290.306550
700.054011,1072.533697,-740.205942,8364.327145
700.054327,842.705048,-1184.329507,8068.244768
700.054643,995.924147,-1480.411884,7994.224174
700.054959,995.924147,-2442.679609,9400.615463
700.055275,689.485948,-3182.885551,9548.656652
700.055590,-306.438199,-1924.535449,9178.553681
700.055906,-153.219100,-1554.432478,9696.697840
700.056222,-229.828649,-2368.659014,9622.677246
700.056538,-383.047749,-2960.823768,9992.780217
700.056854,-536.266849,-2960.823768,9992.780217
700.057169,-306.438199,-3108.864956,9918.759623
700.057485,229.828649,-3552.988522,10510.924376
700.057801,229.828649,-3108.864956,9696.697840
700.058117,612.876398,-1628.453072,8956.491898
700.058433,842.705048,-444.123565,8068.244768
700.058749,1762.019645,-740.205942,7476.080014
700.059064,1762.019645,-962.267725,7550.100608
700.059380,1455.581446,-814.226536,7476.080014
700.059696,919.314598,-1406.391290,7772.162391
700.060012,1225.752797,-2368.659014,8956.491898
700.060328,536.266849,-2664.741391,9252.574275
700.060643,-306.438199,-1776.494261,9474.636058
700.060959,-612.876398,-888.247130,9326.594869
700.061275,-459.657299,-1480.411884,9326.594869
700.061591,-689.485948,-1850.514855,10214.842000
700.061907,-766.095498,-1702.473667,9696.697840
700.062223,-766.095498,-1554.432478,9918.759623
700.062538,-383.047749,-1776.494261,10436.903782
700.062854,-306.438199,-1184.329507,9918.759623
700.063170,-229.828649,222.061783,9400.615463
700.063486,383.047749,1628.453072,8586.388927
700.063802,1149.143247,1554.432478,8068.244768
700.064117,1532.190996,1184.329507,8216.285956
700.064433,1149.143247,1036.288319,8512.368333
700.064749,1378.971896,1258.350101,8290.306550
700.065065,1532.190996,814.226536,9178.553681
700.065381,1072.533697,592.164754,9622.677246
700.065697,153.219100,1628.453072,9474.636058
700.066012,0.000000,1332.370696,9918.759623
700.066328,-383.047749,740.205942,10510.924376
700.066644,-383.047749,296.082377,11177.109724
700.066960,-383.047749,592.164754,10881.027347
700.067276,-229.828649,444.123565,10584.944971
700.067592,76.609550,-0.000000,11473.192101
700.067907,306.438199,-74.020594,11473.192101
700.068223,612.876398,1776.494261,9992.780217
700.068539,919.314598,3034.844362,9104.533087
700.068855,1608.800546,3034.844362,9104.533087
700.069171,1915.238745,2738.761985,9104.533087
700.069486,2145.067394,2886.803174,8660.409521
700.069802,2068.457845,2368.659014,8586.388927
700.070118,1915.238745,1332.370696,9548.656652
700.070434,1532.190996,962.267725,10066.800811
700.070750,995.924147,1702.473667,9696.697840
700.071066,383.047749,1998.556043,9622.677246
700.071381,229.828649,1184.329507,10288.862594
700.071697,459.657299,370.102971,10807.006753
700.072013,-306.438199,-0.000000,11029.068536
700.072329,-459.657299,-74.020594,11473.192101
700.072645,-766.095498,-518.144159,11325.150913
700.072960,-306.438199,-0.000000,11103.089130
700.073276,-229.828649,1702.473667,9844.739029
700.073592,76.609550,2368.659014,9030.512492
700.073908,1225.752797,1628.453072,8734.430116
700.074224,1455.581446,1036.288319,8734.430116
700.074540,1072.533697,1184.329507,7994.224174
700.074855,1378.971896,666.185348,8364.327145
700.075171,2145.067394,-222.061783,9104.533087
700.075487,842.705048,-592.164754,9548.656652
700.075803,459.657299,518.144159,9400.615463
700.076119,0.000000,814.226536,8808.450710
700.076435,0.000000,-518.144159,9622.677246
700.076750,-153.219100,-2294.638420,10658.965565
700.077066,-919.314598,-2072.576638,10510.924376
700.077382,-919.314598,-2368.659014,10140.821405
700.077698,-842.705048,-3182.885551,10955.047942
700.078014,-306.438199,-2812.782580,10807.006753
700.078329,-229.828649,-1850.514855,9548.656652
700.078645,76.609550,-0.000000,9030.512492
700.078961,536.266849,-1110.308913,8438.347739
700.079277,1225.752797,-1480.411884,8882.471304
700.079593,1532.190996,-1406.391290,7846.182985
700.079909,1378.971896,-1850.514855,7846.182985
700.080224,1915.238745,-2590.720797,8512.368333
700.080540,1455.581446,-2960.823768,8734.430116
700.080856,842.705048,-2072.576638,8660.409521
700.081172,229.828649,-1480.411884,8586.388927
700.081488,229.828649,-2812.782580,9474.636058
700.081803,0.000000,-3404.947333,9992.780217
700.082119,-383.047749,-3330.926739,9992.780217
700.082435,-919.314598,-3775.050304,10214.842000
700.082751,-536.266849,-3775.050304,10807.006753
700.083067,0.000000,-3552.988522,10288.862594
700.083383,0.000000,-1702.473667,9326.594869
700.083698,153.219100,-74.020594,7846.182985
700.084014,842.705048,-370.102971,7772.162391
700.084330,1149.143247,-1184.329507,7179.997637
700.084646,919.314598,-740.205942,7624.121203
700.084962,919.314598,-740.205942,7402.059420
700.085278,995.924147,-1406.391290,8290.306550
700.085593,842.705048,-1332.370696,9178.553681
700.085909,0.000000,-444.123565,8660.409521
700.086225,-689.485948,-0.000000,9104.533087
700.086541,-612.876398,-740.205942,9622.677246
700.086857,-689.485948,-1110.308913,10214.842000
700.087172,-1149.143247,-1036.288319,10140.821405
700.087488,-1149.143247,-888.247130,10658.965565
700.087804,-1072.533697,-1110.308913,11103.089130
700.088120,-229.828649,-444.123565,10584.944971
700.088436,-459.657299,1628.453072,9252.574275
700.088752,-306.438199,2812.782580,8808.450710
700.089067,536.266849,2294.638420,8882.471304
700.089383,1072.533697,2368.659014,8216.285956
700.089699,1225.752797,1998.556043,7846.182985
700.090015,995.924147,1480.411884,8586.388927
700.090331,1532.190996,740.205942,9474.636058
700.090646,1378.971896,518.144159,9770.718434
700.090962,153.219100,1998.556043,9770.718434
700.091278,0.000000,2368.659014,9844.739029
700.091594,76.609550,1998.556043,10362.883188
700.091910,0.000000,1036.288319,10807.006753
700.092226,-536.266849,666.185348,10955.047942
700.092541,-459.657299,222.061783,11843.295072
700.092857,0.000000,-592.164754,11695.253884
700.093173,153.219100,-148.041188,11547.212695
700.093489,229.828649,1332.370696,10584.944971
700.093805,995.924147,2812.782580,9104.533087
700.094121,1685.410096,3404.947333,8734.430116
700.094436,2221.676944,3108.864956,8438.347739
700.094752,2145.067394,2886.803174,8364.327145
700.095068,2298.286494,2294.638420,8734.430116
700.095384,2298.286494,1628.453072,8882.471304
700.095700,1838.629195,814.226536,9548.656652
700.096015,1378.971896,1332.370696,10214.842000
700.096331,306.438199,1850.514855,10066.800811
700.096647,842.705048,1258.350101,10881.027347
700.096963,459.657299,-0.000000,11103.089130
700.097279,-383.047749,296.082377,10807.006753
700.097595,-306.438199,444.123565,11251.130318
700.097910,76.609550,-222.061783,11547.212695
700.098226,153.219100,518.144159,10732.986159
700.098542,536.266849,1850.514855,9844.739029
700.098858,842.705048,2960.823768,8364.327145
700.099174,1762.019645,2294.638420,7994.224174
700.099489,2221.676944,1628.453072,8290.306550
700.099805,1915.238745,1110.308913,7994.224174
700.100121,1915.238745,1110.308913,7994.224174
700.100437,2145.067394,-148.041188,9252.574275
700.100753,1685.410096,-444.123565,8882.471304
700.101069,919.314598,148.041188,9178.553681
700.101384,229.828649,1036.288319,9030.512492
700.101700,153.219100,-0.000000,9474.636058
700.102016,0.000000,-1258.350101,9992.780217
700.102332,-153.219100,-1776.494261,10214.842000
700.102648,-689.485948,-2590.720797,10362.883188
700.102964,-383.047749,-3330.926739,10732.986159
700.103279,-229.828649,-3330.926739,10436.903782
700.103595,-229.828649,-1628.453072,9770.718434
700.103911,-306.438199,-444.123565,8364.327145
700.104227,919.314598,-962.267725,8216.285956
700.104543,995.924147,-1258.350101,8216.285956
700.104858,766.095498,-1258.350101,7550.100608
700.105174,842.705048,-1554.432478,7624.121203
700.105490,1149.143247,-2812.782580,8364.327145
700.105806,766.095498,-3256.906145,9030.512492
700.106122,-76.609550,-2516.700203,9252.574275
700.106438,-383.047749,-2220.617826,8956.491898
700.106753,-306.438199,-2960.823768,9326.594869
700.107069,-689.485948,-3256.906145,10140.821405
700.107385,-919.314598,-3478.967927,10214.842000
700.107701,-1072.533697,-3552.988522,10658.965565
700.108017,-766.095498,-3923.091493,10436.903782
700.108332,-536.266849,-3404.947333,10362.883188
700.108648,-459.657299,-1924.535449,9474.636058
700.108964,0.000000,-814.226536,8438.347739
700.109280,842.705048,-1036.288319,8216.285956
700.109596,919.314598,-1258.350101,7920.203579
700.109912,842.705048,-1110.308913,7772.162391
700.110227,919.314598,-962.267725,8068.244768
700.110543,1072.533697,-1924.535449,9326.594869
700.110859,612.876398,-1998.556043,9252.574275
700.111175,-229.828649,-740.205942,9104.533087
700.111491,-383.047749,-0.000000,9326.594869
700.111806,-383.047749,-888.247130,9696.697840
700.112122,-383.047749,-1554.432478,10436.903782
700.112438,-919.314598,-1924.535449,10066.800811
700.112754,-995.924147,-1924.535449,10807.006753
700.113070,-306.438199,-2294.638420,10881.027347
700.113386,-229.828649,-1776.494261,10807.006753
700.113701,0.000000,296.082377,9770.718434
700.114017,306.438199,1258.350101,8882.471304
700.114333,1149.143247,1702.473667,8438.347739
700.114649,1378.971896,1702.473667,7994.224174
700.114965,1378.971896,1480.411884,7698.141797
700.115281,1532.190996,1258.350101,7920.203579
700.115596,1915.238745,148.041188,8882.471304
700.115912,1378.971896,-74.020594,9474.636058
700.116228,1225.752797,888.247130,9326.594869
700.116544,306.438199,1258.350101,9252.574275
700.116860,306.438199,740.205942,9992.780217
700.117175,-153.219100,296.082377,10881.027347
700.117491,-383.047749,-0.000000,10732.986159
700.117807,-306.438199,444.123565,10807.006753
700.118123,0.000000,-296.082377,11399.171507
700.118439,76.609550,148.041188,10881.027347
700.118755,459.657299,1628.453072,10066.800811
700.119070,995.924147,2516.700203,9696.697840
700.119386,995.924147,2442.679609,9178.553681
700.119702,2221.676944,2886.803174,8142.265362
700.120018,2145.067394,3256.906145,7698.141797
700.120334,2451.505594,2812.782580,8216.285956
700.120649,2451.505594,1776.494261,9474.636058
700.120965,1838.629195,1332.370696,9474.636058
700.121281,1225.752797,1998.556043,9992.780217
700.121597,1378.971896,2368.659014,9548.656652
700.121913,612.876398,1998.556043,9400.615463
700.122229,383.047749,962.267725,10584.944971
700.122544,459.657299,666.185348,11103.089130
700.122860,-306.438199,666.185348,11103.089130
700.123176,0.000000,-0.000000,11029.068536
700.123492,0.000000,-74.020594,11177.109724
700.123808,0.000000,1110.308913,10584.944971
700.124124,306.438199,2368.659014,9474.636058
700.124439,995.924147,1998.556043,8438.347739
700.124755,1302.362347,1480.411884,8882.471304
700.125071,1149.143247,1110.308913,8364.327145
700.125387,1532.190996,814.226536,8512.368333
700.125703,1455.581446,-74.020594,9474.636058
700.126018,919.314598,-444.123565,9770.718434
700.126334,306.438199,296.082377,9030.512492
700.126650,76.609550,518.144159,8808.450710
700.126966,0.000000,-962.267725,9844.739029
700.127282,76.609550,-1850.514855,10658.965565
700.127598,-612.876398,-1924.535449,10510.924376
700.127913,-995.924147,-1850.514855,10214.842000
700.128229,-459.657299,-2442.679609,11103.089130
700.128545,-306.438199,-2368.659014,10436.903782
700.128861,-459.657299,-1110.308913,9770.718434
700.129177,76.609550,-222.061783,9178.553681
700.129492,153.219100,-1036.288319,8512.368333
700.129808,766.095498,-1480.411884,8290.306550
700.130124,459.657299,-1480.411884,7920.203579
700.130440,919.314598,-1554.432478,8216.285956
700.130756,842.705048,-2368.659014,8808.450710
700.131072,612.876398,-2664.741391,9548.656652
700.131387,76.609550,-1480.411884,9252.574275
700.131703,-229.828649,-814.226536,8734.430116
700.132019,0.000000,-1924.535449,9030.512492
700.132335,76.609550,-2590.720797,9474.636058
700.132651,-612.876398,-2590.720797,9770.718434
700.132967,-459.657299,-3034.844362,10436.903782
700.133282,0.000000,-3330.926739,10214.842000
700.133598,-536.266849,-2590.720797,10288.862594
700.133914,-306.438199,-1554.432478,9252.574275
700.134230,306.438199,-296.082377,8734.430116
700.134546,1072.533697,-0.000000,8068.244768
700.134861,1455.581446,-296.082377,8290.306550
700.135177,1455.581446,-296.082377,7772.162391
700.135493,1685.410096,-222.061783,7254.018232
700.135809,1302.362347,-1036.288319,8216.285956
700.136125,1378.971896,-1184.329507,9030.512492
700.136441,689.485948,-148.041188,8660.409521
700.136756,229.828649,666.185348,8512.368333
700.137072,76.609550,-74.020594,9326.594869
700.137388,153.219100,-1036.288319,9992.780217
700.137704,-383.047749,-1036.288319,9622.677246
700.138020,-383.047749,-1184.329507,9770.718434
700.138335,0.000000,-1554.432478,10807.006753
700.138651,0.000000,-1258.350101,10584.944971
700.138967,-229.828649,666.185348,9548.656652
700.139283,229.828649,1776.494261,9030.512492
700.139599,842.705048,1332.370696,8290.306550
700.139915,1225.752797,1480.411884,8216.285956
700.140230,995.924147,592.164754,8216.285956
700.140546,842.705048,518.144159,9178.553681
700.140862,766.095498,-0.000000,9844.739029
700.141178,689.485948,-518.144159,9992.780217
700.141494,383.047749,888.247130,9622.677246
700.141810,229.828649,962.267725,9844.739029
700.142125,306.438199,666.185348,10510.924376
700.142441,383.047749,296.082377,10362.883188
700.142757,153.219100,-0.000000,10288.862594
700.143073,153.219100,370.102971,10732.986159
700.143389,229.828649,-592.164754,11029.068536
700.143704,229.828649,-148.041188,11399.171507
700.144020,229.828649,1702.473667,9992.780217
700.144336,612.876398,2368.659014,9326.594869
700.144652,1608.800546,2368.659014,9548.656652
700.144968,1685.410096,1554.432478,8660.409521
700.145284,1378.971896,2368.659014,9178.553681
700.145599,1762.019645,1924.535449,9474.636058
700.145915,1455.581446,1480.411884,9400.615463
700.146231,1532.190996,1628.453072,9992.780217
700.146547,842.705048,2442.679609,9770.718434
700.146863,536.266849,3034.844362,9474.636058
700.147178,459.657299,1924.535449,9992.780217
700.147494,536.266849,962.267725,10510.924376
700.147810,229.828649,666.185348,10658.965565
700.148126,0.000000,592.164754,10807.006753
700.148442,0.000000,-370.102971,10955.047942
700.148758,229.828649,-0.000000,11177.109724
700.149073,306.438199,1776.494261,9696.697840
700.149389,612.876398,2886.803174,9104.533087
700.149705,995.924147,1850.514855,8586.388927
700.150021,1225.752797,1406.391290,8290.306550
700.150337,919.314598,1480.411884,7920.203579
700.150653,1225.752797,814.226536,8216.285956
700.150968,1225.752797,-666.185348,9104.533087
700.151284,689.485948,-666.185348,9992.780217
700.151600,229.828649,-222.061783,9474.636058
700.151916,-229.828649,-0.000000,9104.533087
700.152232,-306.438199,-666.185348,9474.636058
700.152547,-229.828649,-1702.473667,9770.718434
700.152863,-459.657299,-1628.453072,9696.697840
700.153179,-689.485948,-1554.432478,9622.677246
700.153495,-612.876398,-2738.761985,10881.027347
700.153811,-306.438199,-2812.782580,10362.883188
700.154127,-612.876398,-1332.370696,9400.615463
700.154442,-459.657299,-888.247130,8586.388927
700.154758,153.219100,-1036.288319,8734.430116
700.155074,689.485948,-1776.494261,8808.450710
700.155390,536.266849,-1184.329507,8068.244768
700.155706,612.876398,-1924.535449,8882.471304
700.156022,919.314598,-2294.638420,9400.615463
700.156337,536.266849,-2294.638420,9104.533087
700.156653,383.047749,-1184.329507,9622.677246
700.156969,536.266849,-444.123565,8882.471304
700.157285,1149.143247,-1332.370696,8142.265362
700.157601,536.266849,-2442.679609,9252.574275
700.157917,229.828649,-2886.803174,9992.780217
700.158232,306.438199,-3182.885551,10140.821405
700.158548,153.219100,-3330.926739,10362.883188
700.158864,0.000000,-2590.720797,10510.924376
700.159180,229.828649,-1110.308913,9548.656652
700.159496,229.828649,-0.000000,8586.388927
700.159812,766.095498,-296.082377,8290.306550
700.160127,612.876398,-1110.308913,8882.471304
700.160443,995.924147,-1110.308913,8438.347739
700.160759,842.705048,-1036.288319,8068.244768
700.161075,842.705048,-2294.638420,9400.615463
700.161391,1072.533697,-2146.597232,9696.697840
700.161706,536.266849,-740.205942,9104.533087
700.162022,0.000000,222.061783,8882.471304
700.162338,153.219100,-592.164754,9474.636058
700.162654,76.609550,-1184.329507,9918.759623
700.162970,0.000000,-1110.308913,9844.739029
700.163286,-229.828649,-1406.391290,9844.739029
700.163601,0.000000,-1554.432478,10658.965565
700.163917,0.000000,-1554.432478,10362.883188
700.164233,0.000000,-0.000000,9622.677246
700.164549,-229.828649,1184.329507,8956.491898
700.164865,689.485948,888.247130,8438.347739
700.165181,459.657299,592.164754,8586.388927
700.165496,153.219100,592.164754,8512.368333
700.165812,306.438199,444.123565,9030.512492
700.166128,919.314598,-74.020594,9400.615463
700.166444,842.705048,-592.164754,9696.697840
700.166760,0.000000,296.082377,9696.697840
700.167076,76.609550,1184.329507,9474.636058
700.167391,229.828649,296.082377,9992.780217
700.167707,0.000000,-222.061783,10584.944971
700.168023,-229.828649,-444.123565,10362.883188
700.168339,-536.266849,148.041188,10658.965565
700.168655,-306.438199,-296.082377,10807.006753
700.168971,306.438199,222.061783,11177.109724
700.169286,76.609550,2072.576638,9696.697840
700.169602,459.657299,3552.988522,8438.347739
700.169918,1302.362347,2738.761985,8956.491898
700.170234,1762.019645,2368.659014,8882.471304
700.170550,1838.629195,2220.617826,8068.244768
700.170866,1915.238745,1998.556043,8512.368333
700.171181,1915.238745,1036.288319,9548.656652
700.171497,1302.362347,814.226536,9770.718434
700.171813,689.485948,1776.494261,9844.739029
700.172129,383.047749,2368.659014,9548.656652
700.172445,612.876398,1258.350101,10362.883188
700.172760,383.047749,1110.308913,10732.986159
700.173076,0.000000,1110.308913,10584.944971
700.173392,76.609550,370.102971,10658.965565
700.173708,0.000000,-148.041188,11103.089130
700.174024,842.705048,-222.061783,10807.006753
700.174340,536.266849,1480.411884,10140.821405
700.174655,459.657299,2442.679609,8586.388927
700.174971,1225.752797,1924.535449,8808.450710
700.175287,1685.410096,1258.350101,8882.471304
700.175603,1072.533697,1184.329507,8586.388927
700.175919,1149.143247,740.205942,8734.430116
700.176235,1455.581446,-518.144159,9474.636058
700.176550,1072.533697,-962.267725,10066.800811
700.176866,383.047749,-148.041188,9622.677246
700.177182,0.000000,370.102971,9400.615463
700.177498,76.609550,-740.205942,9918.759623
700.177814,153.219100,-1332.370696,10140.821405
700.178130,-306.438199,-1184.329507,10288.862594
700.178445,-689.485948,-1332.370696,10214.842000
700.178761,-383.047749,-2368.659014,11029.068536
700.179077,-153.219100,-2368.659014,10362.883188
700.179393,0.000000,-1036.288319,9548.656652
700.179709,153.219100,-444.123565,9178.553681
700.180025,1302.362347,-1258.350101,8290.306550
700.180340,1072.533697,-1332.370696,8142.265362
700.180656,1072.533697,-1406.391290,8512.368333
700.180972,842.705048,-1702.473667,8290.306550
700.181288,1149.143247,-1924.535449,8808.450710
700.181604,459.657299,-2220.617826,9548.656652
700.181920,153.219100,-1184.329507,9252.574275
700.182235,0.000000,-888.247130,8734.430116
700.182551,0.000000,-1184.329507,9252.574275
700.182867,383.047749,-1998.556043,9770.718434
700.183183,0.000000,-2220.617826,9992.780217
700.183499,0.000000,-1924.535449,9770.718434
700.183814,153.219100,-2368.659014,10066.800811
700.184130,459.657299,-1924.535449,9844.739029
700.184446,153.219100,-74.020594,8660.409521
700.184762,383.047749,518.144159,7772.162391
700.185078,842.705048,-0.000000,8290.306550
700.185394,1072.533697,-0.000000,8142.265362
700.185709,612.876398,370.102971,7105.977043
700.186025,536.266849,-666.185348,8586.388927
700.186341,612.876398,-1998.556043,9696.697840
700.186657,459.657299,-1184.329507,9326.594869
700.186973,0.000000,-0.000000,9178.553681
700.187289,-536.266849,-0.000000,9104.533087
700.187604,-383.047749,-814.226536,9548.656652
700.187920,-306.438199,-888.247130,9770.718434
700.188236,-459.657299,-740.205942,9622.677246
700.188552,-842.705048,-1258.350101,9844.739029
700.188868,0.000000,-2146.597232,10881.027347
700.189184,-459.657299,-1998.556043,10214.842000
700.189499,-229.828649,-0.000000,9474.636058
700.189815,0.000000,1406.391290,8734.430116
700.190131,689.485948,740.205942,8734.430116
700.190447,1072.533697,814.226536,8734.430116
700.190763,919.314598,1036.288319,8142.265362
700.191079,612.876398,888.247130,8512.368333
700.191394,1149.143247,-518.144159,9770.718434
700.191710,612.876398,-740.205942,10140.821405
700.192026,536.266849,370.102971,10066.800811
700.192342,-229.828649,740.205942,10066.800811
700.192658,0.000000,444.123565,10066.800811
700.192974,229.828649,-296.082377,10881.027347
700.193289,76.609550,-148.041188,10881.027347
700.193605,689.485948,-148.041188,11029.068536
700.193921,536.266849,-222.061783,11029.068536
700.194237,612.876398,444.123565,11177.109724
700.194553,612.876398,1998.556043,10214.842000
700.194868,1072.533697,3182.885551,8882.471304
700.195184,1455.581446,2368.659014,8586.388927
700.195500,1378.971896,1924.535449,8956.491898
700.195816,1532.190996,1850.514855,8734.430116
700.196132,1991.848295,1776.494261,8808.450710
700.196448,2145.067394,814.226536,9918.759623
700.196763,1608.800546,222.061783,10066.800811
700.197079,1072.533697,1998.556043,9696.697840
700.197395,995.924147,2368.659014,9474.636058
700.197711,1072.533697,1702.473667,9696.697840
700.198027,995.924147,592.164754,10362.883188
700.198343,1302.362347,-0.000000,10510.924376
700.198658,459.657299,-0.000000,9992.780217
700.198974,612.876398,-296.082377,10658.965565
700.199290,842.705048,-296.082377,10584.944971
700.199606,459.657299,1258.350101,9548.656652
700.199922,536.266849,1998.556043,9104.533087
700.200238,689.485948,1480.411884,8956.491898
700.200553,919.314598,740.205942,8586.388927
700.200869,383.047749,592.164754,8364.327145
700.201185,842.705048,370.102971,8512.368333
700.201501,842.705048,-444.123565,9474.636058
700.201817,842.705048,-1110.308913,9326.594869
700.202133,0.000000,-0.000000,9326.594869
700.202448,0.000000,-0.000000,9252.574275
700.202764,76.609550,-1332.370696,9548.656652
700.203080,0.000000,-1628.453072,10066.800811
700.203396,-383.047749,-1850.514855,10214.842000
700.203712,-536.266849,-2146.597232,10436.903782
700.204028,-153.219100,-2294.638420,10658.965565
700.204343,0.000000,-1924.535449,9622.677246
700.204659,-612.876398,-296.082377,9252.574275
700.204975,-612.876398,-0.000000,8808.450710
700.205291,383.047749,-444.123565,8438.347739
700.205607,383.047749,-1036.288319,8438.347739
700.205923,76.609550,-1998.556043,8586.388927
700.206238,536.266849,-1702.473667,8512.368333
700.206554,1072.533697,-2072.576638,8956.491898
700.206870,229.828649,-2072.576638,9622.677246
700.207186,0.000000,-1258.350101,9474.636058
700.207502,-153.219100,-222.061783,9400.615463
700.207817,0.000000,-1110.308913,9548.656652
700.208133,0.000000,-1776.494261,10584.944971
700.208449,-153.219100,-2072.576638,9696.697840
700.208765,-153.219100,-1850.514855,9992.780217
700.209081,76.609550,-2664.741391,11029.068536
700.209397,306.438199,-2294.638420,10214.842000
700.209712,229.828649,-148.041188,9770.718434
700.210028,612.876398,888.247130,8068.244768
700.210344,1532.190996,444.123565,7994.224174
700.210660,1455.581446,-74.020594,8216.285956
700.210976,919.314598,-0.000000,7550.100608
700.211292,1455.581446,-370.102971,8068.244768
700.211607,1149.143247,-1480.411884,9104.533087
700.211923,76.609550,-1332.370696,9696.697840
700.212239,153.219100,-666.185348,9400.615463
700.212555,-229.828649,-296.082377,9104.533087
700.212871,-306.438199,-1184.329507,9844.739029
700.213187,-612.876398,-2072.576638,10881.027347
700.213502,-612.876398,-2146.597232,10214.842000
700.213818,-1149.143247,-1628.453072,10732.986159
700.214134,-536.266849,-1998.556043,10807.006753
700.214450,-536.266849,-1554.432478,11029.068536
700.214766,-536.266849,592.164754,9104.533087
700.215082,76.609550,518.144159,8882.471304
700.215397,919.314598,740.205942,8512.368333
700.215713,1072.533697,962.267725,8068.244768
700.216029,1149.143247,814.226536,8142.265362
700.216345,1991.848295,888.247130,7994.224174
700.216661,1302.362347,-296.082377,9252.574275
700.216977,1378.971896,-148.041188,9696.697840
700.217292,612.876398,814.226536,9252.574275
700.217608,153.219100,1184.329507,9474.636058
700.217924,459.657299,814.226536,10436.903782
700.218240,153.219100,-296.082377,10140.821405
700.218556,229.828649,-222.061783,10658.965565
700.218871,-306.438199,-0.000000,10881.027347
700.219187,0.000000,-740.205942,10881.027347
700.219503,383.047749,-296.082377,10881.027347
700.219819,536.266849,1702.473667,9548.656652
700.220135,612.876398,2590.720797,8808.450710
700.220451,1225.752797,2220.617826,8660.409521
700.220766,1685.410096,1628.453072,8734.430116
700.221082,1608.800546,2146.597232,8068.244768
700.221398,2068.457845,1850.514855,8512.368333
700.221714,2374.896044,666.185348,8956.491898
700.222030,1455.581446,740.205942,9178.553681
700.222346,919.314598,1332.370696,9474.636058
700.222661,919.314598,1850.514855,9030.512492
700.222977,995.924147,666.185348,9992.780217
700.223293,766.095498,296.082377,10436.903782
700.223609,0.000000,222.061783,10140.821405
700.223925,0.000000,-148.041188,10584.944971
700.224241,383.047749,-666.185348,11547.212695
700.224556,383.047749,-518.144159,10510.924376
700.224872,0.000000,1184.329507,9622.677246
700.225188,0.000000,1850.514855,9178.553681
700.225504,842.705048,1184.329507,8808.450710
700.225820,995.924147,592.164754,8808.450710
700.226136,459.657299,740.205942,8512.368333
700.226451,842.705048,222.061783,9030.512492
700.226767,1072.533697,-1110.308913,9696.697840
700.227083,306.438199,-1184.329507,9918.759623
700.227399,-153.219100,-222.061783,9918.759623
700.227715,-306.438199,-148.041188,9474.636058
700.228031,0.000000,-740.205942,10140.821405
700.228346,153.219100,-1258.350101,10362.883188
700.228662,-76.609550,-1554.432478,9992.780217
700.228978,-383.047749,-1332.370696,10288.862594
700.229294,76.609550,-1850.514855,10955.047942
700.229610,153.219100,-1924.535449,10288.862594
700.229925,-76.609550,-592.164754,9622.677246
700.230241,229.828649,444.123565,8512.368333
700.230557,1072.533697,-222.061783,8512.368333
700.230873,1072.533697,-666.185348,8660.409521
700.231189,536.266849,-518.144159,8142.265362
700.231505,689.485948,-888.247130,8512.368333
700.231820,766.095498,-1332.370696,9326.594869
700.232136,383.047749,-1702.473667,9104.533087
700.232452,0.000000,-740.205942,9474.636058
700.232768,-229.828649,-740.205942,9104.533087
700.233084,-229.828649,-1480.411884,9474.636058
700.233400,-153.219100,-2072.576638,10584.944971
700.233715,-459.657299,-1924.535449,10140.821405
700.234031,0.000000,-1702.473667,10140.821405
700.234347,306.438199,-2146.597232,10288.862594
700.234663,536.266849,-1924.535449,10140.821405
700.234979,612.876398,-0.000000,8956.491898
700.235295,1302.362347,888.247130,8512.368333
700.235610,2068.457845,444.123565,7698.141797
700.235926,1915.238745,592.164754,7920.203579
700.236242,1608.800546,888.247130,7254.018232
700.236558,1302.362347,-0.000000,7550.100608
700.236874,1225.752797,-814.226536,8734.430116
700.237190,766.095498,-962.267725,9030.512492
700.237505,-229.828649,-518.144159,9104.533087
700.237821,-153.219100,-518.144159,9992.780217
700.238137,-536.266849,-1554.432478,9622.677246
700.238453,-383.047749,-1850.514855,10288.862594
700.238769,-995.924147,-1702.473667,10510.924376
700.239085,-1072.533697,-1628.453072,10658.965565
700.239400,-229.828649,-2072.576638,11029.068536
700.239716,-612.876398,-1554.432478,10436.903782
700.240032,-766.095498,-0.000000,9696.697840
700.240348,76.609550,1110.308913,8882.471304
700.240664,919.314598,592.164754,7846.182985
700.240979,1149.143247,444.123565,8142.265362
700.241295,689.485948,740.205942,8512.368333
700.241611,1149.143247,592.164754,7920.203579
700.241927,1225.752797,148.041188,9030.512492
700.242243,1225.752797,148.041188,9696.697840
700.242559,459.657299,592.164754,9548.656652
700.242874,-153.219100,1258.350101,9178.553681
700.243190,0.000000,-0.000000,10140.821405
700.243506,-459.657299,-888.247130,11103.089130
700.243822,-612.876398,-370.102971,11029.068536
700.244138,-689.485948,-296.082377,10807.006753
700.244454,-153.219100,-666.185348,11399.171507
700.244769,0.000000,-296.082377,11177.109724
700.245085,0.000000,1554.432478,10288.862594
700.245401,383.047749,2516.700203,9252.574275
700.245717,1149.143247,2072.576638,8586.388927
700.246033,1608.800546,1776.494261,8512.368333
700.246349,1685.410096,1998.556043,8364.327145
700.246664,2221.676944,1480.411884,8512.368333
700.246980,2757.943793,518.144159,9252.574275
700.247296,1915.238745,296.082377,9548.656652
700.247612,1378.971896,1110.308913,9252.574275
700.247928,995.924147,1628.453072,9178.553681
700.248244,1302.362347,592.164754,10066.800811
700.248559,1072.533697,-0.000000,10584.944971
700.248875,306.438199,-148.041188,10362.883188
700.249191,383.047749,-148.041188,10362.883188
700.249507,306.438199,-1258.350101,10881.027347
700.249823,459.657299,-666.185348,10807.006753
700.250139,612.876398,296.082377,9770.718434
700.250454,612.876398,1628.453072,8882.471304
700.250770,1149.143247,1036.288319,8660.409521
700.251086,1378.971896,592.164754,8586.388927
700.251402,1608.800546,518.144159,8216.285956
700.251718,1378.971896,592.164754,8364.327145
700.252033,1455.581446,-222.061783,9030.512492
700.252349,919.314598,-740.205942,9844.739029
700.252665,0.000000,-0.000000,9400.615463
700.252981,-383.047749,666.185348,9474.636058
700.253297,76.609550,-444.123565,9992.780217
700.253613,76.609550,-962.267725,10510.924376
700.253928,-383.047749,-518.144159,10214.842000
700.254244,-536.266849,-1258.350101,10658.965565
700.254560,229.828649,-2368.659014,10807.006753
700.254876,0.000000,-1332.370696,10510.924376
700.255191,0.000000,148.041188,9104.533087
700.255507,459.657299,370.102971,8808.450710
700.255823,1149.143247,74.020594,8586.388927
700.256139,1149.143247,-0.000000,7920.203579
700.256454,919.314598,296.082377,7920.203579
700.256770,995.924147,-0.000000,8068.244768
700.257086,1225.752797,-1036.288319,8660.409521
700.257402,766.095498,-1258.350101,9622.677246
700.257718,383.047749,-888.247130,9548.656652
700.258033,0.000000,-0.000000,8882.471304
700.258349,153.219100,-1110.308913,9548.656652
700.258665,-153.219100,-2146.597232,10288.862594
700.258981,-153.219100,-1776.494261,10510.924376
700.259296,459.657299,-1702.473667,10140.821405
700.259612,-153.219100,-2072.576638,10288.862594
700.259928,229.828649,-1554.432478,10436.903782
700.260244,229.828649,-222.061783,9104.533087
700.260559,306.438199,740.205942,8660.409521
700.260875,1072.533697,-296.082377,8142.265362
700.261191,1149.143247,-592.164754,8512.368333
700.261507,1149.143247,148.041188,7994.224174
700.261822,995.924147,-222.061783,8438.347739
700.262138,1149.143247,-1036.288319,9104.533087
700.262454,459.657299,-888.247130,9696.697840
700.262770,0.000000,-0.000000,9030.512492
700.263086,0.000000,-0.000000,9252.574275
700.263401,-229.828649,-666.185348,9770.718434
700.263717,-459.657299,-1628.453072,10436.903782
700.264033,-1225.752797,-1850.514855,10881.027347
700.264349,-919.314598,-2220.617826,10436.903782
700.264664,-536.266849,-1628.453072,10584.944971
700.264980,-383.047749,-1258.350101,10584.944971
700.265296,-229.828649,222.061783,9104.533087
700.265612,0.000000,888.247130,8586.388927
700.265927,383.047749,222.061783,8512.368333
700.266243,689.485948,-0.000000,8660.409521
700.266559,766.095498,370.102971,8882.471304
700.266875,536.266849,370.102971,8882.471304
700.267190,995.924147,-222.061783,9104.533087
700.267506,383.047749,-296.082377,9844.739029
700.267822,-229.828649,222.061783,9474.636058
700.268138,-153.219100,444.123565,9548.656652
700.268453,0.000000,-666.185348,10214.842000
700.268769,0.000000,-592.164754,10362.883188
700.269085,-153.219100,-370.102971,10362.883188
700.269401,153.219100,-518.144159,10658.965565
700.269717,459.657299,-814.226536,10584.944971
700.270032,383.047749,-222.061783,10066.800811
700.270348,612.876398,1554.432478,9178.553681
700.270664,995.924147,2072.576638,8808.450710
700.270980,1685.410096,1480.411884,9104.533087
700.271295,1762.019645,1554.432478,8586.388927
700.271611,1608.800546,1258.350101,7994.224174
700.271927,1762.019645,1036.288319,8586.388927
700.272243,1685.410096,-296.082377,9474.636058
700.272558,1302.362347,-0.000000,9992.780217
700.272874,383.047749,1406.391290,9548.656652
700.273190,919.314598,1332.370696,9252.574275
700.273506,1072.533697,740.205942,9844.739029
700.273821,689.485948,-74.020594,10140.821405
700.274137,766.095498,-0.000000,9844.739029
700.274453,842.705048,-74.020594,10214.842000
700.274769,689.485948,-740.205942,10510.924376
700.275085,689.485948,-148.041188,10584.944971
700.275400,689.485948,1554.432478,9178.553681
700.275716,689.485948,1924.535449,8734.430116
700.276032,1149.143247,1036.288319,9104.533087
700.276348,995.924147,370.102971,8660.409521
700.276663,536.266849,888.247130,8364.327145
700.276979,536.266849,296.082377,9178.553681
700.277295,1225.752797,-444.123565,9474.636058
700.277611,229.828649,-740.205942,9622.677246
700.277926,-229.828649,222.061783,9770.718434
700.278242,-229.828649,666.185348,9474.636058
700.278558,0.000000,-444.123565,10140.821405
700.278874,0.000000,-1184.329507,10510.924376
700.279189,-383.047749,-888.247130,10066.800811
700.279505,0.000000,-888.247130,10584.944971
700.279821,0.000000,-1406.391290,10510.924376
700.280137,76.609550,-962.267725,10140.821405
700.280453,153.219100,518.144159,9548.656652
700.280768,229.828649,814.226536,8660.409521
700.281084,995.924147,666.185348,8290.306550
700.281400,1072.533697,-370.102971,8808.450710
700.281716,689.485948,-148.041188,8734.430116
700.282031,995.924147,-444.123565,8734.430116
700.282347,1072.533697,-1184.329507,9104.533087
700.282663,76.609550,-740.205942,9474.636058
700.282979,0.000000,-74.020594,9474.636058
700.283294,0.000000,-74.020594,9178.553681
700.283610,-383.047749,-1480.411884,10066.800811
700.283926,-842.705048,-2146.597232,10658.965565
700.284242,-536.266849,-2516.700203,10288.862594
700.284557,-459.657299,-2146.597232,10510.924376
700.284873,-383.047749,-2294.638420,10362.883188
700.285189,-536.266849,-1998.556043,10436.903782
700.285505,76.609550,-0.000000,9474.636058
700.285821,153.219100,888.247130,8882.471304
700.286136,842.705048,740.205942,7772.162391
700.286452,1608.800546,-0.000000,8364.327145
700.286768,1072.533697,-148.041188,7772.162391
700.287084,1455.581446,-74.020594,8142.265362
700.287399,1915.238745,-1332.370696,8734.430116
700.287715,842.705048,-1036.288319,9104.533087
700.288031,0.000000,-370.102971,9326.594869
700.288347,0.000000,-592.164754,9104.533087
700.288662,0.000000,-1110.308913,9992.780217
700.288978,-459.657299,-2220.617826,10510.924376
700.289294,-766.095498,-1480.411884,9992.780217
700.289610,-383.047749,-1628.453072,10140.821405
700.289925,0.000000,-2516.700203,10584.944971
700.290241,-612.876398,-1702.473667,10584.944971
700.290557,-612.876398,-296.082377,9992.780217
700.290873,0.000000,888.247130,8660.409521
700.291189,766.095498,666.185348,8364.327145
700.291504,1302.362347,-0.000000,8216.285956
700.291820,766.095498,-0.000000,8068.244768
700.292136,919.314598,-0.000000,8882.471304
700.292452,995.924147,-814.226536,8808.450710
700.292767,842.705048,-740.205942,9622.677246
700.293083,0.000000,222.061783,9030.512492
700.293399,459.657299,666.185348,9104.533087
700.293715,536.266849,-296.082377,9918.759623
700.294030,153.219100,-740.205942,10658.965565
700.294346,-153.219100,-666.185348,9918.759623
700.294662,0.000000,-814.226536,10732.986159
700.294978,306.438199,-1184.329507,11103.089130
700.295293,306.438199,-444.123565,10510.924376
700.295609,229.828649,1258.350101,9622.677246
700.295925,1072.533697,1998.556043,8586.388927
700.296241,1378.971896,1554.432478,8290.306550
700.296557,1532.190996,1258.350101,8586.388927
700.296872,1762.019645,1110.308913,8438.347739
700.297188,1991.848295,592.164754,8734.430116
700.297504,1455.581446,-0.000000,9252.574275
700.297820,1532.190996,-148.041188,9844.739029
700.298135,842.705048,740.205942,9622.677246
700.298451,842.705048,1258.350101,9770.718434
700.298767,919.314598,666.185348,9992.780217
700.299083,842.705048,222.061783,10436.903782
700.299398,612.876398,222.061783,9844.739029
700.299714,766.095498,296.082377,10362.883188
700.300030,766.095498,-148.041188,10807.006753
700.300346,919.314598,222.061783,10066.800811
700.300661,1072.533697,1776.494261,9548.656652
700.300977,1149.143247,2220.617826,8438.347739
700.301293,1532.190996,1998.556043,8586.388927
700.301609,612.876398,1480.411884,8364.327145
700.301924,383.047749,1332.370696,8364.327145
700.302240,842.705048,518.144159,9326.594869
700.302556,612.876398,-222.061783,9918.759623
700.302872,229.828649,-0.000000,10140.821405
700.303188,-842.705048,148.041188,10066.800811
700.303503,-689.485948,518.144159,10140.821405
700.303819,-612.876398,-0.000000,10066.800811
700.304135,-766.095498,-592.164754,10732.986159
700.304451,-612.876398,-666.185348,10955.047942
700.304766,-612.876398,-888.247130,10584.944971
700.305082,-153.219100,-1554.432478,11177.109724
700.305398,76.609550,-1406.391290,10510.924376
700.305714,153.219100,444.123565,9030.512492
700.306029,612.876398,1480.411884,8512.368333
700.306345,1685.410096,740.205942,8290.306550
700.306661,1608.800546,-0.000000,8364.327145
700.306977,1225.752797,444.123565,7550.100608
700.307292,1149.143247,-814.226536,8142.265362
700.307608,1149.143247,-2294.638420,9844.739029
700.307924,536.266849,-2294.638420,9696.697840
700.308240,76.609550,-1036.288319,9474.636058
700.308556,-306.438199,-518.144159,9844.739029
700.308871,0.000000,-1332.370696,10066.800811
700.309187,-536.266849,-2220.617826,9992.780217
700.309503,-995.924147,-2664.741391,10362.883188
700.309819,-383.047749,-2960.823768,10584.944971
700.310134,229.828649,-3256.906145,11029.068536
700.310450,153.219100,-2146.597232,10214.842000
700.310766,383.047749,-296.082377,8956.491898
700.311082,1149.143247,296.082377,8142.265362
700.311397,1455.581446,444.123565,7920.203579
700.311713,1532.190996,370.102971,7772.162391
700.312029,1302.362347,370.102971,7624.121203
700.312345,2221.676944,-296.082377,8142.265362
700.312660,1378.971896,-1480.411884,9400.615463
700.312976,919.314598,-1702.473667,9770.718434
700.313292,153.219100,-592.164754,9326.594869
700.313608,-153.219100,-370.102971,9548.656652
700.313924,-229.828649,-1184.329507,9770.718434
700.314239,-459.657299,-1554.432478,10510.924376
700.314555,-995.924147,-1036.288319,10288.862594
700.314871,-766.095498,-1184.329507,9992.780217
700.315187,-1225.752797,-2442.679609,10436.903782
700.315502,-689.485948,-2294.638420,10436.903782
700.315818,-689.485948,-592.164754,9696.697840
700.316134,-306.438199,518.144159,8512.368333
700.316450,383.047749,148.041188,8216.285956
700.316765,919.314598,-0.000000,8364.327145
700.317081,1072.533697,-0.000000,7920.203579
700.317397,536.266849,-0.000000,8142.265362
700.317713,919.314598,-740.205942,9178.553681
700.318028,766.095498,-888.247130,9622.677246
700.318344,0.000000,370.102971,9326.594869
700.318660,-459.657299,222.061783,9178.553681
700.318976,536.266849,-296.082377,9918.759623
700.319292,76.609550,-518.144159,10066.800811
700.319607,-229.828649,-222.061783,9918.759623
700.319923,0.000000,-518.144159,10658.965565
700.320239,383.047749,-1110.308913,11029.068536
700.320555,76.609550,-222.061783,11251.130318
700.320870,536.266849,1332.370696,9844.739029
700.321186,919.314598,1924.535449,8882.471304
700.321502,1378.971896,1480.411884,8808.450710
700.321818,1685.410096,1628.453072,9030.512492
700.322133,1455.581446,2146.597232,7772.162391
700.322449,1838.629195,1628.453072,8068.244768
700.322765,2298.286494,518.144159,9178.553681
700.323081,1915.238745,370.102971,9918.759623
700.323396,766.095498,1110.308913,9474.636058
700.323712,76.609550,1406.391290,9622.677246
700.324028,766.095498,444.123565,10436.903782
700.324344,459.657299,222.061783,10510.924376
700.324660,-229.828649,444.123565,10140.821405
700.324975,-153.219100,740.205942,10510.924376
700.325291,76.609550,-666.185348,11621.233289
700.325607,153.219100,-370.102971,10881.027347
700.325923,0.000000,1258.350101,9696.697840
700.326238,536.266849,2146.597232,9030.512492
700.326554,1225.752797,2220.617826,8438.347739
700.326870,1302.362347,1702.473667,8364.327145
700.327186,995.924147,1480.411884,8216.285956
700.327501,919.314598,888.247130,8660.409521
700.327817,1072.533697,-370.102971,9696.697840
700.328133,766.095498,-148.041188,9770.718434
700.328449,153.219100,592.164754,9696.697840
700.328764,0.000000,814.226536,9992.780217
700.329080,229.828649,518.144159,10214.842000
700.329396,0.000000,-444.123565,10436.903782
700.329712,-536.266849,-740.205942,10584.944971
700.330028,-536.266849,-1628.453072,10658.965565
700.330343,-229.828649,-1998.556043,11103.089130
700.330659,153.219100,-1480.411884,10807.006753
700.330975,766.095498,74.020594,9770.718434
700.331291,536.266849,1702.473667,8882.471304
700.331606,1455.581446,888.247130,8290.306550
700.331922,1225.752797,-0.000000,8216.285956
700.332238,766.095498,222.061783,8068.244768
700.332554,1378.971896,-1036.288319,8142.265362
700.332869,1225.752797,-1924.535449,9400.615463
700.333185,842.705048,-2146.597232,9844.739029
700.333501,0.000000,-1332.370696,9400.615463
700.333817,76.609550,-962.267725,9622.677246
700.334132,153.219100,-1702.473667,9844.739029
700.334448,-306.438199,-1776.494261,10066.800811
700.334764,-766.095498,-1924.535449,9992.780217
700.335080,-383.047749,-2368.659014,10214.842000
700.335395,153.219100,-2812.782580,11325.150913
700.335711,383.047749,-2294.638420,9992.780217
700.336027,229.828649,-296.082377,8956.491898
700.336343,766.095498,666.185348,8216.285956
700.336659,1455.581446,-0.000000,7550.100608
700.336974,1455.581446,-0.000000,8068.244768
700.337290,1225.752797,888.247130,7698.141797
700.337606,1149.143247,-888.247130,7698.141797
700.337922,1149.143247,-1776.494261,8956.491898
700.338237,153.219100,-1924.535449,9178.553681
700.338553,0.000000,-740.205942,9326.594869
700.338869,-612.876398,-592.164754,9992.780217
700.339185,-612.876398,-1480.411884,9548.656652
700.339500,-842.705048,-1554.432478,9992.780217
700.339816,-1378.971896,-1998.556043,9770.718434
700.340132,-842.705048,-2146.597232,10436.903782
700.340448,-612.876398,-2516.700203,10732.986159
700.340763,-536.266849,-2072.576638,10288.862594
700.341079,0.000000,-0.000000,9548.656652
700.341395,153.219100,666.185348,8142.265362
700.341711,536.266849,296.082377,7254.018232
700.342027,1225.752797,370.102971,8068.244768
700.342342,842.705048,592.164754,7624.121203
700.342658,1302.362347,148.041188,7624.121203
700.342974,1149.143247,-592.164754,8734.430116
700.343290,842.705048,-1110.308913,9622.677246
700.343605,0.000000,-296.082377,9844.739029
700.343921,-612.876398,-0.000000,9622.677246
700.344237,-383.047749,-444.123565,10288.862594
700.344553,-689.485948,-1184.329507,11029.068536
700.344868,-995.924147,-444.123565,10807.006753
700.345184,-689.485948,-592.164754,11103.089130
700.345500,-229.828649,-1258.350101,11251.130318
700.345816,229.828649,-666.185348,11029.068536
700.346131,0.000000,1036.288319,9770.718434
700.346447,1302.362347,1924.535449,8512.368333
700.346763,1838.629195,2220.617826,8290.306550
700.347079,1991.848295,1924.535449,8512.368333
700.347395,2221.676944,2146.597232,8068.244768
700.347710,2298.286494,1406.391290,8660.409521
700.348026,2068.457845,962.267725,9622.677246
700.348342,1762.019645,1036.288319,9844.739029
700.348658,1225.752797,1702.473667,9548.656652
700.348973,842.705048,1924.535449,9400.615463
700.349289,1149.143247,814.226536,10510.924376
700.349605,919.314598,-0.000000,10658.965565
700.349921,0.000000,370.102971,10658.965565
700.350236,0.000000,-0.000000,10955.047942
700.350552,229.828649,-592.164754,11399.171507
700.350868,383.047749,296.082377,10732.986159
700.351184,0.000000,1702.473667,9474.636058
700.351499,383.047749,2294.638420,9474.636058
700.351815,995.924147,1702.473667,8882.471304
700.352131,1302.362347,962.267725,8586.388927
700.352447,1225.752797,1258.350101,7994.224174
700.352763,1149.143247,814.226536,8734.430116
700.353078,1608.800546,-148.041188,9474.636058
700.353394,766.095498,-74.020594,9844.739029
700.353710,229.828649,370.102971,9548.656652
700.354026,-306.438199,1184.329507,9622.677246
700.354341,229.828649,148.041188,9622.677246
700.354657,-229.828649,-962.267725,10584.944971
700.354973,-229.828649,-888.247130,10510.924376
700.355289,0.000000,-1258.350101,10288.862594
700.355604,0.000000,-1702.473667,10658.965565
700.355920,76.609550,-1628.453072,10881.027347
700.356236,-306.438199,-0.000000,9548.656652
700.356551,459.657299,962.267725,8364.327145
700.356867,612.876398,592.164754,8438.347739
700.357183,919.314598,-74.020594,8290.306550
700.357498,766.095498,-0.000000,8068.244768
700.357814,766.095498,-888.247130,8068.244768
700.358130,229.828649,-1628.453072,9918.759623
700.358445,612.876398,-1628.453072,9252.574275
700.358761,-153.219100,-888.247130,9178.553681
700.359077,0.000000,-888.247130,9474.636058
700.359392,0.000000,-1628.453072,9992.780217
700.359708,-306.438199,-2294.638420,10362.883188
700.360024,-689.485948,-1998.556043,9622.677246
700.360339,-383.047749,-2146.597232,10584.944971
700.360655,153.219100,-2590.720797,10436.903782
700.360971,76.609550,-1554.432478,9844.739029
700.361286,229.828649,-0.000000,9252.574275
700.361602,612.876398,148.041188,8216.285956
700.361918,1378.971896,148.041188,7698.141797
700.362233,1685.410096,-222.061783,7920.203579
700.362549,1225.752797,-296.082377,7846.182985
700.362865,1302.362347,-518.144159,8290.306550
700.363180,766.095498,-1258.350101,9326.594869
700.363496,229.828649,-1406.391290,9548.656652
700.363812,-536.266849,-814.226536,9622.677246
700.364127,-919.314598,-222.061783,9696.697840
700.364443,-842.705048,-740.205942,9696.697840
700.364759,-766.095498,-1628.453072,10584.944971
700.365074,-1149.143247,-1998.556043,10362.883188
700.365390,-1225.752797,-1924.535449,10584.944971
700.365706,-306.438199,-2368.659014,10732.986159
700.366021,0.000000,-2220.617826,10288.862594
700.366337,-153.219100,-148.041188,9548.656652
700.366653,229.828649,1184.329507,8438.347739
700.366968,1302.362347,518.144159,8290.306550
700.367284,1762.019645,296.082377,7920.203579
700.367600,919.314598,740.205942,7920.203579
700.367915,1378.971896,-0.000000,8068.244768
700.368231,1378.971896,-666.185348,8734.430116
700.368547,766.095498,-518.144159,9178.553681
700.368862,153.219100,-148.041188,9400.615463
700.369178,0.000000,-222.061783,9696.697840
700.369494,-153.219100,-888.247130,10140.821405
700.369809,-459.657299,-1628.453072,10955.047942
700.370125,-995.924147,-1406.391290,10584.944971
700.370441,-995.924147,-1184.329507,11547.212695
700.370756,-459.657299,-1406.391290,11473.192101
700.371072,153.219100,-222.061783,10732.986159
700.371388,153.219100,1628.453072,9474.636058
700.371703,1149.143247,2368.659014,8660.409521
700.372019,2145.067394,1776.494261,8438.347739
700.372335,2451.505594,1628.453072,8290.306550
700.372650,2451.505594,2146.597232,7624.121203
700.372966,2451.505594,1776.494261,8364.327145
700.373282,2528.115143,1036.288319,9104.533087
700.373597,2068.457845,1036.288319,9474.636058
700.373913,1225.752797,2220.617826,9474.636058
700.374229,766.095498,2368.659014,9326.594869
700.374544,612.876398,1184.329507,10214.842000
700.374860,383.047749,296.082377,10436.903782
700.375176,76.609550,-0.000000,10881.027347
700.375492,-383.047749,-222.061783,10807.006753
700.375807,0.000000,-518.144159,11177.109724
700.376123,153.219100,-0.000000,10732.986159
700.376439,0.000000,1924.535449,9474.636058
700.376754,229.828649,2220.617826,9104.533087
700.377070,766.095498,1332.370696,9030.512492
700.377386,1072.533697,1480.411884,8512.368333
700.377701,1072.533697,1702.473667,8068.244768
700.378017,1225.752797,1258.350101,8438.347739
700.378333,1455.581446,222.061783,9252.574275
700.378648,919.314598,-370.102971,9474.636058
700.378964,459.657299,666.185348,9178.553681
700.379280,-383.047749,296.082377,9400.615463
700.379595,-306.438199,-814.226536,10140.821405
700.379911,-689.485948,-1702.473667,10732.986159
700.380227,-1149.143247,-1332.370696,10658.965565
700.380542,-919.314598,-1332.370696,11177.109724
700.380858,-689.485948,-1850.514855,10881.027347
700.381174,-612.876398,-1332.370696,10510.924376
700.381489,-153.219100,148.041188,9770.718434
700.381805,0.000000,592.164754,8512.368333
700.382121,1225.752797,-0.000000,9030.512492
700.382436,1072.533697,-740.205942,8808.450710
700.382752,919.314598,-222.061783,8142.265362
700.383068,1762.019645,-592.164754,8808.450710
700.383383,1532.190996,-962.267725,9400.615463
700.383699,995.924147,-888.247130,9252.574275
700.384015,306.438199,-0.000000,9252.574275
700.384330,306.438199,-0.000000,9030.512492
700.384646,459.657299,-1110.308913,9548.656652
700.384962,229.828649,-1924.535449,10140.821405
700.385277,383.047749,-1628.453072,9918.759623
700.385593,306.438199,-2146.597232,10214.842000
700.385909,383.047749,-2368.659014,10288.862594
700.386224,536.266849,-1924.535449,10214.842000
700.386540,153.219100,-74.020594,9696.697840
700.386856,459.657299,666.185348,8586.388927
700.387171,1378.971896,518.144159,8068.244768
700.387487,1915.238745,-0.000000,8290.306550
700.387803,1302.362347,-74.020594,7698.141797
700.388118,1072.533697,-666.185348,8216.285956
700.388434,1455.581446,-1258.350101,9030.512492
700.388750,689.485948,-1258.350101,9178.553681
700.389065,229.828649,-370.102971,9178.553681
700.389381,0.000000,-222.061783,9178.553681
700.389697,76.609550,-1332.370696,9548.656652
700.390012,-689.485948,-2072.576638,10436.903782
700.390328,-766.095498,-1924.535449,10214.842000
700.390644,-995.924147,-1850.514855,10140.821405
700.390959,-612.876398,-2442.679609,10584.944971
700.391275,-689.485948,-1628.453072,10214.842000
700.391591,-306.438199,-296.082377,9104.533087
700.391906,-229.828649,370.102971,8512.368333
700.392222,536.266849,-222.061783,8586.388927
700.392538,306.438199,-666.185348,8364.327145
700.392853,0.000000,-444.123565,8586.388927
700.393169,229.828649,-518.144159,8956.491898
700.393485,459.657299,-962.267725,9178.553681
700.393800,0.000000,-518.144159,9326.594869
700.394116,-612.876398,-0.000000,9696.697840
700.394432,-536.266849,370.102971,9770.718434
700.394747,76.609550,-666.185348,9992.780217
700.395063,-153.219100,-1258.350101,10436.903782
700.395379,-229.828649,-1258.350101,10732.986159
700.395694,76.609550,-1036.288319,10584.944971
700.396010,612.876398,-814.226536,10658.965565
700.396326,689.485948,370.102971,10584.944971
700.396641,919.314598,2146.597232,9178.553681
700.396957,1072.533697,2664.741391,8586.388927
700.397273,2145.067394,2220.617826,8290.306550
700.397588,2068.457845,1406.391290,8290.306550
700.397904,2068.457845,1258.350101,8364.327145
700.398220,1991.848295,1184.329507,9030.512492
700.398535,1762.019645,222.061783,9474.636058
700.398851,1378.971896,1036.288319,9622.677246
700.399167,842.705048,2294.638420,9548.656652
700.399482,229.828649,1998.556043,9474.636058
700.399798,229.828649,1036.288319,10140.821405
700.400114,229.828649,-0.000000,10807.006753
700.400429,76.609550,-0.000000,10584.944971
700.400745,0.000000,-0.000000,11177.109724
700.401061,229.828649,-222.061783,10510.924376
700.401376,612.876398,740.205942,10510.924376
700.401692,459.657299,1850.514855,9474.636058
700.402008,766.095498,2072.576638,8438.347739
700.402323,1532.190996,1406.391290,8660.409521
700.402639,1225.752797,592.164754,9104.533087
700.402955,995.924147,592.164754,8882.471304
700.403270,1302.362347,888.247130,8956.491898
