#time,accel_x,accel_y,accel_z
746.111330,536.266849,-148.041188,9548.656652
746.111646,0.000000,-444.123565,9474.636058
746.111962,153.219100,-296.082377,9474.636058
746.112278,612.876398,-74.020594,9326.594869
746.112594,459.657299,-0.000000,9400.615463
746.112910,459.657299,-222.061783,9400.615463
746.113225,383.047749,-296.082377,9474.636058
746.113541,612.876398,-0.000000,9474.636058
746.113857,536.266849,-74.020594,9474.636058
746.114173,306.438199,-148.041188,9474.636058
746.114489,459.657299,-222.061783,9474.636058
746.114805,306.438199,-222.061783,9474.636058
746.115121,383.047749,-148.041188,9474.636058
746.115437,383.047749,-74.020594,9474.636058
746.115753,383.047749,-74.020594,9474.636058
746.116068,459.657299,-296.082377,9474.636058
746.116384,306.438199,-444.123565,9326.594869
746.116700,383.047749,-74.020594,9548.656652
746.117016,229.828649,-148.041188,9622.677246
746.117332,536.266849,-148.041188,9622.677246
746.117648,383.047749,-370.102971,9474.636058
746.117964,306.438199,-222.061783,9548.656652
746.118280,153.219100,-148.041188,9474.636058
746.118596,306.438199,222.061783,9326.594869
746.118912,459.657299,222.061783,9474.636058
746.119227,536.266849,444.123565,9400.615463
746.119543,229.828649,-0.000000,9104.533087
746.119859,153.219100,74.020594,9474.636058
746.120175,0.000000,148.041188,9548.656652
746.120491,76.609550,222.061783,9474.636058
746.120807,76.609550,-296.082377,9696.697840
746.121123,76.609550,-222.061783,9770.718434
746.121439,153.219100,-444.123565,9844.739029
746.121755,153.219100,-0.000000,9622.677246
746.122070,306.438199,-0.000000,9622.677246
746.122386,153.219100,444.123565,9326.594869
746.122702,689.485948,740.205942,8956.491898
746.123018,612.876398,740.205942,9252.574275
746.123334,536.266849,740.205942,9400.615463
746.123650,612.876398,814.226536,9178.553681
746.123966,612.876398,370.102971,8882.471304
746.124282,612.876398,148.041188,9474.636058
746.124598,766.095498,296.082377,9696.697840
746.124913,536.266849,370.102971,9770.718434
746.125229,612.876398,814.226536,9918.759623
746.125545,689.485948,814.226536,9918.759623
746.125861,766.095498,740.205942,9696.697840
746.126177,995.924147,1258.350101,9474.636058
746.126493,1532.190996,1184.329507,9474.636058
746.126809,1762.019645,1036.288319,9178.553681
746.127125,1991.848295,1702.473667,9104.533087
746.127441,2221.676944,1702.473667,9030.512492
746.127757,2221.676944,1702.473667,9104.533087
746.128072,2451.505594,1702.473667,9178.553681
746.128388,2145.067394,1998.556043,9622.677246
746.128704,2834.553343,1924.535449,9326.594869
746.129020,2451.505594,1850.514855,9474.636058
746.129336,2604.724693,1924.535449,9770.718434
746.129652,2987.772442,1776.494261,9844.739029
746.129968,2604.724693,2220.617826,9622.677246
746.130284,2834.553343,2220.617826,9548.656652
746.130600,2757.943793,2294.638420,9474.636058
746.130915,2911.162892,2442.679609,9400.615463
746.131231,2987.772442,2368.659014,9326.594869
746.131547,3370.820191,2368.659014,9326.594869
746.131863,3447.429741,2368.659014,9326.594869
746.132179,3217.601092,2368.659014,9326.594869
746.132495,3524.039291,2368.659014,9548.656652
746.132811,3064.381992,2516.700203,9918.759623
746.133127,3294.210641,2886.803174,9548.656652
746.133443,3064.381992,2442.679609,9548.656652
746.133758,2987.772442,2590.720797,9770.718434
746.134074,2757.943793,2516.700203,9548.656652
746.134390,2681.334243,2368.659014,9992.780217
746.134706,2604.724693,2146.597232,9918.759623
746.135022,2451.505594,2072.576638,10140.821405
746.135338,2757.943793,1924.535449,10066.800811
746.135654,2451.505594,2368.659014,10214.842000
746.135970,2604.724693,2368.659014,10214.842000
746.136286,2604.724693,2368.659014,9844.739029
746.136602,2834.553343,2368.659014,9992.780217
746.136917,3140.991542,2072.576638,9622.677246
746.137233,3140.991542,2146.597232,9400.615463
746.137549,2681.334243,2072.576638,9178.553681
746.137865,2604.724693,2146.597232,9400.615463
746.138181,2451.505594,1924.535449,9400.615463
746.138497,2145.067394,2146.597232,9474.636058
746.138813,1915.238745,1776.494261,9474.636058
746.139129,1838.629195,1110.308913,9622.677246
746.139445,919.314598,518.144159,9770.718434
746.139760,766.095498,-0.000000,10214.842000
746.140076,459.657299,-222.061783,10584.944971
746.140392,1072.533697,-222.061783,11029.068536
746.140708,1149.143247,-518.144159,10881.027347
746.141024,1225.752797,-0.000000,10510.924376
746.141340,1608.800546,666.185348,9844.739029
746.141656,2451.505594,1702.473667,9326.594869
746.141972,3140.991542,2294.638420,8586.388927
746.142288,3983.696590,2664.741391,7920.203579
746.142603,4290.134789,3256.906145,7402.059420
746.142919,4443.353888,2960.823768,7105.977043
746.143235,4519.963438,2368.659014,7179.997637
746.143551,3983.696590,1850.514855,7920.203579
746.143867,3064.381992,1184.329507,8586.388927
746.144183,2145.067394,814.226536,8956.491898
746.144499,1378.971896,666.185348,9474.636058
746.144815,459.657299,148.041188,10140.821405
746.145131,-153.219100,-0.000000,10214.842000
746.145446,-766.095498,-222.061783,10732.986159
746.145762,-1225.752797,-814.226536,11177.109724
746.146078,-766.095498,-1184.329507,11251.130318
746.146394,-229.828649,-814.226536,10955.047942
746.146710,153.219100,-444.123565,10807.006753
746.147026,1455.581446,592.164754,10140.821405
746.147342,2451.505594,1628.453072,9548.656652
746.147658,4060.306139,2664.741391,8586.388927
746.147974,5056.230287,3552.988522,7550.100608
746.148290,5669.106685,4219.173869,7402.059420
746.148605,6358.592633,4219.173869,6735.874072
746.148921,6588.421283,4441.235652,6587.832884
746.149237,6511.811733,4441.235652,6587.832884
746.149553,6128.763984,3923.091493,7328.038826
746.149869,4903.011187,3034.844362,8364.327145
746.150185,3753.867940,1628.453072,9548.656652
746.150501,2145.067394,296.082377,10658.965565
746.150817,689.485948,-370.102971,11843.295072
746.151133,-536.266849,-592.164754,12583.501014
746.151448,-1149.143247,-962.267725,13101.645173
746.151764,-995.924147,148.041188,13397.727550
746.152080,0.000000,740.205942,12509.480420
746.152396,536.266849,2072.576638,11103.089130
746.152712,1302.362347,3552.988522,9770.718434
746.153028,3064.381992,4071.132681,8068.244768
746.153344,4826.401637,3627.009116,7772.162391
746.153660,5669.106685,4441.235652,7179.997637
746.153976,5898.935335,3552.988522,7328.038826
746.154291,5975.544884,2664.741391,7920.203579
746.154607,5822.325785,2960.823768,8216.285956
746.154923,5056.230287,2664.741391,9030.512492
746.155239,4673.182538,2442.679609,10288.862594
746.155555,3524.039291,1998.556043,11177.109724
746.155871,2528.115143,2072.576638,11769.274478
746.156187,1532.190996,2738.761985,10955.047942
746.156503,995.924147,3404.947333,10362.883188
746.156819,1532.190996,3108.864956,10362.883188
746.157135,1838.629195,2442.679609,9548.656652
746.157450,1838.629195,2516.700203,9622.677246
746.157766,1149.143247,1850.514855,9474.636058
746.158082,1532.190996,1184.329507,9474.636058
746.158398,1685.410096,1480.411884,9178.553681
746.158714,1991.848295,1554.432478,9548.656652
746.159030,1608.800546,2516.700203,9252.574275
746.159346,1072.533697,2220.617826,9400.615463
746.159662,1072.533697,1406.391290,9548.656652
746.159978,1685.410096,1110.308913,10214.842000
746.160293,1991.848295,814.226536,9992.780217
746.160609,1378.971896,1184.329507,10584.944971
746.160925,1532.190996,1776.494261,10584.944971
746.161241,2374.896044,1480.411884,10362.883188
746.161557,3064.381992,2146.597232,9696.697840
746.161873,3370.820191,3478.967927,8586.388927
746.162189,3447.429741,4219.173869,7550.100608
746.162505,4366.744339,3627.009116,7105.977043
746.162821,4979.620737,3256.906145,6957.935855
746.163136,4443.353888,3034.844362,7105.977043
746.163452,3753.867940,2294.638420,7476.080014
746.163768,3064.381992,814.226536,8586.388927
746.164084,2068.457845,-444.123565,10066.800811
746.164400,612.876398,-222.061783,10807.006753
746.164716,-919.314598,444.123565,11325.150913
746.165032,-766.095498,370.102971,11769.274478
746.165348,-306.438199,222.061783,11547.212695
746.165664,229.828649,518.144159,10436.903782
746.165980,229.828649,740.205942,10436.903782
746.166295,1302.362347,1036.288319,10288.862594
746.166611,2451.505594,444.123565,9844.739029
746.166927,3064.381992,1258.350101,8512.368333
746.167243,3524.039291,2812.782580,8142.265362
746.167559,5132.839837,2516.700203,7254.018232
746.167875,5745.716235,3034.844362,7624.121203
746.168191,5132.839837,2146.597232,7402.059420
746.168507,5132.839837,1998.556043,7772.162391
746.168823,4903.011187,1628.453072,8808.450710
746.169138,3753.867940,1702.473667,9400.615463
746.169454,2604.724693,1998.556043,9400.615463
746.169770,2374.896044,1628.453072,9770.718434
746.170086,2145.067394,1110.308913,10214.842000
746.170402,612.876398,518.144159,10807.006753
746.170718,76.609550,-1110.308913,11251.130318
746.171034,-306.438199,-1998.556043,11917.315666
746.171350,-306.438199,-1332.370696,11695.253884
746.171666,306.438199,-222.061783,10955.047942
746.171981,1532.190996,-148.041188,10807.006753
746.172297,2298.286494,666.185348,9696.697840
746.172613,2834.553343,1480.411884,8512.368333
746.172929,3217.601092,1258.350101,8068.244768
746.173245,4136.915689,1184.329507,9030.512492
746.173561,3830.477490,1776.494261,8586.388927
746.173877,4060.306139,2516.700203,7772.162391
746.174192,4290.134789,1406.391290,8734.430116
746.174508,3447.429741,962.267725,9400.615463
746.174824,2374.896044,1924.535449,9770.718434
746.175140,2374.896044,518.144159,9400.615463
746.175456,1378.971896,740.205942,10436.903782
746.175772,536.266849,1406.391290,9844.739029
746.176088,689.485948,592.164754,9770.718434
746.176403,995.924147,-444.123565,11029.068536
746.176719,-229.828649,-962.267725,10214.842000
746.177035,0.000000,-740.205942,9918.759623
746.177351,0.000000,-1110.308913,9770.718434
746.177667,-612.876398,-296.082377,9844.739029
746.177983,-383.047749,370.102971,9400.615463
746.178299,153.219100,-0.000000,8882.471304
746.178614,0.000000,-0.000000,9622.677246
746.178930,-383.047749,-0.000000,9696.697840
746.179246,0.000000,-370.102971,9548.656652
746.179562,229.828649,296.082377,9178.553681
746.179878,-153.219100,888.247130,9474.636058
746.180194,1225.752797,-0.000000,8882.471304
746.180510,1225.752797,-0.000000,9400.615463
746.180826,1072.533697,1036.288319,8956.491898
746.181141,689.485948,592.164754,8290.306550
746.181457,1072.533697,962.267725,8586.388927
746.181773,766.095498,1702.473667,8882.471304
746.182089,612.876398,1036.288319,8216.285956
746.182405,842.705048,-0.000000,7698.141797
746.182721,-1149.143247,-0.000000,9030.512492
746.183037,-1302.362347,-1332.370696,10066.800811
746.183352,-1608.800546,-1702.473667,10066.800811
746.183668,-2528.115143,-592.164754,9844.739029
746.183984,-2451.505594,-518.144159,11029.068536
746.184300,-1608.800546,-1110.308913,10510.924376
746.184616,-1762.019645,-666.185348,9992.780217
746.184932,-1838.629195,222.061783,10510.924376
746.185248,-536.266849,-148.041188,9548.656652
746.185563,229.828649,962.267725,8882.471304
746.185879,1378.971896,1628.453072,8734.430116
746.186195,2451.505594,1258.350101,7920.203579
746.186511,2911.162892,2072.576638,7550.100608
746.186827,2374.896044,1554.432478,7550.100608
746.187143,2221.676944,888.247130,8068.244768
746.187459,995.924147,1554.432478,8808.450710
746.187774,995.924147,888.247130,9844.739029
746.188090,536.266849,370.102971,10140.821405
746.188406,-383.047749,-0.000000,10362.883188
746.188722,-995.924147,-0.000000,11103.089130
746.189038,-1149.143247,-740.205942,10732.986159
746.189354,-1302.362347,-444.123565,10732.986159
746.189670,-612.876398,-0.000000,11843.295072
746.189985,0.000000,-518.144159,10584.944971
746.190301,536.266849,-0.000000,9844.739029
746.190617,536.266849,370.102971,9622.677246
746.190933,919.314598,222.061783,9992.780217
746.191249,1378.971896,1406.391290,9252.574275
746.191565,1608.800546,1332.370696,8882.471304
746.191881,2298.286494,296.082377,9474.636058
746.192196,2451.505594,-222.061783,9770.718434
746.192512,1838.629195,-592.164754,9104.533087
746.192828,2068.457845,-592.164754,9622.677246
746.193144,1302.362347,-296.082377,9622.677246
746.193460,1302.362347,222.061783,9992.780217
746.193776,1378.971896,-74.020594,10362.883188
746.194092,1149.143247,-592.164754,9844.739029
746.194407,306.438199,-148.041188,9696.697840
746.194723,0.000000,-962.267725,9918.759623
746.195039,0.000000,-1702.473667,10066.800811
746.195355,612.876398,-740.205942,10140.821405
746.195671,229.828649,-1998.556043,9992.780217
746.195987,766.095498,-888.247130,8808.450710
746.196303,689.485948,-592.164754,9178.553681
746.196618,1149.143247,-1184.329507,8956.491898
746.196934,612.876398,296.082377,8142.265362
746.197250,689.485948,-0.000000,9326.594869
746.197566,842.705048,-222.061783,9104.533087
746.197882,842.705048,-1110.308913,8956.491898
746.198198,536.266849,-740.205942,8660.409521
746.198514,229.828649,-1184.329507,8660.409521
746.198830,-306.438199,-962.267725,8956.491898
746.199145,0.000000,-962.267725,9918.759623
746.199461,-383.047749,-1406.391290,10066.800811
746.199777,-76.609550,-1702.473667,9104.533087
746.200093,-459.657299,-962.267725,8882.471304
746.200409,-536.266849,-1702.473667,9622.677246
746.200725,-153.219100,-814.226536,8808.450710
746.201041,0.000000,148.041188,8512.368333
746.201356,-612.876398,-814.226536,9030.512492
746.201672,383.047749,-1628.453072,8956.491898
746.201988,0.000000,-666.185348,8364.327145
746.202304,-459.657299,-1110.308913,8882.471304
746.202620,-229.828649,-1480.411884,9474.636058
746.202936,-383.047749,-74.020594,9770.718434
746.203252,0.000000,444.123565,9474.636058
746.203567,459.657299,666.185348,8882.471304
746.203883,306.438199,296.082377,8438.347739
746.204199,383.047749,-0.000000,8808.450710
746.204515,459.657299,-0.000000,8882.471304
746.204831,459.657299,444.123565,9474.636058
746.205147,689.485948,518.144159,9918.759623
746.205463,766.095498,-74.020594,9548.656652
746.205778,689.485948,370.102971,8956.491898
746.206094,306.438199,222.061783,9548.656652
746.206410,-153.219100,666.185348,8956.491898
746.206726,153.219100,962.267725,9844.739029
746.207042,0.000000,814.226536,10955.047942
746.207358,306.438199,518.144159,9770.718434
746.207674,0.000000,888.247130,9622.677246
746.207989,0.000000,-0.000000,10584.944971
746.208305,0.000000,592.164754,10288.862594
746.208621,153.219100,592.164754,10288.862594
746.208937,229.828649,962.267725,10066.800811
746.209253,1149.143247,-0.000000,10066.800811
746.209569,842.705048,148.041188,9252.574275
746.209885,1072.533697,592.164754,9992.780217
746.210200,1149.143247,-0.000000,9696.697840
746.210516,1225.752797,814.226536,9474.636058
746.210832,536.266849,370.102971,10288.862594
746.211148,612.876398,-296.082377,10510.924376
746.211464,1225.752797,-740.205942,10732.986159
746.211780,0.000000,-296.082377,10658.965565
746.212096,306.438199,-0.000000,9770.718434
746.212411,383.047749,592.164754,9844.739029
746.212727,689.485948,444.123565,9770.718434
746.213043,842.705048,-0.000000,10288.862594
746.213359,842.705048,-740.205942,10436.903782
746.213675,842.705048,-444.123565,10214.842000
746.213991,689.485948,-0.000000,8660.409521
746.214307,612.876398,592.164754,9104.533087
746.214623,1608.800546,-0.000000,9992.780217
746.214938,1915.238745,148.041188,9474.636058
746.215254,1225.752797,-222.061783,9030.512492
746.215570,1072.533697,-444.123565,9104.533087
746.215886,1149.143247,-592.164754,8290.306550
746.216202,919.314598,-0.000000,8586.388927
746.216518,536.266849,444.123565,9104.533087
746.216834,766.095498,-222.061783,9326.594869
746.217149,383.047749,-444.123565,8660.409521
746.217465,-459.657299,-740.205942,9030.512492
746.217781,0.000000,-1850.514855,9548.656652
746.218097,-1072.533697,-1036.288319,9474.636058
746.218413,-842.705048,-444.123565,9770.718434
746.218729,-229.828649,-1628.453072,9844.739029
746.219045,-229.828649,-1110.308913,9252.574275
746.219360,-383.047749,-814.226536,9178.553681
746.219676,76.609550,-814.226536,8660.409521
746.219992,383.047749,370.102971,8438.347739
746.220308,612.876398,222.061783,8364.327145
746.220624,1149.143247,-592.164754,8734.430116
746.220940,1149.143247,-1110.308913,8290.306550
746.221256,1149.143247,-1184.329507,8808.450710
746.221571,306.438199,-1554.432478,8216.285956
746.221887,536.266849,-814.226536,8438.347739
746.222203,306.438199,-518.144159,9992.780217
746.222519,229.828649,-1184.329507,10066.800811
746.222835,-306.438199,-1036.288319,9548.656652
746.223151,-536.266849,-666.185348,9622.677246
746.223467,-229.828649,-666.185348,9178.553681
746.223782,-153.219100,-0.000000,8808.450710
746.224098,0.000000,222.061783,9696.697840
746.224414,383.047749,-740.205942,10510.924376
746.224730,536.266849,-592.164754,8956.491898
746.225046,76.609550,-222.061783,9030.512492
746.225362,229.828649,-518.144159,9992.780217
746.225678,612.876398,-444.123565,9400.615463
746.225993,306.438199,444.123565,10436.903782
746.226309,919.314598,296.082377,10510.924376
746.226625,1225.752797,-0.000000,9696.697840
746.226941,919.314598,888.247130,9770.718434
746.227257,536.266849,888.247130,9622.677246
746.227573,842.705048,740.205942,8882.471304
746.227889,1302.362347,1924.535449,9030.512492
746.228204,1149.143247,888.247130,9696.697840
746.228520,995.924147,-296.082377,9474.636058
746.228836,153.219100,-444.123565,10140.821405
746.229152,-76.609550,-1036.288319,9992.780217
746.229468,-153.219100,-444.123565,9918.759623
746.229784,0.000000,-0.000000,10362.883188
746.230100,0.000000,-222.061783,10881.027347
746.230416,0.000000,-1036.288319,10732.986159
746.230731,-383.047749,-740.205942,10510.924376
746.231047,-153.219100,-0.000000,9844.739029
746.231363,229.828649,-0.000000,9400.615463
746.231679,459.657299,592.164754,9918.759623
746.231995,995.924147,296.082377,10214.842000
746.232311,1072.533697,-222.061783,9326.594869
746.232627,842.705048,-518.144159,9104.533087
746.232942,842.705048,-370.102971,10066.800811
746.233258,919.314598,222.061783,8586.388927
746.233574,1072.533697,1184.329507,9548.656652
746.233890,1455.581446,296.082377,10214.842000
746.234206,1378.971896,-444.123565,9104.533087
746.234522,536.266849,-222.061783,9696.697840
746.234838,383.047749,-148.041188,9326.594869
746.235153,229.828649,-370.102971,8808.450710
746.235469,306.438199,296.082377,9400.615463
746.235785,459.657299,-0.000000,9918.759623
746.236101,153.219100,-0.000000,8882.471304
746.236417,689.485948,-1332.370696,9252.574275
746.236733,153.219100,-888.247130,9030.512492
746.237049,-612.876398,-444.123565,9104.533087
746.237364,-153.219100,-962.267725,9696.697840
746.237680,536.266849,148.041188,10066.800811
746.237996,536.266849,-148.041188,8660.409521
746.238312,-383.047749,-518.144159,8586.388927
746.238628,383.047749,-962.267725,9548.656652
746.238944,-229.828649,-296.082377,7624.121203
746.239260,612.876398,-148.041188,9030.512492
746.239575,459.657299,-148.041188,9548.656652
746.239891,536.266849,-0.000000,9104.533087
746.240207,383.047749,74.020594,8364.327145
746.240523,-153.219100,-1110.308913,8734.430116
746.240839,0.000000,-1480.411884,9030.512492
746.241155,-229.828649,-814.226536,9918.759623
746.241471,-229.828649,-74.020594,10214.842000
746.241786,306.438199,-592.164754,10214.842000
746.242102,-229.828649,-0.000000,8734.430116
746.242418,-229.828649,296.082377,9178.553681
746.242734,0.000000,-666.185348,9178.553681
746.243050,306.438199,-0.000000,10140.821405
746.243366,229.828649,-0.000000,10066.800811
746.243682,1072.533697,-518.144159,9622.677246
746.243997,1072.533697,-888.247130,9696.697840
746.244313,612.876398,-222.061783,9400.615463
746.244629,842.705048,592.164754,8808.450710
746.244945,689.485948,814.226536,9474.636058
746.245261,689.485948,666.185348,10214.842000
746.245577,995.924147,222.061783,10066.800811
746.245893,842.705048,-444.123565,10510.924376
746.246208,459.657299,-222.061783,9918.759623
746.246524,229.828649,-74.020594,9770.718434
746.246840,689.485948,888.247130,9400.615463
746.247156,306.438199,814.226536,9992.780217
746.247472,689.485948,222.061783,9548.656652
746.247788,383.047749,-148.041188,9622.677246
746.248104,76.609550,-888.247130,9622.677246
746.248420,0.000000,-740.205942,9992.780217
746.248735,153.219100,-370.102971,9844.739029
746.249051,306.438199,-222.061783,10436.903782
746.249367,1302.362347,-0.000000,10436.903782
746.249683,995.924147,-0.000000,9474.636058
746.249999,919.314598,740.205942,9252.574275
746.250315,995.924147,888.247130,8660.409521
746.250631,1838.629195,1184.329507,8512.368333
746.250946,2451.505594,888.247130,9918.759623
746.251262,2298.286494,148.041188,8882.471304
746.251578,1762.019645,-148.041188,8882.471304
746.251894,1302.362347,-0.000000,9400.615463
746.252210,1072.533697,-0.000000,9474.636058
746.252526,306.438199,666.185348,8808.450710
746.252842,153.219100,740.205942,9696.697840
746.253157,229.828649,-296.082377,10436.903782
746.253473,-612.876398,-222.061783,10066.800811
746.253789,-229.828649,-0.000000,9992.780217
746.254105,-306.438199,-370.102971,9548.656652
746.254421,-306.438199,444.123565,9400.615463
746.254737,76.609550,444.123565,9548.656652
746.255053,459.657299,-0.000000,9030.512492
746.255368,459.657299,-518.144159,9474.636058
746.255684,0.000000,-444.123565,8956.491898
746.256000,-153.219100,-666.185348,9104.533087
746.256316,76.609550,-740.205942,9326.594869
746.256632,229.828649,-0.000000,10140.821405
746.256948,0.000000,-296.082377,9622.677246
746.257264,459.657299,-148.041188,8660.409521
746.257579,-306.438199,-296.082377,9326.594869
746.257895,-689.485948,-666.185348,8882.471304
746.258211,-766.095498,-518.144159,9400.615463
746.258527,-459.657299,-148.041188,10214.842000
746.258843,-306.438199,-814.226536,9548.656652
746.259159,76.609550,-1406.391290,8956.491898
746.259475,0.000000,-1924.535449,9696.697840
746.259790,-459.657299,-1702.473667,9548.656652
746.260106,0.000000,-592.164754,9326.594869
746.260422,0.000000,-74.020594,9474.636058
746.260738,383.047749,-740.205942,9400.615463
746.261054,612.876398,-296.082377,8660.409521
746.261370,612.876398,-148.041188,9622.677246
746.261686,153.219100,-370.102971,9178.553681
746.262001,306.438199,-0.000000,8586.388927
746.262317,306.438199,222.061783,9696.697840
746.262633,766.095498,-0.000000,9622.677246
746.262949,766.095498,-222.061783,8512.368333
746.263265,689.485948,-592.164754,9696.697840
746.263581,0.000000,-592.164754,9918.759623
746.263897,0.000000,-370.102971,9844.739029
746.264213,306.438199,888.247130,9918.759623
746.264528,153.219100,222.061783,9918.759623
746.264844,459.657299,-444.123565,9548.656652
746.265160,459.657299,-592.164754,9622.677246
746.265476,76.609550,-0.000000,9474.636058
746.265792,229.828649,-370.102971,9696.697840
746.266108,229.828649,-444.123565,10955.047942
746.266424,612.876398,-370.102971,10214.842000
746.266739,612.876398,-0.000000,9104.533087
746.267055,612.876398,148.041188,8808.450710
746.267371,766.095498,-296.082377,9844.739029
746.267687,766.095498,-518.144159,9622.677246
746.268003,1225.752797,-74.020594,10214.842000
746.268319,1072.533697,-444.123565,10510.924376
746.268635,1302.362347,-888.247130,9104.533087
746.268950,1072.533697,-296.082377,9770.718434
746.269266,1149.143247,-0.000000,9548.656652
746.269582,919.314598,1036.288319,8734.430116
746.269898,766.095498,1036.288319,9104.533087
746.270214,1072.533697,-148.041188,9252.574275
746.270530,1149.143247,-888.247130,9474.636058
746.270846,766.095498,-1480.411884,9770.718434
746.271161,612.876398,-1110.308913,9622.677246
746.271477,76.609550,-962.267725,9548.656652
746.271793,689.485948,-222.061783,9992.780217
746.272109,689.485948,-222.061783,10066.800811
746.272425,536.266849,-296.082377,9178.553681
746.272741,383.047749,222.061783,9104.533087
746.273056,153.219100,-148.041188,8882.471304
746.273372,383.047749,-370.102971,9030.512492
746.273688,459.657299,-0.000000,9104.533087
746.274003,612.876398,-148.041188,9104.533087
746.274319,612.876398,-74.020594,8364.327145
746.274635,0.000000,-296.082377,8512.368333
746.274950,-536.266849,-888.247130,9400.615463
746.275266,-153.219100,-518.144159,9622.677246
746.275582,-766.095498,-370.102971,9178.553681
746.275897,-536.266849,-1110.308913,10510.924376
746.276213,-536.266849,-1258.350101,9844.739029
746.276529,-459.657299,-1184.329507,9178.553681
746.276844,-995.924147,-740.205942,9548.656652
746.277160,-995.924147,-222.061783,9474.636058
746.277476,-459.657299,296.082377,9252.574275
746.277791,0.000000,-0.000000,9030.512492
746.278107,459.657299,-814.226536,9252.574275
746.278423,612.876398,-888.247130,9326.594869
746.278738,153.219100,-962.267725,9622.677246
746.279054,153.219100,-444.123565,9326.594869
746.279370,536.266849,-0.000000,9696.697840
746.279685,1149.143247,370.102971,10140.821405
746.280001,995.924147,740.205942,8956.491898
746.280317,995.924147,814.226536,9030.512492
746.280633,919.314598,-0.000000,9474.636058
746.280948,919.314598,-0.000000,9326.594869
746.281264,536.266849,666.185348,9918.759623
746.281580,842.705048,-0.000000,10066.800811
746.281895,1225.752797,222.061783,9030.512492
746.282211,919.314598,370.102971,9252.574275
746.282527,306.438199,-296.082377,9696.697840
746.282842,153.219100,444.123565,9770.718434
746.283158,612.876398,666.185348,9696.697840
746.283474,766.095498,666.185348,10436.903782
746.283789,1455.581446,-0.000000,10066.800811
746.284105,1072.533697,370.102971,9400.615463
746.284421,842.705048,370.102971,9326.594869
746.284736,689.485948,222.061783,9400.615463
746.285052,1072.533697,1036.288319,9548.656652
746.285368,1072.533697,1332.370696,9548.656652
746.285683,1225.752797,222.061783,9770.718434
746.285999,919.314598,-0.000000,10288.862594
746.286315,536.266849,-222.061783,10510.924376
746.286630,383.047749,-74.020594,9770.718434
746.286946,689.485948,296.082377,9400.615463
746.287262,919.314598,222.061783,10288.862594
746.287577,995.924147,-0.000000,10140.821405
746.287893,612.876398,-74.020594,9326.594869
746.288209,536.266849,296.082377,9696.697840
746.288524,153.219100,-0.000000,9104.533087
746.288840,153.219100,-74.020594,9326.594869
746.289156,766.095498,-444.123565,10510.924376
746.289471,536.266849,-666.185348,9104.533087
746.289787,842.705048,-1036.288319,8882.471304
746.290103,383.047749,-888.247130,9622.677246
746.290418,-153.219100,-888.247130,9474.636058
746.290734,612.876398,-74.020594,9696.697840
746.291050,459.657299,-0.000000,9918.759623
746.291365,459.657299,-444.123565,9326.594869
746.291681,229.828649,-222.061783,9400.615463
746.291997,459.657299,-592.164754,9548.656652
746.292312,0.000000,-740.205942,8364.327145
746.292628,0.000000,296.082377,8734.430116
746.292944,229.828649,148.041188,9178.553681
746.293259,459.657299,-296.082377,8808.450710
746.293575,306.438199,-1110.308913,8882.471304
746.293891,-229.828649,-1406.391290,9104.533087
746.294206,-459.657299,-1184.329507,8956.491898
746.294522,-459.657299,-592.164754,9326.594869
746.294838,0.000000,-222.061783,9770.718434
746.295153,-153.219100,-592.164754,9030.512492
746.295469,-459.657299,-666.185348,9252.574275
746.295785,-459.657299,-962.267725,9770.718434
746.296100,-536.266849,-1480.411884,9474.636058
746.296416,-306.438199,-1036.288319,8808.450710
746.296732,-306.438199,-74.020594,9770.718434
746.297047,0.000000,-222.061783,9548.656652
746.297363,536.266849,-666.185348,8956.491898
746.297679,0.000000,-148.041188,9252.574275
746.297994,0.000000,-888.247130,9104.533087
746.298310,153.219100,-518.144159,9104.533087
746.298626,0.000000,-518.144159,9918.759623
746.298941,612.876398,-370.102971,10288.862594
746.299257,919.314598,-518.144159,9474.636058
746.299573,229.828649,-0.000000,9326.594869
746.299888,612.876398,-370.102971,9548.656652
746.300204,459.657299,-74.020594,9548.656652
746.300520,536.266849,148.041188,9918.759623
746.300835,1302.362347,-0.000000,10658.965565
746.301151,1532.190996,-370.102971,9400.615463
746.301467,1149.143247,370.102971,9252.574275
746.301782,689.485948,-0.000000,9844.739029
746.302098,919.314598,592.164754,9178.553681
746.302414,1149.143247,814.226536,9770.718434
746.302729,919.314598,444.123565,9696.697840
746.303045,919.314598,-0.000000,9918.759623
746.303361,229.828649,148.041188,10362.883188
746.303676,842.705048,-370.102971,9622.677246
746.303992,842.705048,-0.000000,9326.594869
746.304308,689.485948,888.247130,9400.615463
746.304624,919.314598,666.185348,9770.718434
746.304939,612.876398,-0.000000,9326.594869
746.305255,689.485948,-296.082377,9622.677246
746.305571,383.047749,-444.123565,9770.718434
746.305886,229.828649,-222.061783,9474.636058
746.306202,383.047749,-518.144159,10732.986159
746.306518,306.438199,-222.061783,10066.800811
746.306833,842.705048,296.082377,9474.636058
746.307149,536.266849,518.144159,9104.533087
746.307465,536.266849,296.082377,8956.491898
746.307780,689.485948,-0.000000,8882.471304
746.308096,919.314598,222.061783,9696.697840
746.308412,995.924147,-148.041188,9622.677246
746.308727,1378.971896,-444.123565,9030.512492
746.309043,995.924147,-296.082377,9326.594869
746.309359,612.876398,-740.205942,9178.553681
746.309674,383.047749,-370.102971,9030.512492
746.309990,612.876398,518.144159,9696.697840
746.310306,612.876398,-0.000000,10214.842000
746.310621,766.095498,-370.102971,9104.533087
746.310937,536.266849,-74.020594,9548.656652
746.311253,536.266849,-592.164754,9548.656652
746.311568,383.047749,-0.000000,8734.430116
746.311884,612.876398,740.205942,8734.430116
746.312200,766.095498,592.164754,9178.553681
746.312515,995.924147,-0.000000,8586.388927
746.312831,459.657299,-518.144159,8808.450710
746.313147,0.000000,-740.205942,8586.388927
746.313462,-306.438199,-1480.411884,9178.553681
746.313778,-689.485948,-1036.288319,9918.759623
746.314094,-689.485948,-518.144159,10214.842000
746.314409,-612.876398,-740.205942,10066.800811
746.314725,-536.266849,222.061783,8882.471304
746.315041,-842.705048,-0.000000,9326.594869
746.315356,-612.876398,-370.102971,9400.615463
746.315672,0.000000,-592.164754,9770.718434
746.315988,0.000000,-592.164754,9844.739029
746.316303,306.438199,-666.185348,8882.471304
746.316619,0.000000,-888.247130,9400.615463
746.316935,-383.047749,-1184.329507,9104.533087
746.317250,76.609550,-518.144159,8882.471304
746.317566,76.609550,-148.041188,9696.697840
746.317882,229.828649,-0.000000,9918.759623
746.318197,383.047749,-666.185348,9622.677246
746.318513,153.219100,-962.267725,9622.677246
746.318829,-153.219100,-1036.288319,9918.759623
746.319144,383.047749,-444.123565,8956.491898
746.319460,229.828649,666.185348,9474.636058
746.319776,536.266849,148.041188,10658.965565
746.320091,1302.362347,296.082377,9770.718434
746.320407,1608.800546,592.164754,8290.306550
746.320723,842.705048,-148.041188,9104.533087
746.321038,919.314598,-518.144159,9474.636058
746.321354,1149.143247,-0.000000,9918.759623
746.321670,1225.752797,888.247130,9474.636058
746.321985,1685.410096,-0.000000,9548.656652
746.322301,995.924147,-0.000000,9178.553681
746.322617,536.266849,444.123565,9474.636058
746.322932,153.219100,-0.000000,9548.656652
746.323248,536.266849,-0.000000,10510.924376
746.323564,842.705048,444.123565,9992.780217
746.323879,229.828649,148.041188,9622.677246
746.324195,842.705048,-1258.350101,9918.759623
746.324511,229.828649,-1258.350101,10066.800811
746.324826,0.000000,-0.000000,9474.636058
746.325142,0.000000,-666.185348,10214.842000
746.325458,229.828649,-0.000000,10807.006753
746.325773,1072.533697,518.144159,9474.636058
746.326089,766.095498,-222.061783,9696.697840
746.326405,919.314598,-0.000000,10140.821405
746.326720,306.438199,-0.000000,8734.430116
746.327036,919.314598,740.205942,8956.491898
746.327352,1149.143247,740.205942,9252.574275
746.327668,919.314598,222.061783,9474.636058
746.327983,1302.362347,148.041188,8660.409521
746.328299,153.219100,-962.267725,9326.594869
746.328615,76.609550,-1332.370696,9992.780217
746.328930,0.000000,-888.247130,10140.821405
746.329246,0.000000,-518.144159,10066.800811
746.329562,153.219100,-592.164754,10436.903782
746.329877,153.219100,-296.082377,9030.512492
746.330193,0.000000,-74.020594,9104.533087
746.330509,-153.219100,-148.041188,9474.636058
746.330824,0.000000,-666.185348,9030.512492
746.331140,536.266849,296.082377,9326.594869
746.331456,995.924147,222.061783,8956.491898
746.331771,689.485948,-444.123565,8142.265362
746.332087,459.657299,-222.061783,8734.430116
746.332403,612.876398,-592.164754,8808.450710
746.332718,306.438199,-370.102971,8364.327145
746.333034,76.609550,-74.020594,9696.697840
746.333350,536.266849,-740.205942,9770.718434
746.333665,306.438199,-1036.288319,9400.615463
746.333981,-153.219100,-518.144159,9474.636058
746.334297,0.000000,-0.000000,8956.491898
746.334612,76.609550,-222.061783,9104.533087
746.334928,0.000000,444.123565,9844.739029
746.335244,306.438199,-148.041188,9252.574275
746.335559,689.485948,-666.185348,8956.491898
746.335875,153.219100,-740.205942,9326.594869
746.336191,-536.266849,-370.102971,9400.615463
746.336506,76.609550,-222.061783,9252.574275
746.336822,0.000000,-0.000000,9918.759623
746.337138,0.000000,-0.000000,9770.718434
746.337453,612.876398,-222.061783,10140.821405
746.337769,153.219100,-370.102971,9696.697840
746.338085,-383.047749,-370.102971,9548.656652
746.338400,459.657299,518.144159,9474.636058
746.338716,919.314598,814.226536,9252.574275
746.339032,766.095498,296.082377,9992.780217
746.339347,1072.533697,-0.000000,10066.800811
746.339663,689.485948,-148.041188,9622.677246
746.339979,612.876398,-0.000000,8734.430116
746.340294,919.314598,296.082377,9770.718434
746.340610,1072.533697,740.205942,10658.965565
746.340926,1608.800546,740.205942,9770.718434
746.341241,1149.143247,444.123565,9400.615463
746.341557,306.438199,370.102971,9696.697840
746.341873,536.266849,-740.205942,9696.697840
746.342188,459.657299,-370.102971,9696.697840
746.342504,76.609550,296.082377,10214.842000
746.342820,459.657299,-222.061783,10584.944971
746.343135,536.266849,-962.267725,9622.677246
746.343451,612.876398,-666.185348,10140.821405
746.343767,0.000000,-962.267725,9992.780217
746.344082,766.095498,-148.041188,9104.533087
746.344398,766.095498,296.082377,9622.677246
746.344714,1072.533697,-74.020594,9918.759623
746.345029,1378.971896,-518.144159,9178.553681
746.345345,1072.533697,-962.267725,9622.677246
746.345661,229.828649,-1036.288319,9548.656652
746.345976,766.095498,-444.123565,9326.594869
746.346292,383.047749,-74.020594,9178.553681
746.346608,919.314598,-0.000000,9252.574275
746.346923,1149.143247,-518.144159,9326.594869
746.347239,536.266849,-1036.288319,8882.471304
746.347555,0.000000,-1258.350101,8808.450710
746.347870,0.000000,-1332.370696,9622.677246
746.348186,76.609550,-518.144159,10140.821405
746.348502,689.485948,-444.123565,9696.697840
746.348817,689.485948,-74.020594,8586.388927
746.349133,612.876398,-1184.329507,8808.450710
746.349449,0.000000,-888.247130,9104.533087
746.349764,0.000000,-592.164754,8734.430116
746.350080,229.828649,-74.020594,8882.471304
746.350396,536.266849,-0.000000,9252.574275
746.350711,459.657299,-592.164754,8808.450710
746.351027,229.828649,-814.226536,8512.368333
746.351343,-76.609550,-370.102971,8956.491898
746.351659,-459.657299,-740.205942,9030.512492
746.351974,-459.657299,-0.000000,9474.636058
746.352290,-229.828649,-222.061783,9474.636058
746.352606,0.000000,-222.061783,8734.430116
746.352921,0.000000,-1110.308913,10066.800811
746.353237,-536.266849,-1184.329507,9622.677246
746.353553,-536.266849,-814.226536,9326.594869
746.353868,-459.657299,-0.000000,9474.636058
746.354184,-153.219100,222.061783,9400.615463
746.354500,766.095498,-0.000000,9104.533087
746.354815,383.047749,-0.000000,8290.306550
746.355131,0.000000,-666.185348,9400.615463
746.355447,306.438199,-1480.411884,9992.780217
746.355762,0.000000,-592.164754,9770.718434
746.356078,76.609550,-222.061783,10066.800811
746.356394,459.657299,-222.061783,9696.697840
746.356709,612.876398,222.061783,9770.718434
746.357025,383.047749,740.205942,10140.821405
746.357341,383.047749,-0.000000,9548.656652
746.357656,842.705048,370.102971,9844.739029
746.357972,842.705048,592.164754,9770.718434
746.358288,1608.800546,-0.000000,10214.842000
746.358603,1608.800546,370.102971,10140.821405
746.358919,1302.362347,740.205942,9548.656652
746.359235,1302.362347,1036.288319,9252.574275
746.359550,1072.533697,888.247130,9400.615463
746.359866,995.924147,888.247130,10288.862594
746.360182,1532.190996,222.061783,10436.903782
746.360497,1302.362347,296.082377,9992.780217
746.360813,383.047749,592.164754,10288.862594
746.361129,306.438199,740.205942,9252.574275
746.361444,536.266849,592.164754,9622.677246
746.361760,-153.219100,1110.308913,10658.965565
746.362076,306.438199,148.041188,9992.780217
746.362391,459.657299,-0.000000,9178.553681
746.362707,229.828649,-296.082377,9696.697840
746.363023,459.657299,-1184.329507,10732.986159
746.363338,612.876398,-370.102971,9844.739029
746.363654,306.438199,222.061783,10140.821405
746.363970,459.657299,-148.041188,9548.656652
746.364285,689.485948,296.082377,9178.553681
746.364601,536.266849,-0.000000,9474.636058
746.364917,0.000000,-222.061783,9104.533087
746.365232,459.657299,-148.041188,9326.594869
746.365548,689.485948,296.082377,9548.656652
746.365864,1072.533697,-74.020594,9474.636058
746.366179,766.095498,-444.123565,9178.553681
746.366495,612.876398,-740.205942,9326.594869
746.366811,0.000000,-814.226536,8808.450710
746.367126,-153.219100,-148.041188,8956.491898
746.367442,383.047749,222.061783,9918.759623
746.367758,919.314598,-296.082377,9622.677246
746.368073,842.705048,-592.164754,8660.409521
746.368389,229.828649,-0.000000,8808.450710
746.368705,76.609550,-518.144159,8512.368333
746.369020,76.609550,-148.041188,9178.553681
746.369336,0.000000,-0.000000,9030.512492
746.369652,766.095498,-518.144159,9326.594869
746.369967,612.876398,-518.144159,8438.347739
746.370283,-229.828649,-592.164754,9178.553681
746.370599,0.000000,-888.247130,9178.553681
746.370913,-153.219100,-518.144159,8586.388927
746.371228,-229.828649,-74.020594,9326.594869
746.371544,0.000000,148.041188,9178.553681
746.371860,459.657299,-444.123565,8216.285956
746.372176,-306.438199,-518.144159,8882.471304
746.372492,-306.438199,-1702.473667,9696.697840
746.372807,-612.876398,-740.205942,9622.677246
746.373123,-306.438199,-444.123565,9844.739029
746.373439,229.828649,-74.020594,9400.615463
746.373755,459.657299,-0.000000,8364.327145
746.374070,0.000000,222.061783,9104.533087
746.374386,153.219100,-1036.288319,9326.594869
746.374702,0.000000,-296.082377,8364.327145
746.375018,76.609550,296.082377,10510.924376
746.375334,842.705048,-0.000000,10214.842000
746.375649,1072.533697,-0.000000,9474.636058
746.375965,383.047749,148.041188,9696.697840
746.376281,229.828649,-148.041188,9474.636058
746.376597,536.266849,444.123565,9252.574275
746.376913,229.828649,666.185348,9992.780217
746.377228,689.485948,444.123565,10140.821405
746.377544,1149.143247,-0.000000,10066.800811
746.377860,689.485948,-0.000000,9918.759623
746.378176,536.266849,444.123565,9696.697840
746.378491,612.876398,518.144159,9622.677246
746.378807,842.705048,1258.350101,10288.862594
746.379123,612.876398,444.123565,10214.842000
746.379439,1072.533697,-370.102971,9918.759623
746.379755,1225.752797,-370.102971,10584.944971
746.380070,842.705048,-444.123565,9844.739029
746.380386,766.095498,-74.020594,9548.656652
746.380702,1072.533697,444.123565,10362.883188
746.381018,1149.143247,444.123565,9770.718434
746.381334,1378.971896,444.123565,9104.533087
746.381649,995.924147,-0.000000,9696.697840
746.381965,766.095498,-740.205942,9918.759623
746.382281,766.095498,-1036.288319,9770.718434
746.382597,459.657299,-592.164754,10140.821405
746.382913,842.705048,-740.205942,10066.800811
746.383228,689.485948,-666.185348,9030.512492
746.383544,383.047749,-518.144159,10140.821405
746.383860,0.000000,-814.226536,9844.739029
746.384176,229.828649,-814.226536,8660.409521
746.384491,229.828649,-74.020594,9178.553681
746.384807,766.095498,-444.123565,10066.800811
746.385123,1302.362347,-1184.329507,9326.594869
746.385439,612.876398,-1184.329507,8364.327145
746.385755,306.438199,-1776.494261,9252.574275
746.386070,0.000000,-1110.308913,8586.388927
746.386386,0.000000,-370.102971,9400.615463
746.386702,153.219100,-148.041188,9178.553681
746.387018,766.095498,-444.123565,8882.471304
746.387334,383.047749,-666.185348,9104.533087
746.387649,0.000000,-1184.329507,9178.553681
746.387965,-229.828649,-1110.308913,8808.450710
746.388281,153.219100,-518.144159,8734.430116
746.388597,459.657299,-0.000000,8438.347739
746.388912,459.657299,-518.144159,8290.306550
746.389228,383.047749,-666.185348,8586.388927
746.389544,0.000000,-592.164754,9252.574275
746.389860,-766.095498,-1554.432478,9030.512492
746.390176,-459.657299,-1702.473667,9992.780217
746.390491,-229.828649,-666.185348,9992.780217
746.390807,0.000000,-740.205942,9474.636058
746.391123,76.609550,-222.061783,9030.512492
746.391439,-306.438199,-0.000000,8882.471304
746.391755,-612.876398,-1036.288319,8512.368333
746.392070,0.000000,148.041188,9104.533087
746.392386,383.047749,-74.020594,9622.677246
746.392702,766.095498,-592.164754,9104.533087
746.393018,459.657299,-740.205942,9252.574275
746.393333,536.266849,-740.205942,9252.574275
746.393649,229.828649,-592.164754,9178.553681
746.393965,383.047749,-222.061783,9992.780217
746.394281,229.828649,-0.000000,9918.759623
746.394597,689.485948,-0.000000,9548.656652
746.394912,1072.533697,148.041188,9400.615463
746.395228,229.828649,-518.144159,9770.718434
746.395544,459.657299,-592.164754,9696.697840
746.395860,842.705048,-0.000000,9622.677246
746.396176,536.266849,444.123565,10288.862594
746.396491,1225.752797,-148.041188,9918.759623
746.396807,995.924147,-0.000000,9548.656652
746.397123,459.657299,222.061783,9992.780217
746.397439,689.485948,296.082377,9474.636058
746.397754,766.095498,370.102971,10214.842000
746.398070,612.876398,666.185348,11029.068536
746.398386,842.705048,222.061783,9918.759623
746.398702,919.314598,370.102971,9696.697840
746.399018,689.485948,296.082377,9548.656652
746.399333,536.266849,370.102971,9400.615463
746.399649,689.485948,888.247130,9844.739029
746.399965,919.314598,962.267725,9548.656652
746.400281,1225.752797,-0.000000,9104.533087
746.400597,919.314598,-222.061783,10140.821405
746.400912,153.219100,-296.082377,9992.780217
746.401228,459.657299,-518.144159,9844.739029
746.401544,459.657299,296.082377,9474.636058
746.401860,383.047749,888.247130,10066.800811
746.402176,842.705048,518.144159,9918.759623
746.402491,1149.143247,222.061783,9326.594869
746.402807,383.047749,888.247130,9844.739029
746.403123,306.438199,444.123565,8734.430116
746.403439,612.876398,148.041188,8882.471304
746.403754,766.095498,888.247130,9770.718434
746.404070,1149.143247,296.082377,9474.636058
746.404386,1072.533697,-370.102971,8512.368333
746.404702,229.828649,-74.020594,9400.615463
746.405018,0.000000,-148.041188,9326.594869
746.405333,612.876398,370.102971,9326.594869
746.405649,383.047749,814.226536,9326.594869
746.405965,229.828649,370.102971,10140.821405
746.406281,995.924147,-296.082377,9326.594869
746.406597,76.609550,-0.000000,9104.533087
746.406912,-383.047749,-222.061783,9326.594869
746.407228,383.047749,-1036.288319,9474.636058
746.407544,306.438199,148.041188,9030.512492
746.407860,459.657299,666.185348,8808.450710
746.408175,306.438199,-148.041188,8734.430116
746.408491,459.657299,-814.226536,8882.471304
746.408807,0.000000,-888.247130,8808.450710
746.409123,-306.438199,-962.267725,9474.636058
746.409439,-383.047749,-222.061783,10140.821405
746.409754,0.000000,-444.123565,9474.636058
746.410070,-306.438199,-370.102971,8956.491898
746.410386,-536.266849,-1036.288319,10214.842000
746.410702,0.000000,-1554.432478,9918.759623
746.411018,-306.438199,-888.247130,8660.409521
746.411333,-459.657299,-370.102971,9252.574275
746.411649,153.219100,-888.247130,9918.759623
746.411965,766.095498,-740.205942,9030.512492
746.412281,229.828649,-370.102971,9104.533087
746.412596,-383.047749,-444.123565,9030.512492
746.412912,76.609550,-888.247130,9104.533087
746.413228,0.000000,-518.144159,10510.924376
746.413544,383.047749,-740.205942,10140.821405
746.413860,459.657299,-962.267725,9844.739029
746.414175,76.609550,-222.061783,9548.656652
746.414491,76.609550,-74.020594,9474.636058
746.414807,383.047749,-0.000000,9030.512492
746.415123,689.485948,814.226536,9252.574275
746.415439,842.705048,518.144159,8956.491898
746.415754,1455.581446,-0.000000,9252.574275
746.416070,919.314598,-222.061783,9992.780217
746.416386,459.657299,-444.123565,9326.594869
746.416702,612.876398,222.061783,9844.739029
746.417018,842.705048,444.123565,9548.656652
746.417333,1225.752797,888.247130,10140.821405
746.417649,995.924147,592.164754,9178.553681
746.417965,536.266849,148.041188,9992.780217
746.418281,842.705048,-518.144159,10510.924376
746.418596,383.047749,-0.000000,9696.697840
746.418912,459.657299,1110.308913,9622.677246
746.419228,1149.143247,1036.288319,9992.780217
746.419544,1302.362347,296.082377,9326.594869
746.419860,995.924147,148.041188,9622.677246
746.420175,153.219100,-148.041188,9622.677246
746.420491,919.314598,-518.144159,9178.553681
746.420807,459.657299,-370.102971,9548.656652
746.421123,995.924147,-666.185348,10510.924376
746.421439,1302.362347,-740.205942,10140.821405
746.421754,1072.533697,-74.020594,9622.677246
746.422070,153.219100,-0.000000,8956.491898
746.422386,612.876398,-888.247130,9178.553681
746.422702,766.095498,74.020594,9326.594869
746.423017,919.314598,222.061783,8882.471304
746.423333,612.876398,-1110.308913,8956.491898
746.423649,612.876398,-2146.597232,10214.842000
746.423965,383.047749,-1850.514855,9696.697840
746.424281,0.000000,-1406.391290,8956.491898
746.424596,-229.828649,-1110.308913,9844.739029
746.424912,0.000000,-148.041188,9696.697840
746.425228,766.095498,-370.102971,8882.471304
746.425544,229.828649,-0.000000,9178.553681
746.425860,0.000000,-444.123565,9252.574275
746.426175,306.438199,-370.102971,8734.430116
746.426491,766.095498,-0.000000,8734.430116
746.426807,612.876398,370.102971,9104.533087
746.427123,1302.362347,-0.000000,8290.306550
746.427438,689.485948,-148.041188,8808.450710
746.427754,0.000000,-814.226536,9252.574275
746.428070,-612.876398,-814.226536,9326.594869
746.428386,-306.438199,-222.061783,10066.800811
746.428702,-306.438199,-0.000000,10214.842000
746.429017,76.609550,-518.144159,9992.780217
746.429333,0.000000,74.020594,9770.718434
746.429649,-459.657299,-0.000000,9178.553681
746.429965,-383.047749,-0.000000,8882.471304
746.430281,0.000000,-148.041188,8808.450710
746.430596,76.609550,444.123565,9918.759623
746.430912,842.705048,-0.000000,9252.574275
746.431228,459.657299,-296.082377,9178.553681
746.431544,383.047749,-0.000000,9252.574275
746.431859,0.000000,-74.020594,8512.368333
746.432175,689.485948,-592.164754,9918.759623
746.432491,612.876398,-222.061783,9400.615463
746.432807,995.924147,-148.041188,9770.718434
746.433123,459.657299,-0.000000,9474.636058
746.433438,0.000000,-518.144159,10066.800811
746.433754,0.000000,-0.000000,9474.636058
746.434070,76.609550,-222.061783,9326.594869
746.434386,-153.219100,-518.144159,10214.842000
746.434702,536.266849,-666.185348,10510.924376
746.435017,536.266849,-962.267725,9918.759623
746.435333,612.876398,-518.144159,9326.594869
746.435649,0.000000,-888.247130,9548.656652
746.435965,612.876398,-444.123565,9326.594869
746.436281,383.047749,-0.000000,10436.903782
746.436596,842.705048,222.061783,9770.718434
746.436912,689.485948,-74.020594,8734.430116
746.437228,0.000000,-740.205942,9622.677246
746.437544,306.438199,-962.267725,10066.800811
746.437859,459.657299,-370.102971,9474.636058
746.438175,919.314598,-296.082377,9770.718434
746.438491,1149.143247,-666.185348,10140.821405
746.438807,995.924147,-814.226536,9104.533087
746.439123,919.314598,-666.185348,9474.636058
746.439438,612.876398,-814.226536,9474.636058
746.439754,689.485948,-444.123565,9104.533087
746.440070,842.705048,222.061783,9770.718434
746.440386,1149.143247,148.041188,9252.574275
746.440702,1302.362347,-0.000000,9474.636058
746.441017,612.876398,-740.205942,9178.553681
746.441333,0.000000,-740.205942,9104.533087
746.441649,612.876398,-518.144159,9252.574275
746.441965,459.657299,-0.000000,9696.697840
746.442280,995.924147,370.102971,9104.533087
746.442596,1149.143247,-148.041188,8882.471304
746.442912,1072.533697,-370.102971,8808.450710
746.443228,76.609550,-370.102971,9178.553681
746.443544,459.657299,-370.102971,9030.512492
746.443859,459.657299,222.061783,9696.697840
746.444175,995.924147,370.102971,9474.636058
746.444491,1455.581446,296.082377,8512.368333
746.444807,459.657299,296.082377,8734.430116
746.445123,459.657299,444.123565,9178.553681
746.445438,459.657299,814.226536,8808.450710
746.445754,842.705048,1702.473667,9104.533087
746.446070,689.485948,1406.391290,8808.450710
746.446386,766.095498,592.164754,8808.450710
746.446701,76.609550,370.102971,9474.636058
746.447017,0.000000,-962.267725,9770.718434
746.447333,-459.657299,-296.082377,9104.533087
746.447649,-689.485948,296.082377,10066.800811
746.447965,-306.438199,296.082377,10066.800811
746.448280,0.000000,296.082377,10584.944971
746.448596,-689.485948,814.226536,9474.636058
746.448912,-76.609550,814.226536,9178.553681
746.449228,0.000000,222.061783,9474.636058
746.449544,76.609550,740.205942,9770.718434
746.449859,536.266849,222.061783,9400.615463
746.450175,842.705048,296.082377,8956.491898
746.450491,306.438199,-0.000000,9844.739029
746.450807,229.828649,-296.082377,9696.697840
746.451123,459.657299,370.102971,9030.512492
746.451438,0.000000,962.267725,9548.656652
746.451754,995.924147,1036.288319,10436.903782
746.452070,1072.533697,444.123565,9474.636058
746.452386,459.657299,370.102971,9770.718434
746.452701,229.828649,296.082377,10288.862594
746.453017,383.047749,222.061783,8734.430116
746.453333,383.047749,888.247130,9918.759623
746.453649,766.095498,962.267725,10584.944971
746.453965,919.314598,814.226536,9548.656652
746.454280,229.828649,888.247130,9326.594869
746.454596,383.047749,-0.000000,10140.821405
746.454912,383.047749,-296.082377,10288.862594
746.455228,842.705048,1184.329507,10288.862594
746.455544,689.485948,1184.329507,9474.636058
746.455859,1378.971896,888.247130,9770.718434
746.456175,1225.752797,740.205942,10066.800811
746.456491,766.095498,888.247130,9326.594869
746.456807,612.876398,962.267725,9252.574275
746.457122,1149.143247,444.123565,9918.759623
746.457438,1225.752797,-0.000000,10140.821405
746.457754,1455.581446,-222.061783,9844.739029
746.458070,919.314598,-0.000000,9844.739029
746.458386,689.485948,-296.082377,9770.718434
746.458701,689.485948,-592.164754,8956.491898
746.459017,536.266849,-148.041188,9548.656652
746.459333,842.705048,-518.144159,9696.697840
746.459649,1302.362347,-1184.329507,9992.780217
746.459965,536.266849,-1258.350101,9548.656652
746.460280,229.828649,-1332.370696,9548.656652
746.460596,306.438199,-2146.597232,8734.430116
746.460912,689.485948,-1480.411884,9030.512492
746.461228,919.314598,-1258.350101,9104.533087
746.461543,612.876398,-1924.535449,9400.615463
746.461859,689.485948,-2146.597232,9326.594869
746.462175,76.609550,-2368.659014,9104.533087
746.462491,0.000000,-2368.659014,9104.533087
746.462807,153.219100,-1924.535449,9178.553681
746.463122,459.657299,-1628.453072,9474.636058
746.463438,612.876398,-1776.494261,8882.471304
746.463754,306.438199,-1850.514855,8882.471304
746.464070,0.000000,-2368.659014,8882.471304
746.464386,0.000000,-2220.617826,8660.409521
746.464701,-689.485948,-1480.411884,8734.430116
746.465017,-383.047749,-1332.370696,9696.697840
746.465333,306.438199,-1406.391290,8956.491898
746.465649,-459.657299,-1628.453072,9104.533087
746.465965,-919.314598,-1554.432478,9178.553681
746.466280,-919.314598,-1924.535449,8956.491898
746.466596,-919.314598,-1628.453072,9696.697840
746.466912,-459.657299,-1258.350101,10510.924376
746.467228,-76.609550,-1480.411884,9474.636058
746.467543,0.000000,-740.205942,9030.512492
746.467859,-306.438199,-518.144159,9548.656652
746.468175,-229.828649,-370.102971,8438.347739
746.468491,-229.828649,-222.061783,8882.471304
746.468807,153.219100,-0.000000,9548.656652
746.469122,766.095498,-0.000000,8808.450710
746.469438,536.266849,-148.041188,8734.430116
746.469754,0.000000,-666.185348,9622.677246
746.470070,0.000000,-1036.288319,9178.553681
746.470386,153.219100,-444.123565,9696.697840
746.470701,383.047749,-0.000000,10732.986159
746.471017,536.266849,74.020594,9770.718434
746.471333,689.485948,962.267725,8956.491898
746.471649,0.000000,222.061783,9918.759623
746.471965,-153.219100,-74.020594,9474.636058
746.472280,459.657299,222.061783,9474.636058
746.472596,306.438199,814.226536,9770.718434
746.472912,1149.143247,518.144159,9844.739029
746.473228,1455.581446,222.061783,8660.409521
746.473544,842.705048,-0.000000,9844.739029
746.473860,459.657299,-222.061783,9622.677246
746.474175,1302.362347,148.041188,9844.739029
746.474491,1072.533697,1628.453072,9918.759623
746.474807,1149.143247,1036.288319,9844.739029
746.475123,1302.362347,888.247130,9918.759623
746.475439,1072.533697,888.247130,9770.718434
746.475755,766.095498,444.123565,9178.553681
746.476070,842.705048,518.144159,9326.594869
746.476386,536.266849,666.185348,10066.800811
746.476702,1915.238745,-222.061783,10214.842000
746.477018,842.705048,-74.020594,9400.615463
746.477334,306.438199,-0.000000,10881.027347
746.477650,0.000000,-0.000000,9474.636058
746.477965,229.828649,-0.000000,9992.780217
746.478281,766.095498,666.185348,10807.006753
746.478597,306.438199,740.205942,9770.718434
746.478913,766.095498,296.082377,9474.636058
746.479229,536.266849,-74.020594,9696.697840
746.479545,459.657299,-814.226536,9474.636058
746.479860,383.047749,-370.102971,9696.697840
746.480176,766.095498,888.247130,9992.780217
746.480492,1455.581446,1110.308913,8438.347739
746.480808,1532.190996,666.185348,8586.388927
746.481124,919.314598,296.082377,8660.409521
746.481440,153.219100,-740.205942,8882.471304
746.481755,1378.971896,-592.164754,9400.615463
746.482071,842.705048,-0.000000,9030.512492
746.482387,766.095498,518.144159,9326.594869
746.482703,1685.410096,-222.061783,8882.471304
746.483019,919.314598,-222.061783,9252.574275
746.483335,536.266849,-0.000000,8586.388927
746.483650,0.000000,-296.082377,8956.491898
746.483966,306.438199,814.226536,9548.656652
746.484282,459.657299,740.205942,9326.594869
746.484598,153.219100,148.041188,7994.224174
746.484914,0.000000,444.123565,9104.533087
746.485230,-612.876398,-0.000000,9252.574275
746.485545,0.000000,-148.041188,8586.388927
746.485861,-383.047749,740.205942,9992.780217
746.486177,-383.047749,-592.164754,9622.677246
746.486493,76.609550,-148.041188,9622.677246
746.486809,383.047749,-370.102971,9622.677246
746.487125,-459.657299,-370.102971,9178.553681
746.487440,-536.266849,-0.000000,9474.636058
746.487756,229.828649,1258.350101,9400.615463
746.488072,153.219100,1184.329507,8734.430116
746.488388,306.438199,518.144159,8808.450710
746.488704,76.609550,-296.082377,9252.574275
746.489020,76.609550,-1406.391290,9326.594869
746.489335,306.438199,-1332.370696,9622.677246
746.489651,-76.609550,-370.102971,9622.677246
746.489967,383.047749,-0.000000,10140.821405
746.490283,459.657299,-370.102971,9770.718434
746.490599,-383.047749,-666.185348,9696.697840
746.490915,-306.438199,-0.000000,9548.656652
746.491230,-306.438199,-296.082377,9474.636058
746.491546,-306.438199,222.061783,9696.697840
746.491862,306.438199,148.041188,10214.842000
746.492178,1072.533697,-0.000000,9104.533087
746.492494,689.485948,-0.000000,9474.636058
746.492810,153.219100,-518.144159,9844.739029
746.493125,612.876398,-222.061783,9474.636058
746.493441,459.657299,148.041188,10362.883188
746.493757,1149.143247,296.082377,10658.965565
746.494073,1149.143247,518.144159,9992.780217
746.494389,1225.752797,370.102971,9622.677246
746.494705,689.485948,-74.020594,9844.739029
746.495020,1149.143247,370.102971,9992.780217
746.495336,383.047749,814.226536,9252.574275
746.495652,1225.752797,1258.350101,9474.636058
746.495968,1532.190996,-0.000000,9696.697840
746.496284,1532.190996,-592.164754,9548.656652
746.496600,995.924147,-888.247130,10214.842000
746.496915,383.047749,-1480.411884,9696.697840
746.497231,76.609550,-518.144159,10362.883188
746.497547,842.705048,222.061783,10436.903782
746.497863,1225.752797,-222.061783,9770.718434
746.498179,766.095498,296.082377,8956.491898
746.498495,459.657299,-296.082377,9548.656652
746.498810,842.705048,-1332.370696,9252.574275
746.499126,995.924147,-888.247130,9104.533087
746.499442,995.924147,-1110.308913,9474.636058
746.499758,1532.190996,-1702.473667,8586.388927
746.500074,1072.533697,-1258.350101,9400.615463
746.500390,76.609550,-1776.494261,9326.594869
746.500705,0.000000,-1702.473667,9252.574275
746.501021,-306.438199,-1332.370696,9474.636058
746.501337,76.609550,-1480.411884,9918.759623
746.501653,306.438199,-1036.288319,8734.430116
746.501969,306.438199,-1702.473667,9474.636058
746.502285,0.000000,-1332.370696,9400.615463
746.502600,383.047749,-1480.411884,8512.368333
746.502916,0.000000,-1036.288319,8290.306550
746.503232,306.438199,-148.041188,8882.471304
746.503548,229.828649,-518.144159,8512.368333
746.503864,229.828649,-1036.288319,8882.471304
746.504180,-536.266849,-1110.308913,9400.615463
746.504495,-612.876398,-1850.514855,8956.491898
746.504811,-842.705048,-1332.370696,9548.656652
746.505127,-383.047749,-592.164754,9844.739029
746.505443,-306.438199,-814.226536,9400.615463
746.505759,0.000000,-296.082377,9622.677246
746.506075,-229.828649,-148.041188,8808.450710
746.506390,-612.876398,-148.041188,8586.388927
746.506706,-306.438199,-148.041188,9104.533087
746.507022,0.000000,-296.082377,9696.697840
746.507338,689.485948,-296.082377,9400.615463
746.507654,536.266849,-444.123565,8956.491898
746.507970,0.000000,-370.102971,9030.512492
746.508285,383.047749,-592.164754,9030.512492
746.508601,306.438199,-0.000000,9104.533087
746.508917,995.924147,666.185348,10066.800811
746.509233,919.314598,148.041188,9474.636058
746.509549,1072.533697,444.123565,9474.636058
746.509865,459.657299,-0.000000,9474.636058
746.510180,459.657299,-0.000000,9400.615463
746.510496,306.438199,148.041188,9622.677246
746.510812,536.266849,814.226536,10288.862594
746.511128,919.314598,740.205942,9696.697840
746.511444,1072.533697,444.123565,9400.615463
746.511760,459.657299,-74.020594,9696.697840
746.512075,842.705048,-74.020594,10214.842000
746.512391,766.095498,-0.000000,9696.697840
746.512707,612.876398,1036.288319,10510.924376
746.513023,842.705048,888.247130,10214.842000
746.513339,1455.581446,666.185348,9844.739029
746.513655,689.485948,814.226536,10362.883188
746.513970,0.000000,740.205942,9696.697840
746.514286,536.266849,592.164754,9918.759623
746.514602,1072.533697,666.185348,10436.903782
746.514918,1149.143247,296.082377,10807.006753
746.515234,1225.752797,-148.041188,9844.739029
746.515550,919.314598,-148.041188,9844.739029
746.515865,459.657299,-148.041188,10288.862594
746.516181,689.485948,-148.041188,10066.800811
746.516497,919.314598,-0.000000,10807.006753
746.516813,1225.752797,592.164754,9918.759623
746.517129,1072.533697,666.185348,9548.656652
746.517445,689.485948,-222.061783,9400.615463
746.517761,306.438199,-888.247130,9474.636058
746.518076,459.657299,-962.267725,9104.533087
746.518392,536.266849,370.102971,9548.656652
746.518708,995.924147,-296.082377,9178.553681
746.519024,842.705048,-962.267725,9474.636058
746.519340,536.266849,-1554.432478,9104.533087
746.519656,0.000000,-1554.432478,9030.512492
746.519971,229.828649,-1036.288319,9252.574275
746.520287,0.000000,-1110.308913,9474.636058
746.520603,689.485948,-296.082377,9474.636058
746.520919,306.438199,-814.226536,8586.388927
746.521235,76.609550,-1184.329507,9252.574275
746.521551,153.219100,-740.205942,8438.347739
746.521866,76.609550,-1332.370696,7920.203579
746.522182,459.657299,-592.164754,8734.430116
746.522498,995.924147,-0.000000,9178.553681
746.522814,919.314598,-296.082377,7846.182985
746.523130,383.047749,-74.020594,8512.368333
746.523446,-689.485948,-592.164754,8438.347739
746.523761,-383.047749,-666.185348,9474.636058
746.524077,76.609550,-296.082377,9400.615463
746.524393,0.000000,296.082377,9400.615463
746.524709,0.000000,-222.061783,9474.636058
746.525025,-383.047749,-222.061783,9178.553681
746.525341,-612.876398,-74.020594,9104.533087
746.525656,-383.047749,296.082377,8882.471304
746.525972,-306.438199,1110.308913,8586.388927
746.526288,0.000000,1702.473667,9030.512492
746.526604,459.657299,740.205942,9178.553681
746.526920,153.219100,-0.000000,8956.491898
746.527236,-459.657299,-74.020594,9252.574275
746.527551,383.047749,-814.226536,9252.574275
746.527867,-536.266849,-222.061783,10140.821405
746.528183,229.828649,1184.329507,10140.821405
746.528499,612.876398,592.164754,9326.594869
746.528815,0.000000,518.144159,9326.594869
746.529131,0.000000,222.061783,10288.862594
746.529446,-153.219100,-0.000000,9400.615463
746.529762,0.000000,666.185348,10510.924376
746.530078,612.876398,962.267725,10881.027347
746.530394,1608.800546,1184.329507,9548.656652
746.530710,1302.362347,1776.494261,8956.491898
746.531026,919.314598,888.247130,9474.636058
746.531341,1072.533697,592.164754,10140.821405
746.531657,1225.752797,592.164754,10288.862594
746.531973,1378.971896,740.205942,10214.842000
746.532289,1608.800546,740.205942,10510.924376
746.532605,1225.752797,814.226536,10658.965565
746.532921,995.924147,518.144159,10362.883188
746.533236,459.657299,666.185348,9992.780217
746.533552,842.705048,1480.411884,10362.883188
746.533868,995.924147,1332.370696,10807.006753
746.534184,1302.362347,888.247130,9770.718434
746.534500,1302.362347,-0.000000,10140.821405
746.534816,689.485948,444.123565,9622.677246
746.535131,1225.752797,-666.185348,9992.780217
746.535447,842.705048,-370.102971,10955.047942
746.535763,1225.752797,222.061783,10362.883188
746.536079,1302.362347,148.041188,9400.615463
746.536395,1225.752797,-148.041188,9400.615463
746.536711,229.828649,-1036.288319,9474.636058
746.537026,536.266849,-1258.350101,9400.615463
746.537342,995.924147,-666.185348,9178.553681
746.537658,612.876398,-592.164754,9400.615463
746.537974,995.924147,-1036.288319,9030.512492
746.538290,612.876398,-1554.432478,9400.615463
746.538606,0.000000,-1554.432478,8882.471304
746.538921,-229.828649,-1776.494261,9030.512492
746.539237,0.000000,-1628.453072,9104.533087
746.539553,0.000000,-1332.370696,9844.739029
746.539869,306.438199,-1554.432478,9104.533087
746.540185,0.000000,-1776.494261,9400.615463
746.540501,-459.657299,-1776.494261,9178.553681
746.540816,-459.657299,-1554.432478,8512.368333
746.541132,-306.438199,-1184.329507,8290.306550
746.541448,153.219100,-370.102971,9104.533087
746.541764,536.266849,-518.144159,8512.368333
746.542080,536.266849,-814.226536,7624.121203
746.542396,0.000000,-814.226536,8512.368333
746.542711,0.000000,-1258.350101,8216.285956
746.543027,-76.609550,-1332.370696,8808.450710
746.543343,-612.876398,-1110.308913,9548.656652
746.543659,0.000000,-962.267725,9104.533087
746.543975,0.000000,-888.247130,9030.512492
746.544291,-612.876398,-1184.329507,9474.636058
746.544606,-689.485948,-1258.350101,8734.430116
746.544922,-306.438199,-1110.308913,9474.636058
746.545238,0.000000,-444.123565,8882.471304
746.545554,0.000000,-814.226536,9030.512492
746.545870,536.266849,-1628.453072,9622.677246
746.546186,76.609550,-1258.350101,9548.656652
746.546501,153.219100,-518.144159,8364.327145
746.546817,229.828649,-666.185348,9400.615463
746.547133,536.266849,-222.061783,9844.739029
746.547449,1455.581446,296.082377,9696.697840
746.547765,1608.800546,148.041188,8956.491898
746.548081,536.266849,370.102971,9400.615463
746.548396,919.314598,-148.041188,9400.615463
746.548712,919.314598,296.082377,9326.594869
746.549028,919.314598,888.247130,10288.862594
746.549344,1072.533697,1036.288319,10140.821405
746.549660,1455.581446,74.020594,9696.697840
746.549976,689.485948,444.123565,9918.759623
746.550291,842.705048,-222.061783,10066.800811
746.550607,536.266849,296.082377,10140.821405
746.550923,383.047749,814.226536,11029.068536
746.551239,689.485948,962.267725,10436.903782
746.551555,842.705048,1036.288319,9918.759623
746.551871,459.657299,740.205942,10584.944971
746.552186,153.219100,518.144159,10066.800811
746.552502,76.609550,296.082377,9918.759623
746.552818,153.219100,666.185348,11103.089130
746.553134,689.485948,592.164754,10140.821405
746.553450,919.314598,222.061783,9770.718434
746.553766,383.047749,222.061783,10066.800811
746.554081,0.000000,-74.020594,10140.821405
746.554397,76.609550,-888.247130,10214.842000
746.554713,689.485948,222.061783,10362.883188
746.555029,766.095498,518.144159,9992.780217
746.555345,1225.752797,222.061783,9622.677246
746.555661,766.095498,148.041188,9770.718434
746.555976,153.219100,-148.041188,9178.553681
746.556292,1225.752797,-444.123565,9770.718434
746.556608,689.485948,-0.000000,9622.677246
746.556924,919.314598,296.082377,8808.450710
746.557240,919.314598,-518.144159,8956.491898
746.557556,229.828649,-1184.329507,9622.677246
746.557871,0.000000,-1184.329507,9548.656652
746.558187,229.828649,-1480.411884,9474.636058
746.558503,0.000000,-370.102971,9770.718434
746.558819,689.485948,148.041188,9104.533087
746.559135,919.314598,-0.000000,8216.285956
746.559451,612.876398,-0.000000,8882.471304
746.559766,76.609550,-444.123565,8660.409521
746.560082,842.705048,-148.041188,7624.121203
746.560398,842.705048,-0.000000,8364.327145
746.560714,995.924147,-0.000000,8882.471304
746.561030,1072.533697,-0.000000,8216.285956
746.561346,842.705048,-148.041188,7920.203579
746.561661,-229.828649,-296.082377,8216.285956
746.561977,0.000000,-888.247130,8956.491898
746.562293,76.609550,-518.144159,9326.594869
746.562609,-306.438199,-0.000000,9474.636058
746.562925,-229.828649,-518.144159,8956.491898
746.563241,-306.438199,-518.144159,9178.553681
746.563556,-1072.533697,-444.123565,9104.533087
746.563872,-459.657299,-74.020594,9770.718434
746.564188,-153.219100,-0.000000,9104.533087
746.564504,0.000000,666.185348,8882.471304
746.564820,459.657299,-74.020594,9400.615463
746.565136,536.266849,-518.144159,8956.491898
746.565452,76.609550,-740.205942,9474.636058
746.565767,0.000000,-592.164754,9622.677246
746.566083,383.047749,296.082377,9770.718434
746.566399,459.657299,814.226536,9474.636058
746.566715,919.314598,666.185348,9474.636058
746.567031,612.876398,666.185348,9326.594869
746.567347,306.438199,-0.000000,9548.656652
746.567662,383.047749,-0.000000,9992.780217
746.567978,383.047749,-0.000000,10362.883188
746.568294,919.314598,222.061783,10362.883188
746.568610,1072.533697,370.102971,9992.780217
746.568926,229.828649,444.123565,9696.697840
746.569242,153.219100,-0.000000,10510.924376
746.569557,306.438199,370.102971,9918.759623
746.569873,76.609550,740.205942,10807.006753
746.570189,612.876398,740.205942,11029.068536
746.570505,842.705048,666.185348,9992.780217
746.570821,919.314598,370.102971,10584.944971
746.571137,383.047749,-0.000000,10362.883188
746.571452,766.095498,-296.082377,10436.903782
746.571768,536.266849,148.041188,10658.965565
746.572084,842.705048,740.205942,10436.903782
746.572400,1608.800546,740.205942,9474.636058
746.572716,1378.971896,592.164754,9252.574275
746.573032,842.705048,-74.020594,9992.780217
746.573347,1225.752797,-592.164754,10436.903782
746.573663,995.924147,-0.000000,9474.636058
746.573979,612.876398,-74.020594,10288.862594
746.574295,1302.362347,-148.041188,9770.718434
746.574611,766.095498,-444.123565,9622.677246
746.574926,153.219100,-222.061783,9474.636058
746.575242,383.047749,-222.061783,9178.553681
746.575558,766.095498,-592.164754,9252.574275
746.575874,536.266849,-222.061783,9474.636058
746.576190,766.095498,-592.164754,9104.533087
746.576506,612.876398,-1480.411884,9474.636058
746.576821,153.219100,-1184.329507,8808.450710
746.577137,-153.219100,-1332.370696,8808.450710
746.577453,0.000000,-1110.308913,9696.697840
746.577769,0.000000,-962.267725,9400.615463
746.578085,612.876398,-666.185348,9252.574275
746.578401,536.266849,-666.185348,8882.471304
746.578716,0.000000,-1332.370696,8512.368333
746.579032,0.000000,-1036.288319,7994.224174
746.579348,306.438199,-814.226536,8438.347739
746.579664,153.219100,222.061783,8734.430116
746.579980,306.438199,-962.267725,8290.306550
746.580296,229.828649,-1258.350101,8512.368333
746.580611,-153.219100,-1258.350101,8808.450710
746.580927,-459.657299,-1554.432478,8364.327145
746.581243,-1149.143247,-1332.370696,8734.430116
746.581559,-919.314598,-962.267725,9400.615463
746.581875,0.000000,-1258.350101,9548.656652
746.582190,-459.657299,-1110.308913,9178.553681
746.582506,-383.047749,-740.205942,9400.615463
746.582822,-229.828649,-666.185348,8808.450710
746.583138,0.000000,-666.185348,9030.512492
746.583454,0.000000,-74.020594,8734.430116
746.583770,1072.533697,-518.144159,9104.533087
746.584085,1149.143247,-1924.535449,9400.615463
746.584401,689.485948,-962.267725,9622.677246
746.584717,306.438199,-148.041188,9178.553681
746.585033,842.705048,-0.000000,9104.533087
746.585349,689.485948,814.226536,9548.656652
746.585665,1302.362347,592.164754,9622.677246
746.585980,1072.533697,296.082377,9622.677246
746.586296,689.485948,296.082377,10066.800811
746.586612,459.657299,-518.144159,9326.594869
746.586928,995.924147,-74.020594,9844.739029
746.587244,459.657299,518.144159,9770.718434
746.587559,1455.581446,444.123565,10362.883188
746.587875,1378.971896,222.061783,10584.944971
746.588191,612.876398,592.164754,9548.656652
746.588507,0.000000,148.041188,9918.759623
746.588823,0.000000,-0.000000,10510.924376
746.589139,0.000000,666.185348,10732.986159
746.589454,919.314598,666.185348,11029.068536
746.589770,536.266849,518.144159,10140.821405
746.590086,229.828649,518.144159,9918.759623
746.590402,0.000000,222.061783,10066.800811
746.590718,995.924147,-370.102971,9474.636058
746.591034,536.266849,592.164754,10436.903782
746.591349,612.876398,518.144159,10288.862594
746.591665,1072.533697,-296.082377,9696.697840
746.591981,1072.533697,-74.020594,10362.883188
746.592297,229.828649,-444.123565,9918.759623
746.592613,919.314598,-222.061783,9844.739029
746.592929,689.485948,-0.000000,9992.780217
746.593244,995.924147,296.082377,9918.759623
746.593560,1378.971896,-0.000000,10066.800811
746.593876,1378.971896,-592.164754,10214.842000
746.594192,612.876398,-222.061783,9252.574275
746.594508,766.095498,-74.020594,9030.512492
746.594823,689.485948,148.041188,9326.594869
746.595139,995.924147,222.061783,9326.594869
746.595455,842.705048,-148.041188,8882.471304
746.595771,689.485948,-592.164754,9252.574275
746.596087,153.219100,-962.267725,9326.594869
746.596403,0.000000,-1036.288319,8734.430116
746.596718,229.828649,-1554.432478,9696.697840
746.597034,306.438199,-592.164754,10140.821405
746.597350,995.924147,-74.020594,9474.636058
746.597666,612.876398,-148.041188,9030.512492
746.597982,153.219100,222.061783,8290.306550
746.598298,76.609550,-74.020594,8142.265362
746.598613,612.876398,-0.000000,8142.265362
746.598929,1072.533697,222.061783,8290.306550
746.599245,995.924147,-666.185348,8216.285956
746.599561,383.047749,-1184.329507,8808.450710
746.599877,689.485948,-1110.308913,8956.491898
746.600193,-306.438199,-1184.329507,8660.409521
746.600508,0.000000,-222.061783,9178.553681
746.600824,0.000000,-74.020594,9252.574275
746.601140,76.609550,-222.061783,8956.491898
746.601456,-766.095498,-814.226536,9844.739029
746.601772,-919.314598,-370.102971,9474.636058
746.602087,-536.266849,-370.102971,8364.327145
746.602403,-229.828649,148.041188,8882.471304
746.602719,229.828649,444.123565,9400.615463
746.603035,229.828649,-592.164754,8882.471304
746.603351,459.657299,-74.020594,8882.471304
746.603667,-766.095498,-592.164754,9104.533087
746.603982,-383.047749,-888.247130,9548.656652
746.604298,459.657299,-592.164754,10214.842000
746.604614,0.000000,296.082377,9992.780217
746.604930,306.438199,-0.000000,10584.944971
746.605246,306.438199,148.041188,9548.656652
746.605562,153.219100,518.144159,9252.574275
746.605877,306.438199,518.144159,9474.636058
746.606193,995.924147,-0.000000,9844.739029
746.606509,995.924147,814.226536,9992.780217
746.606825,1225.752797,444.123565,9696.697840
746.607141,689.485948,-296.082377,9844.739029
746.607457,383.047749,-74.020594,10362.883188
746.607772,919.314598,296.082377,9400.615463
746.608088,689.485948,888.247130,9696.697840
746.608404,842.705048,888.247130,10732.986159
746.608720,995.924147,296.082377,10436.903782
746.609036,919.314598,444.123565,10288.862594
746.609351,842.705048,148.041188,10510.924376
746.609667,842.705048,-0.000000,9696.697840
746.609983,919.314598,740.205942,9696.697840
746.610299,995.924147,888.247130,10214.842000
746.610615,2068.457845,592.164754,10732.986159
746.610931,1302.362347,814.226536,9622.677246
746.611246,612.876398,592.164754,9474.636058
746.611562,842.705048,-222.061783,9992.780217
746.611878,842.705048,-444.123565,10362.883188
746.612194,1302.362347,444.123565,10140.821405
746.612510,1378.971896,518.144159,10288.862594
746.612826,1149.143247,-296.082377,9844.739029
746.613141,153.219100,-222.061783,9770.718434
746.613457,0.000000,-0.000000,9326.594869
746.613773,612.876398,222.061783,9326.594869
746.614089,766.095498,-0.000000,9548.656652
746.614405,612.876398,-370.102971,9252.574275
746.614720,536.266849,-814.226536,9400.615463
746.615036,536.266849,-1554.432478,9474.636058
746.615352,229.828649,-1702.473667,8808.450710
746.615668,0.000000,-888.247130,8660.409521
746.615984,612.876398,-1332.370696,9770.718434
746.616300,766.095498,-1184.329507,9474.636058
746.616615,383.047749,-1480.411884,8586.388927
746.616931,-153.219100,-1776.494261,9844.739029
746.617247,0.000000,-1332.370696,8734.430116
746.617563,153.219100,-518.144159,8512.368333
746.617879,229.828649,-0.000000,8882.471304
746.618195,689.485948,-0.000000,8512.368333
746.618510,919.314598,-444.123565,8068.244768
746.618826,306.438199,-740.205942,8438.347739
746.619142,153.219100,-1554.432478,8808.450710
746.619458,0.000000,-1702.473667,9252.574275
746.619774,0.000000,-814.226536,9400.615463
746.620090,383.047749,-888.247130,9474.636058
746.620405,0.000000,-888.247130,9474.636058
746.620721,-306.438199,-148.041188,9104.533087
746.621037,-306.438199,-814.226536,8660.409521
746.621353,-536.266849,-592.164754,8734.430116
746.621669,0.000000,-592.164754,9622.677246
746.621984,229.828649,-666.185348,8956.491898
746.622300,153.219100,-740.205942,9400.615463
746.622616,-229.828649,-1702.473667,9548.656652
746.622932,0.000000,-1258.350101,8512.368333
746.623248,0.000000,-592.164754,8882.471304
746.623564,-306.438199,-222.061783,9696.697840
746.623879,459.657299,-148.041188,9918.759623
746.624195,766.095498,-222.061783,9400.615463
746.624511,153.219100,-0.000000,9474.636058
746.624827,0.000000,-0.000000,8956.491898
746.625143,459.657299,-0.000000,8882.471304
746.625459,383.047749,444.123565,9770.718434
746.625774,1072.533697,-0.000000,9252.574275
746.626090,995.924147,-222.061783,10140.821405
746.626406,459.657299,-296.082377,10288.862594
746.626722,0.000000,-592.164754,9474.636058
746.627038,0.000000,-518.144159,10807.006753
746.627354,-153.219100,814.226536,10436.903782
746.627669,536.266849,888.247130,10214.842000
746.627985,383.047749,740.205942,10510.924376
746.628301,536.266849,666.185348,9770.718434
746.628617,-306.438199,444.123565,9770.718434
746.628933,612.876398,444.123565,9770.718434
746.629248,536.266849,296.082377,9918.759623
746.629564,766.095498,666.185348,10658.965565
746.629880,1302.362347,-222.061783,9918.759623
746.630196,689.485948,-1184.329507,10362.883188
746.630512,536.266849,296.082377,9622.677246
746.630828,536.266849,-296.082377,9844.739029
746.631143,1378.971896,666.185348,9992.780217
746.631459,1532.190996,962.267725,9696.697840
746.631775,1915.238745,-370.102971,9696.697840
746.632091,1915.238745,-0.000000,9918.759623
746.632407,1072.533697,-518.144159,9844.739029
746.632723,1455.581446,-0.000000,9178.553681
746.633038,1685.410096,444.123565,9178.553681
746.633354,1762.019645,592.164754,9178.553681
746.633670,2298.286494,370.102971,9696.697840
746.633986,1072.533697,-74.020594,8660.409521
746.634302,766.095498,-148.041188,9252.574275
746.634617,459.657299,-0.000000,9622.677246
746.634933,689.485948,-148.041188,9622.677246
746.635249,919.314598,444.123565,9252.574275
746.635565,919.314598,-222.061783,9400.615463
746.635881,536.266849,-296.082377,9474.636058
746.636197,76.609550,-370.102971,9326.594869
746.636512,153.219100,-296.082377,8438.347739
746.636828,153.219100,666.185348,8956.491898
746.637144,383.047749,814.226536,8660.409521
746.637460,919.314598,370.102971,8734.430116
746.637776,306.438199,-740.205942,8438.347739
746.638092,153.219100,-888.247130,9030.512492
746.638407,-76.609550,-1184.329507,8734.430116
746.638723,-536.266849,-814.226536,9030.512492
746.639039,0.000000,-0.000000,9474.636058
746.639355,-153.219100,-592.164754,9030.512492
746.639671,-383.047749,-666.185348,9104.533087
746.639987,-842.705048,-666.185348,9474.636058
746.640302,-766.095498,-666.185348,8882.471304
746.640618,-229.828649,-0.000000,9474.636058
746.640934,0.000000,370.102971,9104.533087
746.641250,459.657299,222.061783,8290.306550
746.641566,0.000000,-592.164754,9400.615463
746.641881,-536.266849,-740.205942,9326.594869
746.642197,-306.438199,-962.267725,8956.491898
746.642513,-229.828649,-592.164754,9622.677246
746.642829,0.000000,-148.041188,9622.677246
746.643145,383.047749,-222.061783,9918.759623
746.643461,306.438199,-0.000000,9548.656652
746.643776,-306.438199,148.041188,9770.718434
746.644092,0.000000,148.041188,9770.718434
746.644408,995.924147,592.164754,9178.553681
746.644724,153.219100,1184.329507,9104.533087
746.645040,1072.533697,296.082377,9474.636058
746.645356,1149.143247,-666.185348,9992.780217
746.645671,229.828649,-740.205942,10066.800811
746.645987,153.219100,-370.102971,10066.800811
746.646303,76.609550,222.061783,10066.800811
746.646619,612.876398,1332.370696,9770.718434
746.646935,766.095498,1480.411884,9770.718434
746.647251,612.876398,-0.000000,10140.821405
746.647566,306.438199,-0.000000,10140.821405
746.647882,536.266849,-0.000000,9770.718434
746.648198,306.438199,74.020594,10066.800811
746.648514,612.876398,222.061783,10436.903782
746.648830,1149.143247,-0.000000,9474.636058
746.649145,842.705048,-444.123565,9696.697840
746.649461,229.828649,-888.247130,10510.924376
746.649777,459.657299,-666.185348,9770.718434
746.650093,459.657299,-370.102971,9622.677246
746.650409,1378.971896,-0.000000,10214.842000
746.650725,1608.800546,148.041188,9548.656652
746.651040,1608.800546,-296.082377,10066.800811
746.651356,919.314598,-222.061783,9178.553681
746.651672,995.924147,-444.123565,8660.409521
746.651988,1378.971896,-222.061783,8808.450710
746.652304,1302.362347,-0.000000,9326.594869
746.652620,1608.800546,-222.061783,9030.512492
746.652935,1302.362347,-888.247130,9104.533087
746.653251,689.485948,-1184.329507,9474.636058
746.653567,-153.219100,-888.247130,9104.533087
746.653883,0.000000,-1036.288319,9770.718434
746.654199,229.828649,-0.000000,9474.636058
746.654515,612.876398,-222.061783,9252.574275
746.654830,536.266849,-518.144159,9622.677246
746.655146,153.219100,-1110.308913,9622.677246
746.655462,153.219100,-1184.329507,8956.491898
746.655778,459.657299,-740.205942,8808.450710
746.656094,536.266849,-74.020594,8956.491898
746.656409,1302.362347,-0.000000,8438.347739
746.656725,689.485948,-74.020594,8364.327145
746.657041,0.000000,-962.267725,8734.430116
746.657357,-153.219100,-962.267725,9178.553681
746.657673,0.000000,-1184.329507,8808.450710
746.657989,153.219100,-0.000000,8734.430116
746.658304,536.266849,222.061783,9178.553681
746.658620,153.219100,-1036.288319,9326.594869
746.658936,-306.438199,-888.247130,9474.636058
746.659252,-1072.533697,-814.226536,8808.450710
746.659568,-536.266849,-1184.329507,8956.491898
746.659884,-383.047749,-370.102971,9104.533087
746.660199,-76.609550,-518.144159,9104.533087
746.660515,-76.609550,-962.267725,9622.677246
746.660831,-459.657299,-1406.391290,9992.780217
746.661147,-689.485948,-1036.288319,8586.388927
746.661463,-459.657299,-222.061783,9104.533087
746.661778,-153.219100,-518.144159,9918.759623
746.662094,383.047749,444.123565,9474.636058
746.662410,459.657299,-0.000000,9770.718434
746.662726,0.000000,-444.123565,9474.636058
746.663042,76.609550,-296.082377,9696.697840
746.663358,0.000000,-518.144159,9030.512492
746.663673,0.000000,518.144159,10140.821405
746.663989,689.485948,444.123565,10214.842000
746.664305,842.705048,-0.000000,10066.800811
746.664621,766.095498,666.185348,9918.759623
746.664937,153.219100,296.082377,9696.697840
746.665253,689.485948,518.144159,9474.636058
746.665568,612.876398,444.123565,10214.842000
746.665884,1225.752797,666.185348,10807.006753
746.666200,1762.019645,740.205942,9992.780217
746.666516,536.266849,-0.000000,9770.718434
746.666832,459.657299,-0.000000,10955.047942
746.667148,842.705048,-0.000000,9918.759623
746.667463,766.095498,888.247130,9548.656652
746.667779,1072.533697,1184.329507,9918.759623
746.668095,1685.410096,296.082377,10362.883188
746.668411,1302.362347,-222.061783,9992.780217
746.668727,612.876398,-444.123565,9918.759623
746.669042,1455.581446,-814.226536,9104.533087
746.669358,1149.143247,-74.020594,10362.883188
746.669674,1149.143247,444.123565,10214.842000
746.669990,1762.019645,148.041188,9474.636058
746.670306,1378.971896,-0.000000,9400.615463
746.670622,612.876398,-0.000000,9252.574275
746.670937,306.438199,-814.226536,9326.594869
746.671253,919.314598,-740.205942,9400.615463
746.671569,995.924147,-74.020594,9474.636058
746.671885,1225.752797,-444.123565,9252.574275
746.672201,995.924147,-814.226536,9252.574275
746.672517,153.219100,-1110.308913,8660.409521
746.672832,-153.219100,-1110.308913,9474.636058
746.673148,306.438199,-1480.411884,9992.780217
746.673464,229.828649,-0.000000,9326.594869
746.673780,612.876398,148.041188,9030.512492
746.674096,1149.143247,-666.185348,9178.553681
746.674411,612.876398,-740.205942,8734.430116
746.674727,766.095498,-444.123565,8660.409521
746.675043,689.485948,-148.041188,8586.388927
746.675359,766.095498,148.041188,8512.368333
746.675675,766.095498,444.123565,7994.224174
746.675990,229.828649,-666.185348,8586.388927
746.676306,-229.828649,-1480.411884,9474.636058
746.676622,-306.438199,-1036.288319,8734.430116
746.676938,-766.095498,-888.247130,8882.471304
746.677253,-612.876398,-0.000000,9474.636058
746.677569,0.000000,-370.102971,9474.636058
746.677885,0.000000,-1184.329507,9178.553681
746.678201,-1072.533697,-666.185348,9178.553681
746.678516,-1072.533697,-962.267725,9030.512492
746.678832,-383.047749,-814.226536,8882.471304
746.679148,0.000000,-0.000000,9178.553681
746.679464,689.485948,-296.082377,9474.636058
746.679780,76.609550,-814.226536,9400.615463
746.680095,-306.438199,-148.041188,8512.368333
746.680411,-383.047749,-444.123565,9252.574275
746.680727,536.266849,-148.041188,9622.677246
746.681043,536.266849,1036.288319,9326.594869
746.681358,842.705048,148.041188,9474.636058
746.681674,306.438199,-296.082377,10584.944971
746.681990,0.000000,-0.000000,9400.615463
746.682306,306.438199,1332.370696,8882.471304
746.682622,919.314598,518.144159,9252.574275
746.682937,459.657299,888.247130,10214.842000
746.683253,1149.143247,814.226536,9918.759623
746.683569,842.705048,518.144159,9474.636058
746.683885,76.609550,296.082377,10140.821405
746.684200,612.876398,-74.020594,9918.759623
746.684516,919.314598,518.144159,9992.780217
746.684832,383.047749,1258.350101,10510.924376
746.685148,1072.533697,888.247130,10584.944971
746.685463,1378.971896,-0.000000,9844.739029
746.685779,612.876398,370.102971,10436.903782
746.686095,383.047749,-74.020594,10214.842000
746.686411,459.657299,-222.061783,10214.842000
746.686727,842.705048,740.205942,11029.068536
746.687042,1225.752797,592.164754,9622.677246
746.687358,1072.533697,592.164754,9992.780217
746.687674,766.095498,222.061783,10288.862594
746.687990,612.876398,-0.000000,9622.677246
746.688305,842.705048,-0.000000,9400.615463
746.688621,919.314598,666.185348,10066.800811
746.688937,1302.362347,-296.082377,9548.656652
746.689253,1532.190996,-740.205942,9474.636058
746.689569,766.095498,-666.185348,10140.821405
746.689884,612.876398,-1110.308913,9918.759623
746.690200,229.828649,-296.082377,9178.553681
746.690516,536.266849,370.102971,9400.615463
746.690832,919.314598,444.123565,9104.533087
746.691147,842.705048,-518.144159,9326.594869
746.691463,306.438199,-1332.370696,9104.533087
746.691779,0.000000,-962.267725,9326.594869
746.692095,306.438199,-1406.391290,9622.677246
746.692410,0.000000,-888.247130,9770.718434
746.692726,689.485948,-74.020594,8956.491898
746.693042,919.314598,-814.226536,8882.471304
746.693358,0.000000,-814.226536,9770.718434
746.693674,-153.219100,-740.205942,8660.409521
746.693989,459.657299,-740.205942,8512.368333
746.694305,306.438199,-222.061783,8660.409521
746.694621,306.438199,-222.061783,8882.471304
746.694937,842.705048,-666.185348,8882.471304
746.695252,-306.438199,-740.205942,8660.409521
746.695568,-536.266849,-740.205942,8660.409521
746.695884,-383.047749,-666.185348,8882.471304
746.696200,-306.438199,-962.267725,9474.636058
746.696516,-229.828649,-1110.308913,9548.656652
746.696831,-229.828649,-1850.514855,10066.800811
746.697147,-995.924147,-1850.514855,10362.883188
746.697463,-1378.971896,-1036.288319,9104.533087
746.697779,-229.828649,-740.205942,8882.471304
746.698094,0.000000,-0.000000,8882.471304
746.698410,229.828649,-0.000000,8882.471304
746.698726,153.219100,-962.267725,9326.594869
746.699042,-306.438199,-1406.391290,9548.656652
746.699357,-766.095498,-1850.514855,9252.574275
746.699673,-459.657299,-1480.411884,9474.636058
746.699989,-306.438199,-888.247130,9696.697840
746.700305,0.000000,-148.041188,9696.697840
746.700621,536.266849,-1110.308913,9918.759623
746.700936,76.609550,-740.205942,10066.800811
746.701252,0.000000,-0.000000,9030.512492
746.701568,153.219100,148.041188,8438.347739
746.701884,459.657299,296.082377,9474.636058
746.702199,1225.752797,-0.000000,9622.677246
746.702515,1838.629195,-222.061783,9548.656652
746.702831,919.314598,-296.082377,9474.636058
746.703147,459.657299,-296.082377,9622.677246
746.703463,766.095498,-0.000000,9104.533087
746.703778,1149.143247,444.123565,10362.883188
746.704094,1225.752797,1036.288319,10510.924376
746.704410,2298.286494,592.164754,9696.697840
746.704726,1532.190996,148.041188,9992.780217
746.705041,689.485948,296.082377,9696.697840
746.705357,766.095498,-74.020594,9622.677246
746.705673,995.924147,592.164754,9918.759623
746.705989,1608.800546,1332.370696,9770.718434
746.706305,1532.190996,148.041188,9548.656652
746.706620,1149.143247,-0.000000,9992.780217
746.706936,-383.047749,-0.000000,9622.677246
746.707252,459.657299,-962.267725,10214.842000
746.707568,612.876398,-222.061783,10732.986159
746.707883,536.266849,666.185348,10436.903782
746.708199,1072.533697,814.226536,10140.821405
746.708515,1149.143247,370.102971,9992.780217
746.708831,0.000000,370.102971,9104.533087
746.709146,459.657299,-148.041188,9622.677246
746.709462,995.924147,-0.000000,10066.800811
746.709778,1302.362347,888.247130,9178.553681
746.710094,1455.581446,-0.000000,8660.409521
746.710410,995.924147,-814.226536,9622.677246
746.710725,612.876398,-518.144159,9770.718434
746.711041,383.047749,-444.123565,8882.471304
746.711357,383.047749,-74.020594,9178.553681
746.711673,0.000000,-296.082377,9918.759623
746.711988,919.314598,-518.144159,9992.780217
746.712304,536.266849,-370.102971,8956.491898
746.712620,-383.047749,-0.000000,8734.430116
746.712936,0.000000,-222.061783,8956.491898
746.713252,76.609550,-74.020594,8660.409521
746.713567,0.000000,888.247130,8660.409521
746.713883,383.047749,-148.041188,8956.491898
746.714199,0.000000,-1332.370696,9622.677246
746.714515,-689.485948,-1258.350101,9844.739029
746.714830,-842.705048,-666.185348,8882.471304
746.715146,-459.657299,-814.226536,9474.636058
746.715462,-306.438199,296.082377,9770.718434
746.715778,0.000000,592.164754,8956.491898
746.716093,-229.828649,444.123565,9252.574275
746.716409,-919.314598,-74.020594,9252.574275
746.716725,-919.314598,-0.000000,8882.471304
746.717041,0.000000,370.102971,9178.553681
746.717357,306.438199,666.185348,9474.636058
746.717672,612.876398,-148.041188,8808.450710
746.717988,153.219100,-1036.288319,9178.553681
746.718304,0.000000,-962.267725,9548.656652
746.718620,-229.828649,-1184.329507,9178.553681
746.718935,229.828649,-962.267725,9548.656652
746.719251,0.000000,-74.020594,9844.739029
746.719567,842.705048,-0.000000,9622.677246
746.719883,842.705048,-148.041188,9474.636058
746.720199,0.000000,-296.082377,9326.594869
746.720514,0.000000,-444.123565,9326.594869
746.720830,306.438199,-666.185348,9474.636058
746.721146,306.438199,-0.000000,9474.636058
746.721462,1302.362347,-296.082377,9622.677246
746.721777,995.924147,-888.247130,9844.739029
746.722093,689.485948,-444.123565,9770.718434
746.722409,842.705048,-0.000000,9252.574275
746.722725,459.657299,370.102971,8956.491898
746.723040,1225.752797,296.082377,10510.924376
746.723356,1608.800546,-222.061783,10510.924376
746.723672,766.095498,370.102971,9696.697840
746.723988,459.657299,-518.144159,10732.986159
746.724304,689.485948,-222.061783,9992.780217
746.724619,383.047749,296.082377,9474.636058
746.724935,612.876398,592.164754,9696.697840
746.725251,1378.971896,740.205942,9622.677246
746.725567,1302.362347,-74.020594,9918.759623
746.725882,766.095498,-74.020594,9548.656652
746.726198,229.828649,-444.123565,9474.636058
746.726514,766.095498,-740.205942,10140.821405
746.726830,1149.143247,222.061783,10066.800811
746.727146,1225.752797,-0.000000,9474.636058
746.727461,1149.143247,-740.205942,9992.780217
746.727777,842.705048,-666.185348,9918.759623
746.728093,459.657299,-370.102971,9178.553681
746.728409,1149.143247,-296.082377,9030.512492
746.728724,1225.752797,222.061783,9178.553681
746.729040,1532.190996,814.226536,9104.533087
746.729356,1685.410096,222.061783,8364.327145
746.729672,689.485948,-814.226536,8956.491898
746.729988,536.266849,-740.205942,9326.594869
746.730303,689.485948,-814.226536,8882.471304
746.730619,919.314598,-296.082377,9400.615463
746.730935,612.876398,-74.020594,9696.697840
746.731251,842.705048,-518.144159,9474.636058
746.731566,459.657299,-592.164754,9548.656652
746.731882,-306.438199,-296.082377,8734.430116
746.732198,306.438199,-0.000000,9326.594869
746.732514,0.000000,666.185348,8882.471304
746.732829,536.266849,888.247130,8512.368333
746.733145,306.438199,-0.000000,8956.491898
746.733461,0.000000,-518.144159,9400.615463
746.733777,-229.828649,-518.144159,8808.450710
746.734093,-536.266849,-444.123565,9770.718434
746.734408,-383.047749,-148.041188,9844.739029
746.734724,0.000000,-0.000000,9548.656652
746.735040,-229.828649,-518.144159,9770.718434
746.735356,-459.657299,-148.041188,9474.636058
746.735671,-536.266849,-148.041188,8734.430116
746.735987,-536.266849,-222.061783,8660.409521
746.736303,-459.657299,-0.000000,9326.594869
746.736619,0.000000,296.082377,9178.553681
746.736935,0.000000,-518.144159,9474.636058
746.737250,-153.219100,-1036.288319,9474.636058
746.737566,-536.266849,-888.247130,9474.636058
746.737882,-612.876398,-962.267725,9696.697840
746.738198,-459.657299,-0.000000,10214.842000
746.738513,-229.828649,296.082377,10288.862594
746.738829,306.438199,-0.000000,9474.636058
746.739145,-153.219100,222.061783,9770.718434
746.739461,0.000000,-296.082377,9696.697840
746.739776,383.047749,-592.164754,9622.677246
746.740092,383.047749,592.164754,10066.800811
746.740408,995.924147,666.185348,9400.615463
746.740724,1455.581446,-148.041188,9178.553681
746.741040,459.657299,148.041188,10066.800811
746.741355,306.438199,296.082377,9770.718434
746.741671,1455.581446,-148.041188,9770.718434
746.741987,1072.533697,1036.288319,9992.780217
746.742303,995.924147,962.267725,9918.759623
746.742618,1378.971896,-222.061783,9992.780217
746.742934,1149.143247,-222.061783,10362.883188
746.743250,612.876398,-0.000000,9474.636058
746.743566,995.924147,-518.144159,9770.718434
746.743882,1149.143247,-0.000000,9622.677246
746.744197,1532.190996,518.144159,9400.615463
746.744513,1608.800546,-0.000000,9918.759623
746.744829,1302.362347,-740.205942,9548.656652
746.745145,919.314598,-370.102971,8660.409521
746.745460,995.924147,-592.164754,9548.656652
746.745776,1072.533697,-444.123565,9474.636058
746.746092,1072.533697,-222.061783,9548.656652
746.746408,1532.190996,-444.123565,9400.615463
746.746723,1072.533697,-1406.391290,10140.821405
746.747039,306.438199,-1110.308913,9622.677246
746.747355,612.876398,-444.123565,9178.553681
746.747671,1072.533697,-222.061783,9178.553681
746.747987,1532.190996,740.205942,8808.450710
746.748302,766.095498,-148.041188,8512.368333
746.748618,689.485948,-740.205942,8882.471304
746.748934,383.047749,-1036.288319,9326.594869
746.749250,383.047749,-1184.329507,9326.594869
746.749565,153.219100,-444.123565,9030.512492
746.749881,229.828649,-0.000000,9696.697840
746.750197,612.876398,-0.000000,9474.636058
746.750513,459.657299,-0.000000,9030.512492
746.750829,0.000000,-370.102971,9030.512492
746.751144,-842.705048,-1036.288319,9326.594869
746.751460,-383.047749,-444.123565,9326.594869
746.751776,-229.828649,592.164754,8882.471304
746.752092,76.609550,222.061783,9030.512492
746.752407,153.219100,-370.102971,9474.636058
746.752723,-306.438199,-370.102971,9326.594869
746.753039,-229.828649,-296.082377,9178.553681
746.753355,-306.438199,-370.102971,8734.430116
746.753671,76.609550,-0.000000,9104.533087
746.753986,76.609550,-74.020594,9400.615463
746.754302,306.438199,-962.267725,9696.697840
746.754618,-612.876398,-370.102971,9326.594869
746.754934,-689.485948,-74.020594,8808.450710
746.755249,-689.485948,-148.041188,9178.553681
746.755565,-153.219100,222.061783,9326.594869
746.755881,153.219100,-296.082377,9030.512492
746.756197,0.000000,-1258.350101,9770.718434
746.756512,-459.657299,-1554.432478,9918.759623
746.756828,-689.485948,-1184.329507,9474.636058
746.757144,0.000000,-0.000000,9770.718434
746.757460,153.219100,592.164754,9548.656652
746.757776,536.266849,962.267725,9104.533087
746.758091,459.657299,518.144159,9770.718434
746.758407,76.609550,444.123565,9178.553681
746.758723,383.047749,-370.102971,9474.636058
746.759039,383.047749,-222.061783,9474.636058
746.759354,459.657299,370.102971,10066.800811
746.759670,1302.362347,-0.000000,9696.697840
746.759986,842.705048,-222.061783,10288.862594
746.760302,306.438199,-222.061783,10214.842000
746.760618,0.000000,-0.000000,9696.697840
746.760933,229.828649,370.102971,9992.780217
746.761249,536.266849,1406.391290,9770.718434
746.761565,1685.410096,1184.329507,9918.759623
746.761881,1532.190996,740.205942,10066.800811
746.762196,689.485948,444.123565,9696.697840
746.762512,919.314598,370.102971,9696.697840
746.762828,842.705048,-592.164754,9696.697840
746.763144,995.924147,592.164754,10066.800811
746.763459,1225.752797,518.144159,9918.759623
746.763775,1378.971896,-296.082377,10066.800811
746.764091,766.095498,-74.020594,10214.842000
746.764407,76.609550,-0.000000,9696.697840
746.764723,766.095498,-0.000000,9474.636058
746.765038,842.705048,-0.000000,10214.842000
746.765354,842.705048,740.205942,9030.512492
746.765670,1302.362347,-74.020594,9844.739029
746.765986,76.609550,-814.226536,9622.677246
746.766301,459.657299,-888.247130,9400.615463
746.766617,766.095498,-962.267725,9252.574275
746.766933,536.266849,-518.144159,9770.718434
746.767249,842.705048,-444.123565,9474.636058
746.767565,1685.410096,-962.267725,9400.615463
746.767880,919.314598,-666.185348,9548.656652
746.768196,383.047749,-222.061783,9474.636058
746.768512,612.876398,-296.082377,8808.450710
746.768828,995.924147,444.123565,8660.409521
746.769143,1072.533697,-0.000000,9326.594869
746.769459,1149.143247,-444.123565,9252.574275
746.769775,766.095498,-740.205942,9030.512492
746.770091,153.219100,-740.205942,9178.553681
746.770406,229.828649,-444.123565,8512.368333
746.770722,-153.219100,592.164754,8364.327145
746.771038,1072.533697,-0.000000,8808.450710
746.771354,766.095498,-666.185348,8586.388927
746.771670,0.000000,-370.102971,9178.553681
746.771985,-689.485948,-1924.535449,9030.512492
746.772301,-383.047749,-1406.391290,9474.636058
746.772617,-842.705048,-888.247130,9474.636058
746.772933,-766.095498,-444.123565,9474.636058
746.773248,0.000000,-1110.308913,9844.739029
746.773564,-995.924147,-1850.514855,9622.677246
746.773880,-919.314598,-1258.350101,8660.409521
746.774196,-689.485948,-296.082377,8438.347739
746.774512,-612.876398,-0.000000,9474.636058
746.774827,76.609550,-0.000000,8586.388927
746.775143,306.438199,-370.102971,9252.574275
746.775459,0.000000,-1110.308913,9770.718434
746.775774,0.000000,-518.144159,8882.471304
746.776090,0.000000,-1036.288319,9030.512492
746.776406,153.219100,-740.205942,9992.780217
746.776722,766.095498,296.082377,9696.697840
746.777037,995.924147,370.102971,9548.656652
746.777353,306.438199,-296.082377,9474.636058
746.777669,383.047749,222.061783,9548.656652
746.777985,383.047749,740.205942,8956.491898
746.778300,995.924147,814.226536,9622.677246
746.778616,919.314598,666.185348,9770.718434
746.778932,1149.143247,-0.000000,9474.636058
746.779247,1302.362347,-296.082377,9770.718434
746.779563,229.828649,-222.061783,9770.718434
746.779879,919.314598,-370.102971,9770.718434
746.780195,689.485948,666.185348,9696.697840
746.780510,766.095498,1406.391290,9178.553681
746.780826,1302.362347,-0.000000,9918.759623
746.781142,995.924147,-0.000000,9918.759623
746.781458,153.219100,-0.000000,9844.739029
746.781773,612.876398,-444.123565,9918.759623
746.782089,1072.533697,592.164754,9474.636058
746.782405,1532.190996,1332.370696,8808.450710
746.782720,1838.629195,444.123565,9622.677246
746.783036,1302.362347,-518.144159,9696.697840
746.783352,0.000000,-888.247130,10140.821405
746.783668,612.876398,-740.205942,10140.821405
746.783983,229.828649,-814.226536,9696.697840
746.784299,689.485948,-74.020594,10288.862594
746.784615,1225.752797,-0.000000,9918.759623
746.784930,842.705048,-814.226536,9918.759623
746.785246,383.047749,-74.020594,10140.821405
746.785562,689.485948,444.123565,8586.388927
746.785878,1072.533697,666.185348,8956.491898
746.786193,1378.971896,444.123565,9474.636058
746.786509,1532.190996,-0.000000,9178.553681
746.786825,1838.629195,-444.123565,9474.636058
746.787141,689.485948,-740.205942,9178.553681
746.787456,766.095498,-814.226536,9696.697840
746.787772,842.705048,222.061783,9622.677246
746.788088,612.876398,592.164754,8734.430116
746.788403,1072.533697,444.123565,9696.697840
746.788719,1072.533697,-518.144159,9992.780217
746.789035,0.000000,-148.041188,8956.491898
746.789351,-76.609550,-222.061783,8956.491898
746.789666,229.828649,-148.041188,9548.656652
746.789982,612.876398,814.226536,8882.471304
746.790298,383.047749,740.205942,8956.491898
746.790613,383.047749,-222.061783,9252.574275
746.790929,-383.047749,-666.185348,9548.656652
746.791245,-536.266849,-1184.329507,9030.512492
746.791561,-459.657299,-666.185348,9326.594869
746.791876,-383.047749,-222.061783,9474.636058
746.792192,76.609550,-0.000000,9252.574275
746.792508,0.000000,-666.185348,9104.533087
746.792824,-766.095498,-888.247130,9252.574275
746.793139,-766.095498,-296.082377,8808.450710
746.793455,-536.266849,-444.123565,8660.409521
746.793771,0.000000,-0.000000,9104.533087
746.794086,0.000000,-370.102971,8882.471304
746.794402,0.000000,-1184.329507,9326.594869
746.794718,-1149.143247,-2072.576638,9548.656652
746.795034,-1302.362347,-2220.617826,10362.883188
746.795349,-995.924147,-2368.659014,10214.842000
746.795665,-459.657299,-1332.370696,10732.986159
746.795981,-306.438199,-1110.308913,10140.821405
746.796297,306.438199,-1554.432478,10066.800811
746.796612,153.219100,-1406.391290,9548.656652
746.796928,459.657299,-814.226536,9696.697840
746.797244,1302.362347,-370.102971,9326.594869
746.797559,1838.629195,814.226536,8734.430116
746.797875,1915.238745,1184.329507,7772.162391
746.798191,1915.238745,-444.123565,8438.347739
746.798507,1378.971896,-1406.391290,9326.594869
746.798822,766.095498,-1702.473667,9326.594869
746.799138,153.219100,-1850.514855,9770.718434
746.799454,-229.828649,-1406.391290,10510.924376
746.799769,0.000000,-962.267725,10658.965565
746.800085,306.438199,-2072.576638,10658.965565
746.800401,-766.095498,-1702.473667,10362.883188
746.800717,-1225.752797,-1480.411884,10288.862594
746.801032,-229.828649,-1702.473667,9992.780217
746.801348,0.000000,-814.226536,9548.656652
746.801664,76.609550,-296.082377,8512.368333
746.801980,612.876398,-518.144159,9104.533087
746.802295,306.438199,-1258.350101,8512.368333
746.802611,-842.705048,-1184.329507,8882.471304
746.802927,-842.705048,-2294.638420,9918.759623
746.803242,-536.266849,-1924.535449,9622.677246
746.803558,-1685.410096,-962.267725,9622.677246
746.803874,-1532.190996,-1924.535449,10362.883188
746.804190,-995.924147,-3330.926739,11251.130318
746.804505,-1838.629195,-2960.823768,10510.924376
746.804821,-1455.581446,-2590.720797,10362.883188
746.805137,-1378.971896,-2220.617826,10510.924376
746.805453,-995.924147,-740.205942,9030.512492
746.805768,-842.705048,-592.164754,8216.285956
746.806084,0.000000,-1850.514855,8586.388927
746.806400,-689.485948,-1554.432478,8068.244768
746.806715,-1378.971896,-1776.494261,8364.327145
746.807031,-306.438199,-3108.864956,9252.574275
746.807347,-766.095498,-2368.659014,9326.594869
746.807663,-1762.019645,-1332.370696,9030.512492
746.807978,-1762.019645,-2072.576638,9252.574275
746.808294,-1302.362347,-2664.741391,9770.718434
746.808610,-2068.457845,-2220.617826,9252.574275
746.808925,-2374.896044,-2368.659014,9474.636058
746.809241,-1991.848295,-2368.659014,9400.615463
746.809557,-1608.800546,-1258.350101,8734.430116
746.809873,-2528.115143,-444.123565,8956.491898
746.810188,-1991.848295,-1110.308913,8142.265362
746.810504,-1915.238745,-1776.494261,8364.327145
746.810820,-2451.505594,-2442.679609,8808.450710
746.811136,-2911.162892,-3775.050304,9696.697840
746.811451,-2451.505594,-3034.844362,9844.739029
746.811767,-2757.943793,-3256.906145,10140.821405
746.812083,-2757.943793,-2368.659014,10732.986159
746.812398,-2987.772442,-1332.370696,9696.697840
746.812714,-2528.115143,-962.267725,8956.491898
746.813030,-2145.067394,-666.185348,9252.574275
746.813346,-1915.238745,-1036.288319,8956.491898
746.813661,-1608.800546,-1036.288319,8142.265362
746.813977,-1302.362347,-1702.473667,8734.430116
746.814293,-1378.971896,-1850.514855,8956.491898
746.814608,-1915.238745,-2146.597232,8586.388927
746.814924,-2374.896044,-1554.432478,8660.409521
746.815240,-2298.286494,-1924.535449,9548.656652
746.815556,-2528.115143,-3256.906145,10066.800811
746.815871,-2911.162892,-3701.029710,10658.965565
746.816187,-3600.648841,-3997.112087,11325.150913
746.816503,-3447.429741,-4145.153275,11621.233289
746.816819,-3064.381992,-3775.050304,11843.295072
746.817134,-2757.943793,-2812.782580,11621.233289
746.817450,-2757.943793,-1036.288319,10732.986159
746.817766,-1915.238745,-444.123565,9918.759623
746.818081,-995.924147,-888.247130,9030.512492
746.818397,306.438199,-1332.370696,8512.368333
746.818713,1225.752797,-1998.556043,7994.224174
746.819029,1532.190996,-1406.391290,7624.121203
746.819344,2221.676944,-1702.473667,8216.285956
746.819660,2451.505594,-1776.494261,8882.471304
746.819976,1532.190996,-592.164754,8586.388927
746.820292,766.095498,-296.082377,8438.347739
746.820607,-612.876398,-1110.308913,9252.574275
746.820923,-995.924147,-1850.514855,9770.718434
746.821239,-1302.362347,-2738.761985,10288.862594
746.821554,-1838.629195,-3256.906145,11251.130318
746.821870,-2681.334243,-3849.070898,11399.171507
746.822186,-2757.943793,-3627.009116,11399.171507
746.822502,-2604.724693,-3330.926739,11177.109724
746.822817,-2451.505594,-2738.761985,10510.924376
746.823133,-2221.676944,-1184.329507,9992.780217
746.823449,-1915.238745,-1110.308913,8882.471304
746.823764,-842.705048,-888.247130,7772.162391
746.824080,919.314598,-962.267725,7476.080014
746.824396,1072.533697,-1776.494261,7105.977043
746.824712,536.266849,-1998.556043,7328.038826
746.825027,0.000000,-3256.906145,8068.244768
746.825343,-842.705048,-3701.029710,8808.450710
746.825659,-1378.971896,-3478.967927,9696.697840
746.825975,-1838.629195,-2590.720797,10732.986159
746.826290,-2451.505594,-2442.679609,10881.027347
746.826606,-2987.772442,-2368.659014,10584.944971
746.826922,-2757.943793,-1850.514855,9696.697840
746.827237,-2681.334243,-1776.494261,9030.512492
746.827553,-1838.629195,-1258.350101,8808.450710
746.827869,-1838.629195,-1480.411884,7846.182985
746.828185,-1915.238745,-2886.803174,7624.121203
746.828500,-2068.457845,-3627.009116,8512.368333
746.828816,-2528.115143,-4293.194464,9474.636058
746.829132,-3217.601092,-4441.235652,9918.759623
746.829447,-3370.820191,-4515.256246,10732.986159
746.829763,-3064.381992,-3849.070898,11029.068536
746.830079,-2757.943793,-2886.803174,10807.006753
746.830395,-2374.896044,-2220.617826,9844.739029
746.830710,-1378.971896,-1406.391290,9622.677246
746.831026,-766.095498,-888.247130,8586.388927
746.831342,-536.266849,-370.102971,7846.182985
746.831658,-306.438199,-0.000000,7476.080014
746.831973,-383.047749,-740.205942,7846.182985
746.832289,-536.266849,-1406.391290,7846.182985
746.832605,-1149.143247,-2368.659014,8068.244768
746.832920,-2068.457845,-3182.885551,8882.471304
746.833236,-2374.896044,-3849.070898,9844.739029
746.833552,-2757.943793,-3997.112087,10658.965565
746.833868,-3447.429741,-3997.112087,11399.171507
746.834183,-3983.696590,-3775.050304,11917.315666
746.834499,-3753.867940,-3182.885551,11695.253884
746.834815,-3830.477490,-2220.617826,10955.047942
746.835131,-3447.429741,-1480.411884,10658.965565
746.835446,-2451.505594,-1036.288319,9992.780217
746.835762,-1685.410096,-740.205942,9104.533087
746.836078,-766.095498,-370.102971,8290.306550
746.836393,153.219100,-444.123565,7698.141797
746.836709,383.047749,-962.267725,7254.018232
746.837025,766.095498,-1184.329507,7179.997637
746.837341,689.485948,-1628.453072,7624.121203
746.837656,0.000000,-1924.535449,8660.409521
746.837972,-1072.533697,-2960.823768,9622.677246
746.838288,-2451.505594,-3849.070898,10881.027347
746.838603,-3447.429741,-4737.318029,11621.233289
746.838919,-3830.477490,-4959.379811,12435.459826
746.839235,-4136.915689,-4293.194464,12805.562797
746.839551,-4673.182538,-3552.988522,12731.542202
746.839866,-3600.648841,-2516.700203,11103.089130
746.840182,-2298.286494,-1258.350101,9918.759623
746.840498,-995.924147,-666.185348,8882.471304
746.840814,459.657299,-814.226536,8068.244768
746.841129,1225.752797,-888.247130,7254.018232
746.841445,2374.896044,-1110.308913,6661.853478
746.841761,2987.772442,-1110.308913,6217.729913
746.842076,2911.162892,-1332.370696,6809.894666
746.842392,2145.067394,-1776.494261,7402.059420
746.842708,1149.143247,-2442.679609,8290.306550
746.843024,-459.657299,-2812.782580,9548.656652
746.843339,-1608.800546,-2960.823768,10362.883188
746.843655,-2451.505594,-2368.659014,10881.027347
746.843971,-3140.991542,-2368.659014,11325.150913
746.844287,-3064.381992,-2294.638420,11843.295072
746.844602,-3753.867940,-2146.597232,10807.006753
746.844918,-3753.867940,-2294.638420,10362.883188
746.845234,-3370.820191,-2442.679609,9992.780217
746.845549,-2911.162892,-2664.741391,9400.615463
746.845865,-2145.067394,-2738.761985,8660.409521
746.846181,-1838.629195,-2220.617826,8364.327145
746.846497,-1455.581446,-1850.514855,8142.265362
746.846812,-1378.971896,-1776.494261,8290.306550
746.847128,-1302.362347,-2368.659014,8586.388927
746.847444,-1762.019645,-2590.720797,9178.553681
746.847759,-1685.410096,-2664.741391,9474.636058
746.848075,-1915.238745,-2442.679609,9918.759623
746.848391,-2221.676944,-1998.556043,10066.800811
746.848707,-2145.067394,-1776.494261,10066.800811
746.849022,-2221.676944,-1554.432478,10140.821405
746.849338,-2068.457845,-1628.453072,9918.759623
746.849654,-1915.238745,-2072.576638,9622.677246
746.849970,-1762.019645,-2220.617826,9400.615463
746.850285,-919.314598,-3182.885551,8808.450710
746.850601,-1225.752797,-2812.782580,8882.471304
746.850917,-919.314598,-3108.864956,8882.471304
746.851232,-842.705048,-2664.741391,9326.594869
746.851548,-1532.190996,-3108.864956,9326.594869
746.851864,-1302.362347,-3552.988522,9918.759623
746.852180,-1302.362347,-2812.782580,9992.780217
746.852495,-1302.362347,-2294.638420,9844.739029
746.852811,-1225.752797,-1924.535449,10214.842000
746.853127,-689.485948,-1258.350101,10140.821405
746.853442,-612.876398,-1036.288319,9548.656652
746.853758,0.000000,-666.185348,9030.512492
746.854074,306.438199,-740.205942,8660.409521
746.854390,612.876398,-962.267725,8290.306550
746.854705,536.266849,-814.226536,8586.388927
746.855021,919.314598,-1184.329507,8142.265362
746.855337,229.828649,-1480.411884,8586.388927
746.855653,0.000000,-2294.638420,9104.533087
746.855968,-842.705048,-2442.679609,9622.677246
746.856284,-2068.457845,-2368.659014,10288.862594
746.856600,-2681.334243,-1924.535449,10584.944971
746.856915,-2987.772442,-1406.391290,10881.027347
746.857231,-2987.772442,-814.226536,10584.944971
746.857547,-2451.505594,-592.164754,10288.862594
746.857863,-2451.505594,-222.061783,9992.780217
746.858178,-1991.848295,-592.164754,9474.636058
746.858494,-1302.362347,-1110.308913,9178.553681
746.858810,-612.876398,-1332.370696,8956.491898
746.859126,-229.828649,-1332.370696,8808.450710
746.859441,-229.828649,-1406.391290,8660.409521
746.859757,-229.828649,-1406.391290,8808.450710
746.860073,-842.705048,-1554.432478,8956.491898
746.860388,-1225.752797,-1776.494261,9178.553681
746.860704,-1455.581446,-2294.638420,9696.697840
746.861020,-2145.067394,-2220.617826,9696.697840
746.861336,-3064.381992,-2368.659014,10288.862594
746.861651,-3447.429741,-2812.782580,10436.903782
746.861967,-3907.087040,-2442.679609,10807.006753
746.862283,-4749.792088,-2738.761985,10288.862594
746.862598,-4519.963438,-3108.864956,10436.903782
746.862914,-4213.525239,-3478.967927,10510.924376
746.863230,-3830.477490,-4145.153275,10288.862594
746.863546,-3064.381992,-4219.173869,9918.759623
746.863861,-2528.115143,-4293.194464,9696.697840
746.864177,-2221.676944,-4071.132681,9030.512492
746.864493,-1991.848295,-3775.050304,8808.450710
746.864809,-1532.190996,-3627.009116,8808.450710
746.865124,-1991.848295,-3404.947333,8956.491898
746.865440,-1991.848295,-3552.988522,9178.553681
746.865756,-1915.238745,-3478.967927,9326.594869
746.866071,-2145.067394,-3552.988522,9474.636058
746.866387,-2068.457845,-3330.926739,9992.780217
746.866703,-1991.848295,-3404.947333,9474.636058
746.867019,-1838.629195,-3182.885551,9104.533087
746.867334,-1608.800546,-3182.885551,9400.615463
746.867650,-842.705048,-3034.844362,9400.615463
746.867966,-842.705048,-2442.679609,8364.327145
746.868281,-306.438199,-2294.638420,8068.244768
746.868597,-383.047749,-2368.659014,7624.121203
746.868913,0.000000,-2220.617826,7624.121203
746.869229,-459.657299,-2368.659014,7698.141797
746.869544,-689.485948,-2960.823768,7846.182985
746.869860,-1149.143247,-3034.844362,8586.388927
746.870176,-2221.676944,-3404.947333,9326.594869
746.870492,-2911.162892,-3775.050304,9696.697840
746.870807,-3217.601092,-3701.029710,10362.883188
746.871123,-3294.210641,-3775.050304,10807.006753
746.871439,-3294.210641,-3701.029710,10510.924376
746.871754,-2911.162892,-3627.009116,11103.089130
746.872070,-2451.505594,-3627.009116,10510.924376
746.872386,-1608.800546,-2368.659014,9548.656652
746.872702,-919.314598,-1776.494261,9252.574275
746.873017,459.657299,-1184.329507,8290.306550
746.873333,919.314598,-222.061783,7254.018232
746.873649,1608.800546,444.123565,7105.977043
746.873965,1838.629195,666.185348,6513.812290
746.874280,1991.848295,592.164754,6439.791695
746.874596,1225.752797,-222.061783,7550.100608
746.874912,0.000000,-1776.494261,7994.224174
746.875227,-842.705048,-1628.453072,9178.553681
746.875543,-1991.848295,-3478.967927,10510.924376
746.875859,-2911.162892,-4071.132681,12509.480420
746.876175,-3600.648841,-4663.297435,12657.521608
746.876490,-4749.792088,-4811.338623,13619.789333
746.876806,-4596.572988,-3775.050304,13545.768739
746.877122,-4290.134789,-2886.803174,12731.542202
746.877437,-2757.943793,-962.267725,11177.109724
746.877753,-1608.800546,-0.000000,9696.697840
746.878069,-612.876398,962.267725,8068.244768
746.878384,766.095498,1258.350101,7328.038826
746.878700,1302.362347,1332.370696,5699.585753
746.879016,1378.971896,814.226536,5995.668130
746.879331,1608.800546,-296.082377,7031.956449
746.879647,459.657299,-1554.432478,8142.265362
746.879963,-536.266849,-2664.741391,9918.759623
746.880278,-2374.896044,-3701.029710,11399.171507
746.880594,-3677.258390,-3849.070898,12583.501014
746.880910,-4290.134789,-4071.132681,13323.706956
746.881225,-4673.182538,-2368.659014,12805.562797
746.881541,-4366.744339,-1850.514855,12065.356855
746.881857,-4060.306139,-1036.288319,11399.171507
746.882173,-3983.696590,-74.020594,9548.656652
746.882488,-2987.772442,-370.102971,8808.450710
746.882804,-1838.629195,-1110.308913,8660.409521
746.883120,-1225.752797,-1628.453072,8068.244768
746.883435,-1149.143247,-1998.556043,7846.182985
746.883751,-919.314598,-2146.597232,8586.388927
746.884067,-459.657299,-2072.576638,7624.121203
746.884382,-1072.533697,-1924.535449,8290.306550
746.884698,-1225.752797,-1850.514855,8808.450710
746.885014,-2221.676944,-2072.576638,8882.471304
746.885329,-2221.676944,-2368.659014,9474.636058
746.885645,-2528.115143,-3701.029710,10214.842000
746.885961,-2834.553343,-4071.132681,10807.006753
746.886276,-3140.991542,-3552.988522,11103.089130
746.886592,-3600.648841,-3330.926739,10288.862594
746.886908,-3064.381992,-3627.009116,10140.821405
746.887223,-1608.800546,-3256.906145,10140.821405
746.887539,-1762.019645,-2886.803174,8734.430116
746.887855,-1378.971896,-2368.659014,8068.244768
746.888170,-612.876398,-3256.906145,7476.080014
746.888486,229.828649,-4145.153275,7328.038826
746.888802,229.828649,-4441.235652,7772.162391
746.889118,-689.485948,-3997.112087,8882.471304
746.889433,-1225.752797,-4071.132681,9622.677246
746.889749,-1608.800546,-4145.153275,9770.718434
746.890065,-1762.019645,-3330.926739,9918.759623
746.890380,-1762.019645,-1924.535449,9770.718434
746.890696,-612.876398,-1406.391290,9474.636058
746.891012,-153.219100,-1924.535449,9252.574275
746.891327,612.876398,-2368.659014,8808.450710
746.891643,842.705048,-2220.617826,8438.347739
746.891959,1072.533697,-1554.432478,7698.141797
746.892274,766.095498,-1998.556043,7920.203579
746.892590,0.000000,-2146.597232,7994.224174
746.892906,-536.266849,-2368.659014,8216.285956
746.893221,-995.924147,-3182.885551,9326.594869
746.893537,-1915.238745,-3997.112087,10066.800811
746.893853,-2681.334243,-3552.988522,10584.944971
746.894168,-3064.381992,-2738.761985,10436.903782
746.894484,-3140.991542,-1850.514855,10140.821405
746.894800,-2604.724693,-666.185348,10510.924376
746.895116,-2834.553343,-0.000000,10288.862594
746.895431,-2145.067394,148.041188,9696.697840
746.895747,-1378.971896,-444.123565,9400.615463
746.896063,-1378.971896,-296.082377,9104.533087
746.896378,-536.266849,-296.082377,8734.430116
746.896694,536.266849,-444.123565,7624.121203
746.897010,76.609550,-148.041188,7772.162391
746.897325,76.609550,-518.144159,8142.265362
746.897641,-306.438199,-1850.514855,9474.636058
746.897957,-1455.581446,-1702.473667,9992.780217
746.898272,-3064.381992,-1406.391290,10362.883188
746.898588,-3524.039291,-1776.494261,11251.130318
746.898904,-3830.477490,-1332.370696,11621.233289
746.899219,-4749.792088,-740.205942,12139.377449
746.899535,-4443.353888,-740.205942,12583.501014
746.899851,-3677.258390,-1776.494261,11917.315666
746.900166,-3370.820191,-740.205942,10584.944971
746.900482,-2374.896044,-74.020594,10288.862594
746.900798,0.000000,-0.000000,9104.533087
746.901113,1532.190996,666.185348,8068.244768
746.901429,2068.457845,1332.370696,7402.059420
746.901745,3753.867940,962.267725,6957.935855
746.902061,4366.744339,740.205942,6143.709319
746.902376,2604.724693,666.185348,8216.285956
746.902692,1838.629195,-444.123565,8290.306550
746.903008,1608.800546,-1184.329507,9326.594869
746.903323,0.000000,-814.226536,10584.944971
746.903639,-995.924147,-1406.391290,11547.212695
746.903955,-1532.190996,-1628.453072,12361.439231
746.904270,-2451.505594,-1184.329507,11843.295072
746.904586,-3140.991542,-222.061783,11547.212695
746.904902,-1762.019645,-148.041188,11103.089130
746.905217,-995.924147,296.082377,9622.677246
746.905533,-383.047749,592.164754,8808.450710
746.905849,1532.190996,-740.205942,8216.285956
746.906164,2374.896044,-962.267725,7994.224174
746.906480,1915.238745,222.061783,8142.265362
746.906796,2068.457845,222.061783,8216.285956
746.907111,2451.505594,-0.000000,8438.347739
746.907427,1685.410096,222.061783,8882.471304
746.907743,1685.410096,-592.164754,9992.780217
746.908059,1302.362347,-1036.288319,9844.739029
746.908374,689.485948,222.061783,10140.821405
746.908690,612.876398,518.144159,10140.821405
746.909006,1685.410096,518.144159,9770.718434
746.909321,1302.362347,1628.453072,9400.615463
746.909637,1072.533697,-0.000000,9104.533087
746.909953,1532.190996,-1332.370696,9178.553681
746.910268,612.876398,-1406.391290,9030.512492
746.910584,383.047749,-1110.308913,9104.533087
746.910900,919.314598,-1702.473667,9548.656652
746.911215,689.485948,-1480.411884,9030.512492
746.911531,536.266849,-1776.494261,9104.533087
746.911847,76.609550,-2812.782580,9548.656652
746.912162,0.000000,-2442.679609,10362.883188
746.912478,-612.876398,-1332.370696,9770.718434
746.912794,0.000000,-1110.308913,9622.677246
746.913109,229.828649,-592.164754,10214.842000
746.913425,689.485948,-518.144159,9622.677246
746.913741,1072.533697,-814.226536,9326.594869
746.914056,1149.143247,-1184.329507,9178.553681
746.914372,1072.533697,-962.267725,9178.553681
746.914688,2145.067394,-444.123565,8512.368333
746.915004,2451.505594,-0.000000,8290.306550
746.915319,2221.676944,518.144159,7772.162391
746.915635,1225.752797,-518.144159,7994.224174
746.915951,766.095498,-1702.473667,8808.450710
746.916266,-459.657299,-1184.329507,9030.512492
746.916582,-536.266849,-888.247130,9104.533087
746.916898,-1302.362347,-0.000000,9844.739029
746.917213,-995.924147,-74.020594,10807.006753
746.917529,-1378.971896,-592.164754,10807.006753
746.917845,-1762.019645,-148.041188,10066.800811
746.918160,-2911.162892,-296.082377,10362.883188
746.918476,-2145.067394,-1110.308913,10436.903782
746.918792,-766.095498,-1036.288319,10288.862594
746.919107,-536.266849,-222.061783,9770.718434
746.919423,0.000000,296.082377,9400.615463
746.919739,919.314598,-148.041188,8660.409521
746.920054,383.047749,444.123565,8142.265362
746.920370,689.485948,592.164754,7698.141797
746.920686,995.924147,296.082377,8734.430116
746.921002,1072.533697,666.185348,8956.491898
746.921317,842.705048,296.082377,9178.553681
746.921633,536.266849,-148.041188,9474.636058
746.921949,-383.047749,-0.000000,10066.800811
746.922264,-689.485948,370.102971,9918.759623
746.922580,-459.657299,-296.082377,10658.965565
746.922896,-612.876398,-222.061783,10732.986159
746.923211,0.000000,-740.205942,11177.109724
746.923527,76.609550,-1332.370696,10362.883188
746.923843,-383.047749,-962.267725,9770.718434
746.924158,153.219100,-296.082377,9770.718434
746.924474,1455.581446,-0.000000,9326.594869
746.924790,1838.629195,592.164754,9178.553681
746.925105,1762.019645,444.123565,8808.450710
746.925421,1762.019645,370.102971,8734.430116
746.925737,1225.752797,-0.000000,8734.430116
746.926052,1072.533697,-0.000000,9030.512492
746.926368,1608.800546,-666.185348,10362.883188
746.926684,1149.143247,-444.123565,10732.986159
746.926999,689.485948,-296.082377,10510.924376
746.927315,842.705048,-1258.350101,10436.903782
746.927631,536.266849,-370.102971,10362.883188
746.927947,383.047749,-0.000000,9474.636058
746.928262,1685.410096,444.123565,9252.574275
746.928578,1608.800546,518.144159,9252.574275
746.928894,1838.629195,740.205942,8734.430116
746.929209,2145.067394,-148.041188,8364.327145
746.929525,1838.629195,-444.123565,8216.285956
746.929841,1455.581446,-74.020594,8734.430116
746.930156,766.095498,-0.000000,8956.491898
746.930472,919.314598,-444.123565,9622.677246
