#time,accel_x,accel_y,accel_z
715.964737,383.047749,-222.061783,9474.636058
715.965053,229.828649,-148.041188,9474.636058
715.965368,383.047749,-148.041188,9474.636058
715.965684,995.924147,-0.000000,9326.594869
715.966000,536.266849,-74.020594,9474.636058
715.966316,306.438199,-222.061783,9622.677246
715.966632,536.266849,-148.041188,9400.615463
715.966947,306.438199,-148.041188,9326.594869
715.967263,536.266849,-74.020594,9474.636058
715.967579,612.876398,-0.000000,9622.677246
715.967895,229.828649,-222.061783,9474.636058
715.968211,459.657299,-370.102971,9474.636058
715.968526,383.047749,-370.102971,9474.636058
715.968842,842.705048,-740.205942,9696.697840
715.969158,153.219100,-0.000000,9400.615463
715.969474,306.438199,-148.041188,9474.636058
715.969789,306.438199,-0.000000,9474.636058
715.970105,536.266849,370.102971,9178.553681
715.970421,383.047749,444.123565,9178.553681
715.970737,459.657299,296.082377,9178.553681
715.971053,-153.219100,-148.041188,9400.615463
715.971368,0.000000,-0.000000,9548.656652
715.971684,229.828649,-222.061783,9622.677246
715.972000,229.828649,-296.082377,9918.759623
715.972316,76.609550,-444.123565,9770.718434
715.972632,0.000000,-296.082377,9844.739029
715.972947,153.219100,-222.061783,9622.677246
715.973263,229.828649,222.061783,9474.636058
715.973579,229.828649,666.185348,9252.574275
715.973895,919.314598,888.247130,9104.533087
715.974211,766.095498,370.102971,9104.533087
715.974526,536.266849,592.164754,9326.594869
715.974842,612.876398,592.164754,9252.574275
715.975158,689.485948,296.082377,9104.533087
715.975474,459.657299,222.061783,9696.697840
715.975790,306.438199,-0.000000,9622.677246
715.976105,383.047749,-0.000000,9844.739029
715.976421,536.266849,444.123565,9918.759623
715.976737,1149.143247,296.082377,10066.800811
715.977053,1072.533697,666.185348,9474.636058
715.977368,1378.971896,1036.288319,9474.636058
715.977684,1532.190996,1480.411884,9474.636058
715.978000,1685.410096,1480.411884,9104.533087
715.978316,1915.238745,1554.432478,9030.512492
715.978632,2298.286494,1554.432478,8882.471304
715.978947,2451.505594,1776.494261,8956.491898
715.979263,2528.115143,1776.494261,9178.553681
715.979579,2374.896044,1924.535449,9474.636058
715.979895,2451.505594,1776.494261,9104.533087
715.980211,2451.505594,1924.535449,9400.615463
715.980526,2834.553343,2368.659014,9474.636058
715.980842,2757.943793,2368.659014,9474.636058
715.981158,2911.162892,2442.679609,9474.636058
715.981474,2987.772442,2368.659014,9400.615463
715.981790,3217.601092,2590.720797,9252.574275
715.982105,3064.381992,2812.782580,9030.512492
715.982421,3447.429741,2812.782580,9104.533087
715.982737,3524.039291,2960.823768,9326.594869
715.983053,3370.820191,2812.782580,9326.594869
715.983369,3217.601092,2664.741391,9400.615463
715.983684,3294.210641,2738.761985,9400.615463
715.984000,3140.991542,2886.803174,9474.636058
715.984316,2987.772442,2812.782580,9548.656652
715.984632,3140.991542,2738.761985,9770.718434
715.984947,2834.553343,2738.761985,9696.697840
715.985263,2451.505594,2368.659014,9844.739029
715.985579,2757.943793,2590.720797,10362.883188
715.985895,2681.334243,2146.597232,10214.842000
715.986211,2528.115143,2294.638420,10066.800811
715.986526,2911.162892,2368.659014,10140.821405
715.986842,2451.505594,2516.700203,9992.780217
715.987158,3370.820191,2368.659014,10140.821405
715.987474,2757.943793,2368.659014,9918.759623
715.987790,2604.724693,2368.659014,9918.759623
715.988105,2757.943793,2368.659014,9548.656652
715.988421,2681.334243,2368.659014,9548.656652
715.988737,2528.115143,2146.597232,9548.656652
715.989053,2834.553343,2220.617826,9474.636058
715.989369,2374.896044,2368.659014,9696.697840
715.989684,1838.629195,2072.576638,9548.656652
715.990000,1532.190996,1406.391290,10066.800811
715.990316,1225.752797,1184.329507,10510.924376
715.990632,536.266849,592.164754,10658.965565
715.990948,459.657299,-0.000000,10955.047942
715.991263,689.485948,-518.144159,10881.027347
715.991579,689.485948,-592.164754,11251.130318
715.991895,1302.362347,-296.082377,10732.986159
715.992211,1685.410096,370.102971,10362.883188
715.992526,2221.676944,814.226536,9548.656652
715.992842,2987.772442,1998.556043,9030.512492
715.993158,3753.867940,2664.741391,8216.285956
715.993474,4213.525239,2664.741391,7402.059420
715.993790,4596.572988,2664.741391,7179.997637
715.994105,4519.963438,2072.576638,7105.977043
715.994421,3830.477490,1332.370696,7328.038826
715.994737,2834.553343,740.205942,8290.306550
715.995053,2374.896044,444.123565,8660.409521
715.995369,1455.581446,-0.000000,9326.594869
715.995684,306.438199,-0.000000,9844.739029
715.996000,0.000000,-370.102971,10140.821405
715.996316,-919.314598,-518.144159,10362.883188
715.996632,-995.924147,-1258.350101,10510.924376
715.996948,-766.095498,-1554.432478,10732.986159
715.997263,-229.828649,-1184.329507,10732.986159
715.997579,229.828649,-962.267725,10362.883188
715.997895,1532.190996,-0.000000,9622.677246
715.998211,2451.505594,1110.308913,9030.512492
715.998527,3677.258390,2368.659014,8290.306550
715.998842,4749.792088,3330.926739,7179.997637
715.999158,5898.935335,3627.009116,7031.956449
715.999474,6281.983084,4071.132681,6291.750507
715.999790,6358.592633,4367.215058,6291.750507
716.000106,6281.983084,4145.153275,6661.853478
716.000421,5822.325785,3701.029710,7031.956449
716.000737,4903.011187,2738.761985,7994.224174
716.001053,3294.210641,1776.494261,9030.512492
716.001369,1991.848295,370.102971,10584.944971
716.001684,612.876398,-666.185348,11769.274478
716.002000,-459.657299,-1332.370696,12583.501014
716.002316,-1149.143247,-888.247130,12879.583391
716.002632,-995.924147,-0.000000,13027.624579
716.002948,-229.828649,666.185348,12361.439231
716.003263,536.266849,2072.576638,11325.150913
716.003579,1532.190996,3182.885551,10066.800811
716.003895,2911.162892,3849.070898,8808.450710
716.004211,4443.353888,4515.256246,7402.059420
716.004527,5745.716235,4145.153275,7328.038826
716.004842,6741.640382,3923.091493,7179.997637
716.005158,6588.421283,3404.947333,7550.100608
716.005474,5592.497135,2664.741391,8586.388927
716.005790,5209.449386,2590.720797,9548.656652
716.006106,4290.134789,2886.803174,10288.862594
716.006421,3217.601092,2516.700203,11325.150913
716.006737,2068.457845,2368.659014,12065.356855
716.007053,1225.752797,2664.741391,11547.212695
716.007369,536.266849,3108.864956,11029.068536
716.007685,842.705048,3108.864956,10881.027347
716.008000,1225.752797,2590.720797,10288.862594
716.008316,1915.238745,2146.597232,9770.718434
716.008632,1149.143247,2146.597232,9474.636058
716.008948,1149.143247,1998.556043,9400.615463
716.009263,1608.800546,1850.514855,9326.594869
716.009579,1762.019645,2220.617826,9474.636058
716.009895,1838.629195,2738.761985,9104.533087
716.010211,995.924147,2368.659014,9104.533087
716.010527,766.095498,1924.535449,9844.739029
716.010842,1149.143247,1480.411884,10214.842000
716.011158,1838.629195,814.226536,9992.780217
716.011474,1455.581446,518.144159,10436.903782
716.011790,1149.143247,888.247130,11029.068536
716.012106,1608.800546,1184.329507,10658.965565
716.012421,2451.505594,1480.411884,10288.862594
716.012737,3217.601092,2368.659014,9548.656652
716.013053,3217.601092,3182.885551,7920.203579
716.013369,3830.477490,3552.988522,7179.997637
716.013685,4749.792088,2738.761985,6809.894666
716.014000,4979.620737,2368.659014,6513.812290
716.014316,4213.525239,2072.576638,6957.935855
716.014632,3524.039291,222.061783,8216.285956
716.014948,2528.115143,-1258.350101,9770.718434
716.015264,1378.971896,-1776.494261,10658.965565
716.015579,0.000000,-1332.370696,11325.150913
716.015895,-766.095498,-222.061783,11695.253884
716.016211,-306.438199,-148.041188,11029.068536
716.016527,689.485948,-0.000000,10140.821405
716.016842,766.095498,-0.000000,9918.759623
716.017158,995.924147,-74.020594,9548.656652
716.017474,2068.457845,-444.123565,9178.553681
716.017790,3217.601092,-1184.329507,9030.512492
716.018106,3064.381992,370.102971,8142.265362
716.018421,3524.039291,2072.576638,7402.059420
716.018737,3983.696590,2442.679609,7031.956449
716.019053,4673.182538,1776.494261,7105.977043
716.019369,3753.867940,814.226536,7105.977043
716.019685,2834.553343,370.102971,7846.182985
716.020000,1991.848295,-518.144159,9622.677246
716.020316,1302.362347,-1110.308913,10140.821405
716.020632,0.000000,-74.020594,9918.759623
716.020948,-1149.143247,888.247130,9326.594869
716.021264,-1762.019645,-370.102971,10436.903782
716.021579,-1915.238745,-1628.453072,11103.089130
716.021895,-2528.115143,-2294.638420,11103.089130
716.022211,-2604.724693,-2664.741391,11103.089130
716.022527,-1991.848295,-3478.967927,11695.253884
716.022842,-919.314598,-2812.782580,11769.274478
716.023158,-229.828649,-444.123565,10362.883188
716.023474,1225.752797,1036.288319,8438.347739
716.023789,1762.019645,1406.391290,7920.203579
716.024105,1991.848295,1258.350101,7698.141797
716.024421,2145.067394,1036.288319,8512.368333
716.024737,2298.286494,444.123565,8438.347739
716.025052,2528.115143,148.041188,8956.491898
716.025368,1762.019645,222.061783,8734.430116
716.025684,1455.581446,370.102971,9474.636058
716.025999,1455.581446,888.247130,9400.615463
716.026315,536.266849,296.082377,9548.656652
716.026631,-383.047749,-296.082377,10066.800811
716.026947,-995.924147,-962.267725,10807.006753
716.027262,-612.876398,-1332.370696,11177.109724
716.027578,-919.314598,-1184.329507,11177.109724
716.027894,-1072.533697,-666.185348,10732.986159
716.028209,-612.876398,-888.247130,9770.718434
716.028525,-689.485948,-0.000000,9400.615463
716.028841,-459.657299,-0.000000,9178.553681
716.029157,-689.485948,222.061783,9030.512492
716.029472,0.000000,740.205942,8364.327145
716.029788,-229.828649,444.123565,8660.409521
716.030104,0.000000,1184.329507,8882.471304
716.030419,0.000000,1110.308913,8956.491898
716.030735,689.485948,518.144159,9030.512492
716.031051,229.828649,-0.000000,9474.636058
716.031366,306.438199,-296.082377,9178.553681
716.031682,383.047749,-740.205942,9844.739029
716.031998,459.657299,-370.102971,9918.759623
716.032314,383.047749,592.164754,9918.759623
716.032629,766.095498,1036.288319,9178.553681
716.032945,919.314598,1480.411884,8882.471304
716.033261,995.924147,1702.473667,8734.430116
716.033576,76.609550,1554.432478,8364.327145
716.033892,689.485948,962.267725,8364.327145
716.034208,306.438199,888.247130,8438.347739
716.034524,-229.828649,1184.329507,8512.368333
716.034839,-689.485948,370.102971,9104.533087
716.035155,-536.266849,-592.164754,10288.862594
716.035471,-536.266849,-1110.308913,10066.800811
716.035786,-1225.752797,-888.247130,10510.924376
716.036102,-995.924147,-1332.370696,11029.068536
716.036418,-689.485948,-1406.391290,11177.109724
716.036734,153.219100,-0.000000,10658.965565
716.037049,766.095498,1036.288319,9770.718434
716.037365,1685.410096,1850.514855,8882.471304
716.037681,2681.334243,1480.411884,8364.327145
716.037996,2911.162892,1258.350101,8290.306550
716.038312,2451.505594,1258.350101,7994.224174
716.038628,2681.334243,814.226536,8882.471304
716.038943,2221.676944,814.226536,8586.388927
716.039259,1455.581446,1258.350101,8882.471304
716.039575,995.924147,740.205942,9474.636058
716.039891,919.314598,-296.082377,9992.780217
716.040206,0.000000,-888.247130,10955.047942
716.040522,-306.438199,-1776.494261,11251.130318
716.040838,-842.705048,-1998.556043,11695.253884
716.041153,-842.705048,-1998.556043,11547.212695
716.041469,-689.485948,-296.082377,10881.027347
716.041785,-153.219100,-0.000000,10140.821405
716.042101,689.485948,444.123565,10066.800811
716.042416,1225.752797,740.205942,9252.574275
716.042732,1225.752797,444.123565,8290.306550
716.043048,1608.800546,-222.061783,8734.430116
716.043363,2068.457845,-74.020594,8438.347739
716.043679,2068.457845,592.164754,7920.203579
716.043995,2068.457845,962.267725,7772.162391
716.044311,1838.629195,-148.041188,8734.430116
716.044626,1302.362347,-1036.288319,9548.656652
716.044942,0.000000,-1702.473667,9696.697840
716.045258,-1302.362347,-2072.576638,10362.883188
716.045573,-1455.581446,-2516.700203,11399.171507
716.045889,-2068.457845,-1702.473667,10955.047942
716.046205,-1991.848295,-518.144159,10362.883188
716.046520,-1455.581446,-1036.288319,9992.780217
716.046836,-229.828649,-740.205942,9770.718434
716.047152,76.609550,-666.185348,8808.450710
716.047468,459.657299,-592.164754,8364.327145
716.047783,1149.143247,-888.247130,8808.450710
716.048099,1532.190996,-444.123565,7772.162391
716.048415,1608.800546,148.041188,7476.080014
716.048730,1762.019645,148.041188,7772.162391
716.049046,1762.019645,-814.226536,8068.244768
716.049362,1225.752797,-666.185348,8956.491898
716.049678,-536.266849,-1628.453072,9918.759623
716.049993,-612.876398,-2220.617826,10732.986159
716.050309,-766.095498,-1554.432478,10807.006753
716.050625,-1302.362347,-814.226536,10510.924376
716.050940,-995.924147,-222.061783,10140.821405
716.051256,0.000000,-74.020594,10288.862594
716.051572,-153.219100,-296.082377,9474.636058
716.051888,229.828649,-666.185348,8734.430116
716.052203,919.314598,-740.205942,8586.388927
716.052519,1149.143247,-518.144159,8290.306550
716.052835,1225.752797,-0.000000,8142.265362
716.053150,1302.362347,444.123565,8438.347739
716.053466,1378.971896,-0.000000,8882.471304
716.053782,995.924147,-444.123565,9030.512492
716.054097,-306.438199,-1406.391290,9696.697840
716.054413,-536.266849,-2146.597232,11029.068536
716.054729,-689.485948,-2368.659014,11473.192101
716.055045,-1225.752797,-1110.308913,10732.986159
716.055360,-995.924147,370.102971,10732.986159
716.055676,0.000000,444.123565,10955.047942
716.055992,766.095498,1036.288319,9548.656652
716.056307,536.266849,1480.411884,8586.388927
716.056623,1149.143247,1036.288319,7994.224174
716.056939,2068.457845,370.102971,8364.327145
716.057255,1532.190996,962.267725,7994.224174
716.057570,2298.286494,1776.494261,8068.244768
716.057886,1685.410096,-0.000000,8734.430116
716.058202,1225.752797,-148.041188,9178.553681
716.058517,536.266849,-740.205942,9548.656652
716.058833,-459.657299,-1628.453072,11103.089130
716.059149,-995.924147,-1036.288319,11843.295072
716.059465,-1225.752797,-814.226536,12139.377449
716.059780,-1225.752797,666.185348,11325.150913
716.060096,-766.095498,1332.370696,10140.821405
716.060412,689.485948,1628.453072,9770.718434
716.060727,1838.629195,1258.350101,8660.409521
716.061043,1991.848295,2072.576638,8142.265362
716.061359,2987.772442,1628.453072,8290.306550
716.061674,2911.162892,1628.453072,7179.997637
716.061990,2757.943793,2368.659014,7698.141797
716.062306,2681.334243,2220.617826,8290.306550
716.062622,2298.286494,888.247130,8438.347739
716.062937,1072.533697,-74.020594,9622.677246
716.063253,-459.657299,-666.185348,10955.047942
716.063569,-995.924147,-1480.411884,11695.253884
716.063884,-1455.581446,-1554.432478,12065.356855
716.064200,-1838.629195,-0.000000,11695.253884
716.064516,-995.924147,-0.000000,11251.130318
716.064832,-842.705048,1110.308913,10807.006753
716.065147,536.266849,1110.308913,9548.656652
716.065463,612.876398,962.267725,8882.471304
716.065779,1302.362347,740.205942,8660.409521
716.066094,2374.896044,-0.000000,8142.265362
716.066410,2528.115143,666.185348,7476.080014
716.066726,2528.115143,1628.453072,7254.018232
716.067041,2604.724693,814.226536,7550.100608
716.067357,1991.848295,148.041188,8734.430116
716.067673,612.876398,-1036.288319,9326.594869
716.067989,-536.266849,-1776.494261,10362.883188
716.068304,-1532.190996,-2072.576638,11991.336260
716.068620,-2145.067394,-1924.535449,11695.253884
716.068936,-2528.115143,-296.082377,11547.212695
716.069251,-2298.286494,-222.061783,11177.109724
716.069567,-1378.971896,-222.061783,10584.944971
716.069883,-766.095498,296.082377,9400.615463
716.070199,-306.438199,-0.000000,8660.409521
716.070514,1455.581446,-1110.308913,8512.368333
716.070830,1685.410096,-592.164754,7994.224174
716.071146,2068.457845,296.082377,7105.977043
716.071461,2757.943793,148.041188,7105.977043
716.071777,2757.943793,-0.000000,7994.224174
716.072093,1915.238745,-888.247130,8882.471304
716.072409,536.266849,-1776.494261,9326.594869
716.072724,-306.438199,-2516.700203,10584.944971
716.073040,-995.924147,-2516.700203,11399.171507
716.073356,-1455.581446,-1184.329507,10807.006753
716.073671,-1149.143247,296.082377,9918.759623
716.073987,-842.705048,370.102971,9992.780217
716.074303,0.000000,-74.020594,9844.739029
716.074618,229.828649,-148.041188,8882.471304
716.074934,766.095498,-1184.329507,8512.368333
716.075250,1225.752797,-1480.411884,8586.388927
716.075566,1455.581446,-740.205942,7772.162391
716.075881,1685.410096,-370.102971,7772.162391
716.076197,1838.629195,-814.226536,8216.285956
716.076513,1378.971896,-1184.329507,9030.512492
716.076828,229.828649,-2220.617826,9770.718434
716.077144,-536.266849,-2516.700203,10436.903782
716.077460,-1149.143247,-2886.803174,11695.253884
716.077776,-1378.971896,-1998.556043,11473.192101
716.078091,-1149.143247,-296.082377,10288.862594
716.078407,-383.047749,444.123565,10066.800811
716.078723,0.000000,296.082377,9696.697840
716.079038,536.266849,296.082377,8956.491898
716.079354,1532.190996,222.061783,8364.327145
716.079670,1915.238745,-222.061783,8142.265362
716.079986,2374.896044,222.061783,7698.141797
716.080301,2604.724693,518.144159,7105.977043
716.080617,2451.505594,666.185348,7254.018232
716.080933,1838.629195,-370.102971,9030.512492
716.081248,612.876398,-1776.494261,9326.594869
716.081564,-995.924147,-1850.514855,9844.739029
716.081880,-1532.190996,-2294.638420,11695.253884
716.082195,-2145.067394,-2368.659014,12509.480420
716.082511,-2221.676944,-814.226536,12139.377449
716.082827,-2374.896044,518.144159,10807.006753
716.083143,-1302.362347,1036.288319,11103.089130
716.083458,-229.828649,1332.370696,9696.697840
716.083774,766.095498,1258.350101,8586.388927
716.084090,1608.800546,1036.288319,8364.327145
716.084405,2987.772442,1184.329507,7920.203579
716.084721,3217.601092,2220.617826,6513.812290
716.085037,3294.210641,2442.679609,6587.832884
716.085353,3064.381992,1628.453072,7698.141797
716.085668,2604.724693,-0.000000,8808.450710
716.085984,919.314598,-444.123565,10214.842000
716.086300,0.000000,-1332.370696,11177.109724
716.086615,-919.314598,-1258.350101,12065.356855
716.086931,-1608.800546,-74.020594,11843.295072
716.087247,-1838.629195,814.226536,11695.253884
716.087563,-1455.581446,962.267725,11695.253884
716.087878,-689.485948,1258.350101,11103.089130
716.088194,-306.438199,1184.329507,9696.697840
716.088510,689.485948,518.144159,9030.512492
716.088825,1915.238745,-0.000000,8956.491898
716.089141,2528.115143,962.267725,7624.121203
716.089457,2757.943793,1850.514855,6809.894666
716.089772,3217.601092,2072.576638,7031.956449
716.090088,3064.381992,518.144159,7994.224174
716.090404,1991.848295,-740.205942,8882.471304
716.090720,459.657299,-1702.473667,10362.883188
716.091035,-229.828649,-1998.556043,11103.089130
716.091351,-1302.362347,-1332.370696,11103.089130
716.091667,-2145.067394,-148.041188,11399.171507
716.091982,-1838.629195,370.102971,11399.171507
716.092298,-1072.533697,666.185348,10510.924376
716.092614,-1149.143247,1110.308913,9548.656652
716.092930,-766.095498,666.185348,9326.594869
716.093245,612.876398,-814.226536,9400.615463
716.093561,1532.190996,-814.226536,8438.347739
716.093877,1991.848295,962.267725,6957.935855
716.094192,2374.896044,962.267725,6957.935855
716.094508,2451.505594,444.123565,7698.141797
716.094824,2068.457845,-444.123565,8512.368333
716.095140,153.219100,-1554.432478,10066.800811
716.095455,-612.876398,-2368.659014,10881.027347
716.095771,-1072.533697,-2294.638420,11547.212695
716.096087,-1455.581446,-1406.391290,11621.233289
716.096402,-1608.800546,-222.061783,11473.192101
716.096718,-1455.581446,888.247130,10584.944971
716.097034,-842.705048,1258.350101,9400.615463
716.097349,536.266849,444.123565,9178.553681
716.097665,1149.143247,-296.082377,9252.574275
716.097981,1302.362347,-148.041188,8512.368333
716.098297,2068.457845,-740.205942,7254.018232
716.098612,2757.943793,370.102971,7179.997637
716.098928,2451.505594,-148.041188,7105.977043
716.099244,2451.505594,-814.226536,8438.347739
716.099559,1455.581446,-2294.638420,9252.574275
716.099875,-689.485948,-3775.050304,9770.718434
716.100191,-1532.190996,-3849.070898,11843.295072
716.100507,-2068.457845,-3034.844362,12065.356855
716.100822,-2298.286494,-1258.350101,11695.253884
716.101138,-2221.676944,-0.000000,11177.109724
716.101454,-1225.752797,-0.000000,10214.842000
716.101769,-383.047749,-0.000000,9770.718434
716.102085,229.828649,-74.020594,8882.471304
716.102401,995.924147,-740.205942,8290.306550
716.102717,2374.896044,-592.164754,7846.182985
716.103032,2681.334243,222.061783,6957.935855
716.103348,3217.601092,1110.308913,6587.832884
716.103664,2987.772442,1110.308913,7105.977043
716.103979,2298.286494,-74.020594,8290.306550
716.104295,153.219100,-1628.453072,9326.594869
716.104611,-1225.752797,-2368.659014,10807.006753
716.104926,-1838.629195,-2886.803174,11843.295072
716.105242,-2451.505594,-2146.597232,12065.356855
716.105558,-2298.286494,-222.061783,11769.274478
716.105874,-2068.457845,444.123565,10807.006753
716.106189,-1072.533697,1406.391290,9992.780217
716.106505,0.000000,1184.329507,9622.677246
716.106821,766.095498,222.061783,8586.388927
716.107136,1685.410096,296.082377,7920.203579
716.107452,2757.943793,814.226536,7105.977043
716.107768,3447.429741,1702.473667,6439.791695
716.108084,4060.306139,1776.494261,6661.853478
716.108399,3447.429741,740.205942,7328.038826
716.108715,2298.286494,-222.061783,8808.450710
716.109031,689.485948,-1924.535449,9992.780217
716.109346,-536.266849,-2220.617826,11695.253884
716.109662,-1685.410096,-1406.391290,12213.398043
716.109978,-2221.676944,-0.000000,11473.192101
716.110294,-1608.800546,1184.329507,11695.253884
716.110609,-766.095498,1184.329507,11251.130318
716.110925,-229.828649,1628.453072,10584.944971
716.111241,76.609550,1628.453072,9400.615463
716.111556,1302.362347,666.185348,8438.347739
716.111872,2604.724693,-0.000000,8142.265362
716.112188,2604.724693,1776.494261,7402.059420
716.112503,2987.772442,2294.638420,6809.894666
716.112819,3447.429741,1184.329507,8216.285956
716.113135,2298.286494,444.123565,9178.553681
716.113451,612.876398,-1258.350101,9548.656652
716.113766,153.219100,-1628.453072,10955.047942
716.114082,-919.314598,-1776.494261,12065.356855
716.114398,-1762.019645,-518.144159,11843.295072
716.114713,-1762.019645,592.164754,11473.192101
716.115029,-1072.533697,814.226536,11473.192101
716.115345,-383.047749,1258.350101,10807.006753
716.115661,-383.047749,1258.350101,9474.636058
716.115976,689.485948,592.164754,9252.574275
716.116292,2145.067394,-0.000000,8438.347739
716.116608,2374.896044,740.205942,7105.977043
716.116923,2911.162892,1554.432478,6883.915261
716.117239,2987.772442,1110.308913,7328.038826
716.117555,3140.991542,740.205942,7846.182985
716.117871,1838.629195,-1258.350101,8734.430116
716.118186,0.000000,-1998.556043,10288.862594
716.118502,-842.705048,-2664.741391,11769.274478
716.118818,-1685.410096,-1998.556043,12065.356855
716.119133,-2221.676944,-666.185348,11843.295072
716.119449,-2221.676944,148.041188,11695.253884
716.119765,-919.314598,1258.350101,10732.986159
716.120080,-383.047749,1628.453072,9326.594869
716.120396,306.438199,740.205942,8290.306550
716.120712,1455.581446,-444.123565,8808.450710
716.121028,1915.238745,-0.000000,7179.997637
716.121343,1685.410096,222.061783,7031.956449
716.121659,2681.334243,-148.041188,7476.080014
716.121975,2068.457845,-148.041188,7846.182985
716.122290,1225.752797,-1184.329507,7920.203579
716.122606,0.000000,-2812.782580,9918.759623
716.122922,-1149.143247,-3775.050304,11251.130318
716.123238,-2374.896044,-3108.864956,11769.274478
716.123553,-2681.334243,-2146.597232,11991.336260
716.123869,-2681.334243,-444.123565,10584.944971
716.124185,-1532.190996,-296.082377,10584.944971
716.124500,-1149.143247,-0.000000,9844.739029
716.124816,-995.924147,-518.144159,9104.533087
716.125132,-229.828649,-1036.288319,8512.368333
716.125447,1149.143247,-1702.473667,7550.100608
716.125763,1685.410096,-1258.350101,7254.018232
716.126079,2451.505594,-0.000000,7179.997637
716.126394,2681.334243,370.102971,6957.935855
716.126710,2451.505594,-370.102971,7994.224174
716.127026,842.705048,-1998.556043,9178.553681
716.127342,-383.047749,-2960.823768,10066.800811
716.127657,-1302.362347,-3108.864956,11399.171507
716.127973,-2068.457845,-2442.679609,11621.233289
716.128289,-2374.896044,-888.247130,11325.150913
716.128604,-1991.848295,592.164754,11029.068536
716.128920,-1302.362347,1036.288319,10214.842000
716.129236,-536.266849,962.267725,9400.615463
716.129551,0.000000,296.082377,8882.471304
716.129867,1455.581446,-74.020594,8068.244768
716.130183,1991.848295,-0.000000,7994.224174
716.130498,2451.505594,592.164754,7105.977043
716.130814,3140.991542,1184.329507,7476.080014
716.131130,3753.867940,1258.350101,8068.244768
716.131445,2374.896044,-296.082377,9030.512492
716.131761,1378.971896,-962.267725,10066.800811
716.132077,383.047749,-1406.391290,10807.006753
716.132393,-383.047749,-1554.432478,11843.295072
716.132708,-1225.752797,-0.000000,11843.295072
716.133024,-766.095498,1480.411884,11325.150913
716.133340,-229.828649,1776.494261,11029.068536
716.133655,0.000000,2072.576638,10066.800811
716.133971,153.219100,1776.494261,9474.636058
716.134287,1378.971896,962.267725,8660.409521
716.134602,1532.190996,740.205942,8734.430116
716.134918,1608.800546,814.226536,7994.224174
716.135234,2451.505594,814.226536,7772.162391
716.135549,2681.334243,888.247130,8364.327145
716.135865,2068.457845,-222.061783,8956.491898
716.136181,919.314598,-1184.329507,10066.800811
716.136497,76.609550,-1850.514855,10584.944971
716.136812,-995.924147,-1702.473667,11843.295072
716.137128,-1532.190996,-888.247130,11769.274478
716.137444,-842.705048,666.185348,11325.150913
716.137759,-842.705048,1628.453072,10436.903782
716.138075,-229.828649,888.247130,10214.842000
716.138391,0.000000,1554.432478,9326.594869
716.138706,919.314598,814.226536,8882.471304
716.139022,1378.971896,148.041188,8660.409521
716.139338,1915.238745,296.082377,7846.182985
716.139653,2298.286494,1406.391290,7254.018232
716.139969,2451.505594,1406.391290,7105.977043
716.140285,2451.505594,370.102971,7846.182985
716.140600,1685.410096,-740.205942,8660.409521
716.140916,76.609550,-1776.494261,9844.739029
716.141232,-689.485948,-2368.659014,11399.171507
716.141548,-1608.800546,-1850.514855,11621.233289
716.141863,-2374.896044,-888.247130,11325.150913
716.142179,-2221.676944,666.185348,11103.089130
716.142495,-995.924147,1184.329507,10510.924376
716.142810,-766.095498,1628.453072,9622.677246
716.143126,-383.047749,1036.288319,9326.594869
716.143442,459.657299,-222.061783,8216.285956
716.143757,1608.800546,-444.123565,7698.141797
716.144073,1762.019645,740.205942,6883.915261
716.144389,2221.676944,666.185348,7105.977043
716.144704,2528.115143,518.144159,7402.059420
716.145020,1762.019645,-148.041188,8438.347739
716.145336,229.828649,-1776.494261,9474.636058
716.145652,-689.485948,-2960.823768,10584.944971
716.145967,-1378.971896,-3034.844362,11843.295072
716.146283,-2604.724693,-1776.494261,11991.336260
716.146599,-2528.115143,-370.102971,11769.274478
716.146914,-1762.019645,-0.000000,11103.089130
716.147230,-612.876398,-0.000000,10140.821405
716.147546,-842.705048,148.041188,9252.574275
716.147861,0.000000,-592.164754,8956.491898
716.148177,1072.533697,-1110.308913,8660.409521
716.148493,1762.019645,-592.164754,7698.141797
716.148808,2451.505594,-74.020594,7328.038826
716.149124,2911.162892,-0.000000,7624.121203
716.149440,2604.724693,-740.205942,7772.162391
716.149755,1608.800546,-1850.514855,9030.512492
716.150071,689.485948,-2590.720797,10214.842000
716.150387,-229.828649,-3034.844362,11325.150913
716.150703,-842.705048,-2516.700203,11177.109724
716.151018,-1302.362347,-592.164754,11251.130318
716.151334,-766.095498,222.061783,10881.027347
716.151650,0.000000,370.102971,10584.944971
716.151965,0.000000,1036.288319,9918.759623
716.152281,536.266849,-0.000000,8734.430116
716.152597,1532.190996,-888.247130,8808.450710
716.152912,1991.848295,-444.123565,8734.430116
716.153228,2451.505594,444.123565,7254.018232
716.153544,3217.601092,1332.370696,7179.997637
716.153859,3447.429741,518.144159,7476.080014
716.154175,2374.896044,-148.041188,8216.285956
716.154491,1762.019645,-1184.329507,9770.718434
716.154807,536.266849,-2442.679609,10732.986159
716.155122,0.000000,-2368.659014,11621.233289
716.155438,-842.705048,-518.144159,11621.233289
716.155754,-1072.533697,1036.288319,9992.780217
716.156069,-689.485948,1406.391290,10510.924376
716.156385,0.000000,1258.350101,10362.883188
716.156701,306.438199,1184.329507,9622.677246
716.157016,459.657299,740.205942,8734.430116
716.157332,1532.190996,-74.020594,8364.327145
716.157648,1991.848295,222.061783,7846.182985
716.157963,1991.848295,1554.432478,7179.997637
716.158279,2451.505594,1036.288319,7402.059420
716.158595,2145.067394,370.102971,8216.285956
716.158910,766.095498,-814.226536,9474.636058
716.159226,-766.095498,-2146.597232,10362.883188
716.159542,-1302.362347,-2294.638420,11769.274478
716.159858,-1685.410096,-1258.350101,12065.356855
716.160173,-1838.629195,740.205942,11621.233289
716.160489,-1532.190996,1480.411884,10436.903782
716.160805,-536.266849,1184.329507,10288.862594
716.161120,-153.219100,1332.370696,9548.656652
716.161436,-153.219100,518.144159,8956.491898
716.161752,1072.533697,-0.000000,9178.553681
716.162067,1608.800546,370.102971,7624.121203
716.162383,2068.457845,1702.473667,7846.182985
716.162699,2528.115143,1924.535449,6809.894666
716.163014,2298.286494,1702.473667,7550.100608
716.163330,1532.190996,-222.061783,9252.574275
716.163646,0.000000,-1554.432478,10066.800811
716.163962,-766.095498,-2812.782580,11695.253884
716.164277,-1378.971896,-2516.700203,12361.439231
716.164593,-2145.067394,-1036.288319,11991.336260
716.164909,-2145.067394,518.144159,11325.150913
716.165224,-919.314598,888.247130,11251.130318
716.165540,-689.485948,1184.329507,10584.944971
716.165856,76.609550,1406.391290,9474.636058
716.166171,766.095498,888.247130,9030.512492
716.166487,1685.410096,-148.041188,8068.244768
716.166803,2298.286494,592.164754,7328.038826
716.167118,2681.334243,518.144159,7105.977043
716.167434,3064.381992,1258.350101,7550.100608
716.167750,2681.334243,-0.000000,8290.306550
716.168065,1302.362347,-1184.329507,8734.430116
716.168381,0.000000,-2294.638420,10362.883188
716.168697,-919.314598,-3182.885551,11547.212695
716.169013,-1762.019645,-1776.494261,11991.336260
716.169328,-2221.676944,-592.164754,11769.274478
716.169644,-1072.533697,-0.000000,11251.130318
716.169960,-919.314598,296.082377,10732.986159
716.170275,-689.485948,740.205942,9474.636058
716.170591,-229.828649,-222.061783,8734.430116
716.170907,995.924147,-592.164754,8438.347739
716.171222,1455.581446,-888.247130,7624.121203
716.171538,1838.629195,-74.020594,7105.977043
716.171854,2528.115143,-74.020594,7476.080014
716.172169,2528.115143,-592.164754,7550.100608
716.172485,1532.190996,-1184.329507,8956.491898
716.172801,459.657299,-2146.597232,9918.759623
716.173117,0.000000,-2738.761985,10732.986159
716.173432,-766.095498,-2146.597232,11029.068536
716.173748,-1378.971896,-740.205942,10584.944971
716.174064,-919.314598,-0.000000,10732.986159
716.174379,0.000000,-0.000000,10807.006753
716.174695,0.000000,222.061783,10066.800811
716.175011,76.609550,296.082377,8882.471304
716.175326,1302.362347,-444.123565,8808.450710
716.175642,2068.457845,-148.041188,7846.182985
716.175958,2374.896044,-0.000000,7550.100608
716.176273,2604.724693,888.247130,7105.977043
716.176589,3064.381992,592.164754,7402.059420
716.176905,2298.286494,-296.082377,8660.409521
716.177220,1225.752797,-1776.494261,9548.656652
716.177536,229.828649,-2146.597232,10362.883188
716.177852,0.000000,-2146.597232,11547.212695
716.178168,-1378.971896,-1480.411884,11399.171507
716.178483,-1149.143247,370.102971,10732.986159
716.178799,-1072.533697,1036.288319,10955.047942
716.179115,-459.657299,1184.329507,9844.739029
716.179430,0.000000,1702.473667,9548.656652
716.179746,766.095498,740.205942,8290.306550
716.180062,1685.410096,592.164754,8216.285956
716.180377,1838.629195,888.247130,7624.121203
716.180693,1762.019645,1332.370696,7105.977043
716.181009,2145.067394,1036.288319,7624.121203
716.181324,1915.238745,-0.000000,8808.450710
716.181640,842.705048,-444.123565,9622.677246
716.181956,0.000000,-1924.535449,10807.006753
716.182271,-1302.362347,-2294.638420,11917.315666
716.182587,-2298.286494,-1110.308913,12139.377449
716.182903,-2451.505594,296.082377,11695.253884
716.183219,-1991.848295,1110.308913,11399.171507
716.183534,-995.924147,1554.432478,10732.986159
716.183850,-995.924147,1554.432478,9992.780217
716.184166,0.000000,1554.432478,9030.512492
716.184481,1149.143247,-0.000000,8956.491898
716.184797,1991.848295,444.123565,8364.327145
716.185113,2221.676944,1036.288319,7328.038826
716.185428,2374.896044,1332.370696,7179.997637
716.185744,2528.115143,1036.288319,7920.203579
716.186060,2068.457845,-0.000000,8660.409521
716.186375,842.705048,-1036.288319,9400.615463
716.186691,-383.047749,-1998.556043,11029.068536
716.187007,-1225.752797,-2368.659014,11843.295072
716.187323,-1455.581446,-1628.453072,12065.356855
716.187638,-1685.410096,-370.102971,11621.233289
716.187954,-1225.752797,-0.000000,11177.109724
716.188270,-612.876398,740.205942,10584.944971
716.188585,0.000000,518.144159,9696.697840
716.188901,766.095498,666.185348,9252.574275
716.189217,2068.457845,592.164754,8142.265362
716.189532,2528.115143,962.267725,6883.915261
716.189848,3064.381992,1258.350101,6735.874072
716.190164,3447.429741,666.185348,6957.935855
716.190479,3064.381992,370.102971,7254.018232
716.190795,1838.629195,-666.185348,8364.327145
716.191111,459.657299,-2442.679609,10140.821405
716.191426,-689.485948,-2812.782580,11695.253884
716.191742,-1532.190996,-2516.700203,11621.233289
716.192058,-2451.505594,-1702.473667,11769.274478
716.192374,-2068.457845,-222.061783,11325.150913
716.192689,-1378.971896,222.061783,10732.986159
716.193005,-1149.143247,740.205942,10214.842000
716.193321,-689.485948,518.144159,9104.533087
716.193636,383.047749,-0.000000,8216.285956
716.193952,1225.752797,-0.000000,7254.018232
716.194268,1455.581446,-0.000000,6735.874072
716.194583,2451.505594,444.123565,6957.935855
716.194899,2374.896044,-74.020594,7254.018232
716.195215,2068.457845,-1184.329507,8142.265362
716.195530,306.438199,-1850.514855,9400.615463
716.195846,-383.047749,-3108.864956,10881.027347
716.196162,-689.485948,-2738.761985,11177.109724
716.196478,-2068.457845,-1776.494261,11547.212695
716.196793,-2145.067394,-222.061783,11251.130318
716.197109,-1302.362347,222.061783,11103.089130
716.197425,-459.657299,592.164754,10510.924376
716.197740,0.000000,592.164754,9548.656652
716.198056,153.219100,74.020594,9178.553681
716.198372,1532.190996,-370.102971,7994.224174
716.198687,2298.286494,-0.000000,7328.038826
716.199003,2451.505594,1110.308913,7254.018232
716.199319,3370.820191,444.123565,7698.141797
716.199634,2451.505594,-222.061783,7846.182985
716.199950,1378.971896,-1332.370696,9178.553681
716.200266,383.047749,-2368.659014,10807.006753
716.200581,-459.657299,-2590.720797,11399.171507
716.200897,-1455.581446,-2072.576638,11843.295072
716.201213,-1685.410096,-0.000000,11695.253884
716.201529,-919.314598,592.164754,11103.089130
716.201844,-536.266849,1036.288319,10807.006753
716.202160,0.000000,1406.391290,9770.718434
716.202476,153.219100,1110.308913,9252.574275
716.202791,1532.190996,222.061783,8364.327145
716.203107,1915.238745,518.144159,7846.182985
716.203423,2528.115143,1258.350101,7179.997637
716.203738,3294.210641,1776.494261,7031.956449
716.204054,3064.381992,1110.308913,7105.977043
716.204370,1608.800546,-0.000000,8734.430116
716.204685,229.828649,-1850.514855,10140.821405
716.205001,-612.876398,-2368.659014,11251.130318
716.205317,-1149.143247,-1998.556043,11843.295072
716.205633,-2451.505594,-740.205942,12287.418637
716.205948,-2451.505594,666.185348,11769.274478
716.206264,-1915.238745,1924.535449,11325.150913
716.206580,-995.924147,1110.308913,10362.883188
716.206895,-919.314598,666.185348,9992.780217
716.207211,-306.438199,1184.329507,8956.491898
716.207527,1378.971896,-222.061783,7846.182985
716.207842,2298.286494,592.164754,7994.224174
716.208158,2528.115143,1258.350101,7179.997637
716.208474,2451.505594,1184.329507,7105.977043
716.208789,2987.772442,666.185348,8068.244768
716.209105,1302.362347,-1332.370696,8956.491898
716.209421,459.657299,-1998.556043,10362.883188
716.209736,-383.047749,-2516.700203,11621.233289
716.210052,-1608.800546,-1628.453072,11917.315666
716.210368,-1991.848295,-222.061783,11621.233289
716.210684,-1608.800546,148.041188,10955.047942
716.210999,-766.095498,444.123565,10807.006753
716.211315,-766.095498,888.247130,9918.759623
716.211631,0.000000,444.123565,8808.450710
716.211946,995.924147,-370.102971,8808.450710
716.212262,1685.410096,-518.144159,7698.141797
716.212578,2298.286494,148.041188,7179.997637
716.212893,2757.943793,444.123565,6883.915261
716.213209,2757.943793,-0.000000,7624.121203
716.213525,1915.238745,-888.247130,8364.327145
716.213840,842.705048,-2220.617826,9548.656652
716.214156,76.609550,-3108.864956,10658.965565
716.214472,-1378.971896,-2812.782580,12213.398043
716.214788,-2068.457845,-1406.391290,11473.192101
716.215103,-2145.067394,-148.041188,10732.986159
716.215419,-1225.752797,518.144159,11103.089130
716.215735,-459.657299,1258.350101,10066.800811
716.216050,0.000000,962.267725,8734.430116
716.216366,383.047749,222.061783,8438.347739
716.216682,1378.971896,-518.144159,7920.203579
716.216997,1991.848295,-0.000000,7105.977043
716.217313,2451.505594,444.123565,7105.977043
716.217629,2451.505594,518.144159,7179.997637
716.217944,2451.505594,-222.061783,7920.203579
716.218260,1072.533697,-1406.391290,9178.553681
716.218576,0.000000,-2368.659014,10362.883188
716.218891,-1225.752797,-2886.803174,11547.212695
716.219207,-1685.410096,-1850.514855,11621.233289
716.219523,-2298.286494,-592.164754,11103.089130
716.219839,-1455.581446,296.082377,11621.233289
716.220154,-689.485948,962.267725,10881.027347
716.220470,-842.705048,1554.432478,9696.697840
716.220786,383.047749,962.267725,8808.450710
716.221101,1532.190996,-0.000000,8364.327145
716.221417,2145.067394,370.102971,7772.162391
716.221733,2987.772442,1184.329507,7105.977043
716.222048,3140.991542,1628.453072,7328.038826
716.222364,2911.162892,962.267725,7920.203579
716.222680,2068.457845,-370.102971,8660.409521
716.222995,995.924147,-1998.556043,9844.739029
716.223311,0.000000,-3034.844362,11547.212695
716.223627,-1455.581446,-2516.700203,12435.459826
716.223943,-1915.238745,-1110.308913,12287.418637
716.224258,-1608.800546,518.144159,11621.233289
716.224574,-842.705048,1480.411884,11029.068536
716.224889,-153.219100,1258.350101,10362.883188
716.225205,-229.828649,888.247130,9622.677246
716.225520,1072.533697,370.102971,9030.512492
716.225836,1991.848295,-148.041188,7920.203579
716.226151,2528.115143,370.102971,7105.977043
716.226467,3217.601092,1258.350101,7179.997637
716.226782,3140.991542,888.247130,7105.977043
716.227098,2604.724693,518.144159,7846.182985
716.227413,1225.752797,-962.267725,9104.533087
716.227729,306.438199,-1924.535449,10362.883188
716.228045,-383.047749,-2590.720797,11695.253884
716.228360,-1991.848295,-1924.535449,11695.253884
716.228676,-2145.067394,-444.123565,11251.130318
716.228991,-1762.019645,444.123565,11325.150913
716.229307,-1455.581446,1332.370696,10807.006753
716.229622,-1225.752797,1406.391290,9918.759623
716.229938,-306.438199,-0.000000,9400.615463
716.230253,383.047749,-296.082377,8438.347739
716.230569,842.705048,-74.020594,7624.121203
716.230884,1762.019645,-0.000000,7624.121203
716.231200,2298.286494,814.226536,7031.956449
716.231515,2451.505594,444.123565,7476.080014
716.231831,1762.019645,-444.123565,8142.265362
716.232146,229.828649,-1554.432478,9178.553681
716.232462,-153.219100,-2294.638420,10881.027347
716.232777,-1225.752797,-1924.535449,11621.233289
716.233093,-2298.286494,-814.226536,11473.192101
716.233408,-1838.629195,-148.041188,11399.171507
716.233724,-919.314598,296.082377,11029.068536
716.234039,-1072.533697,-0.000000,10658.965565
716.234355,-383.047749,814.226536,9474.636058
716.234671,383.047749,-0.000000,8512.368333
716.234986,1455.581446,222.061783,7772.162391
716.235302,1915.238745,370.102971,7105.977043
716.235617,2911.162892,592.164754,7254.018232
716.235933,2834.553343,518.144159,7476.080014
716.236248,2298.286494,-592.164754,7994.224174
716.236564,1225.752797,-1776.494261,9474.636058
716.236879,459.657299,-2738.761985,10510.924376
716.237195,-536.266849,-2220.617826,10955.047942
716.237510,-1532.190996,-1258.350101,11399.171507
716.237826,-1532.190996,-0.000000,11251.130318
716.238141,-689.485948,-0.000000,11325.150913
716.238457,-383.047749,444.123565,10510.924376
716.238772,-1225.752797,1036.288319,9548.656652
716.239088,229.828649,-0.000000,9030.512492
716.239403,1302.362347,-222.061783,8290.306550
716.239719,1149.143247,518.144159,7254.018232
716.240034,1685.410096,444.123565,7624.121203
716.240350,2145.067394,-0.000000,7920.203579
716.240666,2145.067394,-222.061783,8068.244768
716.240981,1378.971896,-1110.308913,8734.430116
716.241297,153.219100,-1924.535449,10140.821405
716.241612,229.828649,-2368.659014,11547.212695
716.241928,-995.924147,-1110.308913,11547.212695
716.242243,-1608.800546,-148.041188,11177.109724
716.242559,-1225.752797,592.164754,11251.130318
716.242874,-153.219100,1184.329507,10584.944971
716.243190,-153.219100,1406.391290,9918.759623
716.243505,459.657299,740.205942,9844.739029
716.243821,1532.190996,444.123565,8808.450710
716.244136,2068.457845,222.061783,7476.080014
716.244452,2451.505594,518.144159,7846.182985
716.244767,3217.601092,814.226536,7624.121203
716.245083,2757.943793,1036.288319,7624.121203
716.245398,2451.505594,592.164754,8512.368333
716.245714,1225.752797,-666.185348,9104.533087
716.246029,766.095498,-1776.494261,10510.924376
716.246345,0.000000,-2220.617826,11547.212695
716.246661,-1302.362347,-1628.453072,11621.233289
716.246976,-1608.800546,-148.041188,11399.171507
716.247292,-1302.362347,296.082377,11325.150913
716.247607,-919.314598,814.226536,10732.986159
716.247923,-383.047749,1480.411884,10362.883188
716.248238,229.828649,1332.370696,9104.533087
716.248554,919.314598,592.164754,8364.327145
716.248869,1685.410096,296.082377,7846.182985
716.249185,2068.457845,-0.000000,7698.141797
716.249500,2451.505594,370.102971,7698.141797
716.249816,2528.115143,222.061783,7550.100608
716.250131,1455.581446,-74.020594,8438.347739
716.250447,612.876398,-1406.391290,9918.759623
716.250762,0.000000,-1776.494261,10732.986159
716.251078,-1455.581446,-1406.391290,10881.027347
716.251393,-2145.067394,-74.020594,10881.027347
716.251709,-1532.190996,370.102971,11103.089130
716.252024,-995.924147,222.061783,11103.089130
716.252340,-612.876398,1036.288319,9696.697840
716.252655,-612.876398,740.205942,9400.615463
716.252971,0.000000,-0.000000,8734.430116
716.253287,536.266849,-222.061783,8142.265362
716.253602,1225.752797,222.061783,7920.203579
716.253918,2068.457845,518.144159,7772.162391
716.254233,2068.457845,-0.000000,7698.141797
716.254549,1225.752797,-814.226536,8216.285956
716.254864,383.047749,-1998.556043,9474.636058
716.255180,383.047749,-2664.741391,10362.883188
716.255495,-766.095498,-2146.597232,11325.150913
716.255811,-1608.800546,-1258.350101,11473.192101
716.256126,-1762.019645,-0.000000,11103.089130
716.256442,-612.876398,518.144159,10214.842000
716.256757,-229.828649,370.102971,9622.677246
716.257073,76.609550,518.144159,9104.533087
716.257388,612.876398,-148.041188,9030.512492
716.257704,1225.752797,-518.144159,8142.265362
716.258019,1991.848295,-444.123565,8068.244768
716.258335,2221.676944,-0.000000,7328.038826
716.258650,2528.115143,444.123565,7328.038826
716.258966,2451.505594,-444.123565,7994.224174
716.259282,1149.143247,-1110.308913,8882.471304
716.259597,306.438199,-2960.823768,9696.697840
716.259913,-459.657299,-2960.823768,11251.130318
716.260228,-1532.190996,-2368.659014,11843.295072
716.260544,-2451.505594,-592.164754,10955.047942
716.260859,-1378.971896,-0.000000,11177.109724
716.261175,-919.314598,296.082377,10807.006753
716.261490,-459.657299,518.144159,10140.821405
716.261806,-459.657299,148.041188,8956.491898
716.262121,766.095498,-222.061783,8586.388927
716.262437,1378.971896,148.041188,7772.162391
716.262752,2068.457845,-0.000000,7550.100608
716.263068,2834.553343,740.205942,7254.018232
716.263383,2757.943793,592.164754,7624.121203
716.263699,2374.896044,-74.020594,8216.285956
716.264014,1072.533697,-1480.411884,9252.574275
716.264330,306.438199,-2664.741391,10288.862594
716.264645,-536.266849,-1850.514855,11325.150913
716.264961,-1302.362347,-444.123565,11251.130318
716.265276,-1532.190996,296.082377,11251.130318
716.265592,-459.657299,370.102971,10658.965565
716.265908,-766.095498,1036.288319,10362.883188
716.266223,-306.438199,962.267725,9548.656652
716.266539,306.438199,222.061783,8956.491898
716.266854,1378.971896,222.061783,9030.512492
716.267170,1838.629195,148.041188,8142.265362
716.267485,2374.896044,1036.288319,7328.038826
716.267801,2834.553343,1036.288319,7624.121203
716.268116,2298.286494,370.102971,8438.347739
716.268432,1532.190996,-296.082377,9178.553681
716.268747,612.876398,-1628.453072,9770.718434
716.269063,0.000000,-1628.453072,11399.171507
716.269378,-383.047749,-296.082377,11621.233289
716.269694,-1225.752797,740.205942,10510.924376
716.270009,-459.657299,1406.391290,10510.924376
716.270325,-229.828649,1258.350101,10510.924376
716.270640,-153.219100,814.226536,10140.821405
716.270956,0.000000,444.123565,9474.636058
716.271271,689.485948,-148.041188,8882.471304
716.271587,1149.143247,148.041188,8216.285956
716.271903,1302.362347,1036.288319,7846.182985
716.272218,1838.629195,962.267725,7772.162391
716.272534,2068.457845,666.185348,8216.285956
716.272849,1072.533697,-222.061783,8882.471304
716.273165,229.828649,-1258.350101,9844.739029
716.273480,-306.438199,-1924.535449,10584.944971
716.273796,-1149.143247,-1850.514855,11473.192101
716.274111,-1915.238745,-370.102971,11473.192101
716.274427,-1225.752797,592.164754,10732.986159
716.274742,-919.314598,962.267725,10436.903782
716.275058,-229.828649,666.185348,9770.718434
716.275373,-229.828649,222.061783,9696.697840
716.275689,689.485948,370.102971,8882.471304
716.276004,1149.143247,296.082377,7772.162391
716.276320,2068.457845,666.185348,7328.038826
716.276635,2221.676944,814.226536,8068.244768
716.276951,2298.286494,-370.102971,8216.285956
716.277266,1608.800546,-666.185348,8956.491898
716.277582,229.828649,-1036.288319,9770.718434
716.277897,153.219100,-2072.576638,10140.821405
716.278213,-536.266849,-1850.514855,11251.130318
716.278529,-1455.581446,-1184.329507,11473.192101
716.278844,-1455.581446,-148.041188,11325.150913
716.279160,-1072.533697,370.102971,10955.047942
716.279475,-612.876398,296.082377,10584.944971
716.279791,-536.266849,-0.000000,9400.615463
716.280106,842.705048,-0.000000,8734.430116
716.280422,1685.410096,-222.061783,8512.368333
716.280737,1838.629195,222.061783,7105.977043
716.281053,2681.334243,-0.000000,7402.059420
716.281368,2757.943793,-0.000000,7920.203579
716.281684,2374.896044,-592.164754,7698.141797
716.281999,1455.581446,-1554.432478,9252.574275
716.282315,0.000000,-2442.679609,9918.759623
716.282630,-612.876398,-2738.761985,11399.171507
716.282946,-919.314598,-1554.432478,11251.130318
716.283261,-1762.019645,-740.205942,10807.006753
716.283577,-1455.581446,-74.020594,10732.986159
716.283892,-919.314598,-222.061783,10362.883188
716.284208,-536.266849,-592.164754,9918.759623
716.284524,0.000000,-222.061783,9400.615463
716.284839,689.485948,-444.123565,8660.409521
716.285155,1378.971896,-444.123565,8068.244768
716.285470,1762.019645,-0.000000,7772.162391
716.285786,2604.724693,962.267725,6957.935855
716.286101,2451.505594,296.082377,7328.038826
716.286417,2221.676944,-592.164754,8290.306550
716.286732,919.314598,-1480.411884,9622.677246
716.287048,-306.438199,-2442.679609,10140.821405
716.287363,-536.266849,-2220.617826,11103.089130
716.287679,-1302.362347,-1110.308913,11399.171507
716.287994,-1225.752797,-148.041188,10955.047942
716.288310,-766.095498,888.247130,10658.965565
716.288625,-459.657299,666.185348,10214.842000
716.288941,-383.047749,962.267725,9622.677246
716.289256,536.266849,666.185348,8734.430116
716.289572,1608.800546,-0.000000,8068.244768
716.289887,2298.286494,666.185348,7772.162391
716.290203,2221.676944,962.267725,7624.121203
716.290518,2681.334243,1406.391290,7328.038826
716.290834,2298.286494,296.082377,7994.224174
716.291150,1072.533697,-740.205942,9178.553681
716.291465,0.000000,-1480.411884,10658.965565
716.291781,153.219100,-1406.391290,11473.192101
716.292096,-1072.533697,-814.226536,11843.295072
716.292412,-1915.238745,518.144159,11621.233289
716.292727,-766.095498,1110.308913,10732.986159
716.293043,76.609550,1184.329507,11029.068536
716.293358,-306.438199,1628.453072,9992.780217
716.293674,76.609550,1036.288319,9252.574275
716.293989,1149.143247,296.082377,8882.471304
716.294305,1762.019645,444.123565,8290.306550
716.294620,1838.629195,1110.308913,7624.121203
716.294936,2451.505594,1406.391290,8216.285956
716.295251,2374.896044,740.205942,8364.327145
716.295567,1149.143247,-74.020594,9178.553681
716.295882,76.609550,-814.226536,10214.842000
716.296198,-612.876398,-1628.453072,10658.965565
716.296513,-919.314598,-1332.370696,11917.315666
716.296829,-1455.581446,-370.102971,11695.253884
716.297145,-1532.190996,222.061783,11399.171507
716.297460,-459.657299,740.205942,11399.171507
716.297776,-459.657299,814.226536,10214.842000
716.298091,0.000000,518.144159,9400.615463
716.298407,1072.533697,370.102971,8586.388927
716.298722,1302.362347,-0.000000,7994.224174
716.299038,1762.019645,592.164754,7328.038826
716.299353,2221.676944,1184.329507,7402.059420
716.299669,2451.505594,592.164754,7105.977043
716.299984,2068.457845,-666.185348,8586.388927
716.300300,842.705048,-1480.411884,9178.553681
716.300615,0.000000,-2442.679609,10214.842000
716.300931,-689.485948,-2368.659014,11251.130318
716.301246,-1532.190996,-1554.432478,11843.295072
716.301562,-1838.629195,-296.082377,11325.150913
716.301877,-1225.752797,-0.000000,11177.109724
716.302193,-689.485948,370.102971,10807.006753
716.302508,0.000000,592.164754,9474.636058
716.302824,689.485948,370.102971,8882.471304
716.303139,1685.410096,-0.000000,8364.327145
716.303455,1838.629195,296.082377,7476.080014
716.303771,2374.896044,1110.308913,6513.812290
716.304086,2834.553343,1036.288319,6735.874072
716.304402,2451.505594,-296.082377,8068.244768
716.304717,1455.581446,-1480.411884,8956.491898
716.305033,536.266849,-2516.700203,9844.739029
716.305348,0.000000,-2738.761985,10881.027347
716.305664,-1149.143247,-2368.659014,11917.315666
716.305979,-1378.971896,-962.267725,11325.150913
716.306295,-1532.190996,148.041188,10288.862594
716.306610,-536.266849,370.102971,10214.842000
716.306926,-689.485948,-222.061783,10214.842000
716.307241,-536.266849,-296.082377,9474.636058
716.307557,536.266849,-518.144159,8586.388927
716.307872,1225.752797,-962.267725,7846.182985
716.308188,2068.457845,-0.000000,6513.812290
716.308503,2681.334243,518.144159,6809.894666
716.308819,2757.943793,-222.061783,7402.059420
716.309134,1685.410096,-962.267725,8290.306550
716.309450,153.219100,-2590.720797,9400.615463
716.309766,-612.876398,-3034.844362,10732.986159
716.310081,-689.485948,-2442.679609,11399.171507
716.310397,-1378.971896,-1554.432478,11399.171507
716.310712,-1762.019645,-0.000000,10732.986159
716.311028,-995.924147,-148.041188,10955.047942
716.311343,153.219100,-0.000000,10584.944971
716.311659,-229.828649,370.102971,9030.512492
716.311974,459.657299,222.061783,9326.594869
716.312290,1455.581446,-222.061783,8512.368333
716.312605,1762.019645,740.205942,7402.059420
716.312921,2068.457845,1628.453072,7105.977043
716.313236,2757.943793,1406.391290,7402.059420
716.313552,2528.115143,222.061783,8586.388927
716.313867,1072.533697,-0.000000,9030.512492
716.314183,0.000000,-1406.391290,9770.718434
716.314498,0.000000,-2368.659014,11769.274478
716.314814,-1302.362347,-1554.432478,12287.418637
716.315129,-1762.019645,222.061783,11917.315666
716.315445,-1149.143247,1480.411884,11399.171507
716.315760,-689.485948,370.102971,11325.150913
716.316076,0.000000,888.247130,10584.944971
716.316392,153.219100,1258.350101,9548.656652
716.316707,1149.143247,1184.329507,8882.471304
716.317023,2145.067394,1184.329507,8142.265362
716.317338,2451.505594,1924.535449,6587.832884
716.317654,2834.553343,1924.535449,6587.832884
716.317969,2911.162892,740.205942,8142.265362
716.318285,1762.019645,-296.082377,8734.430116
716.318600,995.924147,-1628.453072,9474.636058
716.318916,-383.047749,-2146.597232,10732.986159
716.319231,-1302.362347,-1776.494261,11917.315666
716.319547,-1991.848295,-1184.329507,11843.295072
716.319862,-1991.848295,222.061783,11251.130318
716.320178,-1608.800546,592.164754,11399.171507
716.320493,-536.266849,296.082377,11251.130318
716.320809,-612.876398,592.164754,9844.739029
716.321124,383.047749,592.164754,8882.471304
716.321440,1378.971896,-0.000000,8364.327145
716.321755,1915.238745,370.102971,7698.141797
716.322071,2757.943793,1554.432478,6957.935855
716.322387,2911.162892,1554.432478,6661.853478
716.322702,2604.724693,296.082377,7846.182985
716.323018,1378.971896,-740.205942,8956.491898
716.323333,383.047749,-1850.514855,9844.739029
716.323649,-229.828649,-2368.659014,10881.027347
716.323964,-995.924147,-1406.391290,11917.315666
716.324280,-1532.190996,-74.020594,11251.130318
716.324595,-1302.362347,444.123565,11029.068536
716.324911,-612.876398,666.185348,11251.130318
716.325226,-459.657299,962.267725,10288.862594
716.325539,-229.828649,444.123565,9030.512492
716.325855,1302.362347,296.082377,8882.471304
716.326170,2451.505594,-0.000000,7698.141797
716.326486,2145.067394,518.144159,7328.038826
716.326802,2681.334243,962.267725,6957.935855
716.327117,2681.334243,296.082377,7698.141797
716.327433,2221.676944,-518.144159,8586.388927
716.327748,689.485948,-1554.432478,9178.553681
716.328064,-306.438199,-2368.659014,10658.965565
716.328379,-919.314598,-2294.638420,11473.192101
716.328695,-1915.238745,-1776.494261,11547.212695
716.329011,-2068.457845,-370.102971,11621.233289
716.329326,-1225.752797,-296.082377,11251.130318
716.329642,-995.924147,148.041188,10584.944971
716.329957,-612.876398,518.144159,9548.656652
716.330273,0.000000,296.082377,8586.388927
716.330589,1149.143247,-0.000000,7772.162391
716.330904,1915.238745,-0.000000,7402.059420
716.331220,2451.505594,148.041188,7105.977043
716.331535,2604.724693,444.123565,6957.935855
716.331851,2145.067394,-370.102971,7846.182985
716.332167,1225.752797,-1702.473667,8956.491898
716.332482,-459.657299,-2368.659014,10362.883188
716.332798,-1225.752797,-3034.844362,10732.986159
716.333113,-2068.457845,-2368.659014,11769.274478
716.333429,-2451.505594,-1184.329507,11843.295072
716.333744,-2374.896044,-518.144159,11843.295072
716.334060,-919.314598,296.082377,11029.068536
716.334376,-842.705048,740.205942,10140.821405
716.334691,229.828649,814.226536,9104.533087
716.335007,1378.971896,518.144159,7920.203579
716.335322,2451.505594,370.102971,6809.894666
716.335638,2757.943793,1036.288319,6809.894666
716.335954,2681.334243,740.205942,6809.894666
716.336269,2528.115143,148.041188,7624.121203
716.336585,1762.019645,-740.205942,9178.553681
716.336900,229.828649,-1850.514855,9622.677246
716.337216,-689.485948,-2516.700203,10658.965565
716.337532,-1455.581446,-2072.576638,12065.356855
716.337847,-2068.457845,-1184.329507,11769.274478
716.338163,-1762.019645,-0.000000,11547.212695
716.338478,-995.924147,296.082377,12065.356855
716.338794,-536.266849,1258.350101,10584.944971
716.339109,0.000000,1924.535449,9326.594869
716.339425,995.924147,1406.391290,8438.347739
716.339741,1991.848295,888.247130,7772.162391
716.340056,2757.943793,1406.391290,7031.956449
716.340372,2834.553343,1776.494261,7105.977043
716.340687,3064.381992,1110.308913,7624.121203
716.341003,2681.334243,-0.000000,8290.306550
716.341319,1072.533697,-1258.350101,9252.574275
716.341634,459.657299,-2294.638420,10732.986159
716.341950,-536.266849,-2368.659014,11769.274478
716.342265,-1302.362347,-1406.391290,11769.274478
716.342581,-2221.676944,-74.020594,11695.253884
716.342897,-1608.800546,-0.000000,11991.336260
716.343212,-995.924147,666.185348,11029.068536
716.343528,-459.657299,1406.391290,9548.656652
716.343843,153.219100,1184.329507,8808.450710
716.344159,995.924147,888.247130,7994.224174
716.344474,2604.724693,148.041188,7550.100608
716.344790,2911.162892,370.102971,7105.977043
716.345106,3064.381992,1036.288319,7328.038826
716.345421,2911.162892,444.123565,7476.080014
716.345737,1991.848295,-222.061783,8364.327145
716.346052,1072.533697,-1702.473667,9622.677246
716.346368,0.000000,-2220.617826,11177.109724
716.346684,-689.485948,-1998.556043,12139.377449
716.346999,-1838.629195,-666.185348,11251.130318
716.347315,-2068.457845,370.102971,11843.295072
716.347630,-995.924147,740.205942,11251.130318
716.347946,-689.485948,1036.288319,10288.862594
716.348262,-383.047749,1110.308913,9696.697840
716.348577,306.438199,1036.288319,8586.388927
716.348893,919.314598,666.185348,8142.265362
716.349208,1455.581446,222.061783,7772.162391
716.349524,2221.676944,888.247130,7772.162391
716.349840,2451.505594,444.123565,7402.059420
716.350155,2374.896044,-74.020594,8586.388927
716.350471,995.924147,-1406.391290,8956.491898
716.350786,76.609550,-2294.638420,10362.883188
716.351102,0.000000,-2664.741391,11621.233289
716.351417,-1302.362347,-1628.453072,11399.171507
716.351733,-1915.238745,-222.061783,10955.047942
716.352049,-1072.533697,-0.000000,10881.027347
716.352364,-995.924147,296.082377,10807.006753
716.352680,-689.485948,296.082377,10436.903782
716.352995,-153.219100,222.061783,9252.574275
716.353311,612.876398,-518.144159,8438.347739
716.353627,1302.362347,-74.020594,7476.080014
716.353942,2145.067394,296.082377,6809.894666
716.354258,2528.115143,148.041188,6957.935855
716.354573,2374.896044,-370.102971,7402.059420
716.354889,1762.019645,-1702.473667,8660.409521
716.355205,459.657299,-2368.659014,10066.800811
716.355520,-536.266849,-2960.823768,10362.883188
716.355836,-1608.800546,-2146.597232,11177.109724
716.356151,-2068.457845,-1036.288319,11325.150913
716.356467,-1762.019645,-0.000000,11029.068536
716.356782,-1072.533697,370.102971,10807.006753
716.357098,-766.095498,1036.288319,10140.821405
716.357414,-306.438199,1184.329507,9326.594869
716.357729,995.924147,444.123565,8586.388927
716.358045,1149.143247,222.061783,7550.100608
716.358360,1915.238745,296.082377,7254.018232
716.358676,3217.601092,962.267725,7254.018232
716.358992,2757.943793,1258.350101,7179.997637
716.359307,2298.286494,148.041188,8586.388927
716.359623,1302.362347,-1628.453072,9326.594869
716.359938,306.438199,-1480.411884,10881.027347
716.360254,-306.438199,-1628.453072,11547.212695
716.360570,-1378.971896,-962.267725,11547.212695
716.360885,-1378.971896,592.164754,11473.192101
716.361201,-689.485948,1110.308913,11473.192101
716.361516,-229.828649,1110.308913,11325.150913
716.361832,153.219100,1554.432478,9770.718434
716.362147,306.438199,1110.308913,8882.471304
716.362463,1532.190996,444.123565,8882.471304
716.362779,2451.505594,740.205942,8512.368333
716.363094,2451.505594,1184.329507,6957.935855
716.363410,2604.724693,1332.370696,7105.977043
716.363725,2451.505594,-0.000000,8364.327145
716.364041,1991.848295,-1554.432478,9622.677246
716.364357,76.609550,-2368.659014,9918.759623
716.364672,-689.485948,-2738.761985,11325.150913
716.364988,-1455.581446,-2294.638420,12065.356855
716.365303,-1915.238745,-444.123565,11251.130318
716.365619,-1685.410096,444.123565,11251.130318
716.365935,-995.924147,518.144159,11473.192101
716.366250,-612.876398,888.247130,10881.027347
716.366566,-459.657299,740.205942,9178.553681
716.366881,766.095498,592.164754,8364.327145
716.367197,1685.410096,222.061783,7772.162391
716.367512,1991.848295,370.102971,7328.038826
716.367828,2451.505594,888.247130,7031.956449
716.368144,3140.991542,814.226536,7402.059420
716.368459,2451.505594,-592.164754,8586.388927
716.368775,766.095498,-1924.535449,9252.574275
716.369090,0.000000,-2516.700203,10658.965565
716.369406,-766.095498,-2294.638420,11547.212695
716.369722,-1608.800546,-962.267725,11843.295072
716.370037,-2145.067394,222.061783,11473.192101
716.370353,-1149.143247,740.205942,11029.068536
716.370668,-1149.143247,1110.308913,10214.842000
716.370984,-995.924147,962.267725,9548.656652
716.371300,229.828649,148.041188,9474.636058
716.371615,995.924147,-296.082377,8364.327145
716.371931,995.924147,148.041188,7624.121203
716.372246,1685.410096,444.123565,7624.121203
716.372562,2298.286494,370.102971,7624.121203
716.372878,1915.238745,-222.061783,7994.224174
716.373193,919.314598,-1480.411884,8882.471304
716.373509,0.000000,-2812.782580,10140.821405
716.373824,-612.876398,-3256.906145,11177.109724
716.374140,-1685.410096,-2146.597232,11621.233289
716.374455,-2068.457845,-666.185348,11325.150913
716.374771,-1378.971896,-0.000000,11251.130318
716.375087,-459.657299,666.185348,10584.944971
716.375402,-383.047749,740.205942,9622.677246
716.375718,0.000000,222.061783,8808.450710
716.376033,612.876398,-148.041188,8216.285956
716.376349,1532.190996,-592.164754,8290.306550
716.376665,2068.457845,-0.000000,7179.997637
716.376980,2145.067394,518.144159,6809.894666
716.377296,2298.286494,148.041188,7476.080014
716.377611,1838.629195,-1406.391290,9104.533087
716.377927,153.219100,-2368.659014,9474.636058
716.378243,-459.657299,-2516.700203,10881.027347
716.378558,-1072.533697,-2812.782580,11547.212695
716.378874,-1608.800546,-1036.288319,11473.192101
716.379189,-1302.362347,-296.082377,10732.986159
716.379505,-383.047749,1258.350101,10362.883188
716.379820,0.000000,1258.350101,10362.883188
716.380136,153.219100,1554.432478,8882.471304
716.380452,1378.971896,1184.329507,8142.265362
716.380767,2374.896044,-0.000000,7624.121203
716.381083,2528.115143,740.205942,7698.141797
716.381398,2604.724693,1554.432478,7772.162391
716.381714,3370.820191,1110.308913,7476.080014
716.382030,2604.724693,444.123565,8290.306550
716.382345,1532.190996,-444.123565,9548.656652
716.382661,153.219100,-1332.370696,10214.842000
716.382976,-383.047749,-1776.494261,11473.192101
716.383292,-1532.190996,-1036.288319,12361.439231
716.383608,-1149.143247,222.061783,11695.253884
716.383923,-1455.581446,1184.329507,11325.150913
716.384239,-383.047749,1702.473667,10955.047942
716.384554,0.000000,1554.432478,10066.800811
716.384870,306.438199,1184.329507,9326.594869
716.385185,1455.581446,1184.329507,8290.306550
716.385501,2145.067394,740.205942,7920.203579
716.385817,2451.505594,1258.350101,7328.038826
716.386132,2604.724693,1184.329507,7698.141797
716.386448,2757.943793,592.164754,8142.265362
716.386763,1838.629195,-592.164754,9252.574275
716.387079,76.609550,-1480.411884,10066.800811
716.387395,-612.876398,-2072.576638,11547.212695
716.387710,-919.314598,-1702.473667,11843.295072
716.388026,-2068.457845,-740.205942,11547.212695
716.388341,-1915.238745,444.123565,11399.171507
716.388657,-1302.362347,222.061783,11621.233289
716.388973,-1072.533697,296.082377,10584.944971
716.389288,-766.095498,370.102971,9770.718434
716.389604,0.000000,-148.041188,9030.512492
716.389919,1072.533697,-518.144159,8290.306550
716.390235,1608.800546,-0.000000,7550.100608
716.390550,2221.676944,1184.329507,7179.997637
716.390866,2451.505594,444.123565,7402.059420
716.391182,2221.676944,-444.123565,8068.244768
716.391497,995.924147,-1850.514855,9030.512492
716.391813,0.000000,-2812.782580,10214.842000
716.392128,-459.657299,-3108.864956,11473.192101
716.392444,-1532.190996,-1776.494261,11547.212695
716.392760,-1685.410096,296.082377,10658.965565
716.393075,-842.705048,592.164754,10881.027347
716.393391,-306.438199,962.267725,10510.924376
716.393706,-306.438199,1036.288319,9474.636058
716.394022,536.266849,296.082377,8512.368333
716.394338,1455.581446,-370.102971,8438.347739
716.394653,1455.581446,-444.123565,7476.080014
716.394969,1991.848295,-74.020594,7476.080014
716.395284,2604.724693,518.144159,7328.038826
716.395600,2298.286494,-0.000000,7476.080014
716.395916,1072.533697,-1258.350101,9252.574275
716.396231,153.219100,-2368.659014,9770.718434
716.396547,-766.095498,-3108.864956,10658.965565
716.396862,-842.705048,-2516.700203,11843.295072
716.397178,-1455.581446,-962.267725,11251.130318
716.397493,-1378.971896,-0.000000,10584.944971
716.397809,-689.485948,148.041188,11103.089130
716.398125,-383.047749,296.082377,9770.718434
716.398440,76.609550,814.226536,8660.409521
716.398756,459.657299,296.082377,8438.347739
716.399071,1532.190996,-296.082377,7550.100608
716.399387,2145.067394,444.123565,7031.956449
716.399703,2451.505594,666.185348,6809.894666
716.400018,2145.067394,444.123565,7179.997637
716.400334,1915.238745,-1036.288319,8734.430116
716.400649,229.828649,-1776.494261,8956.491898
716.400965,-919.314598,-2368.659014,10436.903782
716.401281,-1302.362347,-2294.638420,11769.274478
716.401596,-1762.019645,-1332.370696,11621.233289
716.401912,-1991.848295,296.082377,11695.253884
716.402227,-1532.190996,592.164754,11769.274478
716.402543,-689.485948,1036.288319,10510.924376
716.402858,-229.828649,1480.411884,9696.697840
716.403174,1072.533697,1036.288319,9252.574275
716.403490,2374.896044,962.267725,7550.100608
716.403805,2604.724693,2072.576638,7328.038826
716.404121,3370.820191,2294.638420,7105.977043
716.404436,3217.601092,2146.597232,6957.935855
716.404752,3064.381992,1258.350101,7994.224174
716.405068,1685.410096,-222.061783,9252.574275
716.405383,229.828649,-1480.411884,10436.903782
716.405699,-459.657299,-1924.535449,11991.336260
716.406014,-1225.752797,-1332.370696,12287.418637
716.406330,-2145.067394,222.061783,12287.418637
716.406646,-1685.410096,1036.288319,11991.336260
716.406961,-995.924147,1554.432478,11843.295072
716.407277,-766.095498,1554.432478,10955.047942
716.407592,-383.047749,1406.391290,9844.739029
716.407908,919.314598,888.247130,9104.533087
716.408223,1762.019645,814.226536,7994.224174
716.408539,2221.676944,1036.288319,7550.100608
716.408855,2528.115143,1480.411884,7254.018232
716.409170,2681.334243,1110.308913,7105.977043
716.409486,2374.896044,-0.000000,8586.388927
716.409801,919.314598,-1258.350101,9474.636058
716.410117,-229.828649,-2442.679609,10288.862594
716.410433,-766.095498,-2738.761985,12065.356855
716.410748,-1532.190996,-1628.453072,12287.418637
716.411064,-1838.629195,-222.061783,11399.171507
716.411379,-1302.362347,444.123565,11177.109724
716.411695,-842.705048,666.185348,10510.924376
716.412011,-612.876398,518.144159,9844.739029
716.412326,383.047749,-0.000000,9400.615463
716.412642,1225.752797,-444.123565,7772.162391
716.412957,1762.019645,-666.185348,7328.038826
716.413273,1915.238745,370.102971,6735.874072
716.413588,2451.505594,148.041188,6735.874072
716.413904,2757.943793,-740.205942,8512.368333
716.414220,1378.971896,-1776.494261,8512.368333
716.414535,0.000000,-2590.720797,9622.677246
716.414851,-459.657299,-3108.864956,10881.027347
716.415166,-1149.143247,-2368.659014,11621.233289
716.415482,-1532.190996,-1036.288319,10881.027347
716.415798,-1072.533697,370.102971,10732.986159
716.416113,0.000000,-0.000000,10510.924376
716.416429,76.609550,444.123565,9770.718434
716.416744,766.095498,518.144159,8882.471304
716.417060,1915.238745,-0.000000,8216.285956
716.417376,2298.286494,-0.000000,7179.997637
716.417691,2528.115143,740.205942,6513.812290
716.418007,3217.601092,1184.329507,6365.771101
716.418322,2528.115143,444.123565,6957.935855
716.418638,1838.629195,-1184.329507,8364.327145
716.418954,76.609550,-2664.741391,9992.780217
716.419269,-842.705048,-3849.070898,10955.047942
716.419585,-1915.238745,-3552.988522,12065.356855
716.419900,-2451.505594,-1924.535449,11843.295072
716.420216,-2145.067394,-592.164754,11547.212695
716.420531,-1762.019645,-74.020594,11547.212695
716.420847,-1378.971896,370.102971,10658.965565
716.421163,-766.095498,592.164754,9400.615463
716.421478,229.828649,-0.000000,7994.224174
716.421794,919.314598,-0.000000,7328.038826
716.422109,1685.410096,-0.000000,6587.832884
716.422425,2451.505594,592.164754,7031.956449
716.422741,2451.505594,666.185348,6587.832884
716.423056,2145.067394,-592.164754,8068.244768
716.423372,459.657299,-1554.432478,9030.512492
716.423688,-995.924147,-2664.741391,10288.862594
716.424003,-1685.410096,-3256.906145,11695.253884
716.424319,-2221.676944,-2368.659014,12657.521608
716.424635,-2528.115143,-962.267725,11843.295072
716.424950,-1991.848295,222.061783,11843.295072
716.425266,-1685.410096,814.226536,11473.192101
716.425582,-766.095498,1480.411884,9992.780217
716.425898,153.219100,1628.453072,8660.409521
716.426213,1991.848295,1184.329507,8142.265362
716.426529,2374.896044,1110.308913,7402.059420
716.426845,3140.991542,740.205942,7402.059420
716.427161,3677.258390,2072.576638,6735.874072
716.427476,3140.991542,1480.411884,7476.080014
716.427792,2757.943793,-148.041188,9030.512492
716.428108,1378.971896,-1184.329507,9770.718434
716.428423,76.609550,-1702.473667,11251.130318
716.428739,-383.047749,-1554.432478,12287.418637
716.429055,-1608.800546,-222.061783,12065.356855
716.429371,-1225.752797,814.226536,11917.315666
716.429686,-459.657299,1480.411884,11399.171507
716.430002,-383.047749,1850.514855,10510.924376
716.430318,0.000000,2146.597232,9992.780217
716.430633,1149.143247,1850.514855,8512.368333
716.430949,2298.286494,1110.308913,7994.224174
716.431265,2528.115143,1184.329507,7624.121203
716.431581,3064.381992,1480.411884,7254.018232
716.431896,3370.820191,1406.391290,6809.894666
716.432212,2681.334243,-0.000000,7994.224174
716.432528,1532.190996,-1110.308913,9326.594869
716.432843,306.438199,-2368.659014,10362.883188
716.433159,-689.485948,-2812.782580,11769.274478
716.433475,-1762.019645,-2072.576638,12435.459826
716.433791,-2374.896044,-148.041188,11769.274478
716.434106,-1378.971896,888.247130,11843.295072
716.434422,-536.266849,1332.370696,10658.965565
716.434738,-229.828649,1332.370696,9622.677246
716.435053,459.657299,1480.411884,8882.471304
716.435369,1532.190996,1036.288319,7476.080014
716.435685,2374.896044,444.123565,7254.018232
716.436001,2834.553343,592.164754,6957.935855
716.436316,3064.381992,1110.308913,6365.771101
716.436632,2757.943793,740.205942,6809.894666
716.436948,1455.581446,-1258.350101,8142.265362
716.437264,229.828649,-2516.700203,9844.739029
716.437579,-689.485948,-3404.947333,11251.130318
716.437895,-1991.848295,-3330.926739,12287.418637
716.438211,-3064.381992,-1998.556043,12213.398043
716.438526,-2374.896044,-222.061783,11473.192101
716.438842,-1378.971896,-74.020594,11177.109724
716.439158,-842.705048,666.185348,10881.027347
716.439474,-229.828649,814.226536,9400.615463
716.439789,919.314598,370.102971,8364.327145
716.440105,1991.848295,-518.144159,7476.080014
716.440421,2451.505594,-222.061783,7179.997637
716.440736,2834.553343,1036.288319,6587.832884
716.441052,2604.724693,740.205942,6291.750507
716.441368,2145.067394,-444.123565,8068.244768
716.441684,919.314598,-2294.638420,9622.677246
716.441999,-383.047749,-3256.906145,10214.842000
716.442315,-1838.629195,-3404.947333,11473.192101
716.442631,-2451.505594,-3108.864956,13175.665768
716.442946,-2681.334243,-1554.432478,11917.315666
716.443262,-1991.848295,-148.041188,11547.212695
716.443578,-1302.362347,296.082377,11251.130318
716.443894,-1072.533697,444.123565,9992.780217
716.444209,-153.219100,-370.102971,8512.368333
716.444525,919.314598,-296.082377,7846.182985
716.444841,1915.238745,-370.102971,6883.915261
716.445156,2604.724693,-0.000000,6291.750507
716.445472,2911.162892,962.267725,6513.812290
716.445788,2604.724693,-148.041188,7105.977043
716.446104,1532.190996,-1628.453072,8438.347739
716.446419,76.609550,-2368.659014,9326.594869
716.446735,-1149.143247,-3404.947333,11177.109724
716.447051,-1991.848295,-3404.947333,12583.501014
716.447367,-2987.772442,-1628.453072,11843.295072
716.447682,-2604.724693,148.041188,11695.253884
716.447998,-1455.581446,962.267725,11621.233289
716.448314,-766.095498,1406.391290,10140.821405
716.448629,0.000000,1850.514855,9178.553681
716.448945,1072.533697,814.226536,8438.347739
716.449261,2374.896044,-0.000000,7846.182985
716.449577,3217.601092,814.226536,7328.038826
716.449892,3753.867940,2516.700203,5995.668130
716.450208,3983.696590,2664.741391,5847.626942
716.450524,3140.991542,1110.308913,8216.285956
716.450839,2145.067394,-370.102971,9104.533087
716.451155,383.047749,-1702.473667,9918.759623
716.451471,-536.266849,-1998.556043,12139.377449
716.451787,-1302.362347,-962.267725,12213.398043
716.452102,-1302.362347,518.144159,11843.295072
716.452418,-766.095498,1776.494261,11695.253884
716.452734,-612.876398,2294.638420,11325.150913
716.453049,-383.047749,2146.597232,10066.800811
716.453365,459.657299,1628.453072,9696.697840
716.453681,1378.971896,814.226536,8512.368333
716.453997,2068.457845,1036.288319,8068.244768
716.454312,3217.601092,1554.432478,7624.121203
716.454628,3217.601092,2072.576638,6365.771101
716.454944,2911.162892,1406.391290,7772.162391
716.455259,2221.676944,-518.144159,8956.491898
716.455575,459.657299,-1628.453072,9696.697840
716.455891,-459.657299,-2072.576638,11251.130318
716.456207,-1149.143247,-2664.741391,12731.542202
716.456522,-1762.019645,-518.144159,12139.377449
716.456838,-2451.505594,666.185348,11695.253884
716.457154,-1072.533697,74.020594,11917.315666
716.457470,-766.095498,1036.288319,10584.944971
716.457785,-612.876398,1184.329507,9104.533087
716.458101,536.266849,370.102971,8734.430116
716.458417,1915.238745,-296.082377,8068.244768
716.458732,2374.896044,-0.000000,7105.977043
716.459048,2757.943793,1480.411884,6735.874072
716.459364,2834.553343,962.267725,6883.915261
716.459680,2221.676944,-518.144159,7920.203579
716.459995,842.705048,-1406.391290,8734.430116
716.460311,-612.876398,-3182.885551,10362.883188
716.460627,-1072.533697,-3775.050304,12065.356855
716.460942,-2374.896044,-2442.679609,12435.459826
716.461258,-2604.724693,-1184.329507,11695.253884
716.461574,-1685.410096,-0.000000,11769.274478
716.461890,-1149.143247,444.123565,10881.027347
716.462205,-689.485948,1110.308913,9992.780217
716.462521,153.219100,444.123565,9178.553681
716.462837,1378.971896,-296.082377,7624.121203
716.463152,1838.629195,296.082377,7031.956449
716.463468,2987.772442,148.041188,6809.894666
716.463784,3447.429741,592.164754,6365.771101
716.464100,3447.429741,-148.041188,6809.894666
716.464415,1685.410096,-1110.308913,7920.203579
716.464731,459.657299,-2664.741391,9400.615463
716.465047,-766.095498,-3775.050304,11029.068536
716.465362,-1838.629195,-3330.926739,11917.315666
716.465678,-2145.067394,-2516.700203,11769.274478
716.465994,-2221.676944,-814.226536,11473.192101
716.466310,-1685.410096,-0.000000,10658.965565
716.466625,-1378.971896,370.102971,10288.862594
716.466941,-919.314598,222.061783,9622.677246
716.467257,306.438199,-592.164754,8512.368333
716.467573,919.314598,-814.226536,7254.018232
716.467888,1685.410096,-296.082377,7105.977043
716.468204,2528.115143,-0.000000,6809.894666
716.468520,3064.381992,-370.102971,7105.977043
716.468835,2451.505594,-1036.288319,8364.327145
716.469151,1072.533697,-2146.597232,8734.430116
716.469467,153.219100,-2294.638420,10066.800811
716.469783,-689.485948,-2294.638420,11177.109724
716.470098,-689.485948,-1332.370696,11325.150913
716.470414,-1072.533697,-74.020594,11325.150913
716.470730,-766.095498,222.061783,11103.089130
716.471045,-536.266849,444.123565,11251.130318
716.471361,-229.828649,1036.288319,9918.759623
716.471677,536.266849,1036.288319,8882.471304
716.471993,2221.676944,740.205942,8290.306550
716.472308,2451.505594,1110.308913,7179.997637
716.472624,2757.943793,1628.453072,7105.977043
716.472940,3217.601092,1406.391290,7179.997637
716.473255,2834.553343,518.144159,7846.182985
716.473571,1762.019645,-296.082377,9030.512492
716.473887,536.266849,-1258.350101,10140.821405
716.474203,153.219100,-1924.535449,11769.274478
716.474518,-919.314598,-1258.350101,12953.603985
716.474834,-1532.190996,666.185348,11991.336260
716.475150,-1455.581446,1480.411884,11547.212695
716.475465,-459.657299,1998.556043,11177.109724
716.475781,-383.047749,2368.659014,10732.986159
716.476097,76.609550,1702.473667,9770.718434
716.476413,1378.971896,1110.308913,8660.409521
716.476728,1915.238745,1332.370696,7846.182985
716.477044,2528.115143,1332.370696,7402.059420
716.477360,3217.601092,1998.556043,7402.059420
716.477676,2528.115143,1258.350101,7328.038826
716.477991,1685.410096,-0.000000,8956.491898
716.478307,459.657299,-1110.308913,9400.615463
716.478623,-383.047749,-2146.597232,10881.027347
716.478938,-1149.143247,-2516.700203,11991.336260
716.479254,-2221.676944,-1406.391290,11769.274478
716.479570,-2374.896044,-0.000000,11621.233289
716.479886,-1915.238745,666.185348,11473.192101
716.480201,-1455.581446,740.205942,10807.006753
716.480517,-1072.533697,518.144159,10288.862594
716.480833,0.000000,-0.000000,9400.615463
716.481148,766.095498,-222.061783,8512.368333
716.481464,1608.800546,-0.000000,7624.121203
716.481780,2451.505594,740.205942,7179.997637
716.482096,2757.943793,740.205942,7031.956449
716.482411,2528.115143,444.123565,7476.080014
716.482727,1685.410096,-888.247130,8216.285956
716.483043,383.047749,-1924.535449,9696.697840
716.483358,0.000000,-2664.741391,11177.109724
716.483674,-1149.143247,-1998.556043,11843.295072
716.483990,-1915.238745,-740.205942,11695.253884
716.484306,-1378.971896,-0.000000,11399.171507
716.484621,-842.705048,296.082377,11251.130318
716.484937,-383.047749,1110.308913,9548.656652
716.485253,0.000000,888.247130,9548.656652
716.485568,919.314598,148.041188,8364.327145
716.485884,1608.800546,-74.020594,7772.162391
716.486200,2298.286494,518.144159,7105.977043
716.486516,2757.943793,740.205942,6661.853478
716.486831,2604.724693,-74.020594,6957.935855
716.487147,1991.848295,-1110.308913,8586.388927
716.487463,383.047749,-2960.823768,9400.615463
716.487779,-306.438199,-3404.947333,10732.986159
716.488094,-1225.752797,-2886.803174,11843.295072
716.488410,-2298.286494,-1702.473667,11029.068536
716.488726,-1838.629195,-0.000000,10658.965565
716.489041,-919.314598,296.082377,10732.986159
716.489357,-612.876398,370.102971,9918.759623
716.489673,-306.438199,888.247130,9474.636058
716.489989,229.828649,-148.041188,8512.368333
716.490304,1532.190996,-370.102971,7624.121203
716.490620,1532.190996,-444.123565,7105.977043
716.490936,2221.676944,296.082377,7254.018232
716.491251,2451.505594,518.144159,7254.018232
716.491567,1915.238745,-444.123565,7920.203579
716.491883,1225.752797,-1332.370696,9104.533087
716.492199,153.219100,-2294.638420,10066.800811
716.492514,-689.485948,-3108.864956,11251.130318
716.492830,-1762.019645,-1776.494261,11695.253884
716.493146,-1455.581446,-296.082377,11251.130318
716.493461,-689.485948,444.123565,11325.150913
716.493777,0.000000,962.267725,11029.068536
716.494093,0.000000,962.267725,9548.656652
716.494409,766.095498,962.267725,9104.533087
716.494724,1302.362347,814.226536,8586.388927
716.495040,2298.286494,518.144159,7550.100608
716.495356,2451.505594,1332.370696,7772.162391
716.495671,3140.991542,1258.350101,7624.121203
716.495987,2757.943793,518.144159,7698.141797
716.496303,2068.457845,-0.000000,8512.368333
716.496619,919.314598,-1258.350101,9770.718434
716.496934,0.000000,-2220.617826,10955.047942
716.497250,-689.485948,-1480.411884,12139.377449
716.497566,-1532.190996,148.041188,11399.171507
716.497882,-1455.581446,1110.308913,11103.089130
716.498197,-383.047749,1480.411884,11325.150913
716.498513,-766.095498,1184.329507,10510.924376
716.498829,-612.876398,1110.308913,10288.862594
716.499144,229.828649,444.123565,9252.574275
716.499460,995.924147,518.144159,8142.265362
716.499776,1532.190996,1110.308913,8364.327145
716.500092,2221.676944,1480.411884,7550.100608
716.500407,2528.115143,1554.432478,7476.080014
716.500723,1838.629195,-0.000000,8956.491898
716.501039,1072.533697,-888.247130,9770.718434
716.501354,229.828649,-1628.453072,10288.862594
716.501670,-306.438199,-1332.370696,11029.068536
716.501986,-919.314598,-666.185348,11473.192101
716.502302,-1378.971896,740.205942,10807.006753
716.502617,-919.314598,1110.308913,10732.986159
716.502933,-612.876398,888.247130,10807.006753
716.503249,-689.485948,370.102971,9992.780217
716.503564,76.609550,370.102971,9252.574275
716.503880,766.095498,-222.061783,8364.327145
716.504196,1302.362347,-518.144159,8216.285956
716.504512,1532.190996,-148.041188,8438.347739
716.504827,2068.457845,370.102971,7624.121203
716.505143,1685.410096,148.041188,7624.121203
716.505459,1072.533697,-962.267725,8882.471304
716.505774,459.657299,-1776.494261,9474.636058
716.506090,0.000000,-2664.741391,10362.883188
716.506406,0.000000,-2368.659014,11325.150913
716.506722,-1225.752797,-1036.288319,11695.253884
716.507037,-689.485948,-0.000000,10658.965565
716.507353,0.000000,222.061783,10288.862594
716.507669,0.000000,370.102971,9696.697840
716.507985,842.705048,370.102971,9474.636058
716.508300,919.314598,-74.020594,8290.306550
716.508616,1455.581446,-148.041188,7550.100608
716.508932,1762.019645,-74.020594,7550.100608
716.509247,2145.067394,222.061783,7624.121203
716.509563,2298.286494,-518.144159,7698.141797
716.509879,1608.800546,-1332.370696,8512.368333
716.510195,383.047749,-1702.473667,9400.615463
716.510510,0.000000,-2812.782580,9918.759623
716.510826,-842.705048,-2590.720797,11103.089130
716.511142,-1915.238745,-1702.473667,11695.253884
716.511457,-1762.019645,-962.267725,11251.130318
716.511773,-995.924147,-148.041188,11103.089130
716.512089,-689.485948,222.061783,9992.780217
716.512405,-383.047749,148.041188,9548.656652
716.512720,153.219100,-74.020594,8956.491898
716.513036,842.705048,-666.185348,7846.182985
716.513352,1149.143247,148.041188,7624.121203
716.513667,1762.019645,370.102971,7698.141797
716.513983,2374.896044,-222.061783,7105.977043
716.514299,1991.848295,-592.164754,8068.244768
716.514615,842.705048,-1480.411884,9030.512492
716.514930,153.219100,-2368.659014,9992.780217
716.515246,-383.047749,-2516.700203,11103.089130
716.515562,-1378.971896,-1702.473667,11769.274478
716.515877,-1532.190996,-296.082377,11547.212695
716.516193,-995.924147,222.061783,10881.027347
716.516509,-306.438199,740.205942,10362.883188
716.516825,0.000000,888.247130,9918.759623
716.517140,536.266849,888.247130,9326.594869
716.517456,1378.971896,444.123565,8142.265362
716.517772,2068.457845,666.185348,7994.224174
716.518088,1762.019645,1258.350101,7105.977043
716.518403,2298.286494,1480.411884,7624.121203
716.518719,2298.286494,518.144159,8142.265362
716.519035,1762.019645,-148.041188,8660.409521
716.519350,689.485948,-1184.329507,10066.800811
716.519666,383.047749,-2220.617826,10732.986159
716.519982,-459.657299,-1998.556043,11917.315666
716.520298,-766.095498,-592.164754,12287.418637
716.520613,-1455.581446,1036.288319,11251.130318
716.520929,-459.657299,1332.370696,11325.150913
716.521245,-153.219100,1776.494261,10584.944971
716.521560,383.047749,1924.535449,9400.615463
716.521876,612.876398,1110.308913,8882.471304
716.522192,1685.410096,740.205942,8438.347739
716.522508,1762.019645,962.267725,8068.244768
716.522823,2221.676944,1258.350101,7328.038826
716.523139,2145.067394,1258.350101,7698.141797
716.523455,2221.676944,370.102971,8512.368333
716.523770,995.924147,-666.185348,9104.533087
716.524086,306.438199,-1924.535449,10140.821405
716.524402,-459.657299,-1776.494261,11399.171507
716.524718,-1378.971896,-1406.391290,11917.315666
716.525034,-1915.238745,-222.061783,11325.150913
716.525349,-1455.581446,518.144159,10881.027347
716.525665,-919.314598,444.123565,10881.027347
716.525981,-766.095498,592.164754,9992.780217
716.526297,-153.219100,296.082377,9622.677246
716.526613,1072.533697,370.102971,8142.265362
716.526928,1608.800546,-0.000000,7994.224174
716.527244,1991.848295,518.144159,7772.162391
716.527560,2221.676944,962.267725,7550.100608
716.527876,2604.724693,-0.000000,7402.059420
716.528192,2145.067394,-518.144159,8512.368333
716.528507,1149.143247,-1184.329507,9252.574275
716.528823,0.000000,-1924.535449,10362.883188
716.529139,-306.438199,-1924.535449,11769.274478
716.529455,-1455.581446,-1036.288319,11399.171507
716.529771,-1302.362347,444.123565,10807.006753
716.530086,-1072.533697,-74.020594,10807.006753
716.530402,0.000000,222.061783,10214.842000
716.530718,-306.438199,444.123565,9622.677246
716.531034,153.219100,-0.000000,9030.512492
716.531350,919.314598,-222.061783,8290.306550
716.531665,1455.581446,-0.000000,7624.121203
716.531981,1762.019645,592.164754,7031.956449
716.532297,2068.457845,-0.000000,7550.100608
716.532613,1762.019645,-1258.350101,8290.306550
716.532929,689.485948,-2368.659014,9844.739029
716.533244,0.000000,-3256.906145,10140.821405
716.533560,-689.485948,-3108.864956,11177.109724
716.533876,-1532.190996,-1702.473667,11843.295072
716.534192,-1838.629195,-592.164754,11251.130318
716.534508,-842.705048,518.144159,10658.965565
716.534823,-229.828649,444.123565,10066.800811
716.535139,0.000000,962.267725,9178.553681
716.535455,612.876398,222.061783,8734.430116
716.535771,1378.971896,-222.061783,7772.162391
716.536087,1685.410096,148.041188,7105.977043
716.536402,1915.238745,370.102971,7402.059420
716.536718,2528.115143,592.164754,7476.080014
716.537034,1915.238745,296.082377,7476.080014
716.537350,1072.533697,-962.267725,8734.430116
716.537666,0.000000,-2220.617826,10214.842000
716.537981,-995.924147,-2590.720797,11103.089130
716.538297,-1608.800546,-2220.617826,11843.295072
716.538613,-2298.286494,-1036.288319,11621.233289
716.538929,-1685.410096,-0.000000,11547.212695
716.539245,-1149.143247,370.102971,10732.986159
716.539560,-766.095498,740.205942,10066.800811
716.539876,-229.828649,962.267725,9622.677246
716.540192,995.924147,222.061783,8216.285956
716.540508,2068.457845,444.123565,7624.121203
716.540824,2374.896044,1258.350101,7254.018232
716.541139,2681.334243,1776.494261,7105.977043
716.541455,3294.210641,1406.391290,7179.997637
716.541771,2451.505594,-0.000000,7920.203579
716.542087,1225.752797,-1036.288319,10140.821405
716.542403,459.657299,-1776.494261,10214.842000
716.542718,-383.047749,-1850.514855,11251.130318
716.543034,-1072.533697,-592.164754,12139.377449
716.543350,-1685.410096,370.102971,11917.315666
716.543666,-919.314598,1258.350101,11029.068536
716.543982,0.000000,1110.308913,11029.068536
716.544297,-383.047749,1184.329507,10807.006753
716.544613,0.000000,740.205942,9400.615463
716.544929,1149.143247,592.164754,9400.615463
716.545245,1532.190996,444.123565,8142.265362
716.545561,1991.848295,1184.329507,8142.265362
716.545876,2451.505594,1850.514855,6957.935855
716.546192,2528.115143,740.205942,7846.182985
716.546508,1685.410096,-518.144159,9326.594869
716.546824,689.485948,-1406.391290,9844.739029
716.547140,153.219100,-1776.494261,10732.986159
716.547455,-612.876398,-1258.350101,12065.356855
716.547771,-919.314598,148.041188,11769.274478
716.548087,-842.705048,1184.329507,10881.027347
716.548403,-459.657299,592.164754,11103.089130
716.548719,-229.828649,444.123565,10807.006753
716.549034,76.609550,296.082377,9400.615463
716.549350,612.876398,222.061783,8586.388927
716.549666,1378.971896,370.102971,7772.162391
716.549982,1915.238745,222.061783,7846.182985
716.550298,2528.115143,962.267725,7402.059420
716.550613,2451.505594,888.247130,7402.059420
716.550929,1762.019645,-740.205942,8068.244768
716.551245,459.657299,-1702.473667,9178.553681
716.551561,-306.438199,-2738.761985,10288.862594
716.551877,-1149.143247,-2886.803174,11547.212695
716.552192,-1608.800546,-2146.597232,12805.562797
716.552508,-1991.848295,-222.061783,11473.192101
716.552824,-1072.533697,-0.000000,10881.027347
716.553140,-383.047749,444.123565,10658.965565
716.553456,0.000000,740.205942,9696.697840
716.553771,1072.533697,814.226536,8438.347739
716.554087,1762.019645,814.226536,7328.038826
716.554403,1915.238745,222.061783,6735.874072
716.554719,2451.505594,592.164754,7105.977043
716.555035,2374.896044,296.082377,6587.832884
716.555350,2298.286494,-592.164754,7846.182985
716.555666,689.485948,-2220.617826,9474.636058
716.555982,-383.047749,-2812.782580,10214.842000
716.556298,-1685.410096,-3478.967927,11325.150913
716.556614,-1991.848295,-2886.803174,12065.356855
716.556929,-3064.381992,-1776.494261,11695.253884
716.557245,-2221.676944,-518.144159,11547.212695
716.557561,-1378.971896,-74.020594,11177.109724
716.557877,-1225.752797,370.102971,9696.697840
716.558193,-459.657299,518.144159,8956.491898
716.558508,536.266849,296.082377,8216.285956
716.558824,1608.800546,148.041188,7031.956449
716.559140,2068.457845,444.123565,6957.935855
716.559456,2757.943793,518.144159,6809.894666
716.559772,2604.724693,-0.000000,7105.977043
716.560087,2068.457845,-370.102971,8438.347739
716.560403,459.657299,-1776.494261,9178.553681
716.560719,-76.609550,-2812.782580,10658.965565
716.561035,-1225.752797,-3108.864956,11695.253884
716.561351,-2451.505594,-1184.329507,11917.315666
716.561666,-2298.286494,-222.061783,11843.295072
716.561982,-919.314598,-0.000000,11177.109724
716.562298,-612.876398,1184.329507,10510.924376
716.562614,-229.828649,1406.391290,9474.636058
716.562930,919.314598,1110.308913,8586.388927
716.563245,1838.629195,666.185348,7624.121203
716.563561,2374.896044,666.185348,7328.038826
716.563877,2604.724693,1258.350101,7254.018232
716.564193,3140.991542,962.267725,7179.997637
716.564509,2528.115143,-370.102971,7994.224174
716.564824,1685.410096,-740.205942,9326.594869
716.565140,689.485948,-1776.494261,9992.780217
716.565456,0.000000,-2368.659014,11177.109724
716.565772,-919.314598,-1480.411884,12065.356855
716.566088,-1532.190996,-444.123565,12213.398043
716.566403,-766.095498,888.247130,11695.253884
716.566719,-612.876398,1850.514855,11769.274478
716.567035,0.000000,1480.411884,10362.883188
716.567351,459.657299,1332.370696,9178.553681
716.567667,1149.143247,1036.288319,7994.224174
716.567982,1991.848295,814.226536,7402.059420
716.568298,2681.334243,740.205942,7994.224174
716.568614,2604.724693,962.267725,7328.038826
716.568930,2451.505594,370.102971,7698.141797
716.569246,2145.067394,-518.144159,9178.553681
716.569561,689.485948,-814.226536,9770.718434
716.569877,0.000000,-1480.411884,10362.883188
716.570193,-995.924147,-1998.556043,11769.274478
716.570509,-1762.019645,-592.164754,12657.521608
716.570824,-1838.629195,222.061783,11769.274478
716.571140,-1149.143247,518.144159,11399.171507
716.571456,-842.705048,962.267725,10658.965565
716.571772,-306.438199,1110.308913,9696.697840
716.572088,689.485948,740.205942,8734.430116
716.572403,1838.629195,370.102971,7698.141797
716.572719,2145.067394,444.123565,7624.121203
716.573035,2604.724693,1184.329507,6661.853478
716.573351,2911.162892,1184.329507,6735.874072
716.573667,2451.505594,148.041188,7920.203579
716.573982,1608.800546,-814.226536,9104.533087
716.574298,612.876398,-2072.576638,9326.594869
716.574614,-459.657299,-2812.782580,11473.192101
716.574930,-919.314598,-2442.679609,11917.315666
716.575246,-1838.629195,-370.102971,11991.336260
716.575561,-1302.362347,740.205942,11103.089130
716.575877,-766.095498,814.226536,10955.047942
716.576193,-306.438199,1258.350101,10584.944971
716.576509,383.047749,962.267725,9178.553681
716.576825,1149.143247,666.185348,7772.162391
716.577140,1685.410096,148.041188,7476.080014
716.577456,2068.457845,444.123565,6957.935855
716.577772,2757.943793,1184.329507,6513.812290
716.578088,2221.676944,-0.000000,6809.894666
716.578404,1915.238745,-666.185348,8142.265362
716.578719,459.657299,-2220.617826,9252.574275
716.579035,-612.876398,-3182.885551,10807.006753
716.579351,-1608.800546,-3478.967927,11991.336260
716.579667,-1991.848295,-1998.556043,11917.315666
716.579983,-1991.848295,-444.123565,10955.047942
716.580298,-1378.971896,-222.061783,10955.047942
716.580614,-1149.143247,296.082377,10807.006753
716.580930,-1072.533697,444.123565,9622.677246
716.581246,-153.219100,-148.041188,8216.285956
716.581562,766.095498,-370.102971,7624.121203
716.581877,1455.581446,-296.082377,7476.080014
716.582193,2221.676944,444.123565,6883.915261
716.582509,2528.115143,222.061783,6291.750507
716.582825,2068.457845,-740.205942,8068.244768
716.583141,919.314598,-1776.494261,9030.512492
716.583456,-229.828649,-2368.659014,9622.677246
716.583772,-842.705048,-2664.741391,11251.130318
716.584088,-1608.800546,-1406.391290,11917.315666
716.584404,-2145.067394,-0.000000,11547.212695
716.584720,-1225.752797,592.164754,11473.192101
716.585035,-459.657299,1110.308913,10955.047942
716.585351,-459.657299,1554.432478,10140.821405
716.585667,229.828649,1406.391290,9104.533087
716.585983,1532.190996,592.164754,8438.347739
716.586299,1991.848295,518.144159,7920.203579
716.586614,2757.943793,1628.453072,7402.059420
716.586930,3140.991542,1258.350101,6883.915261
716.587246,2911.162892,1332.370696,7846.182985
716.587562,2298.286494,-370.102971,8882.471304
716.587878,1149.143247,-1406.391290,9770.718434
716.588193,459.657299,-1776.494261,11177.109724
716.588509,-689.485948,-1406.391290,11769.274478
716.588825,-842.705048,-0.000000,11621.233289
716.589141,-919.314598,962.267725,11621.233289
716.589457,-153.219100,1110.308913,11621.233289
716.589772,0.000000,1480.411884,10510.924376
716.590088,229.828649,814.226536,9548.656652
716.590404,689.485948,666.185348,9326.594869
716.590720,1455.581446,370.102971,8512.368333
716.591036,2145.067394,814.226536,7624.121203
716.591351,2604.724693,1406.391290,7476.080014
716.591667,2604.724693,1332.370696,7402.059420
716.591983,2374.896044,-222.061783,8586.388927
716.592299,1072.533697,-1184.329507,9252.574275
716.592615,76.609550,-2220.617826,10584.944971
716.592930,-459.657299,-2590.720797,11695.253884
716.593246,-1225.752797,-1554.432478,11695.253884
716.593562,-1838.629195,222.061783,11177.109724
716.593878,-1302.362347,-0.000000,11473.192101
716.594194,-919.314598,592.164754,11029.068536
716.594509,-536.266849,962.267725,9770.718434
716.594825,306.438199,1110.308913,8734.430116
716.595141,995.924147,592.164754,8142.265362
716.595457,1762.019645,-0.000000,7550.100608
716.595773,2221.676944,666.185348,7179.997637
716.596088,2604.724693,814.226536,6957.935855
716.596404,2451.505594,-0.000000,7254.018232
716.596720,1685.410096,-1036.288319,8734.430116
716.597036,153.219100,-2294.638420,9548.656652
716.597352,-536.266849,-2886.803174,11103.089130
716.597667,-1532.190996,-2072.576638,12065.356855
716.597983,-2298.286494,-814.226536,11621.233289
716.598299,-1762.019645,-0.000000,10881.027347
716.598615,-766.095498,666.185348,10881.027347
716.598931,-536.266849,1332.370696,9918.759623
716.599246,-153.219100,1184.329507,9400.615463
716.599562,995.924147,222.061783,8290.306550
716.599878,1378.971896,-0.000000,7254.018232
716.600194,1532.190996,296.082377,7179.997637
716.600510,2451.505594,222.061783,6957.935855
716.600825,2298.286494,-0.000000,7105.977043
716.601141,1378.971896,-1036.288319,8882.471304
716.601457,76.609550,-2146.597232,9622.677246
716.601773,-383.047749,-2738.761985,10584.944971
716.602089,-1455.581446,-2664.741391,11251.130318
716.602404,-2451.505594,-1702.473667,11399.171507
716.602720,-2145.067394,-814.226536,11547.212695
716.603036,-1532.190996,-370.102971,11103.089130
716.603352,-1072.533697,-0.000000,10362.883188
716.603668,-1302.362347,-148.041188,9770.718434
716.603983,153.219100,-296.082377,8956.491898
716.604299,1149.143247,-222.061783,7476.080014
716.604615,1685.410096,296.082377,7105.977043
716.604931,2451.505594,370.102971,7105.977043
716.605247,2834.553343,888.247130,6883.915261
716.605562,2681.334243,-296.082377,7698.141797
716.605878,1532.190996,-1924.535449,9252.574275
716.606194,229.828649,-2812.782580,9770.718434
716.606510,-536.266849,-3182.885551,11103.089130
716.606826,-1455.581446,-2294.638420,12065.356855
716.607141,-1685.410096,-518.144159,11843.295072
716.607457,-1378.971896,592.164754,11325.150913
716.607773,-612.876398,814.226536,11029.068536
716.608089,0.000000,962.267725,10362.883188
716.608405,-383.047749,592.164754,8956.491898
716.608720,1378.971896,518.144159,8142.265362
716.609036,2451.505594,-0.000000,8290.306550
716.609352,3064.381992,1110.308913,7402.059420
716.609668,3294.210641,1924.535449,6809.894666
716.609984,3294.210641,1184.329507,7402.059420
716.610299,2528.115143,-296.082377,8586.388927
716.610615,1685.410096,-1184.329507,9548.656652
716.610931,919.314598,-1554.432478,10584.944971
716.611247,0.000000,-1406.391290,11621.233289
716.611563,-383.047749,-222.061783,11843.295072
716.611878,-306.438199,1110.308913,10807.006753
716.612194,0.000000,1332.370696,11103.089130
716.612510,0.000000,1850.514855,10658.965565
716.612826,842.705048,1628.453072,9696.697840
716.613142,689.485948,1036.288319,9400.615463
716.613457,1608.800546,740.205942,8142.265362
716.613773,1608.800546,740.205942,7994.224174
716.614089,2221.676944,592.164754,7994.224174
716.614405,2145.067394,296.082377,7994.224174
716.614721,1838.629195,-0.000000,8734.430116
716.615036,612.876398,-1406.391290,9622.677246
716.615352,-229.828649,-1850.514855,10362.883188
716.615668,-612.876398,-1776.494261,11473.192101
716.615984,-1838.629195,-1184.329507,10881.027347
716.616300,-2068.457845,222.061783,10881.027347
716.616615,-1608.800546,-74.020594,11325.150913
716.616931,-536.266849,-0.000000,11251.130318
716.617247,-689.485948,888.247130,9992.780217
716.617563,0.000000,518.144159,9030.512492
716.617879,995.924147,370.102971,7624.121203
716.618194,1302.362347,222.061783,7624.121203
716.618510,1762.019645,740.205942,6883.915261
716.618826,2145.067394,888.247130,7105.977043
716.619142,1991.848295,370.102971,8216.285956
716.619458,1302.362347,-962.267725,8660.409521
716.619773,-153.219100,-2072.576638,9474.636058
716.620089,-1149.143247,-2664.741391,11399.171507
716.620405,-1455.581446,-2590.720797,11843.295072
716.620721,-2374.896044,-1036.288319,11769.274478
716.621037,-2221.676944,-0.000000,11251.130318
716.621352,-1455.581446,518.144159,11473.192101
716.621668,-536.266849,444.123565,10066.800811
716.621984,0.000000,888.247130,9030.512492
716.622300,689.485948,370.102971,8438.347739
716.622616,1991.848295,222.061783,7476.080014
716.622931,2374.896044,666.185348,6365.771101
716.623247,2451.505594,1110.308913,7179.997637
716.623563,2451.505594,592.164754,7624.121203
716.623879,1991.848295,-370.102971,7846.182985
716.624195,766.095498,-1480.411884,8956.491898
716.624510,-459.657299,-2738.761985,10288.862594
716.624826,-842.705048,-3478.967927,11843.295072
716.625142,-1455.581446,-1924.535449,11769.274478
716.625458,-2068.457845,-370.102971,11621.233289
716.625773,-1455.581446,-74.020594,10732.986159
716.626089,-766.095498,370.102971,10807.006753
716.626405,-536.266849,296.082377,9474.636058
716.626720,383.047749,-0.000000,8660.409521
716.627036,1455.581446,-370.102971,8142.265362
716.627352,1838.629195,-444.123565,7105.977043
716.627667,2221.676944,296.082377,7179.997637
716.627983,2451.505594,-0.000000,6735.874072
716.628299,2451.505594,-296.082377,7624.121203
716.628614,1685.410096,-1406.391290,9252.574275
716.628930,153.219100,-2072.576638,9696.697840
716.629246,-459.657299,-2368.659014,10807.006753
716.629561,-842.705048,-2516.700203,12065.356855
716.629877,-1378.971896,-1036.288319,12065.356855
716.630193,-1149.143247,296.082377,11399.171507
716.630509,-383.047749,814.226536,11251.130318
716.630824,-153.219100,888.247130,10436.903782
716.631140,842.705048,962.267725,9474.636058
716.631456,1838.629195,740.205942,8216.285956
716.631771,2298.286494,814.226536,7031.956449
716.632087,2834.553343,740.205942,7254.018232
716.632403,3064.381992,1184.329507,6883.915261
716.632718,2757.943793,740.205942,7550.100608
716.633034,2451.505594,-0.000000,8512.368333
716.633350,1225.752797,-962.267725,9400.615463
716.633665,383.047749,-1628.453072,10214.842000
716.633981,-689.485948,-2294.638420,11843.295072
716.634297,-1225.752797,-1258.350101,12287.418637
716.634612,-1608.800546,296.082377,11621.233289
716.634928,-1149.143247,1110.308913,11695.253884
716.635244,-383.047749,1184.329507,11103.089130
716.635559,0.000000,1332.370696,10066.800811
716.635875,766.095498,1036.288319,8882.471304
716.636191,1838.629195,814.226536,8142.265362
716.636506,1991.848295,814.226536,7328.038826
716.636822,2451.505594,1406.391290,7550.100608
716.637138,2987.772442,1184.329507,6809.894666
716.637453,2298.286494,518.144159,8068.244768
716.637769,995.924147,-444.123565,9252.574275
716.638085,229.828649,-1554.432478,9992.780217
716.638401,-1072.533697,-2146.597232,10881.027347
716.638716,-1991.848295,-1776.494261,12435.459826
716.639032,-2374.896044,-1036.288319,12361.439231
716.639348,-1915.238745,666.185348,11325.150913
716.639663,-1685.410096,666.185348,10955.047942
716.639979,-1149.143247,370.102971,10955.047942
716.640295,0.000000,666.185348,9474.636058
716.640610,536.266849,-0.000000,8512.368333
716.640926,1149.143247,592.164754,7550.100608
716.641242,1838.629195,666.185348,7105.977043
716.641557,1991.848295,296.082377,7105.977043
716.641873,2221.676944,740.205942,7254.018232
716.642189,1608.800546,-518.144159,8290.306550
716.642504,536.266849,-1702.473667,9770.718434
716.642820,-153.219100,-2146.597232,10362.883188
716.643136,-689.485948,-2960.823768,11843.295072
716.643451,-1991.848295,-1554.432478,12287.418637
716.643767,-2451.505594,-148.041188,11473.192101
716.644083,-1149.143247,-0.000000,11621.233289
716.644398,-459.657299,444.123565,11251.130318
716.644714,-612.876398,740.205942,9696.697840
716.645030,459.657299,740.205942,8882.471304
716.645345,2145.067394,740.205942,8142.265362
716.645661,2451.505594,814.226536,6661.853478
716.645977,2528.115143,2146.597232,6365.771101
716.646292,3753.867940,1628.453072,6883.915261
716.646608,3140.991542,296.082377,7402.059420
716.646924,1455.581446,-1184.329507,8882.471304
716.647240,536.266849,-2590.720797,10436.903782
716.647555,-383.047749,-3552.988522,11547.212695
716.647871,-1915.238745,-2886.803174,12139.377449
716.648187,-2451.505594,-1406.391290,12361.439231
716.648502,-1838.629195,-444.123565,12065.356855
716.648818,-995.924147,296.082377,10955.047942
716.649134,-766.095498,666.185348,10288.862594
716.649449,0.000000,222.061783,9030.512492
716.649765,766.095498,-370.102971,7624.121203
716.650081,1915.238745,-0.000000,6883.915261
716.650396,2068.457845,-148.041188,6809.894666
716.650712,2528.115143,-370.102971,6957.935855
716.651028,2987.772442,-148.041188,6661.853478
716.651343,1915.238745,-1258.350101,7846.182985
716.651659,536.266849,-2812.782580,9548.656652
716.651975,-306.438199,-4071.132681,10584.944971
716.652290,-1532.190996,-3404.947333,11769.274478
716.652606,-2451.505594,-2516.700203,11917.315666
716.652922,-2145.067394,-666.185348,11843.295072
716.653237,-842.705048,-0.000000,11251.130318
716.653553,-766.095498,740.205942,10140.821405
716.653869,0.000000,1184.329507,9104.533087
716.654184,536.266849,814.226536,8290.306550
716.654500,1762.019645,444.123565,7105.977043
716.654816,2681.334243,370.102971,6661.853478
716.655131,2834.553343,1036.288319,6957.935855
716.655447,3217.601092,1036.288319,6957.935855
716.655763,2987.772442,666.185348,7328.038826
716.656079,1608.800546,-518.144159,8956.491898
716.656394,306.438199,-1554.432478,10362.883188
716.656710,-229.828649,-1184.329507,11251.130318
716.657026,-1455.581446,-814.226536,12213.398043
716.657341,-2145.067394,740.205942,12213.398043
716.657657,-1149.143247,1776.494261,11695.253884
716.657973,-459.657299,2072.576638,11325.150913
716.658288,306.438199,2072.576638,10584.944971
716.658604,306.438199,1998.556043,9992.780217
716.658920,1532.190996,1776.494261,8290.306550
716.659235,2451.505594,1702.473667,7105.977043
716.659551,2911.162892,1998.556043,7624.121203
716.659867,2911.162892,2368.659014,7105.977043
716.660182,3064.381992,1628.453072,6809.894666
716.660498,1991.848295,-0.000000,8734.430116
716.660814,612.876398,-1628.453072,10510.924376
716.661129,-306.438199,-2590.720797,11547.212695
716.661445,-1532.190996,-2442.679609,12213.398043
716.661761,-2681.334243,-1036.288319,12879.583391
716.662076,-2298.286494,-74.020594,12361.439231
716.662392,-1532.190996,296.082377,12065.356855
716.662708,-1378.971896,518.144159,11473.192101
716.663023,-995.924147,592.164754,10362.883188
716.663339,689.485948,888.247130,8512.368333
716.663655,1378.971896,148.041188,7476.080014
716.663970,1991.848295,-0.000000,7698.141797
716.664286,2451.505594,444.123565,6735.874072
716.664602,3140.991542,962.267725,6513.812290
716.664918,1991.848295,-296.082377,7772.162391
716.665233,689.485948,-2368.659014,9104.533087
716.665549,-459.657299,-2960.823768,10140.821405
716.665865,-1455.581446,-3627.009116,11769.274478
716.666180,-2451.505594,-3627.009116,13027.624579
716.666496,-2681.334243,-1480.411884,12435.459826
716.666812,-1991.848295,-0.000000,11917.315666
716.667127,-612.876398,1110.308913,10955.047942
716.667443,383.047749,1554.432478,9770.718434
716.667759,995.924147,1036.288319,8512.368333
716.668074,1685.410096,962.267725,7476.080014
716.668390,2604.724693,148.041188,6291.750507
716.668706,3370.820191,518.144159,6439.791695
716.669021,3677.258390,1184.329507,6439.791695
716.669337,2757.943793,444.123565,6587.832884
716.669653,1915.238745,-444.123565,8142.265362
716.669968,0.000000,-1998.556043,9104.533087
716.670284,-766.095498,-3330.926739,11029.068536
716.670600,-1838.629195,-3404.947333,13175.665768
716.670915,-3140.991542,-2146.597232,12361.439231
716.671231,-2528.115143,-444.123565,11251.130318
716.671547,-1608.800546,222.061783,11547.212695
716.671862,-842.705048,740.205942,9992.780217
716.672178,-459.657299,666.185348,8882.471304
716.672494,919.314598,592.164754,7920.203579
716.672809,1762.019645,-296.082377,6957.935855
716.673125,2528.115143,-0.000000,6883.915261
716.673441,2911.162892,666.185348,5995.668130
716.673757,3294.210641,444.123565,6069.688724
716.674072,2451.505594,-444.123565,7698.141797
716.674388,842.705048,-2368.659014,8808.450710
716.674704,-536.266849,-3330.926739,10214.842000
716.675019,-1608.800546,-3701.029710,11769.274478
716.675335,-2834.553343,-2812.782580,12213.398043
716.675651,-2834.553343,-1702.473667,12065.356855
716.675966,-2298.286494,-296.082377,12139.377449
716.676282,-1455.581446,814.226536,11621.233289
716.676598,-612.876398,1406.391290,10658.965565
716.676913,383.047749,1258.350101,8882.471304
716.677229,1915.238745,740.205942,7476.080014
716.677545,2528.115143,814.226536,7179.997637
716.677860,3370.820191,1332.370696,6513.812290
716.678176,3600.648841,1702.473667,7031.956449
716.678492,3447.429741,666.185348,7328.038826
716.678807,2374.896044,-518.144159,9400.615463
716.679123,919.314598,-1776.494261,9992.780217
716.679439,0.000000,-2368.659014,11547.212695
716.679754,-1378.971896,-1628.453072,12287.418637
716.680070,-1838.629195,-222.061783,12361.439231
716.680386,-1608.800546,1036.288319,12509.480420
716.680701,-919.314598,1850.514855,11695.253884
716.681017,-229.828649,2294.638420,10881.027347
716.681333,536.266849,2294.638420,9400.615463
716.681649,1685.410096,1702.473667,8586.388927
716.681964,2298.286494,1258.350101,7550.100608
716.682280,2604.724693,888.247130,7179.997637
716.682596,3217.601092,1628.453072,6957.935855
716.682911,3140.991542,1628.453072,6883.915261
716.683227,2451.505594,74.020594,7920.203579
716.683543,1149.143247,-1406.391290,9622.677246
716.683858,0.000000,-2590.720797,11103.089130
716.684174,-1455.581446,-3108.864956,11547.212695
716.684490,-2145.067394,-1776.494261,12213.398043
716.684805,-2374.896044,-222.061783,11843.295072
716.685121,-1378.971896,370.102971,12139.377449
716.685437,-459.657299,888.247130,11251.130318
716.685752,-536.266849,962.267725,10066.800811
716.686068,76.609550,1406.391290,8808.450710
716.686384,1455.581446,296.082377,8290.306550
716.686699,2451.505594,-222.061783,7476.080014
716.687015,2374.896044,1110.308913,6661.853478
716.687331,2681.334243,740.205942,6439.791695
716.687646,2757.943793,740.205942,7105.977043
716.687962,1608.800546,-1480.411884,8882.471304
716.688278,0.000000,-2516.700203,9992.780217
716.688593,-612.876398,-3552.988522,11325.150913
716.688909,-1915.238745,-3034.844362,12361.439231
716.689225,-2528.115143,-1184.329507,12065.356855
716.689540,-2221.676944,148.041188,11473.192101
716.689856,-919.314598,962.267725,11769.274478
716.690172,-536.266849,1036.288319,10584.944971
716.690488,0.000000,1184.329507,9326.594869
716.690803,1532.190996,740.205942,8068.244768
716.691119,2221.676944,222.061783,7105.977043
716.691435,2681.334243,814.226536,6661.853478
716.691750,3064.381992,1554.432478,6365.771101
716.692066,3217.601092,592.164754,6513.812290
716.692382,2374.896044,-370.102971,7994.224174
716.692697,842.705048,-1702.473667,9252.574275
716.693013,-229.828649,-2664.741391,10214.842000
716.693329,-1455.581446,-2960.823768,11843.295072
716.693644,-2681.334243,-2146.597232,12213.398043
716.693960,-2374.896044,-888.247130,11843.295072
716.694276,-1455.581446,518.144159,11695.253884
716.694591,-1072.533697,592.164754,11103.089130
716.694907,-612.876398,814.226536,9844.739029
716.695223,383.047749,444.123565,8438.347739
716.695538,1225.752797,-0.000000,7772.162391
716.695854,2221.676944,-74.020594,7328.038826
716.696170,2681.334243,444.123565,6587.832884
716.696485,2757.943793,666.185348,7031.956449
716.696801,2221.676944,222.061783,7254.018232
716.697117,1762.019645,-1776.494261,8734.430116
716.697432,229.828649,-2738.761985,9696.697840
716.697748,-1149.143247,-2664.741391,11325.150913
716.698064,-1991.848295,-3034.844362,11695.253884
716.698379,-2374.896044,-1554.432478,12139.377449
716.698695,-2145.067394,-296.082377,11843.295072
716.699011,-1302.362347,296.082377,11769.274478
716.699327,-306.438199,518.144159,10510.924376
716.699642,-153.219100,814.226536,9326.594869
716.699958,1225.752797,444.123565,8142.265362
716.700274,2298.286494,-0.000000,7476.080014
716.700589,2911.162892,518.144159,7105.977043
716.700905,3217.601092,1332.370696,7105.977043
716.701221,2911.162892,888.247130,7031.956449
716.701536,2298.286494,-444.123565,8956.491898
716.701852,995.924147,-1628.453072,9918.759623
716.702168,0.000000,-2294.638420,11103.089130
716.702483,-689.485948,-2368.659014,12139.377449
716.702799,-1762.019645,-370.102971,11769.274478
716.703115,-1608.800546,1110.308913,11547.212695
716.703430,-995.924147,1480.411884,11843.295072
716.703746,-536.266849,1406.391290,11399.171507
716.704062,-229.828649,1628.453072,10140.821405
716.704377,919.314598,1184.329507,9252.574275
716.704693,1762.019645,740.205942,8142.265362
716.705009,2451.505594,814.226536,7476.080014
716.705324,3064.381992,1406.391290,7105.977043
716.705640,3064.381992,1850.514855,7031.956449
716.705956,2757.943793,962.267725,7772.162391
716.706271,1378.971896,-222.061783,8882.471304
716.706587,306.438199,-1628.453072,9770.718434
716.706903,0.000000,-2294.638420,11399.171507
716.707218,-1532.190996,-1628.453072,11843.295072
716.707534,-2298.286494,-296.082377,11399.171507
716.707850,-1149.143247,444.123565,11843.295072
716.708166,-919.314598,592.164754,11251.130318
716.708481,-383.047749,888.247130,10288.862594
716.708797,0.000000,740.205942,9252.574275
716.709113,1072.533697,296.082377,8364.327145
716.709428,1685.410096,222.061783,7328.038826
716.709744,2374.896044,740.205942,7476.080014
716.710060,2757.943793,1332.370696,7031.956449
716.710375,2451.505594,518.144159,7402.059420
716.710691,1838.629195,-814.226536,8586.388927
716.711007,459.657299,-1998.556043,9252.574275
716.711322,-306.438199,-2738.761985,10362.883188
716.711638,-1149.143247,-2664.741391,11695.253884
716.711954,-2298.286494,-1406.391290,11917.315666
716.712269,-1915.238745,-0.000000,12287.418637
716.712585,-1225.752797,444.123565,11251.130318
716.712901,-612.876398,-0.000000,10732.986159
716.713216,-306.438199,666.185348,9770.718434
716.713532,766.095498,370.102971,8586.388927
716.713848,1608.800546,148.041188,7328.038826
716.714163,2068.457845,222.061783,7624.121203
716.714479,2681.334243,148.041188,7031.956449
716.714795,2834.553343,666.185348,6957.935855
716.715110,1838.629195,-148.041188,8068.244768
716.715426,383.047749,-1850.514855,9326.594869
716.715742,-1149.143247,-2738.761985,11103.089130
716.716057,-1608.800546,-2664.741391,11473.192101
716.716373,-2681.334243,-1850.514855,11547.212695
716.716689,-2757.943793,-666.185348,11843.295072
716.717005,-1838.629195,-222.061783,11695.253884
716.717320,-1072.533697,148.041188,10807.006753
716.717636,-536.266849,888.247130,9844.739029
716.717952,383.047749,-0.000000,8956.491898
716.718267,1302.362347,-0.000000,7846.182985
716.718583,2221.676944,222.061783,6735.874072
716.718899,2298.286494,296.082377,6661.853478
716.719214,2298.286494,296.082377,6957.935855
716.719530,2681.334243,-592.164754,7550.100608
716.719846,1378.971896,-1850.514855,8734.430116
716.720161,0.000000,-2812.782580,9770.718434
716.720477,-383.047749,-3404.947333,11251.130318
716.720793,-1225.752797,-2294.638420,11769.274478
716.721108,-2298.286494,-592.164754,11399.171507
716.721424,-1532.190996,518.144159,10955.047942
716.721740,-536.266849,444.123565,11325.150913
716.722055,-306.438199,-0.000000,10140.821405
716.722371,459.657299,592.164754,8882.471304
716.722687,995.924147,-0.000000,7994.224174
716.723002,1915.238745,-0.000000,7772.162391
716.723318,2374.896044,296.082377,7846.182985
716.723634,2757.943793,1332.370696,7105.977043
716.723949,2987.772442,1258.350101,6883.915261
716.724265,2298.286494,-0.000000,8438.347739
716.724581,1455.581446,-1184.329507,9252.574275
716.724897,919.314598,-2146.597232,10362.883188
716.725212,0.000000,-1628.453072,11843.295072
716.725528,-1302.362347,-592.164754,11917.315666
716.725844,-995.924147,888.247130,11177.109724
716.726159,-383.047749,1406.391290,10955.047942
716.726475,-995.924147,1628.453072,10288.862594
716.726791,0.000000,1332.370696,10066.800811
716.727106,612.876398,1110.308913,9252.574275
716.727422,1685.410096,296.082377,8438.347739
716.727738,1991.848295,222.061783,8068.244768
716.728053,2298.286494,1332.370696,7624.121203
716.728369,2451.505594,1184.329507,7698.141797
716.728685,2451.505594,666.185348,8364.327145
716.729000,1532.190996,-0.000000,9474.636058
716.729316,0.000000,-1332.370696,10214.842000
716.729632,-459.657299,-1850.514855,11399.171507
716.729947,-1378.971896,-1480.411884,11991.336260
716.730263,-1685.410096,-370.102971,11695.253884
716.730579,-995.924147,666.185348,11769.274478
716.730894,76.609550,592.164754,11029.068536
716.731210,153.219100,1258.350101,10288.862594
716.731526,306.438199,1036.288319,9178.553681
716.731841,995.924147,740.205942,8216.285956
716.732157,1838.629195,444.123565,7920.203579
716.732473,2221.676944,814.226536,7846.182985
716.732788,2145.067394,888.247130,7254.018232
716.733104,2221.676944,296.082377,7624.121203
716.733420,1685.410096,-1110.308913,8660.409521
716.733735,383.047749,-2072.576638,9696.697840
716.734051,-459.657299,-2738.761985,10584.944971
716.734367,-1608.800546,-2368.659014,11399.171507
716.734682,-2451.505594,-1480.411884,12065.356855
716.734998,-1991.848295,-296.082377,11621.233289
716.735314,-995.924147,-0.000000,11103.089130
716.735629,-459.657299,370.102971,10658.965565
716.735945,0.000000,666.185348,9474.636058
716.736261,612.876398,518.144159,8142.265362
716.736576,1685.410096,222.061783,7624.121203
716.736892,2068.457845,444.123565,7402.059420
716.737208,2451.505594,814.226536,6957.935855
716.737524,2528.115143,518.144159,6809.894666
716.737839,2145.067394,-592.164754,8142.265362
716.738155,919.314598,-1332.370696,9030.512492
716.738471,0.000000,-2294.638420,9992.780217
716.738786,-1072.533697,-2886.803174,11029.068536
716.739102,-1762.019645,-1924.535449,11547.212695
716.739418,-2451.505594,-592.164754,11399.171507
716.739733,-1915.238745,296.082377,10807.006753
716.740049,-1149.143247,296.082377,10955.047942
716.740365,-383.047749,-0.000000,9918.759623
716.740680,0.000000,-0.000000,9104.533087
716.740996,842.705048,-370.102971,8438.347739
716.741312,1225.752797,-74.020594,7772.162391
716.741627,1762.019645,444.123565,7105.977043
716.741943,2604.724693,814.226536,7105.977043
716.742259,2451.505594,222.061783,7772.162391
716.742574,2068.457845,-740.205942,8512.368333
716.742890,536.266849,-1998.556043,9178.553681
716.743206,76.609550,-2516.700203,10732.986159
716.743521,-919.314598,-2664.741391,11769.274478
716.743837,-1762.019645,-1036.288319,11399.171507
716.744153,-1072.533697,518.144159,11029.068536
716.744468,-383.047749,-0.000000,11103.089130
716.744784,-229.828649,296.082377,10955.047942
716.745100,0.000000,222.061783,9622.677246
716.745415,766.095498,370.102971,8586.388927
716.745731,2145.067394,222.061783,7994.224174
716.746047,2221.676944,592.164754,7402.059420
716.746362,2451.505594,1924.535449,7254.018232
716.746678,2911.162892,1258.350101,7179.997637
716.746994,2451.505594,-74.020594,8216.285956
716.747309,995.924147,-888.247130,9400.615463
716.747625,229.828649,-1924.535449,10214.842000
716.747941,-153.219100,-2220.617826,11621.233289
716.748256,-1378.971896,-1036.288319,11991.336260
716.748572,-1455.581446,296.082377,11325.150913
716.748888,-689.485948,1036.288319,11177.109724
716.749203,-306.438199,1258.350101,10881.027347
716.749519,0.000000,1184.329507,9770.718434
716.749835,536.266849,1332.370696,8882.471304
716.750150,1608.800546,888.247130,8142.265362
716.750466,1991.848295,814.226536,7550.100608
716.750782,1915.238745,962.267725,7550.100608
716.751098,2451.505594,814.226536,7328.038826
716.751413,2068.457845,296.082377,7846.182985
716.751729,1225.752797,-518.144159,9326.594869
716.752045,-153.219100,-1480.411884,10140.821405
716.752360,-459.657299,-1924.535449,10955.047942
716.752676,-1225.752797,-1998.556043,12065.356855
716.752992,-2298.286494,-814.226536,11917.315666
716.753307,-1838.629195,296.082377,11399.171507
716.753623,-229.828649,296.082377,11473.192101
716.753939,-306.438199,370.102971,10881.027347
716.754254,383.047749,888.247130,9696.697840
716.754570,1378.971896,962.267725,8068.244768
716.754886,1991.848295,740.205942,7328.038826
716.755201,2145.067394,370.102971,7402.059420
716.755517,2451.505594,1184.329507,7105.977043
716.755833,2451.505594,740.205942,7105.977043
716.756148,2221.676944,-370.102971,8216.285956
716.756464,995.924147,-1332.370696,8956.491898
716.756780,0.000000,-1998.556043,9844.739029
716.757095,-842.705048,-2590.720797,11251.130318
716.757411,-1608.800546,-1850.514855,11991.336260
716.757727,-1532.190996,-962.267725,11325.150913
716.758042,-1225.752797,296.082377,10881.027347
716.758358,-919.314598,444.123565,10881.027347
716.758674,-229.828649,148.041188,10362.883188
716.758989,383.047749,740.205942,8586.388927
716.759305,1302.362347,370.102971,7698.141797
716.759621,2451.505594,444.123565,7105.977043
716.759936,2451.505594,592.164754,6661.853478
716.760252,2681.334243,444.123565,7105.977043
716.760568,2834.553343,-518.144159,8068.244768
716.760883,1455.581446,-962.267725,8586.388927
716.761199,0.000000,-1998.556043,10066.800811
716.761515,-842.705048,-2738.761985,11103.089130
716.761830,-1685.410096,-2072.576638,11621.233289
716.762146,-2145.067394,-1036.288319,11843.295072
716.762462,-1915.238745,-0.000000,11251.130318
716.762777,-459.657299,-0.000000,10807.006753
716.763093,-766.095498,296.082377,10436.903782
716.763409,0.000000,592.164754,9030.512492
716.763724,919.314598,370.102971,7994.224174
716.764040,1608.800546,-0.000000,7328.038826
716.764356,1915.238745,666.185348,6735.874072
716.764672,1838.629195,666.185348,7105.977043
716.764987,2145.067394,-0.000000,7179.997637
716.765303,1302.362347,-1258.350101,8216.285956
716.765619,0.000000,-1998.556043,9548.656652
716.765934,-1455.581446,-2738.761985,10807.006753
716.766250,-1762.019645,-2442.679609,11473.192101
716.766566,-1915.238745,-1036.288319,11473.192101
716.766881,-2298.286494,-74.020594,11325.150913
716.767197,-1072.533697,-0.000000,11473.192101
716.767513,-1225.752797,296.082377,11029.068536
716.767828,0.000000,444.123565,9844.739029
716.768144,842.705048,888.247130,8734.430116
716.768460,1838.629195,740.205942,7550.100608
716.768775,2298.286494,740.205942,7254.018232
716.769091,2911.162892,1332.370696,6883.915261
