#time,accel_x,accel_y,accel_z
1002.575407,0.000000,2072.576638,9474.636058
1002.575723,-383.047749,1924.535449,9326.594869
1002.576038,-383.047749,1924.535449,9474.636058
1002.576354,-229.828649,1480.411884,9474.636058
1002.576670,-306.438199,1554.432478,9918.759623
1002.576985,-459.657299,1110.308913,9770.718434
1002.577301,-459.657299,962.267725,9992.780217
1002.577616,-459.657299,814.226536,10288.862594
1002.577932,-229.828649,814.226536,10066.800811
1002.578248,-229.828649,1258.350101,9770.718434
1002.578563,0.000000,1702.473667,9696.697840
1002.578879,229.828649,1776.494261,9622.677246
1002.579194,306.438199,1850.514855,9030.512492
1002.579510,383.047749,2072.576638,9252.574275
1002.579826,153.219100,1998.556043,9252.574275
1002.580141,229.828649,1628.453072,9400.615463
1002.580457,0.000000,1110.308913,9474.636058
1002.580772,-383.047749,1258.350101,9844.739029
1002.581088,-536.266849,1332.370696,9622.677246
1002.581404,-842.705048,1480.411884,9474.636058
1002.581719,-1608.800546,1628.453072,9474.636058
1002.582035,-1302.362347,1554.432478,9400.615463
1002.582351,-2221.676944,1998.556043,9178.553681
1002.582666,-2374.896044,1924.535449,9030.512492
1002.582982,-2681.334243,1628.453072,8956.491898
1002.583297,-2757.943793,1702.473667,9326.594869
1002.583613,-3217.601092,1184.329507,9326.594869
1002.583929,-3600.648841,1036.288319,9400.615463
1002.584244,-3524.039291,1036.288319,9474.636058
1002.584560,-3677.258390,1184.329507,9474.636058
1002.584875,-3447.429741,1036.288319,9548.656652
1002.585191,-3140.991542,1184.329507,9622.677246
1002.585507,-3064.381992,1628.453072,9474.636058
1002.585822,-2911.162892,1850.514855,9104.533087
1002.586138,-2681.334243,2072.576638,8956.491898
1002.586453,-2528.115143,1776.494261,8660.409521
1002.586769,-2451.505594,2368.659014,8512.368333
1002.587085,-2374.896044,2812.782580,8290.306550
1002.587400,-2451.505594,2960.823768,8364.327145
1002.587716,-2528.115143,2812.782580,8586.388927
1002.588031,-2834.553343,2886.803174,8734.430116
1002.588347,-2987.772442,3108.864956,8956.491898
1002.588663,-3294.210641,3108.864956,9400.615463
1002.588978,-3830.477490,2812.782580,9474.636058
1002.589294,-3600.648841,2664.741391,9992.780217
1002.589609,-3447.429741,2294.638420,10066.800811
1002.589925,-3370.820191,2368.659014,10066.800811
1002.590241,-2834.553343,2294.638420,9918.759623
1002.590556,-2298.286494,2220.617826,10214.842000
1002.590872,-1838.629195,2368.659014,10140.821405
1002.591187,-1532.190996,2886.803174,9548.656652
1002.591503,-1225.752797,3182.885551,9400.615463
1002.591819,-842.705048,3404.947333,9104.533087
1002.592134,-76.609550,3478.967927,9178.553681
1002.592450,-76.609550,3478.967927,8956.491898
1002.592766,153.219100,3182.885551,9030.512492
1002.593081,153.219100,2664.741391,9252.574275
1002.593397,-153.219100,2368.659014,9622.677246
1002.593712,-689.485948,1998.556043,9992.780217
1002.594028,-383.047749,1702.473667,10214.842000
1002.594344,-1762.019645,1628.453072,10510.924376
1002.594659,-1991.848295,1850.514855,10288.862594
1002.594975,-2451.505594,1850.514855,10510.924376
1002.595290,-2757.943793,1628.453072,10362.883188
1002.595606,-3064.381992,1110.308913,10510.924376
1002.595922,-2757.943793,1332.370696,10066.800811
1002.596237,-2681.334243,814.226536,10658.965565
1002.596553,-2451.505594,-74.020594,10807.006753
1002.596868,-1915.238745,-888.247130,11177.109724
1002.597184,-1072.533697,-1628.453072,11695.253884
1002.597500,-612.876398,-1850.514855,10881.027347
1002.597815,0.000000,-1406.391290,10807.006753
1002.598131,1302.362347,-962.267725,10288.862594
1002.598446,2374.896044,-296.082377,9622.677246
1002.598762,2757.943793,1110.308913,9252.574275
1002.599078,3524.039291,1702.473667,8216.285956
1002.599393,3600.648841,1776.494261,7550.100608
1002.599709,3600.648841,1850.514855,7402.059420
1002.600024,2987.772442,1554.432478,7328.038826
1002.600340,2298.286494,1628.453072,7254.018232
1002.600656,995.924147,666.185348,8142.265362
1002.600971,-153.219100,-370.102971,8882.471304
1002.601287,-1225.752797,-1110.308913,9770.718434
1002.601602,-2451.505594,-1850.514855,10807.006753
1002.601908,-3370.820191,-2886.803174,11325.150913
1002.602224,-3677.258390,-3330.926739,11769.274478
1002.602539,-3140.991542,-3775.050304,11843.295072
1002.602855,-2298.286494,-3627.009116,11103.089130
1002.603171,-995.924147,-3256.906145,10214.842000
1002.603486,766.095498,-2220.617826,9178.553681
1002.603802,2528.115143,-962.267725,7698.141797
1002.604118,3447.429741,148.041188,7105.977043
1002.604433,4366.744339,1554.432478,5847.626942
1002.604749,5056.230287,2516.700203,4811.338623
1002.605064,4136.915689,3552.988522,5033.400406
1002.605380,3140.991542,3034.844362,5329.482782
1002.605696,2068.457845,2072.576638,6883.915261
1002.606011,306.438199,888.247130,7476.080014
1002.606327,-1838.629195,-1110.308913,9326.594869
1002.606643,-3140.991542,-3034.844362,11029.068536
1002.606958,-4519.963438,-4071.132681,12065.356855
1002.607274,-5362.668486,-4737.318029,12805.562797
1002.607590,-5209.449386,-4959.379811,13027.624579
1002.607905,-4673.182538,-4441.235652,12509.480420
1002.608221,-3217.601092,-3108.864956,11917.315666
1002.608537,-1378.971896,-1776.494261,10584.944971
1002.608852,306.438199,-370.102971,9252.574275
1002.609168,2298.286494,1554.432478,7328.038826
1002.609483,3370.820191,3256.906145,5995.668130
1002.609799,4366.744339,4071.132681,5255.462188
1002.610115,4366.744339,4293.194464,5995.668130
1002.610430,3830.477490,3330.926739,6439.791695
1002.610746,2987.772442,2072.576638,7328.038826
1002.611062,1225.752797,370.102971,9030.512492
1002.611377,0.000000,-962.267725,10658.965565
1002.611693,-1149.143247,-2146.597232,11917.315666
1002.612009,-1991.848295,-2442.679609,12361.439231
1002.612324,-2451.505594,-2442.679609,13101.645173
1002.612640,-2374.896044,-2294.638420,12731.542202
1002.612955,-1532.190996,-1406.391290,11917.315666
1002.613271,-536.266849,-370.102971,11251.130318
1002.613587,383.047749,962.267725,10288.862594
1002.613902,1838.629195,2294.638420,8882.471304
1002.614218,2604.724693,4293.194464,7328.038826
1002.614534,3064.381992,5403.503377,7254.018232
1002.614849,3064.381992,5403.503377,7254.018232
1002.615165,2681.334243,4219.173869,7994.224174
1002.615481,1762.019645,2368.659014,9400.615463
1002.615796,1455.581446,888.247130,10214.842000
1002.616112,1072.533697,-814.226536,11695.253884
1002.616427,459.657299,-1776.494261,12361.439231
1002.616743,229.828649,-1924.535449,12657.521608
1002.617059,0.000000,-1258.350101,11991.336260
1002.617374,383.047749,-444.123565,11399.171507
1002.617690,612.876398,-0.000000,10807.006753
1002.618006,1378.971896,740.205942,9918.759623
1002.618321,1838.629195,1924.535449,8438.347739
1002.618637,2221.676944,3330.926739,7254.018232
1002.618953,2145.067394,4071.132681,7105.977043
1002.619268,2221.676944,3701.029710,7846.182985
1002.619584,1225.752797,1998.556043,8512.368333
1002.619899,229.828649,-0.000000,9400.615463
1002.620215,-536.266849,-2368.659014,10732.986159
1002.620531,-1225.752797,-3627.009116,11769.274478
1002.620846,-1915.238745,-3775.050304,11991.336260
1002.621162,-1685.410096,-3849.070898,12583.501014
1002.621478,-1225.752797,-2886.803174,12139.377449
1002.621793,-689.485948,-1998.556043,10807.006753
1002.622109,-153.219100,-1036.288319,9918.759623
1002.622425,842.705048,-962.267725,8734.430116
1002.622740,2374.896044,148.041188,7105.977043
1002.623056,3217.601092,2146.597232,5477.523971
1002.623371,3064.381992,3923.091493,4737.318029
1002.623687,2911.162892,3923.091493,5329.482782
1002.624003,2068.457845,2368.659014,6735.874072
1002.624318,153.219100,-0.000000,8512.368333
1002.624634,-1072.533697,-2368.659014,9770.718434
1002.624950,-2068.457845,-4367.215058,11177.109724
1002.625265,-2757.943793,-5033.400406,12065.356855
1002.625581,-3217.601092,-4663.297435,12361.439231
1002.625897,-2604.724693,-3997.112087,12213.398043
1002.626212,-1455.581446,-2220.617826,10955.047942
1002.626528,-1072.533697,-888.247130,10066.800811
1002.626843,-153.219100,-74.020594,8734.430116
1002.627159,1532.190996,-0.000000,7031.956449
1002.627475,2528.115143,1702.473667,6069.688724
1002.627790,2834.553343,3701.029710,5255.462188
1002.628106,3064.381992,3923.091493,4959.379811
1002.628422,2604.724693,2886.803174,6439.791695
1002.628737,1762.019645,1036.288319,8068.244768
1002.629053,536.266849,-1406.391290,9474.636058
1002.629369,-229.828649,-3627.009116,10732.986159
1002.629684,-1532.190996,-4219.173869,11769.274478
1002.630000,-1685.410096,-3923.091493,12805.562797
1002.630315,-1838.629195,-3108.864956,12805.562797
1002.630631,-1608.800546,-1998.556043,11695.253884
1002.630947,-1225.752797,-814.226536,10881.027347
1002.631262,-459.657299,-592.164754,10140.821405
1002.631578,0.000000,-0.000000,9104.533087
1002.631894,995.924147,1258.350101,7994.224174
1002.632209,1685.410096,1850.514855,7031.956449
1002.632525,2145.067394,2368.659014,7476.080014
1002.632841,2298.286494,1628.453072,8364.327145
1002.633156,1991.848295,222.061783,9104.533087
1002.633472,1302.362347,-1850.514855,10362.883188
1002.633787,689.485948,-2664.741391,11029.068536
1002.634103,229.828649,-3108.864956,11843.295072
1002.634419,229.828649,-2368.659014,12287.418637
1002.634734,229.828649,-1036.288319,11621.233289
1002.635050,459.657299,-0.000000,10658.965565
1002.635366,306.438199,888.247130,9918.759623
1002.635681,153.219100,814.226536,9474.636058
1002.635997,842.705048,1332.370696,8734.430116
1002.636313,1072.533697,1776.494261,8438.347739
1002.636628,1455.581446,1776.494261,8216.285956
1002.636944,1608.800546,1702.473667,8438.347739
1002.637260,1378.971896,1258.350101,8808.450710
1002.637575,995.924147,148.041188,9548.656652
1002.637891,689.485948,-962.267725,10881.027347
1002.638206,76.609550,-1998.556043,11621.233289
1002.638522,-153.219100,-1628.453072,11547.212695
1002.638838,76.609550,-814.226536,11325.150913
1002.639153,153.219100,666.185348,10288.862594
1002.639469,153.219100,1924.535449,9326.594869
1002.639785,995.924147,2146.597232,8586.388927
1002.640100,1149.143247,2294.638420,7994.224174
1002.640416,1072.533697,2442.679609,7476.080014
1002.640732,1149.143247,2368.659014,7550.100608
1002.641047,766.095498,1554.432478,7550.100608
1002.641363,306.438199,1258.350101,8216.285956
1002.641678,76.609550,148.041188,9400.615463
1002.641994,-229.828649,-1184.329507,10214.842000
1002.642310,-459.657299,-2220.617826,11029.068536
1002.642625,-842.705048,-2664.741391,11177.109724
1002.642941,-995.924147,-2220.617826,11251.130318
1002.643257,-766.095498,-1036.288319,10732.986159
1002.643572,-536.266849,592.164754,9844.739029
1002.643888,-306.438199,1480.411884,8734.430116
1002.644204,229.828649,1702.473667,8216.285956
1002.644519,0.000000,1332.370696,7624.121203
1002.644835,0.000000,1332.370696,7476.080014
1002.645150,383.047749,962.267725,7550.100608
1002.645466,229.828649,518.144159,8216.285956
1002.645782,76.609550,-370.102971,8734.430116
1002.646097,0.000000,-1776.494261,9548.656652
1002.646413,-383.047749,-2368.659014,10510.924376
1002.646729,-612.876398,-2812.782580,11029.068536
1002.647044,-612.876398,-2590.720797,10881.027347
1002.647360,-995.924147,-1702.473667,10955.047942
1002.647676,-919.314598,-666.185348,10362.883188
1002.647991,-153.219100,740.205942,9770.718434
1002.648307,0.000000,1332.370696,8808.450710
1002.648622,766.095498,1702.473667,7846.182985
1002.648938,306.438199,1776.494261,7772.162391
1002.649254,459.657299,1554.432478,7698.141797
1002.649569,766.095498,888.247130,7920.203579
1002.649885,689.485948,-0.000000,8956.491898
1002.650201,689.485948,-962.267725,9918.759623
1002.650516,383.047749,-2368.659014,10807.006753
1002.650832,0.000000,-2664.741391,11473.192101
1002.651148,76.609550,-2738.761985,11769.274478
1002.651463,229.828649,-1998.556043,11103.089130
1002.651779,766.095498,-740.205942,10807.006753
1002.652094,919.314598,592.164754,9918.759623
1002.652410,1302.362347,1554.432478,9104.533087
1002.652726,1685.410096,1850.514855,8364.327145
1002.653041,1991.848295,1702.473667,7846.182985
1002.653357,1838.629195,1406.391290,7846.182985
1002.653673,1532.190996,1480.411884,7920.203579
1002.653988,1225.752797,592.164754,8734.430116
1002.654304,919.314598,-592.164754,9622.677246
1002.654620,842.705048,-2368.659014,10584.944971
1002.654935,229.828649,-3034.844362,11399.171507
1002.655251,-229.828649,-3552.988522,11695.253884
1002.655566,0.000000,-3552.988522,11917.315666
1002.655882,536.266849,-2812.782580,11473.192101
1002.656198,842.705048,-1406.391290,10436.903782
1002.656513,1225.752797,-0.000000,9474.636058
1002.656829,1915.238745,1184.329507,8216.285956
1002.657145,1991.848295,1406.391290,7328.038826
1002.657460,1838.629195,1702.473667,6957.935855
1002.657776,2145.067394,1702.473667,7105.977043
1002.658092,1838.629195,740.205942,7920.203579
1002.658407,1302.362347,-222.061783,8734.430116
1002.658723,536.266849,-2220.617826,9622.677246
1002.659038,76.609550,-3478.967927,10881.027347
1002.659354,0.000000,-4219.173869,11251.130318
1002.659670,-306.438199,-3701.029710,11547.212695
1002.659985,-153.219100,-2812.782580,11399.171507
1002.660301,76.609550,-1702.473667,10510.924376
1002.660617,919.314598,222.061783,9548.656652
1002.660932,1072.533697,1406.391290,8586.388927
1002.661248,1302.362347,1924.535449,7402.059420
1002.661564,1225.752797,2294.638420,6883.915261
1002.661879,1608.800546,1998.556043,6587.832884
1002.662195,1225.752797,1554.432478,7254.018232
1002.662510,842.705048,888.247130,8068.244768
1002.662826,383.047749,-0.000000,8956.491898
1002.663142,-153.219100,-1480.411884,9918.759623
1002.663457,-919.314598,-2516.700203,10584.944971
1002.663773,-842.705048,-2886.803174,11251.130318
1002.664089,-1072.533697,-2294.638420,11325.150913
1002.664404,-766.095498,-1628.453072,11325.150913
1002.664720,-459.657299,-592.164754,10510.924376
1002.665036,229.828649,518.144159,9474.636058
1002.665351,383.047749,1554.432478,8216.285956
1002.665667,919.314598,1850.514855,7698.141797
1002.665983,995.924147,2294.638420,7328.038826
1002.666298,1149.143247,2664.741391,7105.977043
1002.666614,1532.190996,2220.617826,7846.182985
1002.666929,612.876398,1406.391290,8512.368333
1002.667245,76.609550,-0.000000,9622.677246
1002.667561,-306.438199,-1406.391290,10436.903782
1002.667876,-766.095498,-2368.659014,11399.171507
1002.668192,-995.924147,-2960.823768,11843.295072
1002.668508,-1225.752797,-2368.659014,12287.418637
1002.668823,-766.095498,-1776.494261,11621.233289
1002.669139,-612.876398,-296.082377,10584.944971
1002.669455,0.000000,1258.350101,9548.656652
1002.669770,459.657299,1702.473667,8586.388927
1002.670086,995.924147,2220.617826,8068.244768
1002.670401,1608.800546,2812.782580,7698.141797
1002.670717,1378.971896,2516.700203,7772.162391
1002.671033,1225.752797,2368.659014,8142.265362
1002.671348,1072.533697,1554.432478,9030.512492
1002.671664,306.438199,-0.000000,9992.780217
1002.671980,0.000000,-1702.473667,11103.089130
1002.672295,-612.876398,-2738.761985,11473.192101
1002.672611,-919.314598,-2516.700203,12213.398043
1002.672927,-919.314598,-2146.597232,12287.418637
1002.673242,-383.047749,-1258.350101,11547.212695
1002.673558,0.000000,370.102971,10584.944971
1002.673873,536.266849,1406.391290,9474.636058
1002.674189,1072.533697,2072.576638,8438.347739
1002.674505,1915.238745,2368.659014,7772.162391
1002.674820,2068.457845,2812.782580,7105.977043
1002.675136,2374.896044,2664.741391,7179.997637
1002.675452,2145.067394,1850.514855,7920.203579
1002.675767,1685.410096,296.082377,9252.574275
1002.676083,995.924147,-1258.350101,9992.780217
1002.676399,689.485948,-2220.617826,10881.027347
1002.676714,0.000000,-2886.803174,11325.150913
1002.677030,0.000000,-2812.782580,11769.274478
1002.677345,0.000000,-1998.556043,11399.171507
1002.677661,459.657299,-592.164754,10510.924376
1002.677977,919.314598,666.185348,9474.636058
1002.678292,995.924147,1332.370696,8438.347739
1002.678608,1455.581446,1406.391290,7550.100608
1002.678924,1838.629195,1480.411884,7328.038826
1002.679239,2068.457845,1776.494261,7105.977043
1002.679555,1532.190996,1110.308913,7328.038826
1002.679871,1225.752797,148.041188,8068.244768
1002.680186,842.705048,-1184.329507,9326.594869
1002.680502,153.219100,-2960.823768,10288.862594
1002.680817,-306.438199,-3404.947333,11029.068536
1002.681133,-612.876398,-3849.070898,11399.171507
1002.681449,-689.485948,-3034.844362,11473.192101
1002.681764,-306.438199,-2294.638420,10510.924376
1002.682080,0.000000,-814.226536,9844.739029
1002.682396,383.047749,666.185348,8512.368333
1002.682711,536.266849,814.226536,7698.141797
1002.683027,1072.533697,962.267725,7328.038826
1002.683343,1378.971896,1332.370696,7105.977043
1002.683658,919.314598,1184.329507,7254.018232
1002.683974,919.314598,814.226536,7772.162391
1002.684289,306.438199,-0.000000,8808.450710
1002.684605,153.219100,-1258.350101,9696.697840
1002.684921,-689.485948,-2812.782580,10584.944971
1002.685236,-1072.533697,-3108.864956,11103.089130
1002.685552,-995.924147,-2960.823768,11621.233289
1002.685868,-1149.143247,-2590.720797,11621.233289
1002.686183,-919.314598,-888.247130,10436.903782
1002.686499,-919.314598,296.082377,9918.759623
1002.686815,0.000000,1554.432478,8956.491898
1002.687130,153.219100,1480.411884,8142.265362
1002.687446,383.047749,1702.473667,7476.080014
1002.687761,536.266849,2442.679609,7105.977043
1002.688077,919.314598,1702.473667,7846.182985
1002.688393,995.924147,1184.329507,8364.327145
1002.688708,383.047749,-0.000000,9104.533087
1002.689024,0.000000,-1406.391290,9992.780217
1002.689340,-229.828649,-2368.659014,11029.068536
1002.689655,-1072.533697,-2590.720797,11621.233289
1002.689971,-1149.143247,-2368.659014,11917.315666
1002.690287,-919.314598,-1480.411884,11621.233289
1002.690602,-536.266849,-148.041188,10807.006753
1002.690918,153.219100,1480.411884,9918.759623
1002.691233,306.438199,1554.432478,8734.430116
1002.691549,459.657299,2220.617826,8142.265362
1002.691865,689.485948,2516.700203,7772.162391
1002.692180,1532.190996,2442.679609,7624.121203
1002.692496,1378.971896,2072.576638,8364.327145
1002.692812,1072.533697,1036.288319,9030.512492
1002.693127,536.266849,-370.102971,9918.759623
1002.693443,229.828649,-1998.556043,10732.986159
1002.693759,-306.438199,-2664.741391,11621.233289
1002.694074,-459.657299,-2516.700203,11917.315666
1002.694390,-229.828649,-1850.514855,11695.253884
1002.694705,0.000000,-444.123565,11103.089130
1002.695021,383.047749,666.185348,10214.842000
1002.695337,919.314598,1628.453072,9178.553681
1002.695652,1149.143247,2072.576638,8216.285956
1002.695968,1608.800546,2072.576638,7550.100608
1002.696284,1685.410096,2146.597232,7624.121203
1002.696599,1455.581446,1480.411884,7772.162391
1002.696915,1225.752797,962.267725,8142.265362
1002.697231,612.876398,-0.000000,9252.574275
1002.697546,459.657299,-1628.453072,10066.800811
1002.697862,0.000000,-2368.659014,10807.006753
1002.698178,-306.438199,-3034.844362,11769.274478
1002.698493,-689.485948,-2738.761985,11547.212695
1002.698809,-383.047749,-1776.494261,11621.233289
1002.699124,76.609550,-296.082377,10066.800811
1002.699440,689.485948,814.226536,9252.574275
1002.699756,1225.752797,1480.411884,8068.244768
1002.700071,1532.190996,1924.535449,7772.162391
1002.700387,1532.190996,1850.514855,7105.977043
1002.700703,1378.971896,1406.391290,7476.080014
1002.701018,1378.971896,962.267725,7920.203579
1002.701334,1149.143247,-0.000000,8586.388927
1002.701650,536.266849,-1184.329507,9696.697840
1002.701965,0.000000,-2368.659014,10584.944971
1002.702281,-229.828649,-3182.885551,10955.047942
1002.702596,-383.047749,-3256.906145,11473.192101
1002.702912,0.000000,-2812.782580,11547.212695
1002.703228,-306.438199,-1628.453072,10881.027347
1002.703544,76.609550,-444.123565,10066.800811
1002.703860,612.876398,592.164754,9104.533087
1002.704176,766.095498,1110.308913,8364.327145
1002.704492,1225.752797,1110.308913,7920.203579
1002.704807,1455.581446,1184.329507,7179.997637
1002.705123,1608.800546,1258.350101,7698.141797
1002.705439,1378.971896,518.144159,7994.224174
1002.705755,536.266849,-0.000000,8882.471304
1002.706071,995.924147,-1554.432478,9548.656652
1002.706387,76.609550,-3182.885551,10584.944971
1002.706703,-229.828649,-3552.988522,11473.192101
1002.707018,-689.485948,-3330.926739,11695.253884
1002.707334,-536.266849,-2442.679609,11399.171507
1002.707650,-842.705048,-1406.391290,10807.006753
1002.707966,0.000000,222.061783,9474.636058
1002.708282,383.047749,740.205942,8660.409521
1002.708598,919.314598,888.247130,8068.244768
1002.708914,689.485948,1628.453072,7624.121203
1002.709229,995.924147,1184.329507,7328.038826
1002.709545,1149.143247,888.247130,7772.162391
1002.709861,766.095498,222.061783,8438.347739
1002.710177,383.047749,-666.185348,9474.636058
1002.710493,153.219100,-2294.638420,10214.842000
1002.710809,-153.219100,-3182.885551,11251.130318
1002.711125,-383.047749,-3108.864956,11473.192101
1002.711440,-76.609550,-2442.679609,11473.192101
1002.711756,0.000000,-1332.370696,10955.047942
1002.712072,0.000000,148.041188,10214.842000
1002.712388,1072.533697,1258.350101,8808.450710
1002.712704,1225.752797,2220.617826,7920.203579
1002.713020,1455.581446,2368.659014,7624.121203
1002.713335,1455.581446,2442.679609,7254.018232
1002.713651,1225.752797,2368.659014,7402.059420
1002.713967,1608.800546,1406.391290,8216.285956
1002.714283,766.095498,370.102971,9178.553681
1002.714599,0.000000,-1036.288319,10140.821405
1002.714915,-229.828649,-1776.494261,10807.006753
1002.715231,-842.705048,-2368.659014,11547.212695
1002.715546,-1072.533697,-2442.679609,11843.295072
1002.715862,-689.485948,-1776.494261,11843.295072
1002.716178,-536.266849,-444.123565,10955.047942
1002.716494,306.438199,1036.288319,9770.718434
1002.716810,536.266849,2294.638420,8808.450710
1002.717126,1762.019645,2738.761985,7846.182985
1002.717442,1608.800546,2812.782580,7179.997637
1002.717757,1915.238745,3034.844362,7105.977043
1002.718073,1838.629195,2368.659014,7476.080014
1002.718389,1991.848295,1554.432478,8216.285956
1002.718705,1072.533697,-0.000000,9326.594869
1002.719021,306.438199,-1258.350101,10214.842000
1002.719337,153.219100,-2442.679609,11251.130318
1002.719653,-306.438199,-2516.700203,11251.130318
1002.719968,-383.047749,-2442.679609,11843.295072
1002.720284,-306.438199,-1332.370696,11473.192101
1002.720600,0.000000,296.082377,10510.924376
1002.720916,383.047749,1406.391290,9548.656652
1002.721232,612.876398,1702.473667,8586.388927
1002.721548,842.705048,2220.617826,7994.224174
1002.721864,1225.752797,2368.659014,7328.038826
1002.722179,1149.143247,2294.638420,7402.059420
1002.722495,1532.190996,1406.391290,8068.244768
1002.722811,1762.019645,666.185348,8734.430116
1002.723127,459.657299,-666.185348,10214.842000
1002.723443,0.000000,-2368.659014,10881.027347
1002.723759,-612.876398,-2960.823768,11473.192101
1002.724075,-536.266849,-3034.844362,11917.315666
1002.724390,229.828649,-2516.700203,11621.233289
1002.724706,-229.828649,-1184.329507,11251.130318
1002.725022,153.219100,296.082377,9992.780217
1002.725338,689.485948,1406.391290,8882.471304
1002.725654,919.314598,1628.453072,7846.182985
1002.725970,995.924147,1628.453072,7476.080014
1002.726286,1455.581446,1776.494261,7402.059420
1002.726601,1455.581446,1628.453072,7846.182985
1002.726917,1149.143247,518.144159,8438.347739
1002.727233,612.876398,-888.247130,9400.615463
1002.727549,76.609550,-2368.659014,10436.903782
1002.727865,-229.828649,-3404.947333,11177.109724
1002.728181,-842.705048,-3701.029710,11325.150913
1002.728497,-842.705048,-3256.906145,11769.274478
1002.728812,-306.438199,-2294.638420,11473.192101
1002.729128,-306.438199,-814.226536,10510.924376
1002.729444,459.657299,888.247130,9178.553681
1002.729760,842.705048,962.267725,8438.347739
1002.730076,1225.752797,1110.308913,7624.121203
1002.730392,1455.581446,1406.391290,7254.018232
1002.730707,1378.971896,1702.473667,6957.935855
1002.731023,1378.971896,1110.308913,7550.100608
1002.731339,766.095498,148.041188,8290.306550
1002.731655,536.266849,-1110.308913,9548.656652
1002.731971,0.000000,-2738.761985,10436.903782
1002.732287,-612.876398,-3404.947333,11177.109724
1002.732603,-995.924147,-3627.009116,11547.212695
1002.732918,-766.095498,-3034.844362,11769.274478
1002.733234,-306.438199,-1850.514855,11251.130318
1002.733550,-229.828649,-296.082377,10066.800811
1002.733866,229.828649,740.205942,9030.512492
1002.734182,689.485948,1332.370696,8142.265362
1002.734498,1072.533697,1554.432478,7550.100608
1002.734814,1225.752797,1628.453072,6883.915261
1002.735129,1378.971896,1702.473667,7105.977043
1002.735445,1225.752797,962.267725,7920.203579
1002.735761,919.314598,-74.020594,8734.430116
1002.736077,459.657299,-1332.370696,9548.656652
1002.736393,536.266849,-2368.659014,10658.965565
1002.736709,-383.047749,-2960.823768,11177.109724
1002.737025,-459.657299,-2590.720797,11547.212695
1002.737340,0.000000,-1776.494261,11399.171507
1002.737656,-306.438199,-444.123565,10436.903782
1002.737972,0.000000,1258.350101,9696.697840
1002.738288,536.266849,1480.411884,8734.430116
1002.738604,995.924147,1702.473667,8142.265362
1002.738920,842.705048,2442.679609,7254.018232
1002.739236,1149.143247,1998.556043,7698.141797
1002.739551,1225.752797,1628.453072,7846.182985
1002.739867,612.876398,888.247130,8364.327145
1002.740183,383.047749,-444.123565,9400.615463
1002.740499,0.000000,-1924.535449,10510.924376
1002.740815,-459.657299,-2738.761985,11547.212695
1002.741131,-689.485948,-2738.761985,12139.377449
1002.741447,-536.266849,-1850.514855,11991.336260
1002.741762,-383.047749,-666.185348,11251.130318
1002.742078,229.828649,888.247130,10362.883188
1002.742394,536.266849,1480.411884,9252.574275
1002.742710,995.924147,2442.679609,8216.285956
1002.743026,1149.143247,2220.617826,7772.162391
1002.743342,1455.581446,2368.659014,7402.059420
1002.743658,1302.362347,2294.638420,7550.100608
1002.743973,1455.581446,1406.391290,8364.327145
1002.744289,919.314598,518.144159,9326.594869
1002.744605,536.266849,-814.226536,10362.883188
1002.744921,153.219100,-2220.617826,11177.109724
1002.745237,-766.095498,-2590.720797,11695.253884
1002.745553,-612.876398,-2812.782580,11843.295072
1002.745869,-229.828649,-1776.494261,11843.295072
1002.746184,0.000000,-740.205942,10807.006753
1002.746500,229.828649,814.226536,9992.780217
1002.746816,536.266849,1554.432478,8956.491898
1002.747132,1378.971896,1332.370696,8142.265362
1002.747448,1378.971896,1850.514855,7624.121203
1002.747764,1378.971896,2072.576638,7254.018232
1002.748080,1455.581446,1554.432478,7624.121203
1002.748395,1149.143247,1036.288319,8364.327145
1002.748711,766.095498,-740.205942,9474.636058
1002.749027,153.219100,-1998.556043,10288.862594
1002.749343,-459.657299,-2886.803174,11103.089130
1002.749659,-536.266849,-2960.823768,11695.253884
1002.749975,-689.485948,-2812.782580,11769.274478
1002.750290,-306.438199,-2072.576638,11251.130318
1002.750606,0.000000,-518.144159,10288.862594
1002.750922,153.219100,666.185348,9326.594869
1002.751238,612.876398,1258.350101,8142.265362
1002.751554,1072.533697,1110.308913,7698.141797
1002.751870,1532.190996,1406.391290,7328.038826
1002.752186,1685.410096,1554.432478,7105.977043
1002.752501,1455.581446,1036.288319,7772.162391
1002.752817,766.095498,296.082377,8660.409521
1002.753133,229.828649,-1554.432478,9770.718434
1002.753449,0.000000,-3034.844362,10584.944971
1002.753765,-459.657299,-3849.070898,11325.150913
1002.754081,-842.705048,-3849.070898,11695.253884
1002.754397,-766.095498,-2812.782580,11251.130318
1002.754712,-306.438199,-1702.473667,10732.986159
1002.755028,383.047749,-222.061783,9696.697840
1002.755344,536.266849,1184.329507,8512.368333
1002.755660,612.876398,1406.391290,7698.141797
1002.755976,1225.752797,1480.411884,7402.059420
1002.756292,1149.143247,1924.535449,6587.832884
1002.756608,1455.581446,1628.453072,7031.956449
1002.756923,1302.362347,592.164754,8142.265362
1002.757239,766.095498,-592.164754,8808.450710
1002.757555,459.657299,-1924.535449,10140.821405
1002.757871,-383.047749,-3330.926739,10881.027347
1002.758187,-919.314598,-3256.906145,11399.171507
1002.758503,-766.095498,-2368.659014,11695.253884
1002.758819,-459.657299,-1332.370696,11103.089130
1002.759134,306.438199,-0.000000,10436.903782
1002.759450,919.314598,1258.350101,9400.615463
1002.759766,842.705048,2072.576638,8216.285956
1002.760082,1302.362347,1924.535449,7772.162391
1002.760398,1608.800546,2294.638420,7402.059420
1002.760714,1685.410096,2368.659014,7179.997637
1002.761030,1991.848295,1480.411884,7772.162391
1002.761345,1225.752797,666.185348,8882.471304
1002.761661,689.485948,-888.247130,9770.718434
1002.761977,459.657299,-1998.556043,10584.944971
1002.762293,0.000000,-2738.761985,11399.171507
1002.762609,-612.876398,-2664.741391,11695.253884
1002.762925,-306.438199,-2072.576638,11695.253884
1002.763241,0.000000,-592.164754,11325.150913
1002.763556,306.438199,814.226536,9992.780217
1002.763872,1072.533697,2072.576638,9252.574275
1002.764188,1149.143247,1702.473667,8216.285956
1002.764504,1378.971896,1702.473667,7772.162391
1002.764820,1532.190996,2294.638420,7624.121203
1002.765136,1838.629195,1998.556043,7772.162391
1002.765452,1685.410096,1184.329507,8512.368333
1002.765767,766.095498,518.144159,9474.636058
1002.766083,536.266849,-1258.350101,10362.883188
1002.766399,0.000000,-2368.659014,11029.068536
1002.766715,-536.266849,-2812.782580,11621.233289
1002.767031,-536.266849,-2368.659014,12065.356855
1002.767347,-612.876398,-1998.556043,11843.295072
1002.767662,-459.657299,-444.123565,11103.089130
1002.767978,0.000000,962.267725,9992.780217
1002.768294,766.095498,1554.432478,9104.533087
1002.768610,842.705048,1850.514855,8216.285956
1002.768926,1149.143247,2220.617826,7550.100608
1002.769242,1762.019645,2220.617826,7624.121203
1002.769558,1608.800546,1850.514855,7772.162391
1002.769873,1762.019645,740.205942,8290.306550
1002.770189,1149.143247,-518.144159,9474.636058
1002.770505,536.266849,-1776.494261,10362.883188
1002.770821,229.828649,-2886.803174,10881.027347
1002.771137,-306.438199,-3034.844362,11473.192101
1002.771453,-229.828649,-2368.659014,11399.171507
1002.771769,0.000000,-1184.329507,10807.006753
1002.772084,153.219100,370.102971,9844.739029
1002.772400,306.438199,1036.288319,8956.491898
1002.772716,536.266849,1332.370696,8068.244768
1002.773032,612.876398,1258.350101,7772.162391
1002.773348,612.876398,1332.370696,7402.059420
1002.773664,1072.533697,962.267725,7402.059420
1002.773980,689.485948,518.144159,7920.203579
1002.774295,612.876398,-0.000000,8512.368333
1002.774611,0.000000,-1406.391290,9622.677246
1002.774927,-689.485948,-2516.700203,10510.924376
1002.775243,-842.705048,-2960.823768,11103.089130
1002.775559,-1225.752797,-2960.823768,11399.171507
1002.775875,-842.705048,-2442.679609,11473.192101
1002.776191,-689.485948,-1036.288319,10288.862594
1002.776506,0.000000,296.082377,9474.636058
1002.776822,383.047749,1184.329507,8586.388927
1002.777138,689.485948,1480.411884,7920.203579
1002.777454,1225.752797,1702.473667,7476.080014
1002.777770,1685.410096,1850.514855,7179.997637
1002.778086,1532.190996,1258.350101,7624.121203
1002.778402,1225.752797,592.164754,8216.285956
1002.778717,459.657299,-518.144159,9326.594869
1002.779033,76.609550,-2072.576638,10362.883188
1002.779349,-153.219100,-3034.844362,11029.068536
1002.779665,-459.657299,-3404.947333,11399.171507
1002.779981,-536.266849,-2590.720797,11547.212695
1002.780297,0.000000,-1702.473667,10881.027347
1002.780613,-153.219100,-370.102971,10066.800811
1002.780928,536.266849,962.267725,9474.636058
1002.781244,842.705048,1332.370696,8290.306550
1002.781560,1532.190996,1406.391290,7698.141797
1002.781876,1225.752797,1628.453072,7624.121203
1002.782192,1532.190996,1332.370696,7550.100608
1002.782508,1532.190996,1184.329507,7920.203579
1002.782824,1302.362347,370.102971,9104.533087
1002.783139,842.705048,-888.247130,9770.718434
1002.783455,229.828649,-1924.535449,10658.965565
1002.783771,-229.828649,-2886.803174,11029.068536
1002.784087,-76.609550,-2590.720797,11547.212695
1002.784403,0.000000,-2146.597232,11695.253884
1002.784719,-153.219100,-888.247130,11029.068536
1002.785035,0.000000,444.123565,10214.842000
1002.785350,766.095498,1406.391290,9400.615463
1002.785666,1072.533697,1850.514855,8438.347739
1002.785982,1149.143247,1998.556043,7624.121203
1002.786298,1378.971896,1998.556043,7920.203579
1002.786614,1378.971896,1554.432478,8216.285956
1002.786930,612.876398,1184.329507,8808.450710
1002.787245,842.705048,-74.020594,9474.636058
1002.787561,612.876398,-1406.391290,10436.903782
1002.787877,-76.609550,-2442.679609,10955.047942
1002.788193,-536.266849,-2812.782580,11325.150913
1002.788509,-153.219100,-2368.659014,11399.171507
1002.788825,0.000000,-1332.370696,11473.192101
1002.789141,536.266849,148.041188,10510.924376
1002.789456,995.924147,1332.370696,9474.636058
1002.789772,1149.143247,1258.350101,8364.327145
1002.790088,1149.143247,1702.473667,7920.203579
1002.790404,1225.752797,1480.411884,7624.121203
1002.790720,1378.971896,1702.473667,7254.018232
1002.791036,1455.581446,1110.308913,8068.244768
1002.791352,612.876398,296.082377,8660.409521
1002.791667,76.609550,-1110.308913,9548.656652
1002.791983,-383.047749,-2442.679609,10436.903782
1002.792299,-766.095498,-3182.885551,11251.130318
1002.792615,-1225.752797,-3182.885551,11695.253884
1002.792931,-1378.971896,-2664.741391,11621.233289
1002.793247,-766.095498,-1480.411884,11103.089130
1002.793563,-153.219100,-0.000000,9992.780217
1002.793878,383.047749,888.247130,8882.471304
1002.794194,612.876398,1332.370696,7920.203579
1002.794510,1225.752797,1480.411884,7846.182985
1002.794826,1225.752797,1850.514855,7179.997637
1002.795142,1302.362347,1702.473667,7105.977043
1002.795458,995.924147,1184.329507,7698.141797
1002.795774,383.047749,-0.000000,8882.471304
1002.796089,612.876398,-1258.350101,9696.697840
1002.796405,0.000000,-2368.659014,10436.903782
1002.796721,-383.047749,-2664.741391,10955.047942
1002.797037,-766.095498,-2516.700203,11473.192101
1002.797353,-306.438199,-1850.514855,11177.109724
1002.797669,-229.828649,-518.144159,10214.842000
1002.797985,0.000000,814.226536,9400.615463
1002.798300,306.438199,1480.411884,8364.327145
1002.798616,689.485948,1850.514855,8142.265362
1002.798932,842.705048,1702.473667,7550.100608
1002.799248,1302.362347,2146.597232,7328.038826
1002.799564,1149.143247,1702.473667,7772.162391
1002.799880,995.924147,1036.288319,8512.368333
1002.800196,459.657299,-222.061783,9326.594869
1002.800511,76.609550,-1998.556043,10288.862594
1002.800827,-459.657299,-2738.761985,11177.109724
1002.801143,-689.485948,-2590.720797,11621.233289
1002.801459,-689.485948,-2220.617826,11769.274478
1002.801775,-459.657299,-1110.308913,11399.171507
1002.802091,-153.219100,222.061783,10362.883188
1002.802407,536.266849,1702.473667,9696.697840
1002.802722,1149.143247,1406.391290,8438.347739
1002.803038,1225.752797,1628.453072,8290.306550
1002.803354,1762.019645,2220.617826,7550.100608
1002.803670,1685.410096,1776.494261,7772.162391
1002.803986,1455.581446,1480.411884,8142.265362
1002.804301,1302.362347,370.102971,9252.574275
1002.804617,842.705048,-1184.329507,9918.759623
1002.804933,306.438199,-2368.659014,10881.027347
1002.805248,-306.438199,-3404.947333,11621.233289
1002.805564,-229.828649,-2960.823768,11769.274478
1002.805880,-306.438199,-2220.617826,11769.274478
1002.806195,229.828649,-592.164754,11029.068536
1002.806511,842.705048,518.144159,9918.759623
1002.806827,995.924147,1998.556043,9030.512492
1002.807143,1225.752797,1702.473667,8216.285956
1002.807458,1762.019645,1480.411884,7402.059420
1002.807774,1762.019645,1554.432478,7402.059420
1002.808090,1762.019645,1406.391290,7550.100608
1002.808405,1378.971896,370.102971,8068.244768
1002.808721,766.095498,-518.144159,9252.574275
1002.809037,459.657299,-1924.535449,10288.862594
1002.809352,0.000000,-2516.700203,10584.944971
1002.809668,-459.657299,-2738.761985,11251.130318
1002.809984,-459.657299,-2516.700203,11621.233289
1002.810300,-153.219100,-1554.432478,11177.109724
1002.810615,0.000000,-222.061783,10288.862594
1002.810931,306.438199,740.205942,9178.553681
1002.811247,383.047749,740.205942,8660.409521
1002.811562,1072.533697,1184.329507,7920.203579
1002.811878,842.705048,1332.370696,7179.997637
1002.812194,1302.362347,1480.411884,7254.018232
1002.812509,995.924147,814.226536,7624.121203
1002.812825,995.924147,222.061783,8660.409521
1002.813141,689.485948,-1406.391290,9326.594869
1002.813456,76.609550,-2664.741391,9992.780217
1002.813772,-383.047749,-3478.967927,11103.089130
1002.814088,-383.047749,-3330.926739,11547.212695
1002.814404,-306.438199,-2442.679609,11251.130318
1002.814719,0.000000,-888.247130,10362.883188
1002.815035,153.219100,666.185348,9474.636058
1002.815351,536.266849,1406.391290,8586.388927
1002.815666,919.314598,1628.453072,7772.162391
1002.815982,842.705048,1702.473667,7550.100608
1002.816298,919.314598,1702.473667,7105.977043
1002.816613,995.924147,1332.370696,7476.080014
1002.816929,536.266849,666.185348,8216.285956
1002.817245,536.266849,-592.164754,9326.594869
1002.817561,-153.219100,-1628.453072,10214.842000
1002.817876,-689.485948,-2738.761985,10881.027347
1002.818192,-1455.581446,-3182.885551,11473.192101
1002.818508,-1685.410096,-2516.700203,11843.295072
1002.818823,-842.705048,-1628.453072,11399.171507
1002.819139,-689.485948,-296.082377,10214.842000
1002.819455,-383.047749,1110.308913,9474.636058
1002.819770,76.609550,1850.514855,8586.388927
1002.820086,995.924147,1332.370696,7476.080014
1002.820402,1225.752797,1924.535449,7550.100608
1002.820717,1225.752797,1998.556043,7105.977043
1002.821033,1072.533697,1924.535449,7698.141797
1002.821349,919.314598,888.247130,8586.388927
1002.821665,383.047749,-814.226536,9918.759623
1002.821980,0.000000,-1776.494261,10658.965565
1002.822296,-306.438199,-2738.761985,11399.171507
1002.822612,-612.876398,-2812.782580,11843.295072
1002.822927,-766.095498,-2072.576638,11843.295072
1002.823243,-383.047749,-740.205942,11473.192101
1002.823559,229.828649,518.144159,10214.842000
1002.823874,383.047749,1480.411884,9474.636058
1002.824190,919.314598,1776.494261,8586.388927
1002.824506,1838.629195,1850.514855,8068.244768
1002.824821,1915.238745,2368.659014,7920.203579
1002.825137,1915.238745,2294.638420,7698.141797
1002.825453,1149.143247,1332.370696,8216.285956
1002.825769,995.924147,592.164754,9178.553681
1002.826084,459.657299,-1110.308913,9918.759623
1002.826400,612.876398,-2590.720797,11029.068536
1002.826716,-229.828649,-3034.844362,11547.212695
1002.827031,-229.828649,-2738.761985,11769.274478
1002.827347,-229.828649,-1850.514855,11325.150913
1002.827663,0.000000,-74.020594,10584.944971
1002.827978,766.095498,666.185348,9696.697840
1002.828294,1455.581446,1702.473667,8512.368333
1002.828610,1302.362347,1628.453072,7846.182985
1002.828926,1762.019645,1628.453072,7624.121203
1002.829241,1762.019645,1850.514855,7254.018232
1002.829557,1685.410096,1332.370696,7846.182985
1002.829873,1225.752797,814.226536,8586.388927
1002.830188,766.095498,-518.144159,9622.677246
1002.830504,76.609550,-2220.617826,10362.883188
1002.830820,0.000000,-2960.823768,11251.130318
1002.831135,0.000000,-3552.988522,11621.233289
1002.831451,-383.047749,-2590.720797,11843.295072
1002.831767,-153.219100,-1184.329507,11251.130318
1002.832082,0.000000,370.102971,10066.800811
1002.832398,766.095498,1480.411884,9104.533087
1002.832714,919.314598,1554.432478,8216.285956
1002.833030,1378.971896,1702.473667,7476.080014
1002.833345,1608.800546,1776.494261,6957.935855
1002.833661,1685.410096,1406.391290,7105.977043
1002.833977,1378.971896,370.102971,7550.100608
1002.834292,995.924147,-296.082377,8734.430116
1002.834608,536.266849,-1776.494261,9548.656652
1002.834924,-153.219100,-3256.906145,10658.965565
1002.835239,-995.924147,-3775.050304,11251.130318
1002.835555,-995.924147,-3256.906145,11695.253884
1002.835871,-1378.971896,-2442.679609,11325.150913
1002.836186,-766.095498,-1036.288319,10658.965565
1002.836502,-306.438199,296.082377,9548.656652
1002.836818,153.219100,814.226536,8734.430116
1002.837134,842.705048,1406.391290,7920.203579
1002.837449,1225.752797,1332.370696,7179.997637
1002.837765,1072.533697,1554.432478,7476.080014
1002.838081,1225.752797,1332.370696,7624.121203
1002.838396,1072.533697,814.226536,8216.285956
1002.838712,1378.971896,-222.061783,9104.533087
1002.839028,229.828649,-1628.453072,9992.780217
1002.839343,0.000000,-2738.761985,10658.965565
1002.839659,-612.876398,-3034.844362,11325.150913
1002.839975,-612.876398,-2590.720797,11843.295072
1002.840291,0.000000,-1628.453072,11251.130318
1002.840606,153.219100,-74.020594,10140.821405
1002.840922,0.000000,1036.288319,9474.636058
1002.841238,306.438199,1258.350101,8734.430116
1002.841553,383.047749,1332.370696,7994.224174
1002.841869,995.924147,1332.370696,7698.141797
1002.842185,612.876398,1850.514855,7624.121203
1002.842500,766.095498,1480.411884,8142.265362
1002.842816,229.828649,296.082377,9178.553681
1002.843132,229.828649,-518.144159,9844.739029
1002.843447,76.609550,-2442.679609,10584.944971
1002.843763,-153.219100,-2664.741391,11177.109724
1002.844079,-536.266849,-2738.761985,11695.253884
1002.844395,-536.266849,-1850.514855,11695.253884
1002.844710,76.609550,-370.102971,11103.089130
1002.845026,306.438199,814.226536,9918.759623
1002.845342,842.705048,1924.535449,9104.533087
1002.845657,919.314598,2220.617826,8216.285956
1002.845973,1378.971896,2368.659014,7698.141797
1002.846289,1608.800546,2590.720797,7105.977043
1002.846604,1378.971896,1998.556043,7772.162391
1002.846920,1455.581446,1184.329507,8438.347739
1002.847236,766.095498,-74.020594,9474.636058
1002.847552,306.438199,-1702.473667,10288.862594
1002.847867,0.000000,-2886.803174,11251.130318
1002.848183,-153.219100,-3108.864956,11547.212695
1002.848499,-306.438199,-2516.700203,11769.274478
1002.848814,0.000000,-1332.370696,11547.212695
1002.849130,536.266849,148.041188,10362.883188
1002.849446,689.485948,1628.453072,9474.636058
1002.849761,1225.752797,1628.453072,8438.347739
1002.850077,1608.800546,2146.597232,7624.121203
1002.850393,1685.410096,2294.638420,7402.059420
1002.850708,1838.629195,2072.576638,7105.977043
1002.851024,1685.410096,1110.308913,8290.306550
1002.851340,1378.971896,518.144159,8512.368333
1002.851656,689.485948,-740.205942,9474.636058
1002.851971,76.609550,-2368.659014,10436.903782
1002.852287,-612.876398,-3330.926739,11399.171507
1002.852603,-919.314598,-3330.926739,11843.295072
1002.852918,-766.095498,-2220.617826,11621.233289
1002.853234,-306.438199,-1258.350101,11251.130318
1002.853550,0.000000,370.102971,10066.800811
1002.853865,612.876398,1332.370696,9030.512492
1002.854181,689.485948,1406.391290,8142.265362
1002.854497,1149.143247,1480.411884,7698.141797
1002.854812,1149.143247,1628.453072,7698.141797
1002.855128,1302.362347,1406.391290,7550.100608
1002.855444,1302.362347,666.185348,8142.265362
1002.855760,612.876398,-0.000000,9178.553681
1002.856075,459.657299,-1258.350101,9770.718434
1002.856391,0.000000,-2664.741391,10510.924376
1002.856707,-459.657299,-2738.761985,11399.171507
1002.857022,-689.485948,-3108.864956,11769.274478
1002.857338,-383.047749,-2146.597232,11251.130318
1002.857654,-153.219100,-666.185348,10436.903782
1002.857969,153.219100,370.102971,9474.636058
1002.858285,766.095498,888.247130,8660.409521
1002.858601,612.876398,1110.308913,8068.244768
1002.858917,459.657299,1184.329507,7846.182985
1002.859232,995.924147,1702.473667,7476.080014
1002.859548,995.924147,1184.329507,7624.121203
1002.859864,1149.143247,148.041188,8438.347739
1002.860179,76.609550,-1258.350101,9400.615463
1002.860495,-306.438199,-2590.720797,10214.842000
1002.860811,-612.876398,-3256.906145,10881.027347
1002.861126,-1302.362347,-3256.906145,11251.130318
1002.861442,-1532.190996,-2516.700203,11251.130318
1002.861758,-766.095498,-1480.411884,10881.027347
1002.862073,-383.047749,222.061783,10214.842000
1002.862389,306.438199,962.267725,9104.533087
1002.862705,842.705048,1406.391290,8512.368333
1002.863021,1225.752797,1628.453072,7772.162391
1002.863336,1302.362347,2220.617826,7105.977043
1002.863652,1378.971896,1998.556043,7328.038826
1002.863968,1378.971896,1480.411884,8068.244768
1002.864283,1302.362347,444.123565,9178.553681
1002.864599,383.047749,-962.267725,9770.718434
1002.864915,76.609550,-2294.638420,10881.027347
1002.865230,-306.438199,-3034.844362,11177.109724
1002.865546,-459.657299,-2664.741391,11843.295072
1002.865862,-689.485948,-1850.514855,11695.253884
1002.866178,0.000000,-0.000000,11103.089130
1002.866493,229.828649,1036.288319,9918.759623
1002.866809,689.485948,1776.494261,8956.491898
1002.867125,1225.752797,1850.514855,8068.244768
1002.867440,1762.019645,1998.556043,7624.121203
1002.867756,1685.410096,1924.535449,7550.100608
1002.868072,1915.238745,1258.350101,7994.224174
1002.868387,1608.800546,740.205942,8660.409521
1002.868703,919.314598,-0.000000,9696.697840
1002.869019,459.657299,-1776.494261,10362.883188
1002.869334,76.609550,-2590.720797,10955.047942
1002.869650,-306.438199,-2442.679609,11399.171507
1002.869966,0.000000,-2220.617826,11843.295072
1002.870282,0.000000,-1406.391290,11325.150913
1002.870597,0.000000,-74.020594,10436.903782
1002.870913,459.657299,962.267725,9400.615463
1002.871229,689.485948,1258.350101,8512.368333
1002.871544,1302.362347,1406.391290,8216.285956
1002.871860,1838.629195,1850.514855,7772.162391
1002.872176,1378.971896,1776.494261,7846.182985
1002.872491,1225.752797,1332.370696,8364.327145
1002.872807,1072.533697,518.144159,8956.491898
1002.873123,459.657299,-888.247130,9696.697840
1002.873438,229.828649,-2738.761985,10140.821405
1002.873754,0.000000,-3182.885551,11251.130318
1002.874070,-153.219100,-3034.844362,11769.274478
1002.874386,0.000000,-2146.597232,11547.212695
1002.874701,76.609550,-888.247130,10807.006753
1002.875017,536.266849,740.205942,9548.656652
1002.875333,919.314598,1406.391290,8512.368333
1002.875648,919.314598,1702.473667,8068.244768
1002.875964,1149.143247,1776.494261,7402.059420
1002.876280,1378.971896,1776.494261,7328.038826
1002.876595,1302.362347,1406.391290,7624.121203
1002.876911,1225.752797,518.144159,8290.306550
1002.877227,459.657299,-518.144159,8956.491898
1002.877543,76.609550,-2294.638420,9844.739029
1002.877858,-459.657299,-3256.906145,11029.068536
1002.878174,-919.314598,-3775.050304,11399.171507
1002.878490,-1072.533697,-3182.885551,11621.233289
1002.878805,-1378.971896,-2072.576638,11399.171507
1002.879121,-766.095498,-518.144159,10140.821405
1002.879437,-229.828649,888.247130,9326.594869
1002.879752,229.828649,1110.308913,8364.327145
1002.880068,459.657299,1480.411884,7476.080014
1002.880384,1072.533697,1554.432478,7254.018232
1002.880699,1532.190996,1332.370696,7179.997637
1002.881015,1149.143247,814.226536,7772.162391
1002.881331,1455.581446,222.061783,7994.224174
1002.881647,536.266849,-962.267725,9400.615463
1002.881962,0.000000,-2072.576638,10214.842000
1002.882278,-306.438199,-2886.803174,10881.027347
1002.882594,-536.266849,-2738.761985,11399.171507
1002.882909,-1072.533697,-2294.638420,11325.150913
1002.883225,-536.266849,-1184.329507,11029.068536
1002.883541,-306.438199,370.102971,10066.800811
1002.883856,-306.438199,1110.308913,9030.512492
1002.884172,306.438199,1110.308913,8660.409521
1002.884488,689.485948,962.267725,7772.162391
1002.884804,995.924147,1924.535449,7476.080014
1002.885119,842.705048,1850.514855,7698.141797
1002.885435,842.705048,1184.329507,8364.327145
1002.885751,536.266849,222.061783,9326.594869
1002.886066,76.609550,-1036.288319,9992.780217
1002.886382,0.000000,-2220.617826,10807.006753
1002.886698,-459.657299,-2664.741391,11251.130318
1002.887013,-459.657299,-2220.617826,11621.233289
1002.887329,0.000000,-1554.432478,11325.150913
1002.887645,76.609550,-0.000000,10658.965565
1002.887960,459.657299,1406.391290,9474.636058
1002.888276,689.485948,1998.556043,9104.533087
1002.888592,842.705048,1924.535449,8068.244768
1002.888908,1225.752797,1998.556043,7846.182985
1002.889223,1225.752797,2294.638420,7624.121203
1002.889539,1762.019645,1776.494261,7994.224174
1002.889855,1685.410096,1110.308913,8734.430116
1002.890170,1302.362347,148.041188,9548.656652
1002.890486,919.314598,-1554.432478,10214.842000
1002.890802,612.876398,-2590.720797,11029.068536
1002.891117,76.609550,-3034.844362,11621.233289
1002.891433,-153.219100,-2220.617826,11621.233289
1002.891749,612.876398,-1184.329507,11325.150913
1002.892064,383.047749,-0.000000,10140.821405
1002.892380,306.438199,1480.411884,9474.636058
1002.892696,919.314598,1628.453072,8586.388927
1002.893012,1302.362347,1924.535449,7994.224174
1002.893327,1378.971896,1554.432478,7846.182985
1002.893643,1685.410096,1406.391290,7772.162391
1002.893959,1685.410096,814.226536,8290.306550
1002.894274,919.314598,-74.020594,8734.430116
1002.894590,306.438199,-1184.329507,9696.697840
1002.894906,459.657299,-2664.741391,10436.903782
1002.895221,-306.438199,-2960.823768,11325.150913
1002.895537,-612.876398,-2664.741391,11547.212695
1002.895853,-689.485948,-2146.597232,11399.171507
1002.896169,0.000000,-888.247130,10658.965565
1002.896484,229.828649,-0.000000,9918.759623
1002.896800,383.047749,1184.329507,8882.471304
1002.897116,1072.533697,1554.432478,7846.182985
1002.897431,1072.533697,1406.391290,7550.100608
1002.897747,766.095498,1554.432478,7328.038826
1002.898063,1302.362347,1332.370696,7624.121203
1002.898378,766.095498,888.247130,7994.224174
1002.898694,842.705048,-296.082377,9178.553681
1002.899010,459.657299,-1998.556043,9918.759623
1002.899325,0.000000,-3182.885551,11029.068536
1002.899641,-689.485948,-3256.906145,11251.130318
1002.899957,-612.876398,-2664.741391,11399.171507
1002.900273,-306.438199,-1776.494261,10881.027347
1002.900588,229.828649,-222.061783,10436.903782
1002.900904,459.657299,1184.329507,8956.491898
1002.901220,612.876398,1554.432478,8068.244768
1002.901535,612.876398,1480.411884,7624.121203
1002.901851,919.314598,1628.453072,7402.059420
1002.902167,1149.143247,1702.473667,7624.121203
1002.902482,995.924147,962.267725,7846.182985
1002.902798,536.266849,296.082377,8660.409521
1002.903114,229.828649,-1110.308913,9474.636058
1002.903430,0.000000,-2368.659014,10510.924376
1002.903745,-766.095498,-3330.926739,11103.089130
1002.904061,-1149.143247,-3108.864956,11325.150913
1002.904377,-842.705048,-2146.597232,11769.274478
1002.904692,-919.314598,-888.247130,10732.986159
1002.905008,-229.828649,518.144159,10066.800811
1002.905324,229.828649,1184.329507,9030.512492
1002.905640,229.828649,1406.391290,8290.306550
1002.905956,766.095498,1628.453072,7846.182985
1002.906272,1072.533697,1702.473667,7698.141797
1002.906587,1149.143247,1480.411884,8216.285956
1002.906903,995.924147,1036.288319,8586.388927
1002.907219,612.876398,-74.020594,9400.615463
1002.907535,383.047749,-1184.329507,9992.780217
1002.907851,0.000000,-2220.617826,10732.986159
1002.908167,-306.438199,-2516.700203,11103.089130
1002.908482,-383.047749,-2368.659014,11547.212695
1002.908798,-153.219100,-1332.370696,11547.212695
1002.909114,153.219100,-0.000000,10807.006753
1002.909430,536.266849,1110.308913,9696.697840
1002.909746,995.924147,1702.473667,8882.471304
1002.910062,1072.533697,1628.453072,8364.327145
1002.910377,1455.581446,1628.453072,7698.141797
1002.910693,1838.629195,2220.617826,7550.100608
1002.911009,1455.581446,1406.391290,7920.203579
1002.911325,995.924147,814.226536,8660.409521
1002.911641,612.876398,-592.164754,9622.677246
1002.911957,153.219100,-2072.576638,10510.924376
1002.912273,0.000000,-2886.803174,11547.212695
1002.912588,-459.657299,-2960.823768,11695.253884
1002.912904,0.000000,-2146.597232,11769.274478
1002.913220,0.000000,-1480.411884,11029.068536
1002.913536,229.828649,518.144159,10066.800811
1002.913852,995.924147,1554.432478,8956.491898
1002.914168,1378.971896,1776.494261,8216.285956
1002.914483,1838.629195,1850.514855,7772.162391
1002.914799,1991.848295,2220.617826,7402.059420
1002.915115,2068.457845,1628.453072,7179.997637
1002.915431,1991.848295,1184.329507,8142.265362
1002.915747,1532.190996,148.041188,8956.491898
1002.916063,919.314598,-1332.370696,9696.697840
1002.916379,459.657299,-2886.803174,10732.986159
1002.916694,0.000000,-2960.823768,11103.089130
1002.917010,-306.438199,-2664.741391,11547.212695
1002.917326,0.000000,-1924.535449,11325.150913
1002.917642,153.219100,-518.144159,10584.944971
1002.917958,0.000000,666.185348,9474.636058
1002.918274,689.485948,962.267725,8808.450710
1002.918589,919.314598,1036.288319,8068.244768
1002.918905,1072.533697,1258.350101,7846.182985
1002.919221,1302.362347,1036.288319,7624.121203
1002.919537,995.924147,444.123565,8068.244768
1002.919853,919.314598,-0.000000,8438.347739
1002.920169,229.828649,-1184.329507,9252.574275
1002.920485,76.609550,-2368.659014,10140.821405
1002.920800,-383.047749,-2886.803174,10807.006753
1002.921116,-919.314598,-3034.844362,11103.089130
1002.921432,-689.485948,-2516.700203,11103.089130
1002.921748,-689.485948,-1554.432478,10955.047942
1002.922064,0.000000,-296.082377,9918.759623
1002.922380,383.047749,148.041188,9104.533087
1002.922695,306.438199,814.226536,8364.327145
1002.923011,383.047749,1258.350101,7846.182985
1002.923327,1072.533697,1480.411884,7179.997637
1002.923643,995.924147,1776.494261,7254.018232
1002.923959,919.314598,1184.329507,7846.182985
1002.924275,612.876398,148.041188,8882.471304
1002.924590,153.219100,-1406.391290,9696.697840
1002.924906,-459.657299,-2664.741391,10436.903782
1002.925222,-842.705048,-2886.803174,11251.130318
1002.925538,-919.314598,-2812.782580,11547.212695
1002.925854,-689.485948,-1554.432478,11473.192101
1002.926170,-536.266849,-444.123565,10658.965565
1002.926486,-229.828649,814.226536,9696.697840
1002.926801,919.314598,1702.473667,8956.491898
1002.927117,612.876398,1480.411884,8364.327145
1002.927433,995.924147,1850.514855,7698.141797
1002.927749,1302.362347,1850.514855,7476.080014
1002.928065,1302.362347,1702.473667,7846.182985
1002.928381,1225.752797,1184.329507,8068.244768
1002.928696,919.314598,444.123565,9030.512492
1002.929012,459.657299,-1036.288319,9548.656652
1002.929328,0.000000,-2294.638420,10807.006753
1002.929644,-536.266849,-2664.741391,11695.253884
1002.929960,-766.095498,-2812.782580,11843.295072
1002.930276,-459.657299,-1554.432478,11695.253884
1002.930592,0.000000,-74.020594,10658.965565
1002.930907,229.828649,1406.391290,9770.718434
1002.931223,842.705048,1998.556043,8882.471304
1002.931539,995.924147,1776.494261,8216.285956
1002.931855,1455.581446,2368.659014,7550.100608
1002.932171,1455.581446,2146.597232,7772.162391
1002.932487,1378.971896,1776.494261,7920.203579
1002.932802,1608.800546,444.123565,8808.450710
1002.933118,766.095498,-888.247130,9844.739029
1002.933434,0.000000,-2072.576638,10732.986159
1002.933750,0.000000,-2442.679609,11399.171507
1002.934066,-229.828649,-2516.700203,11843.295072
1002.934382,0.000000,-1702.473667,11695.253884
1002.934698,0.000000,-296.082377,10881.027347
1002.935013,459.657299,814.226536,10066.800811
1002.935329,919.314598,1850.514855,9104.533087
1002.935645,1225.752797,1924.535449,8142.265362
1002.935961,1915.238745,1924.535449,7476.080014
1002.936277,1762.019645,2146.597232,7254.018232
1002.936593,1532.190996,1998.556043,7624.121203
1002.936908,1608.800546,1406.391290,8068.244768
1002.937224,1225.752797,148.041188,8808.450710
1002.937540,842.705048,-1480.411884,9992.780217
1002.937856,459.657299,-2738.761985,10807.006753
1002.938172,-459.657299,-3256.906145,11399.171507
1002.938488,-766.095498,-2590.720797,11473.192101
1002.938803,-383.047749,-1924.535449,11769.274478
1002.939119,-689.485948,-444.123565,10584.944971
1002.939435,-76.609550,1110.308913,9696.697840
1002.939751,306.438199,1258.350101,8808.450710
1002.940067,536.266849,1184.329507,8142.265362
1002.940383,1072.533697,1776.494261,7328.038826
1002.940699,1072.533697,1332.370696,7476.080014
1002.941014,1378.971896,1036.288319,8438.347739
1002.941330,1149.143247,222.061783,8512.368333
1002.941646,995.924147,-666.185348,9326.594869
1002.941962,536.266849,-2368.659014,10140.821405
1002.942278,0.000000,-3256.906145,10955.047942
1002.942594,-383.047749,-3330.926739,11325.150913
1002.942909,-229.828649,-2442.679609,11103.089130
1002.943225,-383.047749,-1850.514855,10955.047942
1002.943541,153.219100,-148.041188,9918.759623
1002.943857,306.438199,814.226536,9104.533087
1002.944173,689.485948,962.267725,8290.306550
1002.944489,766.095498,1258.350101,7846.182985
1002.944805,995.924147,1110.308913,7328.038826
1002.945120,612.876398,1184.329507,7402.059420
1002.945436,766.095498,740.205942,7920.203579
1002.945752,229.828649,-518.144159,9252.574275
1002.946068,-229.828649,-1924.535449,9992.780217
1002.946384,-689.485948,-3404.947333,10955.047942
1002.946700,-919.314598,-3256.906145,11695.253884
1002.947015,-766.095498,-3034.844362,11621.233289
1002.947331,-995.924147,-2146.597232,11325.150913
1002.947647,-689.485948,-370.102971,11103.089130
1002.947963,-306.438199,814.226536,10214.842000
1002.948279,76.609550,1480.411884,8660.409521
1002.948595,612.876398,1776.494261,8142.265362
1002.948911,919.314598,1776.494261,7624.121203
1002.949226,995.924147,1924.535449,7328.038826
1002.949542,1455.581446,1554.432478,8142.265362
1002.949858,1378.971896,888.247130,8364.327145
1002.950174,689.485948,-222.061783,9400.615463
1002.950490,536.266849,-1776.494261,10140.821405
1002.950806,0.000000,-2812.782580,10807.006753
1002.951121,-229.828649,-2516.700203,11621.233289
1002.951437,-76.609550,-2368.659014,11399.171507
1002.951753,0.000000,-1110.308913,11325.150913
1002.952069,0.000000,-0.000000,10510.924376
1002.952385,842.705048,1110.308913,9252.574275
1002.952701,766.095498,1850.514855,8734.430116
1002.953016,1455.581446,1850.514855,7920.203579
1002.953332,1378.971896,2072.576638,7624.121203
1002.953648,1532.190996,2072.576638,7698.141797
1002.953964,1455.581446,1184.329507,7772.162391
1002.954280,995.924147,148.041188,8734.430116
1002.954596,689.485948,-1184.329507,10214.842000
1002.954912,612.876398,-2146.597232,10732.986159
1002.955227,0.000000,-2590.720797,11325.150913
1002.955543,76.609550,-2664.741391,11251.130318
1002.955859,76.609550,-1702.473667,11325.150913
1002.956175,76.609550,-296.082377,10584.944971
1002.956491,536.266849,962.267725,9770.718434
1002.956807,842.705048,1702.473667,8660.409521
1002.957122,1149.143247,1998.556043,8142.265362
1002.957438,1378.971896,2294.638420,7772.162391
1002.957754,1378.971896,2368.659014,7328.038826
1002.958070,1302.362347,1480.411884,7846.182985
1002.958386,1072.533697,740.205942,8586.388927
1002.958702,612.876398,-444.123565,9696.697840
1002.959018,229.828649,-1702.473667,10214.842000
1002.959333,-76.609550,-3034.844362,11103.089130
1002.959649,-459.657299,-3478.967927,11695.253884
1002.959965,-306.438199,-2516.700203,11547.212695
1002.960281,0.000000,-1406.391290,11251.130318
1002.960597,0.000000,-148.041188,10436.903782
1002.960913,383.047749,1110.308913,9548.656652
1002.961228,919.314598,1628.453072,8216.285956
1002.961544,1302.362347,1776.494261,7772.162391
1002.961860,1378.971896,1924.535449,7402.059420
1002.962176,1532.190996,1776.494261,7328.038826
1002.962492,1608.800546,1036.288319,7846.182985
1002.962808,1302.362347,-0.000000,8734.430116
1002.963124,766.095498,-1258.350101,9844.739029
1002.963439,536.266849,-2516.700203,10584.944971
1002.963755,-306.438199,-3404.947333,11029.068536
1002.964071,-612.876398,-3108.864956,11621.233289
1002.964387,-766.095498,-2294.638420,11399.171507
1002.964703,0.000000,-1406.391290,10584.944971
1002.965019,-153.219100,444.123565,9548.656652
1002.965334,76.609550,1184.329507,8734.430116
1002.965650,612.876398,1258.350101,8216.285956
1002.965966,1072.533697,1628.453072,7624.121203
1002.966282,842.705048,1776.494261,7328.038826
1002.966598,995.924147,1406.391290,7402.059420
1002.966914,766.095498,444.123565,8068.244768
1002.967229,459.657299,-370.102971,9030.512492
1002.967545,229.828649,-1776.494261,10066.800811
1002.967861,0.000000,-2960.823768,11029.068536
1002.968177,-842.705048,-3182.885551,11547.212695
1002.968493,-842.705048,-2590.720797,11769.274478
1002.968809,-842.705048,-1776.494261,11103.089130
1002.969125,-766.095498,-74.020594,10288.862594
1002.969440,0.000000,740.205942,9178.553681
1002.969756,306.438199,1332.370696,8956.491898
1002.970072,1072.533697,1628.453072,8068.244768
1002.970388,995.924147,1776.494261,7698.141797
1002.970704,1762.019645,1628.453072,7476.080014
1002.971020,1225.752797,1406.391290,7772.162391
1002.971335,842.705048,888.247130,8438.347739
1002.971651,306.438199,-444.123565,9326.594869
1002.971967,459.657299,-1924.535449,10436.903782
1002.972283,-229.828649,-2590.720797,11177.109724
1002.972599,-842.705048,-2664.741391,11473.192101
1002.972915,-766.095498,-2072.576638,11473.192101
1002.973231,-459.657299,-1036.288319,11177.109724
1002.973546,0.000000,296.082377,10214.842000
1002.973862,306.438199,1702.473667,9326.594869
1002.974178,536.266849,1554.432478,8512.368333
1002.974494,1225.752797,1776.494261,7994.224174
1002.974810,995.924147,1924.535449,7624.121203
1002.975126,1608.800546,1554.432478,7624.121203
1002.975441,2068.457845,1332.370696,8660.409521
1002.975757,1378.971896,296.082377,9030.512492
1002.976073,1225.752797,-814.226536,9696.697840
1002.976389,689.485948,-2220.617826,10510.924376
1002.976705,0.000000,-2812.782580,11251.130318
1002.977021,0.000000,-2368.659014,11399.171507
1002.977337,306.438199,-1406.391290,11251.130318
1002.977652,383.047749,-0.000000,10436.903782
1002.977968,612.876398,1332.370696,9474.636058
1002.978284,842.705048,1554.432478,8734.430116
1002.978600,1149.143247,1998.556043,8364.327145
1002.978916,1072.533697,1998.556043,7772.162391
1002.979232,1455.581446,1702.473667,7476.080014
1002.979547,1685.410096,740.205942,8068.244768
1002.979863,1149.143247,370.102971,8586.388927
1002.980179,689.485948,-740.205942,9548.656652
1002.980495,306.438199,-2220.617826,10584.944971
1002.980811,0.000000,-2664.741391,11103.089130
1002.981127,-306.438199,-2590.720797,11547.212695
1002.981442,-459.657299,-2146.597232,11325.150913
1002.981758,-229.828649,-1258.350101,11103.089130
1002.982074,153.219100,222.061783,9844.739029
1002.982390,459.657299,1110.308913,9178.553681
1002.982706,919.314598,1184.329507,9030.512492
1002.983022,1225.752797,1554.432478,7994.224174
1002.983338,1225.752797,1554.432478,7624.121203
1002.983653,1455.581446,1406.391290,7550.100608
1002.983969,1455.581446,962.267725,8364.327145
1002.984285,842.705048,-148.041188,8438.347739
1002.984601,612.876398,-1184.329507,9770.718434
1002.984917,0.000000,-2664.741391,10807.006753
1002.985233,-383.047749,-3404.947333,11399.171507
1002.985548,-766.095498,-3108.864956,11843.295072
1002.985864,-1072.533697,-2812.782580,11473.192101
1002.986180,-689.485948,-1184.329507,10732.986159
1002.986496,0.000000,296.082377,9770.718434
1002.986812,306.438199,888.247130,8660.409521
1002.987128,536.266849,1332.370696,8216.285956
1002.987444,995.924147,1258.350101,7476.080014
1002.987759,766.095498,1406.391290,7179.997637
1002.988075,1225.752797,1036.288319,7476.080014
1002.988391,995.924147,296.082377,8068.244768
1002.988707,612.876398,-740.205942,9252.574275
1002.989023,612.876398,-2442.679609,9992.780217
1002.989339,-153.219100,-3182.885551,10881.027347
1002.989654,-919.314598,-3108.864956,11177.109724
1002.989970,-766.095498,-2516.700203,11029.068536
1002.990286,-995.924147,-1554.432478,10955.047942
1002.990602,-919.314598,-0.000000,10288.862594
1002.990918,0.000000,1110.308913,9104.533087
1002.991234,153.219100,1480.411884,8290.306550
1002.991550,306.438199,1702.473667,7920.203579
1002.991865,459.657299,1258.350101,7698.141797
1002.992181,919.314598,740.205942,7624.121203
1002.992497,919.314598,962.267725,7994.224174
1002.992813,536.266849,-0.000000,8734.430116
1002.993129,612.876398,-814.226536,9474.636058
1002.993445,-229.828649,-2146.597232,10362.883188
1002.993760,-229.828649,-2812.782580,11103.089130
1002.994076,-536.266849,-2442.679609,11399.171507
1002.994392,-459.657299,-1480.411884,11251.130318
1002.994708,-153.219100,-148.041188,10732.986159
1002.995024,459.657299,1036.288319,9918.759623
1002.995340,995.924147,1702.473667,9178.553681
1002.995655,995.924147,1776.494261,7846.182985
1002.995971,1378.971896,1850.514855,7920.203579
1002.996287,1608.800546,1924.535449,7920.203579
1002.996603,1608.800546,1480.411884,7994.224174
1002.996919,1378.971896,962.267725,8586.388927
1002.997235,919.314598,-222.061783,9400.615463
1002.997551,306.438199,-1406.391290,10436.903782
1002.997866,229.828649,-2442.679609,10807.006753
1002.998182,0.000000,-2590.720797,11251.130318
1002.998498,-383.047749,-2294.638420,11621.233289
1002.998814,0.000000,-1406.391290,11251.130318
1002.999130,306.438199,-0.000000,10362.883188
1002.999446,459.657299,1258.350101,9770.718434
1002.999761,689.485948,1628.453072,9030.512492
1003.000077,1225.752797,1480.411884,8290.306550
1003.000393,1455.581446,1628.453072,7994.224174
1003.000709,1532.190996,1628.453072,7846.182985
1003.001025,1685.410096,1332.370696,8290.306550
1003.001341,1608.800546,888.247130,8808.450710
1003.001657,1225.752797,-518.144159,9474.636058
1003.001972,612.876398,-1998.556043,10288.862594
1003.002288,229.828649,-3034.844362,10807.006753
1003.002604,-229.828649,-3182.885551,11695.253884
1003.002920,0.000000,-2516.700203,11917.315666
1003.003236,0.000000,-1258.350101,11029.068536
1003.003552,0.000000,370.102971,9992.780217
1003.003867,536.266849,1184.329507,9178.553681
1003.004183,766.095498,1110.308913,8512.368333
1003.004499,1072.533697,1480.411884,8068.244768
1003.004815,1378.971896,1702.473667,7550.100608
1003.005131,1378.971896,1628.453072,7550.100608
1003.005447,1532.190996,740.205942,7994.224174
1003.005763,1149.143247,-148.041188,8512.368333
1003.006078,612.876398,-1554.432478,9696.697840
1003.006394,306.438199,-2886.803174,10510.924376
1003.006710,-612.876398,-3404.947333,11103.089130
1003.007025,-689.485948,-2812.782580,11473.192101
1003.007341,-459.657299,-2072.576638,11325.150913
1003.007657,-306.438199,-666.185348,10436.903782
1003.007973,-76.609550,888.247130,9474.636058
1003.008288,76.609550,1554.432478,8512.368333
1003.008604,383.047749,1110.308913,7920.203579
1003.008920,1378.971896,1702.473667,7772.162391
1003.009236,919.314598,1480.411884,7254.018232
1003.009551,919.314598,962.267725,7624.121203
1003.009867,919.314598,740.205942,8142.265362
1003.010183,383.047749,-518.144159,8882.471304
1003.010499,689.485948,-2442.679609,9992.780217
1003.010814,0.000000,-3034.844362,10658.965565
1003.011130,-919.314598,-3182.885551,11325.150913
1003.011446,-995.924147,-2812.782580,11325.150913
1003.011762,-766.095498,-1628.453072,10807.006753
1003.012077,-536.266849,-0.000000,9770.718434
1003.012393,0.000000,1332.370696,8956.491898
1003.012709,459.657299,1628.453072,8216.285956
1003.013025,612.876398,1776.494261,7920.203579
1003.013340,995.924147,1850.514855,7402.059420
1003.013656,1072.533697,1480.411884,7624.121203
1003.013972,995.924147,1110.308913,7920.203579
1003.014288,383.047749,370.102971,8882.471304
1003.014603,229.828649,-1258.350101,9770.718434
1003.014919,0.000000,-2368.659014,10881.027347
1003.015235,-383.047749,-2442.679609,11399.171507
1003.015550,-612.876398,-2294.638420,11399.171507
1003.015866,-459.657299,-1554.432478,11325.150913
1003.016182,-229.828649,-148.041188,10658.965565
1003.016498,76.609550,1036.288319,9918.759623
1003.016813,689.485948,2146.597232,9326.594869
1003.017129,536.266849,2146.597232,8364.327145
1003.017445,766.095498,2146.597232,8142.265362
1003.017761,1378.971896,2072.576638,7920.203579
1003.018076,1455.581446,1924.535449,8290.306550
1003.018392,919.314598,1702.473667,8660.409521
1003.018708,995.924147,-0.000000,9548.656652
1003.019024,383.047749,-1036.288319,10362.883188
1003.019339,153.219100,-2220.617826,11177.109724
1003.019655,0.000000,-2738.761985,11843.295072
1003.019971,-383.047749,-2220.617826,11621.233289
1003.020287,0.000000,-1258.350101,11473.192101
1003.020602,383.047749,666.185348,10732.986159
1003.020918,842.705048,1702.473667,9474.636058
1003.021234,1149.143247,2368.659014,8586.388927
1003.021550,1685.410096,2368.659014,7994.224174
1003.021865,1762.019645,2072.576638,7994.224174
1003.022181,1762.019645,1776.494261,7624.121203
1003.022497,1378.971896,1332.370696,8438.347739
1003.022813,995.924147,222.061783,8882.471304
1003.023128,1072.533697,-740.205942,10214.842000
1003.023444,0.000000,-2516.700203,10584.944971
1003.023760,-383.047749,-3108.864956,11473.192101
1003.024075,-766.095498,-3034.844362,11843.295072
1003.024391,-229.828649,-2220.617826,11695.253884
1003.024707,-306.438199,-444.123565,10955.047942
1003.025023,153.219100,666.185348,9770.718434
1003.025338,995.924147,1332.370696,8808.450710
1003.025654,995.924147,1776.494261,7994.224174
1003.025970,1302.362347,1776.494261,7624.121203
1003.026286,1455.581446,1554.432478,7254.018232
1003.026601,1838.629195,962.267725,7624.121203
1003.026917,1149.143247,296.082377,8290.306550
1003.027233,766.095498,-666.185348,9104.533087
1003.027549,76.609550,-1998.556043,10140.821405
1003.027864,0.000000,-3256.906145,10807.006753
1003.028180,-766.095498,-3404.947333,11251.130318
1003.028496,-612.876398,-3256.906145,11473.192101
1003.028812,-459.657299,-1924.535449,10881.027347
1003.029127,0.000000,-296.082377,9918.759623
1003.029443,0.000000,814.226536,8956.491898
1003.029759,306.438199,1258.350101,8216.285956
1003.030075,919.314598,740.205942,7476.080014
1003.030390,919.314598,1036.288319,7846.182985
1003.030706,1149.143247,962.267725,7328.038826
1003.031022,995.924147,518.144159,7624.121203
1003.031338,919.314598,-222.061783,8364.327145
1003.031653,383.047749,-1184.329507,9252.574275
1003.031969,0.000000,-2442.679609,10140.821405
1003.032285,-536.266849,-3034.844362,10955.047942
1003.032601,-689.485948,-3034.844362,11103.089130
1003.032916,-612.876398,-2368.659014,11029.068536
1003.033232,-612.876398,-888.247130,10732.986159
1003.033548,76.609550,518.144159,9474.636058
1003.033863,0.000000,1406.391290,9104.533087
1003.034179,612.876398,1184.329507,8216.285956
1003.034495,1455.581446,1480.411884,7920.203579
1003.034811,766.095498,1406.391290,7550.100608
1003.035126,766.095498,1258.350101,7772.162391
1003.035442,842.705048,518.144159,8438.347739
1003.035758,229.828649,-148.041188,9400.615463
1003.036074,-76.609550,-1702.473667,10066.800811
1003.036389,0.000000,-2886.803174,10955.047942
1003.036705,-536.266849,-3256.906145,11547.212695
1003.037021,-766.095498,-3034.844362,11695.253884
1003.037337,-383.047749,-1776.494261,11621.233289
1003.037652,459.657299,-444.123565,10510.924376
1003.037968,459.657299,1036.288319,9400.615463
1003.038284,919.314598,2072.576638,8882.471304
1003.038600,1378.971896,1850.514855,8216.285956
1003.038915,1685.410096,2146.597232,7550.100608
1003.039231,2145.067394,2072.576638,7328.038826
1003.039547,1608.800546,1702.473667,7698.141797
1003.039863,1455.581446,814.226536,8512.368333
1003.040178,612.876398,-222.061783,9770.718434
1003.040494,153.219100,-1702.473667,10658.965565
1003.040810,-306.438199,-2960.823768,11325.150913
1003.041126,-612.876398,-3034.844362,11843.295072
1003.041441,-689.485948,-2368.659014,11917.315666
1003.041757,-153.219100,-1110.308913,11325.150913
1003.042073,153.219100,296.082377,10510.924376
1003.042388,612.876398,1480.411884,9474.636058
1003.042704,1149.143247,1924.535449,8290.306550
1003.043020,1685.410096,2368.659014,7772.162391
1003.043336,1608.800546,2368.659014,7328.038826
1003.043651,1915.238745,2220.617826,7105.977043
1003.043967,1685.410096,1332.370696,7920.203579
1003.044283,1225.752797,222.061783,8882.471304
1003.044599,766.095498,-740.205942,9844.739029
1003.044914,306.438199,-2442.679609,10658.965565
1003.045230,-153.219100,-3108.864956,11621.233289
1003.045546,-536.266849,-2886.803174,11917.315666
1003.045862,-612.876398,-2072.576638,11621.233289
1003.046177,76.609550,-296.082377,10510.924376
1003.046493,536.266849,1184.329507,9474.636058
1003.046809,1302.362347,1924.535449,8438.347739
1003.047125,1072.533697,1702.473667,7624.121203
1003.047440,1302.362347,1924.535449,7402.059420
1003.047756,1302.362347,1702.473667,7402.059420
1003.048072,1072.533697,1554.432478,7698.141797
1003.048388,766.095498,444.123565,8808.450710
1003.048703,689.485948,-666.185348,9622.677246
1003.049019,76.609550,-2294.638420,10362.883188
1003.049335,0.000000,-3256.906145,10955.047942
1003.049651,-689.485948,-3552.988522,11473.192101
1003.049966,-612.876398,-2886.803174,11547.212695
1003.050282,-459.657299,-1776.494261,10955.047942
1003.050598,0.000000,-74.020594,9918.759623
1003.050914,229.828649,1332.370696,9030.512492
1003.051229,229.828649,1184.329507,8438.347739
1003.051545,1302.362347,1554.432478,8290.306550
1003.051861,842.705048,1406.391290,7105.977043
1003.052176,1302.362347,1036.288319,7105.977043
1003.052492,1225.752797,666.185348,7920.203579
1003.052808,766.095498,-444.123565,8808.450710
1003.053124,459.657299,-1480.411884,9622.677246
1003.053439,0.000000,-2442.679609,10510.924376
1003.053755,-383.047749,-3627.009116,11251.130318
1003.054071,-766.095498,-3330.926739,11769.274478
1003.054387,-766.095498,-1998.556043,11473.192101
1003.054702,-459.657299,-518.144159,10584.944971
1003.055018,0.000000,592.164754,9474.636058
1003.055334,536.266849,1554.432478,8660.409521
1003.055650,612.876398,1702.473667,7624.121203
1003.055965,1225.752797,1480.411884,7698.141797
1003.056281,995.924147,1850.514855,7254.018232
1003.056597,1532.190996,1850.514855,7476.080014
1003.056913,1302.362347,1036.288319,8290.306550
1003.057228,766.095498,-0.000000,9178.553681
1003.057544,229.828649,-1480.411884,9992.780217
1003.057860,0.000000,-2590.720797,10955.047942
1003.058176,-306.438199,-2960.823768,11621.233289
1003.058491,-842.705048,-2812.782580,12065.356855
1003.058807,-459.657299,-1406.391290,11547.212695
1003.059123,-536.266849,-74.020594,10214.842000
1003.059439,76.609550,1184.329507,9622.677246
1003.059754,919.314598,1924.535449,8808.450710
1003.060070,1149.143247,2072.576638,8068.244768
1003.060386,1532.190996,2220.617826,7550.100608
1003.060701,1685.410096,2294.638420,7402.059420
1003.061017,1762.019645,1702.473667,7772.162391
1003.061333,1378.971896,888.247130,8364.327145
1003.061649,995.924147,-1332.370696,9622.677246
1003.061964,842.705048,-2294.638420,10658.965565
1003.062280,229.828649,-2960.823768,11251.130318
1003.062596,-229.828649,-2738.761985,11769.274478
1003.062912,-229.828649,-2220.617826,11547.212695
1003.063227,76.609550,-666.185348,11103.089130
1003.063543,459.657299,814.226536,9992.780217
1003.063859,689.485948,1776.494261,9178.553681
1003.064175,842.705048,1850.514855,8290.306550
1003.064490,1072.533697,2368.659014,7772.162391
1003.064806,1378.971896,1776.494261,7105.977043
1003.065122,1532.190996,1628.453072,7698.141797
1003.065438,1225.752797,1036.288319,8068.244768
1003.065753,842.705048,-74.020594,9030.512492
1003.066069,536.266849,-1628.453072,10214.842000
1003.066385,0.000000,-2738.761985,10881.027347
1003.066701,-383.047749,-2886.803174,11473.192101
1003.067016,-306.438199,-2738.761985,11399.171507
1003.067332,-229.828649,-1776.494261,10955.047942
1003.067648,153.219100,-222.061783,10214.842000
1003.067964,153.219100,1258.350101,9400.615463
1003.068279,689.485948,1850.514855,8290.306550
1003.068595,1225.752797,1924.535449,7846.182985
1003.068911,1072.533697,1776.494261,7328.038826
1003.069227,1302.362347,1776.494261,7328.038826
1003.069542,1302.362347,1184.329507,8216.285956
1003.069858,919.314598,370.102971,8512.368333
1003.070174,229.828649,-740.205942,9474.636058
1003.070489,0.000000,-2368.659014,10732.986159
1003.070805,-306.438199,-3552.988522,11103.089130
1003.071121,-689.485948,-3256.906145,11621.233289
1003.071437,-612.876398,-2516.700203,11103.089130
1003.071752,-153.219100,-1258.350101,10807.006753
1003.072068,0.000000,-0.000000,9770.718434
1003.072384,459.657299,1702.473667,9178.553681
1003.072700,612.876398,1480.411884,8142.265362
1003.073015,842.705048,1480.411884,7624.121203
1003.073331,1302.362347,1628.453072,7254.018232
1003.073647,1302.362347,1332.370696,7328.038826
1003.073963,766.095498,370.102971,8068.244768
1003.074278,689.485948,-148.041188,8882.471304
1003.074594,612.876398,-1776.494261,9992.780217
1003.074910,-306.438199,-3182.885551,10732.986159
1003.075226,-689.485948,-3552.988522,11473.192101
1003.075541,-919.314598,-3256.906145,12065.356855
1003.075857,-1072.533697,-2516.700203,11547.212695
1003.076173,-689.485948,-740.205942,10881.027347
1003.076489,-383.047749,592.164754,9622.677246
1003.076804,229.828649,1258.350101,8512.368333
1003.077120,0.000000,1776.494261,7994.224174
1003.077436,689.485948,1406.391290,7624.121203
1003.077752,1072.533697,1702.473667,7402.059420
1003.078067,995.924147,1332.370696,7846.182985
1003.078383,689.485948,592.164754,8364.327145
1003.078699,766.095498,-740.205942,9548.656652
1003.079014,383.047749,-1850.514855,10140.821405
1003.079330,-229.828649,-2812.782580,11177.109724
1003.079646,-459.657299,-2960.823768,11473.192101
1003.079962,612.876398,-2516.700203,11399.171507
1003.080277,-383.047749,-1332.370696,11177.109724
1003.080593,383.047749,666.185348,10066.800811
1003.080909,842.705048,1480.411884,8882.471304
1003.081225,766.095498,1924.535449,8290.306550
1003.081540,1378.971896,2072.576638,7994.224174
1003.081856,1455.581446,1924.535449,7624.121203
1003.082172,1608.800546,1554.432478,7550.100608
1003.082488,1608.800546,1258.350101,8068.244768
1003.082803,995.924147,370.102971,9252.574275
1003.083119,842.705048,-962.267725,9770.718434
1003.083435,306.438199,-2368.659014,10658.965565
1003.083751,0.000000,-2368.659014,11325.150913
1003.084066,-229.828649,-2886.803174,11399.171507
1003.084382,-153.219100,-1924.535449,11251.130318
1003.084698,0.000000,-740.205942,10807.006753
1003.085014,383.047749,592.164754,9844.739029
1003.085329,842.705048,1332.370696,9104.533087
1003.085645,919.314598,1924.535449,8068.244768
1003.085961,1455.581446,1702.473667,7920.203579
1003.086277,1608.800546,1628.453072,7698.141797
1003.086592,1608.800546,1702.473667,7624.121203
1003.086908,1378.971896,814.226536,8216.285956
1003.087224,1225.752797,-222.061783,9474.636058
1003.087539,536.266849,-1850.514855,10214.842000
1003.087855,306.438199,-2590.720797,11029.068536
1003.088171,-229.828649,-3330.926739,11177.109724
1003.088487,-229.828649,-2664.741391,11325.150913
1003.088802,-229.828649,-1480.411884,11177.109724
1003.089118,0.000000,-518.144159,10288.862594
1003.089434,0.000000,1110.308913,9548.656652
1003.089750,306.438199,1776.494261,8734.430116
1003.090065,919.314598,1702.473667,7846.182985
1003.090381,995.924147,1850.514855,7550.100608
1003.090697,1378.971896,1776.494261,7550.100608
1003.091013,1149.143247,1480.411884,8068.244768
1003.091328,842.705048,444.123565,8660.409521
1003.091644,306.438199,-962.267725,9770.718434
1003.091960,-229.828649,-2220.617826,10658.965565
1003.092276,-459.657299,-3256.906145,10955.047942
1003.092591,-842.705048,-2886.803174,11325.150913
1003.092907,-1072.533697,-2220.617826,11769.274478
1003.093223,-612.876398,-962.267725,11029.068536
1003.093539,-153.219100,444.123565,9992.780217
1003.093854,76.609550,1554.432478,8734.430116
1003.094170,459.657299,1628.453072,8142.265362
1003.094486,995.924147,1924.535449,7698.141797
1003.094802,1072.533697,1776.494261,7254.018232
1003.095117,919.314598,1258.350101,7550.100608
1003.095433,1225.752797,962.267725,8216.285956
1003.095749,612.876398,-74.020594,9252.574275
1003.096065,153.219100,-1554.432478,10066.800811
1003.096380,0.000000,-2960.823768,10807.006753
1003.096696,-612.876398,-3108.864956,11473.192101
1003.097012,-612.876398,-2516.700203,11695.253884
1003.097327,-459.657299,-1776.494261,11325.150913
1003.097643,0.000000,-148.041188,10214.842000
1003.097959,153.219100,1332.370696,9030.512492
1003.098275,766.095498,1702.473667,8660.409521
1003.098590,689.485948,1998.556043,8290.306550
1003.098906,995.924147,1850.514855,7624.121203
1003.099222,1225.752797,1406.391290,7550.100608
1003.099538,1608.800546,962.267725,8216.285956
1003.099853,1072.533697,592.164754,8438.347739
1003.100169,612.876398,-370.102971,9326.594869
1003.100485,229.828649,-2072.576638,10288.862594
1003.100801,-153.219100,-2368.659014,11177.109724
1003.101116,-612.876398,-3034.844362,11029.068536
1003.101432,-536.266849,-2294.638420,11325.150913
1003.101748,-229.828649,-1184.329507,11251.130318
1003.102064,0.000000,148.041188,9992.780217
1003.102379,153.219100,1628.453072,9178.553681
1003.102695,459.657299,1554.432478,8216.285956
1003.103011,995.924147,1850.514855,8364.327145
1003.103327,1302.362347,1924.535449,7920.203579
1003.103642,1302.362347,1776.494261,7698.141797
1003.103958,1302.362347,1332.370696,8438.347739
1003.104274,842.705048,-74.020594,9548.656652
1003.104590,383.047749,-1406.391290,9918.759623
1003.104905,0.000000,-2220.617826,10732.986159
1003.105221,0.000000,-2738.761985,11399.171507
1003.105537,0.000000,-2812.782580,11621.233289
1003.105853,76.609550,-1776.494261,11547.212695
1003.106169,612.876398,-370.102971,10362.883188
1003.106484,612.876398,1110.308913,9474.636058
1003.106800,1225.752797,1776.494261,9030.512492
1003.107116,1225.752797,1776.494261,7920.203579
1003.107432,1532.190996,2072.576638,7772.162391
1003.107747,1685.410096,1924.535449,7328.038826
1003.108063,1455.581446,1480.411884,7772.162391
1003.108379,1225.752797,740.205942,8586.388927
1003.108695,536.266849,-370.102971,9474.636058
1003.109011,229.828649,-2072.576638,10288.862594
1003.109326,-229.828649,-2886.803174,11103.089130
1003.109642,-612.876398,-3330.926739,11621.233289
1003.109958,-612.876398,-2738.761985,11695.253884
1003.110274,-536.266849,-1702.473667,11695.253884
1003.110589,-229.828649,-0.000000,10214.842000
1003.110905,153.219100,1258.350101,9326.594869
1003.111221,612.876398,1406.391290,8290.306550
1003.111537,1225.752797,1702.473667,7772.162391
1003.111853,1762.019645,1554.432478,7105.977043
1003.112168,1455.581446,1110.308913,7254.018232
1003.112484,1302.362347,1036.288319,7994.224174
1003.112800,1149.143247,444.123565,8882.471304
1003.113116,689.485948,-962.267725,9622.677246
1003.113432,229.828649,-2442.679609,9992.780217
1003.113747,-459.657299,-2960.823768,11029.068536
1003.114063,-689.485948,-2738.761985,11473.192101
1003.114379,-612.876398,-2146.597232,11325.150913
1003.114695,-383.047749,-740.205942,10881.027347
1003.115010,459.657299,-0.000000,9622.677246
1003.115326,383.047749,1480.411884,8734.430116
1003.115642,229.828649,1184.329507,8068.244768
1003.115958,536.266849,1332.370696,7920.203579
1003.116274,842.705048,1554.432478,7624.121203
1003.116589,536.266849,1258.350101,7698.141797
1003.116905,306.438199,814.226536,8364.327145
1003.117221,306.438199,-296.082377,9252.574275
1003.117537,-306.438199,-1702.473667,10140.821405
1003.117852,0.000000,-3034.844362,10732.986159
1003.118168,-536.266849,-3404.947333,11473.192101
1003.118484,-459.657299,-2812.782580,11399.171507
1003.118800,-766.095498,-1702.473667,11177.109724
1003.119116,0.000000,-222.061783,10140.821405
1003.119431,383.047749,1110.308913,9252.574275
1003.119747,536.266849,1850.514855,8586.388927
1003.120063,1072.533697,1480.411884,7920.203579
1003.120379,1455.581446,1776.494261,7476.080014
1003.120695,1532.190996,1998.556043,7179.997637
1003.121010,1378.971896,1628.453072,7994.224174
1003.121326,1072.533697,444.123565,8808.450710
1003.121642,536.266849,-518.144159,9622.677246
1003.121958,76.609550,-2294.638420,10584.944971
1003.122273,-153.219100,-3256.906145,11399.171507
1003.122589,-766.095498,-3330.926739,11843.295072
1003.122905,-459.657299,-2294.638420,11621.233289
1003.123221,0.000000,-1036.288319,11029.068536
1003.123537,0.000000,592.164754,10066.800811
1003.123852,536.266849,1776.494261,8882.471304
1003.124168,842.705048,1776.494261,7994.224174
1003.124484,1149.143247,1998.556043,7772.162391
1003.124800,1455.581446,1554.432478,7328.038826
1003.125115,1685.410096,1480.411884,7402.059420
1003.125431,1532.190996,888.247130,8068.244768
1003.125747,919.314598,-0.000000,9178.553681
1003.126063,766.095498,-1258.350101,9992.780217
1003.126379,0.000000,-2590.720797,10807.006753
1003.126694,-383.047749,-3182.885551,11399.171507
1003.127010,0.000000,-2516.700203,11917.315666
1003.127326,76.609550,-1924.535449,11325.150913
1003.127642,229.828649,-296.082377,10732.986159
1003.127957,153.219100,1184.329507,9548.656652
1003.128273,1072.533697,1776.494261,8660.409521
1003.128589,919.314598,1998.556043,8068.244768
1003.128905,1378.971896,1924.535449,7476.080014
1003.129221,1455.581446,2072.576638,7624.121203
1003.129536,1685.410096,1332.370696,8068.244768
1003.129852,1072.533697,444.123565,8734.430116
1003.130168,995.924147,-888.247130,10066.800811
1003.130484,229.828649,-2294.638420,10658.965565
1003.130800,-383.047749,-3330.926739,10955.047942
1003.131115,0.000000,-3256.906145,11769.274478
1003.131431,-229.828649,-2368.659014,11251.130318
1003.131747,-459.657299,-1406.391290,11251.130318
1003.132063,536.266849,444.123565,9992.780217
1003.132378,689.485948,1554.432478,8660.409521
1003.132694,766.095498,1776.494261,8068.244768
1003.133010,995.924147,1924.535449,7624.121203
1003.133326,1378.971896,1406.391290,7402.059420
1003.133642,1072.533697,1110.308913,7328.038826
1003.133957,995.924147,740.205942,8438.347739
1003.134273,612.876398,-518.144159,8882.471304
1003.134589,0.000000,-1850.514855,9918.759623
1003.134905,-536.266849,-2960.823768,10807.006753
1003.135220,-995.924147,-3330.926739,11177.109724
1003.135536,-995.924147,-3330.926739,11695.253884
1003.135852,-842.705048,-2368.659014,11325.150913
1003.136168,-229.828649,-814.226536,10584.944971
1003.136484,0.000000,518.144159,9474.636058
1003.136799,536.266849,1628.453072,8586.388927
1003.137115,766.095498,1776.494261,7550.100608
1003.137431,995.924147,1480.411884,7476.080014
1003.137747,1378.971896,1850.514855,7328.038826
1003.138063,1302.362347,1628.453072,7698.141797
1003.138378,1149.143247,888.247130,8216.285956
1003.138694,612.876398,-370.102971,9326.594869
1003.139010,459.657299,-2294.638420,10214.842000
1003.139326,-383.047749,-2886.803174,10658.965565
1003.139641,-766.095498,-3404.947333,11695.253884
1003.139957,-842.705048,-2516.700203,11917.315666
1003.140273,-459.657299,-1554.432478,11251.130318
1003.140589,-306.438199,-222.061783,10066.800811
1003.140905,76.609550,888.247130,9326.594869
1003.141220,459.657299,1480.411884,8364.327145
1003.141536,919.314598,1628.453072,7772.162391
1003.141852,1225.752797,1776.494261,7402.059420
1003.142168,1302.362347,1628.453072,7328.038826
1003.142483,1302.362347,1110.308913,7772.162391
1003.142799,766.095498,370.102971,8586.388927
1003.143115,229.828649,-1110.308913,9844.739029
1003.143431,0.000000,-2516.700203,10584.944971
1003.143747,-306.438199,-3478.967927,11547.212695
1003.144062,-842.705048,-3182.885551,11843.295072
1003.144378,-306.438199,-2072.576638,11843.295072
1003.144694,0.000000,-592.164754,10732.986159
1003.145010,459.657299,1110.308913,9770.718434
1003.145325,766.095498,2072.576638,8734.430116
1003.145641,1149.143247,2220.617826,7846.182985
1003.145957,1532.190996,2294.638420,7624.121203
1003.146273,1532.190996,2220.617826,7254.018232
1003.146589,1685.410096,1998.556043,7772.162391
1003.146904,1225.752797,814.226536,8290.306550
1003.147220,306.438199,-0.000000,9252.574275
1003.147536,383.047749,-1554.432478,10732.986159
1003.147852,0.000000,-2664.741391,11177.109724
1003.148168,-383.047749,-2516.700203,11695.253884
1003.148483,-536.266849,-2220.617826,11843.295072
1003.148799,0.000000,-888.247130,11399.171507
1003.149115,383.047749,370.102971,10362.883188
1003.149431,536.266849,1628.453072,9326.594869
1003.149746,1072.533697,1998.556043,8512.368333
1003.150062,1149.143247,1850.514855,7994.224174
1003.150378,1455.581446,1628.453072,8142.265362
1003.150694,1378.971896,1924.535449,7698.141797
1003.151010,1149.143247,1258.350101,7698.141797
1003.151325,1149.143247,592.164754,8660.409521
1003.151641,612.876398,-962.267725,9622.677246
1003.151957,76.609550,-2294.638420,10732.986159
1003.152273,-229.828649,-3256.906145,11473.192101
1003.152588,-766.095498,-3330.926739,11843.295072
1003.152904,-612.876398,-2516.700203,11843.295072
1003.153220,-459.657299,-1036.288319,11177.109724
1003.153536,0.000000,518.144159,9844.739029
1003.153852,383.047749,1406.391290,8956.491898
1003.154167,689.485948,1776.494261,8290.306550
1003.154483,1762.019645,1776.494261,7994.224174
1003.154799,1455.581446,1924.535449,7179.997637
1003.155115,1532.190996,1702.473667,7402.059420
1003.155431,1685.410096,1110.308913,8142.265362
1003.155746,1378.971896,-0.000000,9252.574275
1003.156062,536.266849,-1406.391290,9992.780217
1003.156378,0.000000,-2590.720797,10881.027347
1003.156694,-153.219100,-3775.050304,11399.171507
1003.157009,-766.095498,-3330.926739,11621.233289
1003.157325,-383.047749,-2072.576638,11473.192101
1003.157641,0.000000,-666.185348,10288.862594
1003.157957,536.266849,962.267725,9400.615463
1003.158273,842.705048,1554.432478,8586.388927
1003.158588,766.095498,1628.453072,7772.162391
1003.158904,1378.971896,1628.453072,7254.018232
1003.159220,919.314598,1702.473667,7254.018232
1003.159536,842.705048,1258.350101,7624.121203
1003.159851,612.876398,666.185348,8438.347739
1003.160167,306.438199,-1110.308913,9474.636058
1003.160483,0.000000,-2516.700203,10362.883188
1003.160799,-766.095498,-3182.885551,11029.068536
1003.161115,-842.705048,-3849.070898,11769.274478
1003.161430,-919.314598,-2812.782580,11621.233289
1003.161746,-842.705048,-1258.350101,10955.047942
1003.162062,0.000000,296.082377,10214.842000
1003.162378,306.438199,1406.391290,9104.533087
1003.162693,689.485948,1776.494261,8142.265362
1003.163009,1225.752797,1480.411884,7624.121203
1003.163325,1225.752797,1628.453072,7402.059420
1003.163641,842.705048,1184.329507,7624.121203
1003.163957,1072.533697,1036.288319,7920.203579
1003.164272,1072.533697,74.020594,9104.533087
1003.164588,383.047749,-1110.308913,9844.739029
1003.164904,0.000000,-2812.782580,10584.944971
1003.165220,-536.266849,-3330.926739,11473.192101
1003.165536,-383.047749,-2812.782580,11473.192101
1003.165851,-612.876398,-2072.576638,11325.150913
1003.166167,0.000000,-222.061783,10436.903782
1003.166483,76.609550,1036.288319,9326.594869
1003.166799,612.876398,1998.556043,8512.368333
1003.167114,689.485948,1998.556043,8290.306550
1003.167430,1149.143247,1702.473667,8068.244768
1003.167746,1149.143247,1850.514855,7476.080014
1003.168062,995.924147,1628.453072,7920.203579
1003.168378,1532.190996,962.267725,8586.388927
1003.168693,919.314598,-370.102971,9474.636058
1003.169009,0.000000,-1924.535449,10362.883188
1003.169325,0.000000,-2738.761985,11177.109724
1003.169641,0.000000,-2960.823768,11547.212695
1003.169956,-383.047749,-2368.659014,11547.212695
1003.170272,76.609550,-1332.370696,11177.109724
1003.170588,383.047749,370.102971,10066.800811
1003.170904,612.876398,1702.473667,9104.533087
1003.171220,689.485948,1850.514855,7994.224174
1003.171535,1532.190996,1924.535449,7920.203579
1003.171851,1532.190996,1776.494261,7772.162391
1003.172167,1225.752797,1776.494261,7846.182985
1003.172483,1455.581446,1258.350101,8290.306550
1003.172799,1072.533697,74.020594,9252.574275
1003.173114,612.876398,-1258.350101,10140.821405
1003.173430,229.828649,-2664.741391,10732.986159
1003.173746,0.000000,-3182.885551,11325.150913
1003.174062,0.000000,-3034.844362,12065.356855
1003.174377,0.000000,-1998.556043,11547.212695
1003.174693,229.828649,-444.123565,10658.965565
1003.175009,612.876398,962.267725,9474.636058
1003.175325,1532.190996,1776.494261,8956.491898
1003.175641,1149.143247,1776.494261,7994.224174
1003.175956,1302.362347,1776.494261,7624.121203
1003.176272,1378.971896,1850.514855,7550.100608
1003.176588,1225.752797,1480.411884,7772.162391
1003.176904,995.924147,518.144159,8512.368333
1003.177219,459.657299,-444.123565,9400.615463
1003.177535,0.000000,-1998.556043,10066.800811
1003.177851,-153.219100,-3034.844362,10732.986159
1003.178167,-459.657299,-3330.926739,11399.171507
1003.178483,-995.924147,-2812.782580,11473.192101
1003.178798,-459.657299,-1850.514855,11177.109724
1003.179114,-306.438199,-444.123565,9844.739029
1003.179430,76.609550,962.267725,8882.471304
1003.179746,459.657299,1554.432478,8364.327145
1003.180061,919.314598,1184.329507,7698.141797
1003.180377,919.314598,1628.453072,7476.080014
1003.180693,995.924147,1406.391290,7328.038826
1003.181009,1072.533697,1110.308913,7772.162391
1003.181325,995.924147,444.123565,8734.430116
1003.181640,76.609550,-1184.329507,9400.615463
1003.181956,153.219100,-2442.679609,10362.883188
1003.182272,-766.095498,-3478.967927,11251.130318
1003.182588,-842.705048,-3330.926739,11473.192101
1003.182904,-766.095498,-2516.700203,11325.150913
1003.183219,-153.219100,-1480.411884,10584.944971
1003.183535,0.000000,296.082377,9622.677246
1003.183851,153.219100,1702.473667,8808.450710
1003.184167,842.705048,1850.514855,7994.224174
1003.184482,919.314598,1850.514855,7550.100608
1003.184798,919.314598,1924.535449,7254.018232
1003.185114,995.924147,1850.514855,7846.182985
1003.185430,1455.581446,1110.308913,8290.306550
1003.185746,612.876398,-148.041188,9104.533087
1003.186061,0.000000,-1628.453072,10214.842000
1003.186377,-612.876398,-2886.803174,11325.150913
1003.186693,-766.095498,-3478.967927,11769.274478
1003.187009,-995.924147,-3034.844362,11991.336260
1003.187324,-689.485948,-1554.432478,11621.233289
1003.187640,76.609550,-0.000000,10658.965565
1003.187956,0.000000,962.267725,9918.759623
1003.188272,995.924147,2516.700203,8438.347739
1003.188588,1302.362347,2516.700203,7476.080014
1003.188903,1378.971896,2516.700203,7476.080014
1003.189219,1685.410096,2442.679609,7179.997637
1003.189535,1302.362347,1850.514855,7920.203579
1003.189851,1455.581446,740.205942,8660.409521
1003.190166,766.095498,-666.185348,9770.718434
1003.190482,229.828649,-2072.576638,10732.986159
1003.190798,76.609550,-3034.844362,11473.192101
1003.191114,0.000000,-3182.885551,11843.295072
1003.191430,-306.438199,-1998.556043,11621.233289
1003.191745,0.000000,-740.205942,11251.130318
1003.192061,612.876398,888.247130,9992.780217
1003.192377,842.705048,1850.514855,9104.533087
1003.192693,1149.143247,2146.597232,8364.327145
1003.193009,1532.190996,2072.576638,7994.224174
1003.193324,1532.190996,2220.617826,7402.059420
1003.193640,1608.800546,2294.638420,7550.100608
1003.193956,1762.019645,1628.453072,8216.285956
1003.194272,995.924147,148.041188,8586.388927
1003.194587,459.657299,-1036.288319,9992.780217
1003.194903,-153.219100,-2590.720797,10881.027347
1003.195219,-306.438199,-3182.885551,11399.171507
1003.195535,-766.095498,-2516.700203,11769.274478
1003.195851,-612.876398,-1776.494261,11547.212695
1003.196166,-229.828649,-148.041188,10436.903782
1003.196482,0.000000,962.267725,9326.594869
1003.196798,306.438199,1628.453072,8882.471304
1003.197114,995.924147,1258.350101,8142.265362
1003.197429,766.095498,1258.350101,7624.121203
1003.197745,1225.752797,1628.453072,7328.038826
1003.198061,1225.752797,962.267725,7994.224174
1003.198377,1302.362347,148.041188,8660.409521
1003.198693,612.876398,-666.185348,8734.430116
1003.199008,459.657299,-1702.473667,10140.821405
1003.199324,0.000000,-2960.823768,10881.027347
1003.199640,-229.828649,-3404.947333,11177.109724
1003.199956,-536.266849,-2812.782580,11177.109724
1003.200272,306.438199,-1480.411884,11103.089130
1003.200587,153.219100,-74.020594,9918.759623
1003.200903,153.219100,1184.329507,9178.553681
1003.201219,306.438199,1628.453072,8364.327145
1003.201535,689.485948,1480.411884,8142.265362
1003.201850,842.705048,1406.391290,7476.080014
1003.202166,995.924147,1332.370696,7624.121203
1003.202482,766.095498,518.144159,8142.265362
1003.202798,229.828649,-222.061783,8882.471304
1003.203114,0.000000,-1480.411884,10066.800811
1003.203429,-995.924147,-2886.803174,10732.986159
1003.203745,-1072.533697,-3478.967927,11473.192101
1003.204061,-995.924147,-3404.947333,11547.212695
1003.204377,-612.876398,-2146.597232,11177.109724
1003.204692,-306.438199,-740.205942,10510.924376
1003.205008,229.828649,518.144159,9474.636058
1003.205324,842.705048,1406.391290,8586.388927
1003.205640,919.314598,1554.432478,7994.224174
1003.205956,1302.362347,1702.473667,7402.059420
1003.206271,1608.800546,1628.453072,7031.956449
1003.206587,1378.971896,1110.308913,7550.100608
1003.206903,1378.971896,740.205942,8364.327145
1003.207219,689.485948,-148.041188,8956.491898
1003.207534,306.438199,-1554.432478,9992.780217
1003.207850,0.000000,-3108.864956,10584.944971
1003.208166,-612.876398,-3404.947333,11399.171507
1003.208482,-766.095498,-2960.823768,11621.233289
1003.208798,-459.657299,-1924.535449,11399.171507
1003.209113,0.000000,-370.102971,10214.842000
1003.209429,766.095498,1184.329507,9474.636058
1003.209745,995.924147,1998.556043,8660.409521
1003.210061,1608.800546,2220.617826,7994.224174
1003.210376,1532.190996,2072.576638,7402.059420
1003.210692,1838.629195,1924.535449,7328.038826
1003.211008,1915.238745,1776.494261,7772.162391
1003.211324,1378.971896,888.247130,8734.430116
1003.211640,842.705048,-444.123565,9696.697840
1003.211955,306.438199,-1998.556043,10732.986159
1003.212271,459.657299,-2738.761985,11399.171507
1003.212587,306.438199,-2886.803174,11695.253884
1003.212903,-536.266849,-2146.597232,11843.295072
1003.213218,0.000000,-666.185348,11399.171507
1003.213534,536.266849,740.205942,9992.780217
1003.213850,689.485948,1998.556043,9252.574275
1003.214166,1225.752797,2072.576638,8364.327145
1003.214482,1378.971896,2072.576638,7920.203579
1003.214797,1378.971896,2146.597232,7254.018232
1003.215113,1532.190996,1702.473667,7920.203579
1003.215429,1685.410096,814.226536,8438.347739
1003.215745,1149.143247,-0.000000,9326.594869
1003.216060,766.095498,-1554.432478,9992.780217
1003.216376,153.219100,-2590.720797,11029.068536
1003.216692,-153.219100,-2960.823768,11547.212695
1003.217008,0.000000,-3256.906145,11769.274478
1003.217324,0.000000,-1702.473667,11473.192101
1003.217639,459.657299,-370.102971,10510.924376
1003.217955,536.266849,1332.370696,9326.594869
1003.218271,995.924147,1998.556043,8290.306550
1003.218587,1378.971896,1628.453072,7920.203579
1003.218902,1378.971896,1850.514855,7402.059420
1003.219218,1149.143247,1480.411884,7476.080014
1003.219534,1302.362347,1184.329507,8068.244768
1003.219850,612.876398,592.164754,8660.409521
1003.220166,0.000000,-814.226536,9548.656652
1003.220481,-153.219100,-2442.679609,10436.903782
1003.220797,-842.705048,-3330.926739,11177.109724
1003.221113,-1302.362347,-3627.009116,11695.253884
1003.221429,-1072.533697,-2738.761985,11399.171507
1003.221744,-1072.533697,-1554.432478,11103.089130
1003.222060,-459.657299,-0.000000,10140.821405
1003.222376,0.000000,1036.288319,8808.450710
1003.222692,766.095498,1480.411884,8142.265362
1003.223008,919.314598,1406.391290,7624.121203
1003.223323,995.924147,1702.473667,7179.997637
1003.223639,1302.362347,1628.453072,7179.997637
1003.223955,1302.362347,1184.329507,7846.182985
1003.224271,612.876398,-222.061783,8364.327145
1003.224586,612.876398,-1406.391290,9474.636058
1003.224902,153.219100,-2960.823768,10362.883188
1003.225218,-306.438199,-3478.967927,10881.027347
1003.225534,-689.485948,-3108.864956,11177.109724
1003.225850,-689.485948,-2072.576638,11399.171507
1003.226165,-383.047749,-814.226536,10510.924376
1003.226481,0.000000,592.164754,9252.574275
1003.226797,306.438199,1554.432478,8586.388927
1003.227113,612.876398,1554.432478,8290.306550
1003.227428,842.705048,1554.432478,7994.224174
1003.227744,919.314598,1776.494261,7328.038826
1003.228060,1149.143247,1258.350101,7624.121203
1003.228376,842.705048,444.123565,8660.409521
1003.228692,459.657299,-74.020594,9326.594869
1003.229007,0.000000,-1628.453072,10436.903782
1003.229323,-229.828649,-2590.720797,11029.068536
1003.229639,-612.876398,-2516.700203,11177.109724
1003.229955,-536.266849,-2220.617826,11103.089130
1003.230270,0.000000,-1258.350101,11251.130318
1003.230586,306.438199,370.102971,10140.821405
1003.230902,612.876398,1554.432478,9178.553681
1003.231218,1072.533697,2146.597232,8290.306550
1003.231534,1072.533697,1850.514855,7994.224174
1003.231849,1302.362347,2146.597232,7846.182985
1003.232165,1072.533697,2072.576638,8068.244768
1003.232481,1149.143247,1554.432478,8512.368333
1003.232797,1072.533697,666.185348,9548.656652
1003.233112,306.438199,-370.102971,10066.800811
1003.233428,153.219100,-2072.576638,11029.068536
1003.233744,-153.219100,-2886.803174,11769.274478
1003.234060,-612.876398,-2664.741391,11991.336260
1003.234376,0.000000,-2146.597232,11399.171507
1003.234691,0.000000,-814.226536,11103.089130
1003.235007,-153.219100,592.164754,10436.903782
1003.235323,766.095498,1480.411884,9400.615463
1003.235639,1455.581446,2220.617826,8290.306550
1003.235954,1838.629195,2368.659014,7846.182985
1003.236270,1915.238745,2220.617826,7254.018232
1003.236586,1838.629195,2220.617826,7698.141797
1003.236902,1685.410096,1554.432478,7994.224174
1003.237218,766.095498,222.061783,9178.553681
1003.237533,612.876398,-1480.411884,10140.821405
1003.237849,0.000000,-2738.761985,10955.047942
1003.238165,-383.047749,-3108.864956,11843.295072
1003.238481,-842.705048,-2738.761985,11547.212695
1003.238796,-689.485948,-2072.576638,11473.192101
1003.239112,-229.828649,-296.082377,10584.944971
1003.239428,0.000000,1184.329507,9474.636058
1003.239744,229.828649,1924.535449,8586.388927
1003.240060,919.314598,1924.535449,8068.244768
1003.240375,1072.533697,1850.514855,7550.100608
1003.240691,1149.143247,1776.494261,7328.038826
1003.241007,995.924147,1110.308913,7846.182985
1003.241323,1225.752797,-0.000000,8290.306550
1003.241638,536.266849,-1110.308913,9474.636058
1003.241954,76.609550,-2294.638420,10436.903782
1003.242270,-229.828649,-3108.864956,10658.965565
1003.242586,-229.828649,-3182.885551,11473.192101
1003.242902,-459.657299,-2368.659014,11177.109724
1003.243217,-153.219100,-1184.329507,10807.006753
1003.243533,153.219100,370.102971,9918.759623
1003.243849,383.047749,1184.329507,8808.450710
1003.244165,229.828649,1036.288319,8068.244768
1003.244480,766.095498,1332.370696,7846.182985
1003.244796,766.095498,1184.329507,7698.141797
1003.245112,689.485948,814.226536,7772.162391
1003.245428,612.876398,-0.000000,8364.327145
1003.245744,612.876398,-666.185348,9104.533087
1003.246059,-383.047749,-1258.350101,9770.718434
1003.246375,-383.047749,-2590.720797,10510.924376
1003.246691,-842.705048,-3330.926739,11251.130318
1003.247007,-919.314598,-2812.782580,11547.212695
1003.247322,0.000000,-1998.556043,11177.109724
1003.247638,0.000000,-814.226536,10066.800811
1003.247954,306.438199,592.164754,8956.491898
1003.248270,536.266849,1332.370696,8438.347739
1003.248586,919.314598,1702.473667,8068.244768
1003.248901,1225.752797,1850.514855,7550.100608
1003.249217,919.314598,1850.514855,7550.100608
1003.249533,1072.533697,1406.391290,7994.224174
1003.249849,1072.533697,518.144159,8512.368333
1003.250164,689.485948,-518.144159,9474.636058
1003.250480,0.000000,-2516.700203,10658.965565
1003.250796,-229.828649,-3182.885551,11547.212695
1003.251112,-766.095498,-3182.885551,11769.274478
1003.251428,-689.485948,-2368.659014,11843.295072
1003.251743,-459.657299,-1332.370696,11251.130318
1003.252059,76.609550,444.123565,9992.780217
1003.252375,383.047749,1924.535449,9030.512492
1003.252691,995.924147,2294.638420,8290.306550
1003.253006,1532.190996,1850.514855,8142.265362
1003.253322,1302.362347,2220.617826,7328.038826
1003.253638,1685.410096,1850.514855,7698.141797
1003.253954,1991.848295,1258.350101,8364.327145
1003.254270,842.705048,296.082377,9252.574275
1003.254585,536.266849,-1258.350101,10436.903782
1003.254901,459.657299,-2812.782580,10881.027347
1003.255217,-383.047749,-2886.803174,11547.212695
1003.255533,-612.876398,-2812.782580,11843.295072
1003.255848,-153.219100,-2368.659014,11843.295072
1003.256164,0.000000,-888.247130,10807.006753
1003.256480,229.828649,740.205942,9770.718434
1003.256796,919.314598,1850.514855,8660.409521
1003.257112,842.705048,1924.535449,8512.368333
1003.257427,1225.752797,2146.597232,7550.100608
1003.257743,1762.019645,1850.514855,7476.080014
1003.258059,1838.629195,1184.329507,7994.224174
1003.258375,1532.190996,962.267725,8734.430116
1003.258690,995.924147,-444.123565,9252.574275
1003.259006,536.266849,-1776.494261,10362.883188
1003.259322,0.000000,-2516.700203,11695.253884
1003.259638,0.000000,-3330.926739,11399.171507
1003.259954,153.219100,-2368.659014,11399.171507
1003.260269,0.000000,-1406.391290,11325.150913
1003.260585,766.095498,-148.041188,10288.862594
1003.260901,766.095498,1332.370696,9104.533087
1003.261217,919.314598,1850.514855,8290.306550
1003.261532,1302.362347,2368.659014,7846.182985
1003.261848,1838.629195,2146.597232,7624.121203
1003.262164,1685.410096,2220.617826,7624.121203
1003.262480,1378.971896,1480.411884,7698.141797
1003.262796,919.314598,296.082377,8734.430116
1003.263111,612.876398,-1258.350101,9844.739029
1003.263427,-229.828649,-3108.864956,10732.986159
1003.263743,-536.266849,-3627.009116,11177.109724
1003.264059,-536.266849,-3330.926739,11547.212695
1003.264374,-536.266849,-2886.803174,11325.150913
1003.264690,-229.828649,-962.267725,10881.027347
1003.265006,-153.219100,888.247130,9400.615463
1003.265322,229.828649,1406.391290,8216.285956
1003.265638,766.095498,1480.411884,7772.162391
1003.265953,995.924147,1702.473667,7402.059420
1003.266269,1072.533697,1332.370696,7254.018232
1003.266585,919.314598,962.267725,7698.141797
1003.266901,1072.533697,222.061783,8438.347739
1003.267216,383.047749,-888.247130,9326.594869
1003.267532,-229.828649,-2146.597232,9770.718434
1003.267848,-459.657299,-3182.885551,10658.965565
1003.268164,-995.924147,-3552.988522,11251.130318
1003.268480,-1072.533697,-2738.761985,11843.295072
1003.268795,-842.705048,-1850.514855,11325.150913
1003.269111,-612.876398,-370.102971,10214.842000
1003.269427,-306.438199,888.247130,9400.615463
1003.269743,0.000000,1480.411884,8734.430116
1003.270058,229.828649,1776.494261,7550.100608
1003.270374,689.485948,1850.514855,7772.162391
1003.270690,1225.752797,1850.514855,7179.997637
1003.271006,1149.143247,1258.350101,7772.162391
1003.271322,995.924147,814.226536,8512.368333
1003.271637,306.438199,-518.144159,9474.636058
1003.271953,0.000000,-2146.597232,10510.924376
1003.272269,-383.047749,-2886.803174,11325.150913
1003.272585,-536.266849,-2590.720797,11843.295072
1003.272900,-459.657299,-2220.617826,11695.253884
1003.273216,0.000000,-1110.308913,11177.109724
1003.273532,229.828649,814.226536,9770.718434
1003.273848,612.876398,1850.514855,8882.471304
1003.274164,842.705048,2368.659014,8364.327145
1003.274479,766.095498,2442.679609,7772.162391
1003.274795,1302.362347,2146.597232,7402.059420
1003.275111,1225.752797,1628.453072,7772.162391
1003.275427,1072.533697,1184.329507,8734.430116
1003.275742,995.924147,-0.000000,9474.636058
1003.276058,383.047749,-1036.288319,10732.986159
1003.276374,0.000000,-2294.638420,11103.089130
1003.276690,0.000000,-2812.782580,11473.192101
1003.277006,76.609550,-2442.679609,11769.274478
1003.277321,459.657299,-1258.350101,11473.192101
1003.277637,842.705048,592.164754,11029.068536
1003.277953,919.314598,1406.391290,9326.594869
1003.278269,1378.971896,2146.597232,8364.327145
1003.278584,1685.410096,2220.617826,7846.182985
1003.278900,1685.410096,2220.617826,7476.080014
1003.279216,1532.190996,2294.638420,7402.059420
1003.279532,1302.362347,1480.411884,8290.306550
1003.279848,1072.533697,740.205942,8882.471304
1003.280163,766.095498,-888.247130,9770.718434
1003.280479,0.000000,-2072.576638,10807.006753
1003.280795,-229.828649,-2960.823768,11473.192101
1003.281111,-383.047749,-2960.823768,11621.233289
1003.281426,-612.876398,-2368.659014,11547.212695
1003.281742,-536.266849,-1036.288319,10955.047942
1003.282058,536.266849,-148.041188,9474.636058
1003.282374,842.705048,1258.350101,8808.450710
1003.282690,1072.533697,1628.453072,7994.224174
1003.283005,1455.581446,1702.473667,7772.162391
1003.283321,1685.410096,1924.535449,7105.977043
1003.283637,1762.019645,1628.453072,7402.059420
1003.283953,1302.362347,1258.350101,7846.182985
1003.284268,995.924147,296.082377,8660.409521
1003.284584,689.485948,-1036.288319,9548.656652
1003.284900,0.000000,-2516.700203,10732.986159
1003.285216,-536.266849,-3404.947333,11177.109724
1003.285532,-842.705048,-3256.906145,11547.212695
1003.285847,-842.705048,-2664.741391,11695.253884
1003.286163,-459.657299,-962.267725,10436.903782
1003.286479,-229.828649,370.102971,9474.636058
1003.286795,229.828649,1036.288319,9104.533087
1003.287110,383.047749,1406.391290,8142.265362
1003.287426,766.095498,1332.370696,7550.100608
1003.287742,919.314598,1480.411884,7550.100608
1003.288058,766.095498,1480.411884,7624.121203
1003.288374,612.876398,370.102971,8512.368333
1003.288689,229.828649,-1184.329507,9400.615463
1003.289005,-306.438199,-2146.597232,10288.862594
1003.289321,-536.266849,-3330.926739,10658.965565
1003.289637,-689.485948,-3478.967927,11103.089130
1003.289952,-1072.533697,-2812.782580,11251.130318
1003.290268,-842.705048,-1776.494261,11103.089130
1003.290584,-229.828649,-74.020594,10140.821405
1003.290900,-306.438199,1258.350101,9178.553681
1003.291216,76.609550,962.267725,8438.347739
1003.291531,766.095498,1036.288319,7698.141797
1003.291847,306.438199,1258.350101,7328.038826
1003.292163,689.485948,1332.370696,7698.141797
1003.292479,689.485948,888.247130,7994.224174
1003.292794,689.485948,518.144159,8956.491898
1003.293110,306.438199,-1110.308913,9918.759623
1003.293426,0.000000,-2368.659014,10807.006753
1003.293742,-383.047749,-3330.926739,11547.212695
1003.294057,-459.657299,-3108.864956,11621.233289
1003.294373,-536.266849,-2294.638420,11769.274478
1003.294689,-229.828649,-814.226536,10658.965565
1003.295005,383.047749,962.267725,9696.697840
1003.295321,842.705048,2072.576638,8660.409521
1003.295636,1072.533697,2220.617826,8364.327145
1003.295952,1455.581446,2368.659014,7846.182985
1003.296268,1608.800546,2072.576638,7402.059420
1003.296584,1915.238745,1554.432478,7846.182985
1003.296899,1455.581446,962.267725,8438.347739
1003.297215,995.924147,-0.000000,9474.636058
1003.297531,766.095498,-1850.514855,10436.903782
1003.297847,383.047749,-2516.700203,11251.130318
1003.298163,-536.266849,-2960.823768,11473.192101
1003.298478,-306.438199,-2664.741391,11547.212695
1003.298794,153.219100,-1554.432478,11473.192101
1003.299110,536.266849,-0.000000,10584.944971
1003.299426,612.876398,1406.391290,9326.594869
1003.299741,995.924147,1702.473667,8438.347739
1003.300057,1608.800546,1998.556043,7994.224174
1003.300373,1762.019645,1924.535449,7624.121203
1003.300689,2221.676944,1924.535449,7698.141797
1003.301005,2068.457845,1554.432478,8142.265362
1003.301320,1838.629195,740.205942,8586.388927
1003.301636,1455.581446,-962.267725,9622.677246
1003.301952,842.705048,-2368.659014,10584.944971
1003.302268,459.657299,-3034.844362,11103.089130
1003.302583,153.219100,-3034.844362,11473.192101
1003.302899,0.000000,-2146.597232,11399.171507
1003.303215,306.438199,-1110.308913,10732.986159
1003.303531,459.657299,518.144159,9770.718434
1003.303847,689.485948,1628.453072,8956.491898
1003.304162,766.095498,1702.473667,8216.285956
1003.304478,842.705048,1628.453072,7920.203579
1003.304794,766.095498,1406.391290,7846.182985
1003.305110,1072.533697,888.247130,7920.203579
1003.305425,1225.752797,592.164754,8512.368333
1003.305741,459.657299,-222.061783,9178.553681
1003.306057,0.000000,-1628.453072,9918.759623
1003.306373,-306.438199,-2664.741391,10881.027347
1003.306689,-689.485948,-3108.864956,11177.109724
1003.307005,-1072.533697,-2664.741391,11547.212695
1003.307320,-459.657299,-1998.556043,11177.109724
1003.307636,-536.266849,-444.123565,9992.780217
1003.307952,-306.438199,370.102971,9178.553681
1003.308268,153.219100,1628.453072,8512.368333
1003.308584,306.438199,1554.432478,7994.224174
1003.308900,536.266849,1554.432478,7550.100608
1003.309216,995.924147,1480.411884,7254.018232
1003.309531,612.876398,1036.288319,7994.224174
1003.309847,612.876398,296.082377,8586.388927
1003.310163,0.000000,-1110.308913,9474.636058
1003.310479,-306.438199,-2368.659014,10436.903782
1003.310795,-1149.143247,-3108.864956,11251.130318
1003.311111,-459.657299,-2960.823768,11177.109724
1003.311426,-995.924147,-2442.679609,10955.047942
1003.311742,-383.047749,-888.247130,10584.944971
1003.312058,0.000000,370.102971,9622.677246
1003.312374,229.828649,1110.308913,8512.368333
1003.312690,459.657299,1554.432478,8142.265362
1003.313006,383.047749,1480.411884,7994.224174
1003.313321,612.876398,1332.370696,7772.162391
1003.313637,995.924147,1332.370696,7772.162391
1003.313953,689.485948,1110.308913,8290.306550
1003.314269,459.657299,666.185348,8882.471304
1003.314585,76.609550,-1110.308913,9992.780217
1003.314901,0.000000,-1998.556043,10658.965565
1003.315217,-383.047749,-2664.741391,10955.047942
1003.315532,-383.047749,-2590.720797,11843.295072
1003.315848,-459.657299,-1850.514855,11399.171507
1003.316164,76.609550,-370.102971,10436.903782
1003.316480,229.828649,1184.329507,9770.718434
1003.316796,689.485948,2146.597232,8734.430116
1003.317112,1455.581446,2516.700203,8364.327145
1003.317427,1378.971896,2886.803174,7550.100608
1003.317743,1685.410096,2516.700203,7402.059420
1003.318059,1378.971896,1924.535449,7994.224174
1003.318375,1378.971896,1184.329507,8808.450710
1003.318691,919.314598,-0.000000,9844.739029
1003.319007,459.657299,-1628.453072,10807.006753
1003.319322,153.219100,-2368.659014,11399.171507
1003.319638,-306.438199,-2738.761985,11843.295072
1003.319954,-306.438199,-2072.576638,11991.336260
1003.320270,-383.047749,-1184.329507,11325.150913
1003.320586,0.000000,148.041188,10584.944971
1003.320902,689.485948,1850.514855,9548.656652
1003.321218,842.705048,2220.617826,8734.430116
1003.321533,1149.143247,2294.638420,8438.347739
1003.321849,1762.019645,1998.556043,7772.162391
1003.322165,1915.238745,1924.535449,7624.121203
1003.322481,1838.629195,1184.329507,7920.203579
1003.322797,1302.362347,148.041188,8734.430116
1003.323113,1455.581446,-1036.288319,9992.780217
1003.323428,459.657299,-2516.700203,10658.965565
1003.323744,153.219100,-2960.823768,11251.130318
1003.324060,-306.438199,-2738.761985,11251.130318
1003.324376,-306.438199,-2146.597232,11251.130318
1003.324692,-229.828649,-1110.308913,10807.006753
1003.325008,306.438199,370.102971,9548.656652
1003.325323,459.657299,1406.391290,8512.368333
1003.325639,766.095498,1258.350101,8068.244768
1003.325955,842.705048,962.267725,7994.224174
1003.326271,1072.533697,1184.329507,7254.018232
1003.326587,995.924147,1184.329507,7994.224174
1003.326903,1149.143247,666.185348,8438.347739
1003.327219,689.485948,-0.000000,9030.512492
1003.327534,153.219100,-1258.350101,9548.656652
1003.327850,0.000000,-2664.741391,10510.924376
1003.328166,-306.438199,-3256.906145,11251.130318
1003.328482,-459.657299,-2886.803174,11251.130318
1003.328798,-306.438199,-1850.514855,10881.027347
1003.329114,0.000000,-444.123565,10066.800811
1003.329429,229.828649,740.205942,9104.533087
1003.329745,229.828649,1702.473667,8364.327145
1003.330061,689.485948,1184.329507,7994.224174
1003.330377,612.876398,1110.308913,7772.162391
1003.330693,842.705048,1332.370696,7772.162391
1003.331009,995.924147,888.247130,8216.285956
1003.331324,612.876398,-74.020594,8512.368333
1003.331640,0.000000,-814.226536,9548.656652
1003.331956,0.000000,-2812.782580,10362.883188
1003.332272,-1072.533697,-3627.009116,10881.027347
1003.332588,-1532.190996,-3404.947333,11473.192101
1003.332904,-1225.752797,-2738.761985,11547.212695
1003.333220,-842.705048,-1554.432478,11029.068536
1003.333535,229.828649,222.061783,10214.842000
1003.333851,153.219100,1110.308913,8882.471304
1003.334167,612.876398,1554.432478,8512.368333
1003.334483,919.314598,1628.453072,7994.224174
1003.334799,1378.971896,1776.494261,7328.038826
1003.335115,1455.581446,1480.411884,7920.203579
1003.335430,1532.190996,1036.288319,8438.347739
1003.335746,1149.143247,-0.000000,9104.533087
1003.336062,766.095498,-1480.411884,9844.739029
1003.336378,459.657299,-2664.741391,10658.965565
1003.336694,0.000000,-3182.885551,11695.253884
1003.337010,-229.828649,-2738.761985,11621.233289
1003.337325,0.000000,-1628.453072,11251.130318
1003.337641,229.828649,-74.020594,10362.883188
1003.337957,459.657299,1036.288319,9918.759623
1003.338273,842.705048,1924.535449,8808.450710
1003.338589,995.924147,2146.597232,8216.285956
1003.338905,1225.752797,1702.473667,7772.162391
1003.339221,1378.971896,1776.494261,7624.121203
1003.339536,1532.190996,1702.473667,7994.224174
1003.339852,1072.533697,1110.308913,8660.409521
1003.340168,842.705048,-0.000000,9474.636058
1003.340484,229.828649,-1776.494261,10362.883188
1003.340800,153.219100,-2664.741391,10955.047942
1003.341116,0.000000,-2886.803174,11473.192101
1003.341431,-459.657299,-2368.659014,11621.233289
1003.341747,0.000000,-1184.329507,11177.109724
1003.342063,153.219100,518.144159,10362.883188
1003.342379,612.876398,1850.514855,9178.553681
1003.342695,1149.143247,2146.597232,8586.388927
1003.343011,919.314598,2072.576638,7624.121203
1003.343326,1302.362347,2072.576638,7402.059420
1003.343642,1378.971896,1702.473667,7624.121203
1003.343958,842.705048,888.247130,8290.306550
1003.344274,842.705048,-0.000000,9178.553681
1003.344590,459.657299,-1480.411884,9992.780217
1003.344906,0.000000,-2738.761985,10881.027347
1003.345222,-229.828649,-3330.926739,11177.109724
1003.345537,-383.047749,-3108.864956,11473.192101
1003.345853,-689.485948,-2220.617826,11325.150913
1003.346169,-229.828649,-592.164754,10584.944971
1003.346485,229.828649,814.226536,9030.512492
1003.346801,689.485948,1702.473667,8512.368333
1003.347117,612.876398,1850.514855,8290.306550
1003.347432,1072.533697,1480.411884,7476.080014
1003.347748,1378.971896,1554.432478,7624.121203
1003.348064,1302.362347,1184.329507,7698.141797
1003.348380,1378.971896,814.226536,8290.306550
1003.348696,919.314598,-370.102971,9400.615463
1003.349012,0.000000,-2220.617826,10288.862594
1003.349327,0.000000,-2812.782580,10807.006753
1003.349643,-459.657299,-3404.947333,11251.130318
1003.349959,-842.705048,-2738.761985,11325.150913
1003.350275,-459.657299,-1702.473667,11177.109724
1003.350591,-383.047749,-0.000000,10140.821405
1003.350907,0.000000,1184.329507,9104.533087
1003.351223,306.438199,1628.453072,8512.368333
1003.351538,842.705048,1924.535449,7772.162391
1003.351854,1149.143247,1776.494261,7105.977043
1003.352170,995.924147,1332.370696,7698.141797
1003.352486,1149.143247,1110.308913,8438.347739
1003.352802,612.876398,222.061783,8882.471304
1003.353118,229.828649,-592.164754,9548.656652
1003.353433,0.000000,-2368.659014,10658.965565
1003.353749,-459.657299,-2664.741391,11251.130318
1003.354065,-612.876398,-2812.782580,11473.192101
1003.354381,-459.657299,-2220.617826,11473.192101
1003.354697,0.000000,-814.226536,10955.047942
1003.355013,0.000000,-0.000000,9622.677246
1003.355328,153.219100,1332.370696,9030.512492
1003.355644,766.095498,1480.411884,8364.327145
1003.355960,1149.143247,1702.473667,7994.224174
1003.356276,1455.581446,1850.514855,7328.038826
1003.356592,1072.533697,1628.453072,7698.141797
1003.356908,995.924147,888.247130,8142.265362
1003.357224,459.657299,-148.041188,9252.574275
1003.357539,153.219100,-1702.473667,10214.842000
1003.357855,-153.219100,-2738.761985,11177.109724
1003.358171,-536.266849,-3478.967927,11325.150913
1003.358487,-766.095498,-3108.864956,11843.295072
1003.358803,-306.438199,-1850.514855,11399.171507
1003.359119,-153.219100,-222.061783,10140.821405
1003.359434,229.828649,1110.308913,9400.615463
1003.359750,689.485948,1998.556043,8586.388927
1003.360066,995.924147,2146.597232,7994.224174
1003.360382,1302.362347,2220.617826,7550.100608
1003.360698,1378.971896,1998.556043,7476.080014
1003.361014,1302.362347,1554.432478,7920.203579
1003.361329,1225.752797,814.226536,8734.430116
1003.361645,459.657299,-518.144159,9696.697840
1003.361961,153.219100,-2072.576638,10510.924376
1003.362277,153.219100,-3034.844362,11399.171507
1003.362593,-383.047749,-3330.926739,11621.233289
1003.362909,-229.828649,-2146.597232,11325.150913
1003.363225,0.000000,-888.247130,10881.027347
1003.363540,689.485948,962.267725,9474.636058
1003.363856,766.095498,1924.535449,8956.491898
1003.364172,995.924147,2220.617826,8216.285956
1003.364488,1532.190996,2220.617826,7476.080014
1003.364804,1991.848295,2146.597232,7328.038826
1003.365120,1685.410096,1628.453072,7550.100608
