#time,accel_x,accel_y,accel_z
822.298081,383.047749,-222.061783,9548.656652
822.298396,229.828649,-296.082377,9400.615463
822.298712,459.657299,-222.061783,9696.697840
822.299028,459.657299,-0.000000,9548.656652
822.299343,153.219100,-296.082377,9548.656652
822.299659,383.047749,-148.041188,9622.677246
822.299974,306.438199,-0.000000,9548.656652
822.300290,153.219100,-296.082377,9622.677246
822.300606,459.657299,-0.000000,9474.636058
822.300921,306.438199,-222.061783,9474.636058
822.301237,459.657299,-74.020594,9474.636058
822.301553,459.657299,-222.061783,9326.594869
822.301868,612.876398,-296.082377,9622.677246
822.302184,459.657299,-296.082377,9474.636058
822.302500,459.657299,-148.041188,9696.697840
822.302815,76.609550,-0.000000,9548.656652
822.303131,153.219100,148.041188,9548.656652
822.303447,383.047749,-0.000000,9252.574275
822.303762,229.828649,518.144159,9474.636058
822.304078,612.876398,592.164754,9474.636058
822.304394,0.000000,74.020594,9326.594869
822.304709,153.219100,-0.000000,9474.636058
822.305025,153.219100,-370.102971,9474.636058
822.305341,153.219100,-0.000000,9696.697840
822.305656,76.609550,-0.000000,9696.697840
822.305972,76.609550,-296.082377,9844.739029
822.306287,0.000000,-222.061783,9696.697840
822.306603,459.657299,-0.000000,9622.677246
822.306919,995.924147,592.164754,9178.553681
822.307234,536.266849,666.185348,9178.553681
822.307550,383.047749,740.205942,9252.574275
822.307866,766.095498,814.226536,9104.533087
822.308181,842.705048,666.185348,9326.594869
822.308497,766.095498,666.185348,9104.533087
822.308813,842.705048,592.164754,9326.594869
822.309128,689.485948,518.144159,9622.677246
822.309444,1685.410096,-0.000000,9918.759623
822.309760,919.314598,74.020594,9696.697840
822.310075,536.266849,666.185348,9548.656652
822.310391,766.095498,592.164754,9770.718434
822.310707,1072.533697,814.226536,9474.636058
822.311022,1225.752797,1332.370696,9474.636058
822.311338,1685.410096,1258.350101,9178.553681
822.311653,1762.019645,1554.432478,9178.553681
822.311969,2068.457845,1702.473667,9030.512492
822.312285,2068.457845,1628.453072,9030.512492
822.312600,2298.286494,1628.453072,9400.615463
822.312916,2451.505594,1554.432478,9548.656652
822.313232,2604.724693,1554.432478,9326.594869
822.313547,2374.896044,1480.411884,9474.636058
822.313863,2681.334243,1924.535449,9474.636058
822.314179,2834.553343,1480.411884,9548.656652
822.314494,2451.505594,2072.576638,9622.677246
822.314810,2757.943793,2146.597232,9622.677246
822.315126,2911.162892,2368.659014,9622.677246
822.315441,3064.381992,2442.679609,9178.553681
822.315757,2987.772442,2442.679609,9326.594869
822.316073,2911.162892,2516.700203,9326.594869
822.316388,3600.648841,2590.720797,9252.574275
822.316704,3294.210641,2590.720797,9326.594869
822.317020,3447.429741,2516.700203,9474.636058
822.317335,3370.820191,2516.700203,9696.697840
822.317651,3064.381992,2442.679609,9474.636058
822.317966,3064.381992,2664.741391,9474.636058
822.318282,3064.381992,2368.659014,9770.718434
822.318598,2834.553343,2590.720797,9696.697840
822.318913,2834.553343,2146.597232,9622.677246
822.319229,2604.724693,2294.638420,10140.821405
822.319545,2911.162892,1924.535449,9696.697840
822.319860,2451.505594,2146.597232,9918.759623
822.320176,2451.505594,2072.576638,9844.739029
822.320492,2451.505594,2294.638420,9992.780217
822.320807,2528.115143,2146.597232,9770.718434
822.321123,3064.381992,1998.556043,9844.739029
822.321439,2911.162892,2146.597232,9622.677246
822.321754,2834.553343,2368.659014,9696.697840
822.322070,2911.162892,1776.494261,9400.615463
822.322386,2834.553343,1702.473667,9326.594869
822.322701,2374.896044,1776.494261,9474.636058
822.323017,2145.067394,1924.535449,9252.574275
822.323333,1991.848295,2220.617826,9918.759623
822.323648,1302.362347,1258.350101,9770.718434
822.323964,1072.533697,814.226536,10066.800811
822.324279,612.876398,-0.000000,9992.780217
822.324595,689.485948,-148.041188,10584.944971
822.324911,689.485948,-444.123565,10584.944971
822.325226,842.705048,-370.102971,10881.027347
822.325542,1378.971896,-0.000000,10510.924376
822.325858,1532.190996,444.123565,9992.780217
822.326173,2451.505594,1480.411884,9326.594869
822.326489,3294.210641,2294.638420,8882.471304
822.326805,3753.867940,2886.803174,7772.162391
822.327120,4213.525239,3182.885551,7328.038826
822.327436,4596.572988,3034.844362,7328.038826
822.327752,4519.963438,2294.638420,7105.977043
822.328067,4060.306139,1998.556043,7254.018232
822.328383,2987.772442,1406.391290,8290.306550
822.328699,2298.286494,888.247130,8956.491898
822.329014,1302.362347,592.164754,9326.594869
822.329330,153.219100,296.082377,10214.842000
822.329646,-383.047749,-74.020594,10436.903782
822.329961,-995.924147,-740.205942,10807.006753
822.330277,-1072.533697,-666.185348,11177.109724
822.330592,-766.095498,-962.267725,11103.089130
822.330908,-459.657299,-814.226536,11029.068536
822.331224,689.485948,-222.061783,10658.965565
822.331539,1455.581446,592.164754,9992.780217
822.331855,2528.115143,1628.453072,9178.553681
822.332171,4060.306139,2664.741391,8364.327145
822.332486,4979.620737,3478.967927,7698.141797
822.332802,5822.325785,3627.009116,7254.018232
822.333118,6511.811733,4219.173869,7105.977043
822.333433,6588.421283,4515.256246,6661.853478
822.333749,6358.592633,4367.215058,6883.915261
822.334065,5822.325785,3997.112087,7179.997637
822.334380,4903.011187,3256.906145,8216.285956
822.334696,3447.429741,2146.597232,9178.553681
822.335012,2374.896044,962.267725,10362.883188
822.335327,689.485948,-222.061783,11843.295072
822.335643,-383.047749,-740.205942,13027.624579
822.335958,-1072.533697,-740.205942,13175.665768
822.336274,-1072.533697,-74.020594,13471.748144
822.336590,-459.657299,666.185348,12361.439231
822.336905,306.438199,1998.556043,11547.212695
822.337221,1225.752797,3108.864956,10362.883188
822.337537,2604.724693,3849.070898,8586.388927
822.337852,4290.134789,4441.235652,7402.059420
822.338168,5439.278036,4219.173869,7105.977043
822.338484,6128.763984,3330.926739,7031.956449
822.338799,6435.202183,3478.967927,7550.100608
822.339115,5822.325785,2738.761985,8068.244768
822.339431,5056.230287,2368.659014,8808.450710
822.339746,4826.401637,2146.597232,10066.800811
822.340062,3524.039291,1850.514855,11251.130318
822.340378,2451.505594,1924.535449,11621.233289
822.340693,1532.190996,2516.700203,11251.130318
822.341009,1149.143247,3182.885551,10214.842000
822.341325,1915.238745,3478.967927,10436.903782
822.341640,1762.019645,2664.741391,9844.739029
822.341956,1685.410096,2516.700203,10066.800811
822.342271,1532.190996,1998.556043,9474.636058
822.342587,1685.410096,1184.329507,9030.512492
822.342903,2451.505594,1554.432478,9474.636058
822.343218,2221.676944,1850.514855,8956.491898
822.343534,1685.410096,2368.659014,9178.553681
822.343850,1072.533697,2294.638420,9474.636058
822.344165,1149.143247,1924.535449,9622.677246
822.344481,1149.143247,1628.453072,9918.759623
822.344797,1608.800546,1406.391290,9770.718434
822.345112,1915.238745,592.164754,10658.965565
822.345428,1302.362347,1332.370696,10584.944971
822.345744,1915.238745,1480.411884,10584.944971
822.346059,2911.162892,1554.432478,10436.903782
822.346375,3217.601092,3478.967927,9252.574275
822.346691,3217.601092,4515.256246,7624.121203
822.347006,4366.744339,3997.112087,6809.894666
822.347322,5362.668486,2738.761985,6957.935855
822.347638,4979.620737,3034.844362,6513.812290
822.347953,4290.134789,2368.659014,7031.956449
822.348269,3447.429741,814.226536,8586.388927
822.348584,2528.115143,-518.144159,9696.697840
822.348900,766.095498,-518.144159,10510.924376
822.349216,-612.876398,-0.000000,11547.212695
822.349531,-919.314598,370.102971,11917.315666
822.349847,-153.219100,592.164754,11399.171507
822.350163,229.828649,1258.350101,10955.047942
822.350478,459.657299,1258.350101,10510.924376
822.350794,1455.581446,1036.288319,10140.821405
822.351110,3217.601092,962.267725,9474.636058
822.351425,3447.429741,1776.494261,8882.471304
822.351741,4596.572988,2590.720797,7698.141797
822.352057,6052.154434,3034.844362,7772.162391
822.352372,5822.325785,2960.823768,7402.059420
822.352688,5362.668486,2812.782580,7328.038826
822.353004,5056.230287,2516.700203,7550.100608
822.353319,4826.401637,2146.597232,8734.430116
822.353635,3677.258390,2146.597232,9548.656652
822.353951,2374.896044,2442.679609,9844.739029
822.354266,1762.019645,2368.659014,9474.636058
822.354582,1149.143247,1184.329507,10510.924376
822.354897,-229.828649,444.123565,11399.171507
822.355213,-842.705048,-814.226536,12213.398043
822.355529,-919.314598,-1184.329507,12361.439231
822.355845,-536.266849,-518.144159,11695.253884
822.356161,383.047749,148.041188,11473.192101
822.356476,2145.067394,666.185348,10955.047942
822.356792,2911.162892,1628.453072,8956.491898
822.357108,3753.867940,2960.823768,8438.347739
822.357424,4826.401637,2960.823768,7550.100608
822.357740,5439.278036,3701.029710,7846.182985
822.358055,5286.058936,4441.235652,6957.935855
822.358371,5362.668486,3108.864956,7328.038826
822.358687,4903.011187,1776.494261,8734.430116
822.359003,3983.696590,2072.576638,9104.533087
822.359319,2451.505594,2220.617826,9548.656652
822.359635,1915.238745,666.185348,11103.089130
822.359950,995.924147,1406.391290,10955.047942
822.360266,612.876398,1850.514855,10881.027347
822.360582,1149.143247,814.226536,11177.109724
822.360898,1149.143247,1480.411884,10510.924376
822.361214,919.314598,1184.329507,10658.965565
822.361529,1149.143247,888.247130,9918.759623
822.361845,1532.190996,1628.453072,9474.636058
822.362161,2374.896044,1998.556043,9548.656652
822.362477,2757.943793,1776.494261,8438.347739
822.362793,2528.115143,1998.556043,8068.244768
822.363108,2145.067394,1776.494261,9400.615463
822.363424,2145.067394,1480.411884,9326.594869
822.363740,1608.800546,2072.576638,9104.533087
822.364056,1685.410096,2146.597232,10140.821405
822.364372,1991.848295,1554.432478,10066.800811
822.364688,1762.019645,2146.597232,9548.656652
822.365003,1991.848295,2368.659014,8956.491898
822.365319,1991.848295,2368.659014,8882.471304
822.365635,2451.505594,1776.494261,9178.553681
822.365951,2987.772442,1332.370696,9770.718434
822.366267,2834.553343,1998.556043,8956.491898
822.366582,2298.286494,2368.659014,7994.224174
822.366898,2068.457845,2368.659014,8586.388927
822.367214,1685.410096,2664.741391,8216.285956
822.367530,2374.896044,1554.432478,9178.553681
822.367846,1915.238745,888.247130,10214.842000
822.368162,842.705048,962.267725,9918.759623
822.368477,459.657299,-0.000000,10214.842000
822.368793,995.924147,740.205942,10584.944971
822.369109,1225.752797,1702.473667,9770.718434
822.369425,1915.238745,962.267725,11325.150913
822.369741,1685.410096,1998.556043,10214.842000
822.370056,1838.629195,2294.638420,9918.759623
822.370372,3140.991542,2368.659014,8586.388927
822.370688,3983.696590,3108.864956,7846.182985
822.371004,4749.792088,2072.576638,9400.615463
822.371320,5056.230287,2220.617826,8808.450710
822.371635,4366.744339,2146.597232,8290.306550
822.371951,4213.525239,1406.391290,8216.285956
822.372267,3370.820191,2146.597232,9178.553681
822.372583,2911.162892,1258.350101,9178.553681
822.372899,2451.505594,518.144159,10732.986159
822.373215,1685.410096,888.247130,10955.047942
822.373530,76.609550,-0.000000,11103.089130
822.373846,1072.533697,888.247130,10732.986159
822.374162,1838.629195,592.164754,10140.821405
822.374478,1455.581446,888.247130,9474.636058
822.374794,1455.581446,1184.329507,9696.697840
822.375109,612.876398,518.144159,9474.636058
822.375425,1378.971896,814.226536,9252.574275
822.375741,1915.238745,-444.123565,9992.780217
822.376057,1762.019645,-74.020594,9992.780217
822.376373,1455.581446,-444.123565,10140.821405
822.376689,1149.143247,-0.000000,9474.636058
822.377004,1149.143247,-148.041188,9918.759623
822.377320,2221.676944,-518.144159,11029.068536
822.377636,1762.019645,-0.000000,9622.677246
822.377952,1225.752797,1110.308913,9252.574275
822.378268,229.828649,518.144159,8882.471304
822.378583,842.705048,148.041188,8734.430116
822.378899,1685.410096,-0.000000,10066.800811
822.379215,1225.752797,518.144159,9400.615463
822.379531,-229.828649,296.082377,7920.203579
822.379847,-306.438199,-740.205942,8882.471304
822.380162,0.000000,-1702.473667,9770.718434
822.380478,0.000000,-2146.597232,10584.944971
822.380794,-459.657299,-1110.308913,9252.574275
822.381110,-766.095498,-1628.453072,9770.718434
822.381426,-1225.752797,-1702.473667,9400.615463
822.381742,-459.657299,-1702.473667,10288.862594
822.382057,-459.657299,-2220.617826,10140.821405
822.382373,-612.876398,-740.205942,9696.697840
822.382689,76.609550,-296.082377,9770.718434
822.383005,229.828649,-0.000000,7994.224174
822.383321,1072.533697,296.082377,8438.347739
822.383636,1762.019645,592.164754,7994.224174
822.383952,1608.800546,1332.370696,8142.265362
822.384268,1608.800546,1628.453072,6661.853478
822.384584,1915.238745,962.267725,6735.874072
822.384900,1532.190996,-0.000000,8512.368333
822.385216,76.609550,-222.061783,8512.368333
822.385531,0.000000,-1554.432478,10066.800811
822.385847,-1149.143247,-962.267725,9474.636058
822.386163,-1991.848295,-1184.329507,10066.800811
822.386479,-2221.676944,-1480.411884,11177.109724
822.386795,-2681.334243,-518.144159,11029.068536
822.387110,-2834.553343,148.041188,10658.965565
822.387426,-2451.505594,1184.329507,9104.533087
822.387742,-1149.143247,222.061783,9696.697840
822.388058,306.438199,-518.144159,10140.821405
822.388374,306.438199,370.102971,8956.491898
822.388690,995.924147,888.247130,8956.491898
822.389005,2068.457845,1036.288319,8512.368333
822.389321,2757.943793,1332.370696,8882.471304
822.389637,2298.286494,2072.576638,8512.368333
822.389953,1762.019645,1998.556043,8364.327145
822.390269,1455.581446,1110.308913,8216.285956
822.390584,1762.019645,370.102971,10140.821405
822.390900,1915.238745,-444.123565,10732.986159
822.391216,0.000000,-518.144159,11177.109724
822.391532,-383.047749,-666.185348,11251.130318
822.391848,-842.705048,-814.226536,10584.944971
822.392163,-229.828649,-592.164754,11251.130318
822.392479,0.000000,-74.020594,12065.356855
822.392795,-459.657299,814.226536,9918.759623
822.393111,76.609550,370.102971,10584.944971
822.393427,1455.581446,740.205942,9104.533087
822.393743,2451.505594,1184.329507,8512.368333
822.394058,2757.943793,1258.350101,8586.388927
822.394374,2451.505594,-0.000000,9844.739029
822.394690,1915.238745,-148.041188,9252.574275
822.395006,2298.286494,370.102971,9104.533087
822.395322,1915.238745,592.164754,9474.636058
822.395637,842.705048,-148.041188,10066.800811
822.395953,306.438199,-0.000000,11399.171507
822.396269,-612.876398,518.144159,9326.594869
822.396585,-383.047749,-0.000000,9622.677246
822.396901,-306.438199,-0.000000,10584.944971
822.397217,-536.266849,-740.205942,10510.924376
822.397532,-459.657299,-814.226536,9844.739029
822.397848,-383.047749,-962.267725,8734.430116
822.398164,459.657299,-1332.370696,9252.574275
822.398480,689.485948,-962.267725,10288.862594
822.398796,306.438199,-222.061783,9400.615463
822.399111,612.876398,-0.000000,7698.141797
822.399427,1149.143247,370.102971,7328.038826
822.399743,1225.752797,-444.123565,8290.306550
822.400059,995.924147,296.082377,9696.697840
822.400375,995.924147,-0.000000,9326.594869
822.400690,76.609550,-0.000000,7920.203579
822.401006,383.047749,-148.041188,7920.203579
822.401322,612.876398,-592.164754,9992.780217
822.401638,-153.219100,296.082377,9400.615463
822.401954,0.000000,-0.000000,9178.553681
822.402270,-153.219100,-592.164754,8586.388927
822.402585,0.000000,-814.226536,9178.553681
822.402901,-153.219100,-1036.288319,9548.656652
822.403217,-383.047749,-666.185348,9474.636058
822.403533,-383.047749,-814.226536,9178.553681
822.403849,0.000000,-1258.350101,8808.450710
822.404164,0.000000,-222.061783,9252.574275
822.404480,-459.657299,-74.020594,10066.800811
822.404796,0.000000,-148.041188,9326.594869
822.405112,-536.266849,-370.102971,8512.368333
822.405428,689.485948,-888.247130,8956.491898
822.405744,842.705048,-222.061783,9844.739029
822.406059,306.438199,-370.102971,10584.944971
822.406375,536.266849,222.061783,9844.739029
822.406691,842.705048,-0.000000,8068.244768
822.407007,919.314598,-0.000000,9030.512492
822.407323,1072.533697,444.123565,10288.862594
822.407638,1455.581446,-222.061783,9696.697840
822.407954,459.657299,-518.144159,9178.553681
822.408270,612.876398,-1628.453072,9400.615463
822.408586,842.705048,-1036.288319,9992.780217
822.408902,229.828649,-444.123565,10436.903782
822.409217,-1149.143247,-0.000000,10362.883188
822.409533,-1455.581446,-592.164754,9622.677246
822.409849,-306.438199,-148.041188,9326.594869
822.410165,-612.876398,-296.082377,10807.006753
822.410481,-1149.143247,-888.247130,11177.109724
822.410797,-842.705048,-962.267725,10658.965565
822.411112,0.000000,-1258.350101,9474.636058
822.411428,766.095498,-666.185348,9770.718434
822.411744,1302.362347,74.020594,9992.780217
822.412060,612.876398,740.205942,9770.718434
822.412376,612.876398,1184.329507,8956.491898
822.412691,1532.190996,-0.000000,7920.203579
822.413007,1378.971896,592.164754,8734.430116
822.413323,919.314598,740.205942,10584.944971
822.413639,383.047749,-296.082377,9696.697840
822.413955,612.876398,-592.164754,8660.409521
822.414271,536.266849,-666.185348,8216.285956
822.414586,153.219100,-592.164754,10658.965565
822.414902,306.438199,-518.144159,11103.089130
822.415218,-689.485948,148.041188,9178.553681
822.415534,-842.705048,-222.061783,9622.677246
822.415850,76.609550,-666.185348,9104.533087
822.416165,536.266849,-518.144159,11399.171507
822.416481,306.438199,-592.164754,9992.780217
822.416797,0.000000,444.123565,8512.368333
822.417113,1378.971896,-74.020594,7254.018232
822.417429,2374.896044,-0.000000,9474.636058
822.417744,1915.238745,592.164754,9844.739029
822.418060,536.266849,888.247130,8956.491898
822.418376,1532.190996,222.061783,8216.285956
822.418692,1762.019645,-1110.308913,8882.471304
822.419008,1378.971896,222.061783,10436.903782
822.419324,1378.971896,592.164754,10140.821405
822.419639,536.266849,592.164754,8364.327145
822.419955,1149.143247,1036.288319,8586.388927
822.420271,2145.067394,-592.164754,9548.656652
822.420587,1608.800546,148.041188,9844.739029
822.420903,383.047749,222.061783,9992.780217
822.421218,536.266849,-1110.308913,8808.450710
822.421534,1762.019645,-1332.370696,9252.574275
822.421850,1455.581446,-222.061783,9992.780217
822.422166,536.266849,1184.329507,9844.739029
822.422482,153.219100,666.185348,8660.409521
822.422798,536.266849,518.144159,8142.265362
822.423113,1302.362347,-0.000000,9030.512492
822.423429,459.657299,-666.185348,10584.944971
822.423745,0.000000,-296.082377,11029.068536
822.424061,-229.828649,-0.000000,9252.574275
822.424377,-306.438199,-666.185348,9178.553681
822.424692,383.047749,-370.102971,9918.759623
822.425008,-306.438199,1258.350101,9844.739029
822.425324,-383.047749,1406.391290,10066.800811
822.425640,-1149.143247,296.082377,8956.491898
822.425956,0.000000,-740.205942,9696.697840
822.426271,766.095498,-444.123565,10288.862594
822.426587,153.219100,-148.041188,10510.924376
822.426903,-153.219100,-370.102971,9548.656652
822.427219,0.000000,-814.226536,8734.430116
822.427535,536.266849,-888.247130,9474.636058
822.427851,0.000000,-0.000000,10732.986159
822.428166,-612.876398,148.041188,10584.944971
822.428482,-612.876398,-370.102971,9030.512492
822.428798,-153.219100,-666.185348,9548.656652
822.429114,995.924147,-666.185348,9992.780217
822.429430,766.095498,592.164754,9178.553681
822.429745,0.000000,-74.020594,9326.594869
822.430061,153.219100,-518.144159,9622.677246
822.430377,766.095498,-222.061783,8290.306550
822.430693,459.657299,-148.041188,8734.430116
822.431009,383.047749,-148.041188,10436.903782
822.431325,229.828649,-1036.288319,9696.697840
822.431640,0.000000,-444.123565,8808.450710
822.431956,229.828649,-1406.391290,9030.512492
822.432272,0.000000,-814.226536,9770.718434
822.432588,0.000000,-0.000000,10140.821405
822.432904,-229.828649,-666.185348,9178.553681
822.433219,153.219100,-592.164754,9104.533087
822.433535,1072.533697,-1110.308913,9770.718434
822.433851,306.438199,-222.061783,9770.718434
822.434167,0.000000,-444.123565,10436.903782
822.434483,612.876398,-592.164754,9178.553681
822.434798,1838.629195,-0.000000,7698.141797
822.435114,1991.848295,296.082377,8808.450710
822.435430,1072.533697,296.082377,9400.615463
822.435746,1072.533697,-222.061783,9844.739029
822.436062,1455.581446,222.061783,8068.244768
822.436378,2221.676944,-444.123565,9326.594869
822.436693,1225.752797,-0.000000,9548.656652
822.437009,842.705048,814.226536,9696.697840
822.437325,0.000000,222.061783,9030.512492
822.437641,842.705048,-518.144159,9326.594869
822.437957,919.314598,-296.082377,8956.491898
822.438272,0.000000,-148.041188,9696.697840
822.438588,-766.095498,-888.247130,11029.068536
822.438904,-612.876398,-1332.370696,9918.759623
822.439220,0.000000,-1258.350101,9030.512492
822.439536,-229.828649,-1184.329507,10140.821405
822.439852,-306.438199,-222.061783,11251.130318
822.440167,-229.828649,-370.102971,9548.656652
822.440483,0.000000,-592.164754,8586.388927
822.440799,1302.362347,-1480.411884,9770.718434
822.441115,1532.190996,-1110.308913,9474.636058
822.441431,919.314598,148.041188,9918.759623
822.441746,383.047749,-0.000000,9104.533087
822.442062,1225.752797,-370.102971,8364.327145
822.442378,1838.629195,-296.082377,9104.533087
822.442694,766.095498,1258.350101,9400.615463
822.443010,766.095498,-296.082377,10214.842000
822.443326,1225.752797,-444.123565,8660.409521
822.443641,995.924147,-592.164754,8956.491898
822.443957,1532.190996,-296.082377,9178.553681
822.444273,766.095498,518.144159,9474.636058
822.444589,0.000000,148.041188,9474.636058
822.444905,0.000000,-666.185348,9252.574275
822.445220,612.876398,-296.082377,8956.491898
822.445536,-229.828649,296.082377,9918.759623
822.445852,-306.438199,740.205942,10510.924376
822.446168,-306.438199,-0.000000,9326.594869
822.446484,153.219100,-74.020594,8660.409521
822.446799,383.047749,-0.000000,9326.594869
822.447115,689.485948,148.041188,9622.677246
822.447431,0.000000,740.205942,9992.780217
822.447747,0.000000,1332.370696,8586.388927
822.448063,536.266849,-0.000000,8808.450710
822.448379,459.657299,814.226536,9844.739029
822.448694,0.000000,1406.391290,9918.759623
822.449010,0.000000,370.102971,9918.759623
822.449326,-383.047749,370.102971,8586.388927
822.449642,842.705048,-666.185348,9770.718434
822.449958,1149.143247,370.102971,9844.739029
822.450273,0.000000,-0.000000,10214.842000
822.450589,-536.266849,-148.041188,10584.944971
822.450905,612.876398,-0.000000,9770.718434
822.451221,306.438199,-740.205942,9696.697840
822.451537,0.000000,222.061783,11029.068536
822.451853,-689.485948,444.123565,10288.862594
822.452168,229.828649,592.164754,8512.368333
822.452484,1225.752797,444.123565,8734.430116
822.452800,1762.019645,-74.020594,9400.615463
822.453116,995.924147,296.082377,9474.636058
822.453432,459.657299,-0.000000,9992.780217
822.453747,536.266849,-444.123565,9030.512492
822.454063,1072.533697,-1184.329507,8808.450710
822.454379,0.000000,-518.144159,10732.986159
822.454695,-459.657299,-444.123565,11029.068536
822.455011,-536.266849,-222.061783,9548.656652
822.455326,306.438199,-222.061783,8734.430116
822.455642,0.000000,-2368.659014,10066.800811
822.455958,76.609550,-1776.494261,11251.130318
822.456274,0.000000,-592.164754,9844.739029
822.456593,-536.266849,-444.123565,7920.203579
822.456909,689.485948,-888.247130,9474.636058
822.457225,842.705048,-814.226536,10066.800811
822.457540,766.095498,1110.308913,9178.553681
822.457856,459.657299,296.082377,8586.388927
822.458172,612.876398,-222.061783,8068.244768
822.458488,2068.457845,-370.102971,8734.430116
822.458803,919.314598,-1258.350101,9252.574275
822.459119,383.047749,-962.267725,10510.924376
822.459435,383.047749,-222.061783,9474.636058
822.459751,842.705048,-296.082377,7846.182985
822.460066,383.047749,148.041188,9474.636058
822.460382,-383.047749,-0.000000,10066.800811
822.460698,-153.219100,-0.000000,9548.656652
822.461013,0.000000,148.041188,8512.368333
822.461329,0.000000,-814.226536,9178.553681
822.461645,459.657299,-962.267725,9474.636058
822.461961,0.000000,-370.102971,9622.677246
822.462276,-306.438199,-370.102971,10140.821405
822.462592,-153.219100,-666.185348,8660.409521
822.462908,612.876398,-1406.391290,9400.615463
822.463224,153.219100,-148.041188,9548.656652
822.463539,-306.438199,-74.020594,10140.821405
822.463855,0.000000,-740.205942,9252.574275
822.464171,689.485948,-1332.370696,8586.388927
822.464487,995.924147,-962.267725,9918.759623
822.464802,766.095498,-148.041188,10584.944971
822.465118,0.000000,148.041188,9326.594869
822.465434,536.266849,296.082377,8586.388927
822.465749,1378.971896,-222.061783,9252.574275
822.466065,1838.629195,-592.164754,10066.800811
822.466381,536.266849,592.164754,10658.965565
822.466697,612.876398,444.123565,9622.677246
822.467012,1072.533697,444.123565,8438.347739
822.467328,1608.800546,-0.000000,8956.491898
822.467644,1225.752797,814.226536,9474.636058
822.467960,536.266849,148.041188,10288.862594
822.468275,0.000000,444.123565,9548.656652
822.468591,0.000000,-222.061783,9622.677246
822.468907,0.000000,-222.061783,9992.780217
822.469223,0.000000,-296.082377,11251.130318
822.469538,-919.314598,-0.000000,10288.862594
822.469854,-842.705048,148.041188,8512.368333
822.470170,-153.219100,-222.061783,9770.718434
822.470485,383.047749,-592.164754,9992.780217
822.470801,153.219100,148.041188,10288.862594
822.471117,-229.828649,518.144159,9030.512492
822.471433,153.219100,-222.061783,8512.368333
822.471748,1532.190996,-518.144159,9252.574275
822.472064,383.047749,-0.000000,10510.924376
822.472380,612.876398,148.041188,9400.615463
822.472696,383.047749,370.102971,8734.430116
822.473011,383.047749,518.144159,7772.162391
822.473327,919.314598,-518.144159,8956.491898
822.473643,1072.533697,-0.000000,10510.924376
822.473959,0.000000,-148.041188,9844.739029
822.474274,-306.438199,-666.185348,9992.780217
822.474590,766.095498,-74.020594,9104.533087
822.474906,0.000000,-0.000000,9474.636058
822.475221,0.000000,370.102971,11325.150913
822.475537,0.000000,444.123565,9178.553681
822.475853,76.609550,148.041188,8364.327145
822.476169,1072.533697,-518.144159,9030.512492
822.476484,766.095498,-444.123565,9918.759623
822.476800,383.047749,-370.102971,10140.821405
822.477116,536.266849,518.144159,9030.512492
822.477432,689.485948,444.123565,8142.265362
822.477747,1072.533697,74.020594,9252.574275
822.478063,842.705048,370.102971,10362.883188
822.478379,383.047749,-148.041188,10288.862594
822.478695,306.438199,-296.082377,8956.491898
822.479010,919.314598,-1184.329507,8586.388927
822.479326,766.095498,-814.226536,9696.697840
822.479642,1455.581446,-74.020594,11325.150913
822.479957,689.485948,-592.164754,8734.430116
822.480273,536.266849,-222.061783,8290.306550
822.480589,1225.752797,-1184.329507,10140.821405
822.480905,1225.752797,-148.041188,9622.677246
822.481220,536.266849,370.102971,9622.677246
822.481536,612.876398,-296.082377,9400.615463
822.481852,1302.362347,-0.000000,7920.203579
822.482168,1608.800546,-370.102971,9178.553681
822.482483,1149.143247,-0.000000,9770.718434
822.482799,0.000000,-814.226536,10140.821405
822.483115,0.000000,-1110.308913,9326.594869
822.483431,153.219100,-592.164754,8956.491898
822.483746,306.438199,-1036.288319,10362.883188
822.484062,-229.828649,-444.123565,10955.047942
822.484378,-459.657299,-814.226536,9992.780217
822.484693,-306.438199,-370.102971,8438.347739
822.485009,1072.533697,-1036.288319,9918.759623
822.485325,612.876398,-444.123565,9252.574275
822.485641,536.266849,148.041188,9252.574275
822.485956,-383.047749,-666.185348,9104.533087
822.486272,306.438199,-296.082377,8734.430116
822.486588,1072.533697,-888.247130,9548.656652
822.486904,0.000000,-222.061783,9548.656652
822.487219,0.000000,-296.082377,9622.677246
822.487535,-229.828649,-592.164754,8734.430116
822.487851,689.485948,-740.205942,8660.409521
822.488167,153.219100,-666.185348,10140.821405
822.488482,-306.438199,-148.041188,10362.883188
822.488798,0.000000,-0.000000,9400.615463
822.489114,0.000000,-74.020594,8216.285956
822.489429,612.876398,-814.226536,9696.697840
822.489745,383.047749,-962.267725,10288.862594
822.490061,229.828649,222.061783,9992.780217
822.490377,229.828649,296.082377,8438.347739
822.490692,689.485948,-74.020594,8068.244768
822.491008,1225.752797,-0.000000,9474.636058
822.491324,919.314598,222.061783,9918.759623
822.491640,0.000000,444.123565,9770.718434
822.491955,-459.657299,-148.041188,9252.574275
822.492271,76.609550,-666.185348,9104.533087
822.492587,842.705048,222.061783,9548.656652
822.492903,0.000000,-148.041188,10658.965565
822.493218,-306.438199,-0.000000,10066.800811
822.493534,383.047749,-518.144159,9178.553681
822.493850,689.485948,-296.082377,9030.512492
822.494165,842.705048,296.082377,10362.883188
822.494481,383.047749,-0.000000,9992.780217
822.494797,689.485948,296.082377,9104.533087
822.495113,1149.143247,518.144159,8660.409521
822.495428,1378.971896,-222.061783,9474.636058
822.495744,689.485948,444.123565,9844.739029
822.496060,153.219100,666.185348,9696.697840
822.496376,153.219100,370.102971,8660.409521
822.496691,1072.533697,-0.000000,8586.388927
822.497007,766.095498,-296.082377,9844.739029
822.497323,229.828649,-444.123565,10658.965565
822.497638,-536.266849,-666.185348,10955.047942
822.497954,-766.095498,-74.020594,9474.636058
822.498270,383.047749,-148.041188,9548.656652
822.498586,229.828649,222.061783,9696.697840
822.498901,-306.438199,-0.000000,10732.986159
822.499217,0.000000,592.164754,9326.594869
822.499533,383.047749,-222.061783,7550.100608
822.499849,1532.190996,-814.226536,9696.697840
822.500164,689.485948,-518.144159,9474.636058
822.500480,229.828649,-74.020594,9178.553681
822.500796,153.219100,-74.020594,8438.347739
822.501112,842.705048,-592.164754,8956.491898
822.501427,995.924147,-518.144159,9696.697840
822.501743,153.219100,222.061783,10510.924376
822.502059,-306.438199,-148.041188,9252.574275
822.502374,383.047749,-148.041188,8290.306550
822.502690,1762.019645,-1258.350101,9030.512492
822.503006,995.924147,-296.082377,9548.656652
822.503322,383.047749,370.102971,10436.903782
822.503637,459.657299,-0.000000,8216.285956
822.503953,306.438199,-0.000000,8290.306550
822.504269,1302.362347,-592.164754,10362.883188
822.504585,766.095498,444.123565,9474.636058
822.504900,306.438199,518.144159,9696.697840
822.505216,766.095498,-0.000000,9178.553681
822.505532,1762.019645,-444.123565,8660.409521
822.505848,842.705048,-74.020594,9474.636058
822.506163,766.095498,1036.288319,9992.780217
822.506479,0.000000,-222.061783,9770.718434
822.506795,153.219100,-74.020594,9030.512492
822.507110,383.047749,888.247130,9030.512492
822.507426,0.000000,-518.144159,11103.089130
822.507742,-459.657299,-74.020594,11029.068536
822.508058,-995.924147,-0.000000,9252.574275
822.508373,0.000000,148.041188,9252.574275
822.508689,766.095498,-592.164754,9696.697840
822.509005,0.000000,-148.041188,10214.842000
822.509321,229.828649,-74.020594,11251.130318
822.509636,0.000000,-1110.308913,8956.491898
822.509952,766.095498,-592.164754,8882.471304
822.510268,919.314598,-370.102971,10288.862594
822.510584,383.047749,-296.082377,10436.903782
822.510899,383.047749,148.041188,9696.697840
822.511215,229.828649,592.164754,7476.080014
822.511531,1149.143247,-444.123565,9104.533087
822.511846,1149.143247,-888.247130,9844.739029
822.512162,383.047749,-814.226536,10584.944971
822.512478,0.000000,-814.226536,9252.574275
822.512794,76.609550,-1110.308913,9104.533087
822.513109,919.314598,-296.082377,9696.697840
822.513425,0.000000,-0.000000,10214.842000
822.513741,-306.438199,-518.144159,9696.697840
822.514057,-383.047749,-814.226536,9252.574275
822.514372,536.266849,-814.226536,8512.368333
822.514688,919.314598,-740.205942,9326.594869
822.515004,612.876398,-370.102971,9992.780217
822.515320,383.047749,-444.123565,9252.574275
822.515635,0.000000,-1036.288319,8660.409521
822.515951,842.705048,-1406.391290,9548.656652
822.516267,689.485948,-74.020594,10066.800811
822.516582,229.828649,222.061783,9918.759623
822.516898,153.219100,-370.102971,9474.636058
822.517214,612.876398,-296.082377,7698.141797
822.517530,1302.362347,-814.226536,9400.615463
822.517845,1149.143247,222.061783,9992.780217
822.518161,459.657299,-0.000000,9326.594869
822.518477,0.000000,370.102971,9326.594869
822.518793,995.924147,-148.041188,8512.368333
822.519108,995.924147,-222.061783,9178.553681
822.519424,612.876398,444.123565,10066.800811
822.519740,0.000000,-444.123565,10066.800811
822.520056,0.000000,-444.123565,8882.471304
822.520371,1225.752797,-370.102971,9548.656652
822.520687,306.438199,444.123565,8808.450710
822.521003,0.000000,222.061783,10362.883188
822.521318,-306.438199,-296.082377,9548.656652
822.521634,76.609550,-296.082377,9030.512492
822.521950,536.266849,370.102971,10066.800811
822.522266,459.657299,-148.041188,10288.862594
822.522581,0.000000,518.144159,9400.615463
822.522897,-76.609550,-0.000000,9326.594869
822.523213,1838.629195,-740.205942,9252.574275
822.523529,1225.752797,-0.000000,9474.636058
822.523844,919.314598,740.205942,10362.883188
822.524160,306.438199,444.123565,9326.594869
822.524476,919.314598,-222.061783,9400.615463
822.524792,1915.238745,-74.020594,8956.491898
822.525107,1225.752797,814.226536,10658.965565
822.525423,536.266849,1258.350101,9844.739029
822.525739,459.657299,888.247130,8586.388927
822.526054,689.485948,-0.000000,8956.491898
822.526370,1149.143247,-740.205942,9918.759623
822.526686,459.657299,-370.102971,10288.862594
822.527002,-383.047749,-666.185348,10362.883188
822.527317,-459.657299,-222.061783,9622.677246
822.527633,536.266849,-814.226536,9770.718434
822.527949,306.438199,-518.144159,10288.862594
822.528265,0.000000,222.061783,10436.903782
822.528580,-229.828649,-74.020594,9622.677246
822.528896,689.485948,-0.000000,8438.347739
822.529212,1072.533697,-518.144159,8216.285956
822.529528,1072.533697,-148.041188,10214.842000
822.529843,919.314598,-814.226536,10732.986159
822.530159,153.219100,-518.144159,8438.347739
822.530475,689.485948,-666.185348,9326.594869
822.530790,1455.581446,-666.185348,9548.656652
822.531106,842.705048,-0.000000,9622.677246
822.531422,536.266849,592.164754,9326.594869
822.531738,383.047749,-666.185348,9104.533087
822.532053,1225.752797,-740.205942,8290.306550
822.532369,1532.190996,-666.185348,9326.594869
822.532685,919.314598,-0.000000,9326.594869
822.533001,306.438199,-370.102971,9548.656652
822.533316,306.438199,-296.082377,8438.347739
822.533632,459.657299,-148.041188,8586.388927
822.533948,383.047749,-222.061783,9918.759623
822.534264,153.219100,-592.164754,10140.821405
822.534579,-76.609550,-0.000000,8882.471304
822.534895,306.438199,-740.205942,8882.471304
822.535211,689.485948,-518.144159,9474.636058
822.535526,383.047749,-0.000000,10214.842000
822.535842,229.828649,296.082377,9918.759623
822.536158,76.609550,518.144159,8216.285956
822.536474,459.657299,-666.185348,8808.450710
822.536789,612.876398,-370.102971,9918.759623
822.537105,536.266849,-444.123565,10288.862594
822.537421,229.828649,-222.061783,9400.615463
822.537737,306.438199,-148.041188,8734.430116
822.538052,1225.752797,-888.247130,8956.491898
822.538368,1072.533697,-222.061783,9992.780217
822.538684,229.828649,222.061783,10807.006753
822.539000,0.000000,148.041188,8660.409521
822.539315,306.438199,-74.020594,8734.430116
822.539631,1149.143247,-1332.370696,9844.739029
822.539947,612.876398,-222.061783,10658.965565
822.540262,229.828649,-0.000000,10807.006753
822.540578,-306.438199,-74.020594,8660.409521
822.540894,995.924147,-740.205942,8438.347739
822.541210,766.095498,-740.205942,9918.759623
822.541525,229.828649,-296.082377,10732.986159
822.541841,-459.657299,-0.000000,9622.677246
822.542157,0.000000,-148.041188,8660.409521
822.542473,306.438199,-740.205942,9770.718434
822.542788,0.000000,-74.020594,10584.944971
822.543104,-536.266849,-518.144159,9844.739029
822.543420,-536.266849,-222.061783,9326.594869
822.543736,-153.219100,-962.267725,9104.533087
822.544051,306.438199,-962.267725,9622.677246
822.544367,76.609550,-518.144159,9770.718434
822.544683,-459.657299,-962.267725,10066.800811
822.544998,-612.876398,-962.267725,9104.533087
822.545314,919.314598,-888.247130,9844.739029
822.545630,229.828649,-74.020594,9104.533087
822.545946,0.000000,740.205942,10436.903782
822.546261,0.000000,-0.000000,9326.594869
822.546577,0.000000,-370.102971,7698.141797
822.546893,919.314598,-518.144159,9252.574275
822.547209,842.705048,-444.123565,9326.594869
822.547524,153.219100,-444.123565,9548.656652
822.547840,-459.657299,-888.247130,10214.842000
822.548156,0.000000,-518.144159,8956.491898
822.548471,689.485948,-0.000000,8882.471304
822.548787,153.219100,296.082377,9548.656652
822.549103,-229.828649,296.082377,8808.450710
822.549419,0.000000,-74.020594,8808.450710
822.549734,919.314598,-1184.329507,9178.553681
822.550050,689.485948,-1184.329507,9770.718434
822.550366,306.438199,-814.226536,9918.759623
822.550682,0.000000,-814.226536,9696.697840
822.550997,383.047749,-888.247130,8882.471304
822.551313,1225.752797,-1036.288319,9992.780217
822.551629,612.876398,-370.102971,10436.903782
822.551945,229.828649,370.102971,10955.047942
822.552260,383.047749,814.226536,8290.306550
822.552576,1149.143247,444.123565,7402.059420
822.552892,1225.752797,-74.020594,9474.636058
822.553207,1455.581446,-370.102971,10214.842000
822.553523,842.705048,-222.061783,9326.594869
822.553839,229.828649,-296.082377,8438.347739
822.554155,1072.533697,-2146.597232,10732.986159
822.554470,1532.190996,-1184.329507,10510.924376
822.554786,689.485948,888.247130,10436.903782
822.555102,306.438199,296.082377,9696.697840
822.555418,689.485948,-0.000000,8808.450710
822.555733,1608.800546,-0.000000,9252.574275
822.556049,1225.752797,592.164754,8956.491898
822.556365,1302.362347,296.082377,9622.677246
822.556681,76.609550,-74.020594,8956.491898
822.556996,612.876398,-296.082377,8734.430116
822.557312,1072.533697,-0.000000,9252.574275
822.557628,689.485948,1332.370696,10066.800811
822.557943,-229.828649,1184.329507,9178.553681
822.558259,-153.219100,740.205942,8216.285956
822.558575,689.485948,-296.082377,9326.594869
822.558891,76.609550,-148.041188,9918.759623
822.559206,0.000000,666.185348,10584.944971
822.559522,0.000000,148.041188,8586.388927
822.559838,-459.657299,592.164754,9474.636058
822.560154,612.876398,222.061783,9844.739029
822.560469,76.609550,1036.288319,9622.677246
822.560785,-536.266849,1776.494261,9474.636058
822.561101,-842.705048,1628.453072,9178.553681
822.561417,306.438199,740.205942,8734.430116
822.561732,1072.533697,592.164754,9400.615463
822.562048,153.219100,1924.535449,9622.677246
822.562364,383.047749,1184.329507,10288.862594
822.562680,0.000000,1554.432478,8586.388927
822.562995,1072.533697,666.185348,8882.471304
822.563311,995.924147,1184.329507,9770.718434
822.563627,229.828649,1184.329507,9992.780217
822.563943,-306.438199,1110.308913,9622.677246
822.564258,153.219100,814.226536,9326.594869
822.564574,1072.533697,-222.061783,9918.759623
822.564890,842.705048,444.123565,10955.047942
822.565206,0.000000,814.226536,9992.780217
822.565521,-536.266849,370.102971,9104.533087
822.565837,689.485948,-370.102971,9770.718434
822.566153,842.705048,-666.185348,10658.965565
822.566469,842.705048,-74.020594,10510.924376
822.566784,459.657299,-740.205942,10658.965565
822.567100,0.000000,-0.000000,9178.553681
822.567416,1685.410096,-1184.329507,9548.656652
822.567732,1685.410096,-444.123565,9326.594869
822.568047,919.314598,-0.000000,10140.821405
822.568363,612.876398,-814.226536,10807.006753
822.568679,1149.143247,-962.267725,7994.224174
822.568995,1685.410096,-740.205942,8882.471304
822.569310,842.705048,-1184.329507,10362.883188
822.569626,536.266849,-1480.411884,10807.006753
822.569942,76.609550,-1554.432478,9696.697840
822.570258,306.438199,-1554.432478,9030.512492
822.570573,1225.752797,-2442.679609,9844.739029
822.570889,306.438199,-1776.494261,9326.594869
822.571205,-306.438199,-1850.514855,10362.883188
822.571521,0.000000,-1776.494261,8808.450710
822.571836,995.924147,-1850.514855,8512.368333
822.572152,1302.362347,-1110.308913,8882.471304
822.572468,153.219100,-1184.329507,9992.780217
822.572784,383.047749,-1554.432478,9030.512492
822.573099,153.219100,-1628.453072,7402.059420
822.573415,995.924147,-2368.659014,8956.491898
822.573731,1072.533697,-1850.514855,9548.656652
822.574047,229.828649,-1110.308913,9548.656652
822.574362,0.000000,-962.267725,7846.182985
822.574678,766.095498,-1480.411884,8882.471304
822.574994,1378.971896,-1850.514855,9548.656652
822.575310,0.000000,-370.102971,9326.594869
822.575625,153.219100,-370.102971,10066.800811
822.575941,0.000000,-1628.453072,8586.388927
822.576257,612.876398,-1998.556043,8290.306550
822.576573,995.924147,-1554.432478,9252.574275
822.576889,0.000000,-1850.514855,10066.800811
822.577204,-383.047749,-1480.411884,9548.656652
822.577520,-383.047749,-518.144159,8438.347739
822.577836,919.314598,-444.123565,8512.368333
822.578152,612.876398,222.061783,8956.491898
822.578467,0.000000,370.102971,9548.656652
822.578783,-919.314598,-1110.308913,7920.203579
822.579099,0.000000,-2220.617826,9326.594869
822.579415,383.047749,-2072.576638,9918.759623
822.579730,76.609550,-740.205942,8882.471304
822.580046,-612.876398,-1036.288319,9770.718434
822.580362,-536.266849,-814.226536,9474.636058
822.580678,76.609550,-740.205942,9400.615463
822.580993,229.828649,592.164754,9030.512492
822.581309,-612.876398,1776.494261,10584.944971
822.581625,-536.266849,740.205942,9622.677246
822.581941,0.000000,592.164754,8068.244768
822.582256,1149.143247,-0.000000,9104.533087
822.582572,766.095498,666.185348,9622.677246
822.582888,0.000000,592.164754,10658.965565
822.583204,0.000000,740.205942,9770.718434
822.583519,229.828649,1110.308913,10066.800811
822.583835,766.095498,1554.432478,10066.800811
822.584151,0.000000,2368.659014,10658.965565
822.584467,0.000000,2590.720797,10807.006753
822.584782,76.609550,2590.720797,9104.533087
822.585098,1072.533697,1924.535449,9770.718434
822.585414,1225.752797,2146.597232,10214.842000
822.585730,306.438199,1850.514855,10584.944971
822.586045,0.000000,2220.617826,10510.924376
822.586361,536.266849,2368.659014,9474.636058
822.586677,1072.533697,1850.514855,9918.759623
822.586993,919.314598,2294.638420,10881.027347
822.587308,-229.828649,2072.576638,11547.212695
822.587624,-229.828649,1480.411884,9696.697840
822.587940,689.485948,1332.370696,9474.636058
822.588256,1685.410096,962.267725,10584.944971
822.588571,1302.362347,1184.329507,10658.965565
822.588887,459.657299,888.247130,10436.903782
822.589203,612.876398,1036.288319,9400.615463
822.589519,1685.410096,-0.000000,9474.636058
822.589834,1685.410096,888.247130,9326.594869
822.590150,842.705048,2072.576638,9696.697840
822.590466,1225.752797,148.041188,10288.862594
822.590782,1225.752797,740.205942,7994.224174
822.591097,1915.238745,-0.000000,8808.450710
822.591413,1991.848295,-666.185348,9104.533087
822.591729,1455.581446,-370.102971,9326.594869
822.592045,536.266849,-814.226536,9770.718434
822.592360,1608.800546,-888.247130,8660.409521
822.592676,995.924147,-740.205942,9400.615463
822.592992,689.485948,-74.020594,9622.677246
822.593308,0.000000,370.102971,9918.759623
822.593623,-153.219100,-1036.288319,8808.450710
822.593939,919.314598,-888.247130,8290.306550
822.594255,689.485948,-518.144159,9252.574275
822.594571,0.000000,-1036.288319,9992.780217
822.594886,383.047749,-962.267725,9696.697840
822.595202,153.219100,-148.041188,7772.162391
822.595518,995.924147,-1036.288319,9400.615463
822.595834,612.876398,-666.185348,9696.697840
822.596149,306.438199,-888.247130,10288.862594
822.596465,76.609550,-888.247130,8586.388927
822.596781,306.438199,-1776.494261,8808.450710
822.597097,536.266849,-2368.659014,9474.636058
822.597412,459.657299,-518.144159,9252.574275
822.597728,-229.828649,-444.123565,9548.656652
822.598044,-229.828649,-1702.473667,8956.491898
822.598360,229.828649,-2220.617826,9326.594869
822.598675,153.219100,-2368.659014,9844.739029
822.598991,-459.657299,-2072.576638,10732.986159
822.599307,-229.828649,-2368.659014,9548.656652
822.599623,0.000000,-2368.659014,7994.224174
822.599938,842.705048,-2294.638420,9104.533087
822.600254,842.705048,-2072.576638,9474.636058
822.600570,76.609550,-1332.370696,9178.553681
822.600886,-229.828649,-1628.453072,8586.388927
822.601201,0.000000,-2368.659014,7920.203579
822.601517,842.705048,-2664.741391,10140.821405
822.601833,-306.438199,-2368.659014,9844.739029
822.602149,-842.705048,-2220.617826,9770.718434
822.602465,-1302.362347,-2072.576638,9030.512492
822.602780,0.000000,-2368.659014,8882.471304
822.603096,-689.485948,-1702.473667,9326.594869
822.603412,-995.924147,-1554.432478,10807.006753
822.603728,-1455.581446,-2220.617826,9992.780217
822.604043,-995.924147,-1036.288319,9178.553681
822.604359,0.000000,-1702.473667,9326.594869
822.604675,-459.657299,-1406.391290,10140.821405
822.604991,-612.876398,-592.164754,10807.006753
822.605306,-459.657299,-0.000000,8586.388927
822.605622,306.438199,222.061783,7920.203579
822.605938,1378.971896,-222.061783,9548.656652
822.606254,995.924147,518.144159,9400.615463
822.606569,153.219100,148.041188,9992.780217
822.606885,-229.828649,-0.000000,8734.430116
822.607201,995.924147,-0.000000,9622.677246
822.607517,842.705048,1036.288319,9622.677246
822.607832,76.609550,1554.432478,9844.739029
822.608148,-306.438199,1036.288319,9474.636058
822.608464,306.438199,296.082377,8882.471304
822.608780,919.314598,-740.205942,10214.842000
822.609095,842.705048,-592.164754,10362.883188
822.609411,76.609550,-148.041188,10807.006753
822.609727,0.000000,-0.000000,9548.656652
822.610043,306.438199,370.102971,9474.636058
822.610358,1302.362347,814.226536,10362.883188
822.610674,612.876398,1702.473667,9844.739029
822.610990,459.657299,1924.535449,9400.615463
822.611306,306.438199,1480.411884,9030.512492
822.611621,1378.971896,148.041188,8956.491898
822.611937,1838.629195,-74.020594,9770.718434
822.612253,1532.190996,-0.000000,10436.903782
822.612569,689.485948,-0.000000,10214.842000
822.612884,1455.581446,148.041188,9104.533087
822.613200,1762.019645,888.247130,8882.471304
822.613516,1072.533697,2072.576638,9696.697840
822.613832,842.705048,1184.329507,9770.718434
822.614147,919.314598,1554.432478,8734.430116
822.614463,1302.362347,740.205942,8734.430116
822.614779,1991.848295,962.267725,9030.512492
822.615095,1762.019645,1110.308913,9104.533087
822.615410,229.828649,296.082377,9770.718434
822.615726,842.705048,1184.329507,8734.430116
822.616042,459.657299,1184.329507,8808.450710
822.616358,536.266849,740.205942,10066.800811
822.616673,-306.438199,1776.494261,10955.047942
822.616989,-766.095498,1554.432478,9622.677246
822.617305,-459.657299,1628.453072,8882.471304
822.617621,612.876398,962.267725,9548.656652
822.617936,306.438199,1998.556043,9178.553681
822.618252,0.000000,1924.535449,9844.739029
822.618568,-153.219100,1332.370696,9030.512492
822.618884,306.438199,962.267725,8290.306550
822.619199,536.266849,74.020594,9844.739029
822.619515,-306.438199,962.267725,10807.006753
822.619831,-459.657299,888.247130,10362.883188
822.620147,-229.828649,1110.308913,8882.471304
822.620462,766.095498,666.185348,9252.574275
822.620778,842.705048,888.247130,9474.636058
822.621094,459.657299,1332.370696,9992.780217
822.621410,0.000000,518.144159,9104.533087
822.621725,536.266849,-148.041188,8956.491898
822.622041,1149.143247,-962.267725,9770.718434
822.622357,1072.533697,-444.123565,9918.759623
822.622673,0.000000,-444.123565,10288.862594
822.622988,-153.219100,-740.205942,9326.594869
822.623304,306.438199,-740.205942,9548.656652
822.623620,1608.800546,-296.082377,9252.574275
822.623936,766.095498,666.185348,9252.574275
822.624251,0.000000,-962.267725,10436.903782
822.624567,229.828649,-1480.411884,9178.553681
822.624883,1149.143247,-1998.556043,9548.656652
822.625199,536.266849,-1998.556043,10362.883188
822.625514,-306.438199,-1110.308913,10955.047942
822.625830,-612.876398,-2220.617826,10584.944971
822.626146,-153.219100,-1406.391290,8808.450710
822.626462,229.828649,-2368.659014,10288.862594
822.626777,229.828649,-1924.535449,11029.068536
822.627093,76.609550,-1850.514855,10955.047942
822.627409,0.000000,-1628.453072,9178.553681
822.627725,919.314598,-1480.411884,9030.512492
822.628041,1762.019645,-2442.679609,9548.656652
822.628356,995.924147,-814.226536,9030.512492
822.628672,306.438199,-1036.288319,9474.636058
822.628988,612.876398,-2368.659014,8290.306550
822.629304,1455.581446,-2442.679609,8882.471304
822.629619,1455.581446,-1924.535449,9252.574275
822.629935,536.266849,-1998.556043,9992.780217
822.630251,-612.876398,-2368.659014,9178.553681
822.630567,0.000000,-2368.659014,8808.450710
822.630882,689.485948,-2590.720797,9622.677246
822.631198,0.000000,-1628.453072,9548.656652
822.631514,-536.266849,-1258.350101,9400.615463
822.631830,-383.047749,-1776.494261,8660.409521
822.632145,0.000000,-2886.803174,8660.409521
822.632461,536.266849,-2516.700203,9400.615463
822.632777,229.828649,-1184.329507,8586.388927
822.633093,-153.219100,-1554.432478,9178.553681
822.633408,-383.047749,-962.267725,8142.265362
822.633724,612.876398,-1628.453072,7846.182985
822.634040,842.705048,-666.185348,8586.388927
822.634356,459.657299,-0.000000,9400.615463
822.634671,0.000000,-518.144159,8142.265362
822.634987,919.314598,-666.185348,8512.368333
822.635303,1455.581446,-1184.329507,8068.244768
822.635619,1225.752797,-148.041188,8882.471304
822.635934,306.438199,888.247130,9622.677246
822.636250,-153.219100,518.144159,8216.285956
822.636566,76.609550,-0.000000,8660.409521
822.636882,383.047749,444.123565,9696.697840
822.637197,76.609550,1332.370696,9696.697840
822.637513,-536.266849,1036.288319,9474.636058
822.637829,-459.657299,666.185348,8882.471304
822.638145,612.876398,-0.000000,9696.697840
822.638460,612.876398,1110.308913,9622.677246
822.638776,0.000000,1554.432478,9992.780217
822.639092,-842.705048,1036.288319,10140.821405
822.639408,-536.266849,962.267725,9918.759623
822.639723,689.485948,148.041188,9770.718434
822.640039,0.000000,1258.350101,11547.212695
822.640355,-459.657299,1480.411884,11695.253884
822.640671,-459.657299,1406.391290,9474.636058
822.640986,919.314598,1628.453072,9918.759623
822.641302,1455.581446,1184.329507,9770.718434
822.641618,1072.533697,1850.514855,10732.986159
822.641934,536.266849,888.247130,10955.047942
822.642249,612.876398,962.267725,9474.636058
822.642565,1608.800546,666.185348,10510.924376
822.642881,1455.581446,1184.329507,10881.027347
822.643197,306.438199,2516.700203,10362.883188
822.643512,0.000000,1776.494261,10510.924376
822.643828,459.657299,1480.411884,8660.409521
822.644144,1762.019645,1850.514855,9178.553681
822.644460,1149.143247,1184.329507,10214.842000
822.644775,459.657299,592.164754,10881.027347
822.645091,0.000000,-0.000000,9918.759623
822.645407,612.876398,-370.102971,9696.697840
822.645723,766.095498,-0.000000,10436.903782
822.646038,0.000000,666.185348,11473.192101
822.646354,-229.828649,1184.329507,10362.883188
822.646670,-383.047749,1036.288319,8364.327145
822.646986,842.705048,-0.000000,9622.677246
822.647301,1149.143247,-148.041188,9696.697840
822.647617,612.876398,444.123565,9992.780217
822.647933,153.219100,592.164754,8956.491898
822.648249,919.314598,-518.144159,8882.471304
822.648564,1685.410096,-296.082377,9474.636058
822.648880,1608.800546,1184.329507,9104.533087
822.649196,459.657299,1628.453072,9178.553681
822.649512,689.485948,888.247130,8734.430116
822.649827,1532.190996,-148.041188,7994.224174
822.650143,1608.800546,-222.061783,8808.450710
822.650459,1149.143247,1036.288319,8956.491898
822.650775,919.314598,-0.000000,9030.512492
822.651090,995.924147,-814.226536,7476.080014
822.651406,1378.971896,-740.205942,8882.471304
822.651722,1225.752797,-444.123565,9178.553681
822.652038,536.266849,296.082377,8882.471304
822.652353,-459.657299,-444.123565,8586.388927
822.652669,76.609550,-1406.391290,8956.491898
822.652985,919.314598,-1480.411884,8586.388927
822.653301,612.876398,-222.061783,8882.471304
822.653617,0.000000,-1258.350101,9918.759623
822.653932,-766.095498,-2220.617826,9252.574275
822.654248,-229.828649,-2442.679609,9548.656652
822.654564,306.438199,-2072.576638,9326.594869
822.654880,-459.657299,-888.247130,9918.759623
822.655195,-536.266849,-1184.329507,10066.800811
822.655511,-612.876398,-1332.370696,8512.368333
822.655827,459.657299,-2220.617826,8734.430116
822.656143,689.485948,-1776.494261,9548.656652
822.656458,459.657299,-1554.432478,9622.677246
822.656774,-229.828649,-1628.453072,9844.739029
822.657090,766.095498,-1998.556043,9178.553681
822.657406,1302.362347,-1998.556043,9252.574275
822.657721,766.095498,-518.144159,8808.450710
822.658037,76.609550,-666.185348,10436.903782
822.658353,-459.657299,-1480.411884,9474.636058
822.658669,536.266849,-1406.391290,8586.388927
822.658984,689.485948,-1332.370696,9696.697840
822.659300,-383.047749,-1480.411884,10955.047942
822.659616,-842.705048,-1480.411884,10362.883188
822.659932,-766.095498,-1258.350101,8660.409521
822.660248,459.657299,-1036.288319,10362.883188
822.660563,383.047749,-1406.391290,10510.924376
822.660879,-536.266849,-148.041188,9696.697840
822.661195,-689.485948,-74.020594,9992.780217
822.661511,0.000000,-1850.514855,9030.512492
822.661827,689.485948,-1924.535449,9770.718434
822.662142,-153.219100,-1036.288319,10584.944971
822.662458,0.000000,-444.123565,9992.780217
822.662774,-536.266849,-370.102971,9770.718434
822.663090,306.438199,-222.061783,8956.491898
822.663406,766.095498,-148.041188,9400.615463
822.663721,383.047749,592.164754,9992.780217
822.664037,229.828649,444.123565,9696.697840
822.664353,536.266849,-0.000000,8216.285956
822.664669,1685.410096,-740.205942,9178.553681
822.664985,1685.410096,518.144159,9030.512492
822.665300,995.924147,1406.391290,9474.636058
822.665616,536.266849,1702.473667,8808.450710
822.665932,229.828649,814.226536,8068.244768
822.666248,1225.752797,740.205942,8808.450710
822.666564,1072.533697,1110.308913,9992.780217
822.666879,153.219100,296.082377,10066.800811
822.667195,-766.095498,740.205942,9400.615463
822.667511,229.828649,-518.144159,9252.574275
822.667827,689.485948,-0.000000,9918.759623
822.668143,153.219100,1628.453072,10140.821405
822.668458,-689.485948,444.123565,9474.636058
822.668774,-229.828649,444.123565,9474.636058
822.669090,689.485948,148.041188,10288.862594
822.669406,1225.752797,1110.308913,9770.718434
822.669722,229.828649,2738.761985,8808.450710
822.670037,0.000000,740.205942,9474.636058
822.670353,1225.752797,740.205942,8808.450710
822.670669,2604.724693,296.082377,8512.368333
822.670985,1532.190996,1332.370696,8956.491898
822.671301,1225.752797,814.226536,10066.800811
822.671616,0.000000,222.061783,9178.553681
822.671932,1302.362347,296.082377,9252.574275
822.672248,1302.362347,444.123565,9474.636058
822.672564,229.828649,1036.288319,10881.027347
822.672880,-229.828649,888.247130,10584.944971
822.673195,0.000000,592.164754,9030.512492
822.673511,689.485948,666.185348,9474.636058
822.673827,536.266849,296.082377,10807.006753
822.674143,229.828649,592.164754,9622.677246
822.674459,0.000000,370.102971,10140.821405
822.674774,153.219100,-0.000000,9252.574275
822.675090,1225.752797,-74.020594,9696.697840
822.675406,612.876398,1036.288319,9474.636058
822.675722,229.828649,962.267725,10510.924376
822.676038,153.219100,296.082377,9474.636058
822.676353,1532.190996,-148.041188,8512.368333
822.676669,1532.190996,-518.144159,9474.636058
822.676985,536.266849,222.061783,10732.986159
822.677301,612.876398,-444.123565,10584.944971
822.677617,153.219100,-296.082377,8512.368333
822.677932,689.485948,-1406.391290,10436.903782
822.678248,842.705048,-666.185348,10510.924376
822.678564,153.219100,-0.000000,10436.903782
822.678880,0.000000,-0.000000,9326.594869
822.679196,612.876398,-666.185348,9104.533087
822.679511,1302.362347,-1184.329507,9474.636058
822.679827,612.876398,-0.000000,8290.306550
822.680143,153.219100,-444.123565,9844.739029
822.680459,306.438199,-1406.391290,9548.656652
822.680775,689.485948,-2072.576638,9400.615463
822.681090,995.924147,-1036.288319,9104.533087
822.681406,459.657299,-592.164754,9326.594869
822.681722,0.000000,-1184.329507,9992.780217
822.682038,-383.047749,-1184.329507,9030.512492
822.682354,1532.190996,-1776.494261,9030.512492
822.682669,689.485948,-740.205942,9104.533087
822.682985,-536.266849,-296.082377,9474.636058
822.683301,-229.828649,-1702.473667,9178.553681
822.683617,306.438199,-1998.556043,9474.636058
822.683933,689.485948,-1924.535449,9548.656652
822.684248,459.657299,-518.144159,8734.430116
822.684564,306.438199,-222.061783,9474.636058
822.684880,-536.266849,-1702.473667,8438.347739
822.685196,459.657299,-1702.473667,9030.512492
822.685512,1072.533697,-1924.535449,9030.512492
822.685827,383.047749,-370.102971,8364.327145
822.686143,-153.219100,-1258.350101,10288.862594
822.686459,306.438199,-1850.514855,9178.553681
822.686775,842.705048,-1776.494261,8290.306550
822.687091,995.924147,-1554.432478,9104.533087
822.687406,536.266849,-0.000000,10214.842000
822.687722,76.609550,-444.123565,8512.368333
822.688038,153.219100,-370.102971,8216.285956
822.688354,995.924147,-1332.370696,9474.636058
822.688670,0.000000,-740.205942,8882.471304
822.688985,0.000000,222.061783,9474.636058
822.689301,-383.047749,-148.041188,9178.553681
822.689617,0.000000,-1628.453072,9696.697840
822.689933,842.705048,-592.164754,10362.883188
822.690249,-383.047749,666.185348,9548.656652
822.690564,-689.485948,518.144159,10066.800811
822.690880,-612.876398,-444.123565,8660.409521
822.691196,459.657299,-666.185348,9548.656652
822.691512,766.095498,-592.164754,10140.821405
822.691828,0.000000,-0.000000,11029.068536
822.692143,-536.266849,-0.000000,9696.697840
822.692459,-1072.533697,-148.041188,9178.553681
822.692775,689.485948,-592.164754,10436.903782
822.693091,612.876398,1332.370696,10140.821405
822.693407,153.219100,1776.494261,9326.594869
822.693722,153.219100,666.185348,8882.471304
822.694038,689.485948,-0.000000,9252.574275
822.694354,1762.019645,-0.000000,9696.697840
822.694670,1225.752797,1554.432478,8586.388927
822.694986,0.000000,740.205942,10362.883188
822.695301,-229.828649,296.082377,9326.594869
822.695617,919.314598,296.082377,9622.677246
822.695933,766.095498,1110.308913,9400.615463
822.696249,76.609550,1184.329507,10807.006753
822.696565,-459.657299,296.082377,10288.862594
822.696880,0.000000,296.082377,9104.533087
822.697196,1378.971896,-370.102971,10807.006753
822.697512,1225.752797,888.247130,9844.739029
822.697828,459.657299,962.267725,9548.656652
822.698144,153.219100,888.247130,9622.677246
822.698459,1378.971896,-0.000000,9400.615463
822.698775,1302.362347,666.185348,9400.615463
822.699091,919.314598,1480.411884,9474.636058
822.699407,459.657299,888.247130,9400.615463
822.699723,612.876398,-0.000000,9548.656652
822.700038,1608.800546,-222.061783,9400.615463
822.700354,1532.190996,222.061783,8882.471304
822.700670,612.876398,1332.370696,10066.800811
822.700986,842.705048,370.102971,9252.574275
822.701302,306.438199,-0.000000,8660.409521
822.701617,995.924147,-666.185348,10881.027347
822.701933,919.314598,222.061783,9622.677246
822.702249,-459.657299,1184.329507,9770.718434
822.702565,-153.219100,370.102971,9918.759623
822.702881,1149.143247,-814.226536,9030.512492
822.703196,1532.190996,666.185348,8882.471304
822.703512,536.266849,1184.329507,9326.594869
822.703828,383.047749,-0.000000,8956.491898
822.704144,383.047749,444.123565,8734.430116
822.704460,536.266849,-888.247130,9770.718434
822.704775,995.924147,-74.020594,9252.574275
822.705091,306.438199,1110.308913,9918.759623
822.705407,0.000000,-74.020594,9030.512492
822.705723,0.000000,-518.144159,8660.409521
822.706039,689.485948,-1258.350101,9696.697840
822.706354,459.657299,-666.185348,9918.759623
822.706670,229.828649,-222.061783,9622.677246
822.706986,-536.266849,-1406.391290,9844.739029
822.707302,306.438199,-2072.576638,9326.594869
822.707618,612.876398,-1554.432478,9696.697840
822.707933,153.219100,-74.020594,9178.553681
822.708249,76.609550,-518.144159,9844.739029
822.708565,76.609550,-888.247130,7920.203579
822.708881,1072.533697,-1554.432478,7772.162391
822.709197,1225.752797,-1406.391290,9326.594869
822.709512,383.047749,-1036.288319,9252.574275
822.709828,76.609550,-1406.391290,9104.533087
822.710144,0.000000,-1702.473667,9474.636058
822.710460,459.657299,-1776.494261,9548.656652
822.710776,0.000000,-666.185348,9326.594869
822.711091,0.000000,-518.144159,10214.842000
822.711407,-1072.533697,-1406.391290,9696.697840
822.711723,229.828649,-1776.494261,9178.553681
822.712039,1072.533697,-1332.370696,9622.677246
822.712355,153.219100,-814.226536,9918.759623
822.712670,536.266849,-740.205942,10436.903782
822.712986,153.219100,-444.123565,8216.285956
822.713302,1225.752797,-444.123565,8882.471304
822.713618,1455.581446,-148.041188,9770.718434
822.713934,842.705048,1036.288319,9400.615463
822.714249,383.047749,-0.000000,9548.656652
822.714565,842.705048,-1110.308913,9770.718434
822.714881,1302.362347,-666.185348,8660.409521
822.715197,1149.143247,-148.041188,9548.656652
822.715513,842.705048,370.102971,10214.842000
822.715828,0.000000,-370.102971,9400.615463
822.716144,1149.143247,-814.226536,9474.636058
822.716460,1302.362347,-0.000000,9474.636058
822.716776,459.657299,666.185348,10658.965565
822.717092,612.876398,296.082377,9548.656652
822.717407,0.000000,222.061783,8216.285956
822.717723,1838.629195,-296.082377,9696.697840
822.718039,1685.410096,592.164754,9104.533087
822.718355,766.095498,962.267725,8734.430116
822.718670,229.828649,-0.000000,9474.636058
822.718986,229.828649,-222.061783,9622.677246
822.719302,459.657299,-518.144159,9548.656652
822.719618,536.266849,-0.000000,9622.677246
822.719934,76.609550,-0.000000,10732.986159
822.720249,-1378.971896,-222.061783,9400.615463
822.720565,536.266849,-444.123565,10510.924376
822.720881,766.095498,-0.000000,8660.409521
822.721197,-306.438199,740.205942,10214.842000
822.721513,-383.047749,740.205942,9548.656652
822.721828,-459.657299,-370.102971,8586.388927
822.722144,0.000000,-1110.308913,9696.697840
822.722460,766.095498,222.061783,9326.594869
822.722776,0.000000,592.164754,9474.636058
822.723092,0.000000,-0.000000,9326.594869
822.723407,536.266849,518.144159,8290.306550
822.723723,1532.190996,-0.000000,9030.512492
822.724039,1149.143247,1480.411884,8660.409521
822.724355,229.828649,1332.370696,8956.491898
822.724671,-383.047749,-0.000000,9548.656652
822.724986,612.876398,-1258.350101,9770.718434
822.725302,76.609550,-666.185348,10066.800811
822.725618,-536.266849,666.185348,10140.821405
822.725934,0.000000,592.164754,10362.883188
822.726250,0.000000,592.164754,9030.512492
822.726565,1532.190996,888.247130,9178.553681
822.726881,1072.533697,1184.329507,9252.574275
822.727197,383.047749,1332.370696,10140.821405
822.727513,76.609550,222.061783,9252.574275
822.727829,612.876398,-222.061783,9548.656652
822.728144,1685.410096,-222.061783,10140.821405
822.728460,1532.190996,962.267725,9400.615463
822.728776,536.266849,666.185348,10881.027347
822.729092,306.438199,592.164754,9178.553681
822.729408,1225.752797,592.164754,8290.306550
822.729723,2068.457845,-0.000000,9474.636058
822.730039,1455.581446,444.123565,10066.800811
822.730355,153.219100,-0.000000,10732.986159
822.730671,536.266849,-518.144159,9326.594869
822.730987,1149.143247,-962.267725,9178.553681
822.731302,1225.752797,-0.000000,9844.739029
822.731618,995.924147,740.205942,9474.636058
822.731934,153.219100,296.082377,8956.491898
822.732250,766.095498,-1184.329507,9104.533087
822.732566,1302.362347,-1184.329507,10140.821405
822.732881,1072.533697,-814.226536,9400.615463
822.733197,0.000000,-1110.308913,9918.759623
822.733513,-229.828649,-1110.308913,9548.656652
822.733829,0.000000,-1406.391290,9400.615463
822.734145,995.924147,-1036.288319,9696.697840
822.734460,0.000000,740.205942,9400.615463
822.734776,-919.314598,-518.144159,9696.697840
822.735092,-459.657299,-1850.514855,9252.574275
822.735408,459.657299,-1776.494261,9844.739029
822.735724,612.876398,-962.267725,9178.553681
822.736039,383.047749,-370.102971,9844.739029
822.736355,-459.657299,-1628.453072,9400.615463
822.736671,306.438199,-1924.535449,9326.594869
822.736987,1225.752797,-1850.514855,9696.697840
822.737303,612.876398,-0.000000,9030.512492
822.737618,76.609550,370.102971,9030.512492
822.737934,76.609550,-0.000000,7402.059420
822.738250,1378.971896,-1110.308913,8956.491898
822.738566,1685.410096,-1036.288319,9474.636058
822.738882,612.876398,-148.041188,8808.450710
822.739197,-153.219100,-962.267725,9400.615463
822.739513,-229.828649,-1406.391290,9400.615463
822.739829,383.047749,-1628.453072,9770.718434
822.740145,383.047749,296.082377,9474.636058
822.740461,-153.219100,962.267725,10066.800811
822.740776,-153.219100,-148.041188,9326.594869
822.741092,153.219100,-666.185348,8734.430116
822.741408,842.705048,-1036.288319,9474.636058
822.741724,76.609550,-370.102971,9770.718434
822.742040,459.657299,-0.000000,9696.697840
822.742355,-766.095498,74.020594,8364.327145
822.742671,459.657299,-518.144159,9474.636058
822.742987,1149.143247,-740.205942,10436.903782
822.743303,229.828649,962.267725,9030.512492
822.743619,-383.047749,814.226536,9474.636058
822.743934,229.828649,-592.164754,9622.677246
822.744250,919.314598,-740.205942,8882.471304
822.744566,919.314598,-666.185348,10066.800811
822.744882,306.438199,-74.020594,10584.944971
822.745198,-229.828649,-0.000000,9252.574275
822.745513,-536.266849,-370.102971,9104.533087
822.745829,919.314598,-666.185348,10436.903782
822.746145,0.000000,592.164754,9400.615463
822.746461,229.828649,370.102971,9918.759623
822.746777,-459.657299,-0.000000,9400.615463
822.747092,229.828649,-592.164754,9548.656652
822.747408,1455.581446,-444.123565,9474.636058
822.747724,612.876398,666.185348,9918.759623
822.748040,0.000000,740.205942,9918.759623
822.748356,76.609550,-0.000000,8956.491898
822.748671,919.314598,-148.041188,10436.903782
822.748987,612.876398,666.185348,9622.677246
822.749303,76.609550,1258.350101,9918.759623
822.749619,-536.266849,444.123565,9474.636058
822.749935,0.000000,-74.020594,10066.800811
822.750250,995.924147,-740.205942,10362.883188
822.750566,689.485948,296.082377,9770.718434
822.750882,229.828649,962.267725,9548.656652
822.751198,-306.438199,518.144159,9326.594869
822.751514,995.924147,-740.205942,9770.718434
822.751829,2068.457845,444.123565,9252.574275
822.752145,536.266849,1480.411884,9252.574275
822.752461,459.657299,740.205942,9770.718434
822.752777,612.876398,296.082377,8734.430116
822.753093,1762.019645,-222.061783,9400.615463
822.753408,1378.971896,444.123565,9622.677246
822.753724,1149.143247,814.226536,9844.739029
822.754040,995.924147,222.061783,9104.533087
822.754356,536.266849,-148.041188,8734.430116
822.754672,1225.752797,-296.082377,10362.883188
822.754987,1378.971896,-0.000000,9252.574275
822.755303,229.828649,814.226536,9622.677246
822.755619,-766.095498,-74.020594,9770.718434
822.755935,766.095498,-1036.288319,9104.533087
822.756251,1915.238745,-666.185348,9104.533087
822.756566,76.609550,-370.102971,9770.718434
822.756882,-612.876398,-1110.308913,11103.089130
822.757198,76.609550,-814.226536,9548.656652
822.757514,766.095498,-888.247130,9178.553681
822.757830,612.876398,222.061783,9104.533087
822.758146,766.095498,814.226536,9252.574275
822.758462,0.000000,-740.205942,8734.430116
822.758777,229.828649,-518.144159,8734.430116
822.759093,1532.190996,-1258.350101,10140.821405
822.759409,919.314598,-222.061783,8734.430116
822.759725,153.219100,296.082377,8660.409521
822.760041,-383.047749,-814.226536,8808.450710
822.760357,306.438199,-1924.535449,9992.780217
822.760673,153.219100,-1554.432478,9844.739029
822.760988,-612.876398,370.102971,10288.862594
822.761304,-459.657299,370.102971,9622.677246
822.761620,-1072.533697,-1110.308913,8882.471304
822.761936,0.000000,-1406.391290,9844.739029
822.762252,153.219100,-740.205942,9548.656652
822.762568,-306.438199,-148.041188,9770.718434
822.762883,-919.314598,-148.041188,9400.615463
822.763199,-306.438199,-666.185348,9252.574275
822.763515,766.095498,-1332.370696,9622.677246
822.763831,0.000000,-0.000000,9474.636058
822.764147,-383.047749,-0.000000,9474.636058
822.764463,-383.047749,-962.267725,9400.615463
822.764779,383.047749,-1036.288319,9918.759623
822.765094,842.705048,-962.267725,9474.636058
822.765410,1225.752797,222.061783,9474.636058
822.765726,0.000000,148.041188,9400.615463
822.766042,-306.438199,-666.185348,8734.430116
822.766358,766.095498,-1480.411884,10140.821405
822.766674,612.876398,-814.226536,9622.677246
822.766990,-612.876398,-370.102971,10214.842000
822.767305,-842.705048,-1110.308913,9252.574275
822.767621,76.609550,-1258.350101,8808.450710
822.767937,1302.362347,-1628.453072,9400.615463
822.768253,842.705048,-444.123565,9992.780217
822.768569,306.438199,-0.000000,9104.533087
822.768885,0.000000,-740.205942,8734.430116
822.769200,1072.533697,-1480.411884,9622.677246
822.769516,1378.971896,-814.226536,9104.533087
822.769832,1072.533697,518.144159,9326.594869
822.770148,229.828649,518.144159,9696.697840
822.770464,536.266849,-148.041188,9178.553681
822.770780,2068.457845,-518.144159,8882.471304
822.771096,1302.362347,296.082377,8660.409521
822.771411,459.657299,592.164754,9252.574275
822.771727,306.438199,148.041188,9622.677246
822.772043,459.657299,-444.123565,9474.636058
822.772359,1225.752797,-444.123565,10214.842000
822.772675,766.095498,518.144159,10140.821405
822.772991,153.219100,888.247130,9696.697840
822.773307,-842.705048,222.061783,9474.636058
822.773622,995.924147,-222.061783,9696.697840
822.773938,1532.190996,-0.000000,9770.718434
822.774254,459.657299,1480.411884,9474.636058
822.774570,0.000000,518.144159,9918.759623
822.774886,689.485948,-74.020594,8956.491898
822.775202,1455.581446,-0.000000,9844.739029
822.775517,689.485948,1184.329507,9326.594869
822.775833,1455.581446,1554.432478,9696.697840
822.776149,229.828649,-74.020594,9770.718434
822.776465,612.876398,888.247130,8068.244768
822.776781,2221.676944,-592.164754,8882.471304
822.777097,1685.410096,370.102971,10881.027347
822.777413,536.266849,1850.514855,9178.553681
822.777728,0.000000,518.144159,9770.718434
822.778044,1225.752797,592.164754,9474.636058
822.778360,842.705048,518.144159,9252.574275
822.778676,-153.219100,1332.370696,9548.656652
822.778992,-383.047749,-0.000000,10510.924376
822.779308,-306.438199,-518.144159,9326.594869
822.779623,919.314598,-74.020594,9474.636058
822.779939,306.438199,-0.000000,9548.656652
822.780255,-383.047749,-518.144159,10732.986159
822.780571,-153.219100,-592.164754,10066.800811
822.780887,-153.219100,-0.000000,8586.388927
822.781203,459.657299,-296.082377,10288.862594
822.781519,995.924147,666.185348,9474.636058
822.781834,0.000000,1036.288319,8586.388927
822.782150,-536.266849,518.144159,9400.615463
822.782466,1455.581446,-962.267725,9252.574275
822.782782,1455.581446,-74.020594,8142.265362
822.783098,0.000000,740.205942,8808.450710
822.783414,-536.266849,-1184.329507,10362.883188
822.783730,-306.438199,-1554.432478,9844.739029
822.784045,459.657299,-1776.494261,9992.780217
822.784361,229.828649,-592.164754,10140.821405
822.784677,-459.657299,370.102971,10436.903782
822.784993,-536.266849,592.164754,8586.388927
822.785309,0.000000,-592.164754,8734.430116
822.785625,383.047749,-1110.308913,9770.718434
822.785940,383.047749,-148.041188,9696.697840
822.786256,-459.657299,-74.020594,9400.615463
822.786572,-842.705048,-1480.411884,9696.697840
822.786888,76.609550,-2146.597232,11029.068536
822.787204,995.924147,-444.123565,9844.739029
822.787520,0.000000,666.185348,9252.574275
822.787836,383.047749,-148.041188,9770.718434
822.788151,766.095498,-370.102971,8956.491898
822.788467,1991.848295,-814.226536,9178.553681
822.788783,1608.800546,-370.102971,8956.491898
822.789099,1685.410096,222.061783,9696.697840
822.789415,1302.362347,-74.020594,8660.409521
822.789731,2145.067394,-666.185348,8586.388927
822.790047,1991.848295,-1554.432478,9770.718434
822.790362,995.924147,296.082377,9104.533087
822.790678,612.876398,148.041188,9400.615463
822.790994,153.219100,-740.205942,9030.512492
822.791310,1991.848295,-666.185348,9178.553681
822.791626,2145.067394,-814.226536,9104.533087
822.791942,766.095498,444.123565,8956.491898
822.792257,536.266849,-296.082377,9474.636058
822.792573,0.000000,-1036.288319,8660.409521
822.792889,842.705048,-1406.391290,9992.780217
822.793205,842.705048,-222.061783,9696.697840
822.793521,76.609550,222.061783,9178.553681
822.793837,-612.876398,-222.061783,9030.512492
822.794153,0.000000,-1702.473667,9252.574275
822.794468,0.000000,-2294.638420,9770.718434
822.794784,-612.876398,-518.144159,10510.924376
822.795100,-919.314598,-666.185348,10362.883188
822.795416,-919.314598,-518.144159,8734.430116
822.795732,0.000000,-444.123565,9474.636058
822.796048,536.266849,-370.102971,10214.842000
822.796364,306.438199,740.205942,9104.533087
822.796679,0.000000,370.102971,9030.512492
822.796995,0.000000,-740.205942,8438.347739
822.797311,1838.629195,-740.205942,9178.553681
822.797627,1762.019645,888.247130,7846.182985
822.797943,919.314598,1554.432478,8438.347739
822.798259,153.219100,666.185348,9030.512492
822.798574,459.657299,-222.061783,8882.471304
822.798890,842.705048,-74.020594,9178.553681
822.799206,153.219100,370.102971,10288.862594
822.799522,-842.705048,444.123565,10362.883188
822.799838,-1149.143247,-148.041188,9622.677246
822.800154,-383.047749,-666.185348,10288.862594
822.800470,536.266849,-518.144159,10881.027347
822.800785,-612.876398,1110.308913,10288.862594
822.801101,-1302.362347,296.082377,10510.924376
822.801417,-459.657299,222.061783,8808.450710
822.801733,1225.752797,-370.102971,10658.965565
822.802049,1838.629195,888.247130,10288.862594
822.802365,459.657299,2368.659014,9030.512492
822.802680,995.924147,1184.329507,9474.636058
822.802996,1302.362347,740.205942,8956.491898
822.803312,2757.943793,444.123565,8734.430116
822.803628,1455.581446,1184.329507,8808.450710
822.803944,1149.143247,740.205942,9992.780217
822.804260,536.266849,-0.000000,9844.739029
822.804576,1685.410096,-296.082377,9992.780217
822.804891,1302.362347,666.185348,10214.842000
822.805207,76.609550,1776.494261,10362.883188
822.805523,76.609550,1406.391290,9770.718434
822.805839,-153.219100,-0.000000,8808.450710
822.806155,612.876398,-1036.288319,9770.718434
822.806471,766.095498,-666.185348,11251.130318
822.806787,-306.438199,-222.061783,9696.697840
822.807102,-842.705048,-740.205942,10288.862594
822.807418,-536.266849,-1332.370696,9770.718434
822.807734,383.047749,-444.123565,10214.842000
822.808050,-153.219100,1184.329507,9326.594869
822.808366,-612.876398,-0.000000,9548.656652
822.808682,-383.047749,-592.164754,9030.512492
822.808997,459.657299,-1998.556043,9474.636058
822.809313,1149.143247,-1776.494261,9844.739029
822.809629,842.705048,-296.082377,9474.636058
822.809945,383.047749,-74.020594,8364.327145
822.810261,76.609550,-666.185348,8882.471304
822.810577,842.705048,-1702.473667,9918.759623
822.810893,842.705048,-592.164754,8660.409521
822.811208,0.000000,740.205942,8512.368333
822.811524,-229.828649,-666.185348,8882.471304
822.811840,612.876398,-1924.535449,9030.512492
822.812156,1378.971896,-1776.494261,8734.430116
822.812472,919.314598,-444.123565,8956.491898
822.812788,306.438199,-814.226536,8882.471304
822.813104,-229.828649,-1036.288319,8512.368333
822.813419,306.438199,-1184.329507,8956.491898
822.813735,842.705048,-518.144159,9252.574275
822.814051,153.219100,296.082377,9696.697840
822.814367,-766.095498,-444.123565,9326.594869
822.814683,-229.828649,-1554.432478,9770.718434
822.814999,1455.581446,-1554.432478,9400.615463
822.815314,919.314598,814.226536,8660.409521
822.815630,459.657299,666.185348,9252.574275
822.815946,0.000000,296.082377,9178.553681
822.816262,1225.752797,-148.041188,8882.471304
822.816578,1532.190996,-444.123565,9030.512492
822.816894,842.705048,-0.000000,9622.677246
822.817210,76.609550,-148.041188,9992.780217
822.817525,0.000000,-148.041188,8660.409521
822.817841,536.266849,-814.226536,9400.615463
822.818157,1072.533697,-592.164754,10066.800811
822.818473,612.876398,592.164754,9696.697840
822.818789,-153.219100,-222.061783,9844.739029
822.819105,-76.609550,-666.185348,9918.759623
822.819421,919.314598,-1554.432478,10955.047942
822.819736,459.657299,-0.000000,10584.944971
822.820052,0.000000,518.144159,9474.636058
822.820368,-612.876398,370.102971,9326.594869
822.820684,383.047749,-666.185348,10140.821405
822.821000,995.924147,-962.267725,10214.842000
822.821316,612.876398,962.267725,8882.471304
822.821631,153.219100,222.061783,10066.800811
822.821947,-383.047749,-592.164754,9770.718434
822.822263,919.314598,-888.247130,10214.842000
822.822579,612.876398,-666.185348,9622.677246
822.822895,-383.047749,370.102971,9992.780217
822.823211,-919.314598,-740.205942,10658.965565
822.823527,-995.924147,-1110.308913,9326.594869
822.823842,306.438199,-2072.576638,10510.924376
822.824158,306.438199,-1406.391290,11029.068536
822.824474,229.828649,-370.102971,10658.965565
822.824790,-383.047749,-1110.308913,9770.718434
822.825106,306.438199,-888.247130,9844.739029
822.825422,2298.286494,-888.247130,10066.800811
822.825737,1991.848295,888.247130,8512.368333
822.826053,1378.971896,740.205942,8438.347739
822.826369,1149.143247,-888.247130,8956.491898
822.826685,2374.896044,-1184.329507,8438.347739
822.827001,2757.943793,-296.082377,8956.491898
822.827317,1762.019645,740.205942,7920.203579
822.827633,995.924147,444.123565,7846.182985
822.827948,459.657299,-518.144159,8586.388927
822.828264,919.314598,-1554.432478,9548.656652
822.828580,689.485948,-740.205942,9992.780217
822.828896,-383.047749,-222.061783,9178.553681
822.829212,-842.705048,-1406.391290,9030.512492
822.829528,-842.705048,-2368.659014,9622.677246
822.829844,153.219100,-3182.885551,10732.986159
822.830159,-612.876398,-1554.432478,9770.718434
822.830475,-1225.752797,-1628.453072,10140.821405
822.830791,-1225.752797,-1998.556043,9104.533087
822.831107,-842.705048,-1554.432478,8882.471304
822.831423,612.876398,-740.205942,8808.450710
822.831739,0.000000,814.226536,8142.265362
822.832054,-383.047749,-0.000000,8808.450710
822.832370,-459.657299,-1258.350101,8068.244768
822.832686,-153.219100,-2146.597232,8290.306550
822.833002,-459.657299,-2368.659014,9326.594869
822.833318,-1225.752797,-1110.308913,9400.615463
822.833634,-1991.848295,-2294.638420,10066.800811
822.833950,-2987.772442,-3108.864956,10510.924376
822.834265,-2068.457845,-2516.700203,10214.842000
822.834581,-2221.676944,-1850.514855,10732.986159
822.834897,-2834.553343,-1480.411884,10214.842000
822.835213,-3217.601092,-2664.741391,9918.759623
822.835529,-2221.676944,-1998.556043,9252.574275
822.835845,-766.095498,-2442.679609,9252.574275
822.836161,-919.314598,-1406.391290,8586.388927
822.836476,-1762.019645,-148.041188,8956.491898
822.836792,-1072.533697,-3478.967927,8882.471304
822.837108,-1532.190996,-2146.597232,9252.574275
822.837424,-1302.362347,-1924.535449,10140.821405
822.837740,-842.705048,-1554.432478,9844.739029
822.838056,-842.705048,-1628.453072,9400.615463
822.838371,-1532.190996,-2368.659014,9696.697840
822.838687,-1149.143247,-2886.803174,9770.718434
822.839003,-1149.143247,-1184.329507,8808.450710
822.839319,-1225.752797,-666.185348,9918.759623
822.839635,-1302.362347,-1258.350101,8956.491898
822.839951,-1838.629195,-2220.617826,9252.574275
822.840267,-1991.848295,-3108.864956,10140.821405
822.840582,-2987.772442,-2738.761985,10066.800811
822.840898,-2528.115143,-2590.720797,10066.800811
822.841214,-2298.286494,-2738.761985,9844.739029
822.841530,-2834.553343,-2368.659014,9326.594869
822.841846,-2604.724693,-2516.700203,9918.759623
822.842162,-3064.381992,-1998.556043,9400.615463
822.842478,-3140.991542,-1258.350101,9252.574275
822.842793,-2681.334243,-2812.782580,9326.594869
822.843109,-1915.238745,-3182.885551,9918.759623
822.843425,-1838.629195,-2812.782580,9548.656652
822.843741,-2604.724693,-3330.926739,10288.862594
822.844057,-1838.629195,-2442.679609,10140.821405
822.844373,-1532.190996,-2664.741391,8956.491898
822.844688,-383.047749,-1850.514855,8660.409521
822.845004,0.000000,-518.144159,9030.512492
822.845320,-459.657299,-1036.288319,8290.306550
822.845636,-612.876398,-1110.308913,8660.409521
822.845952,-842.705048,-1036.288319,7550.100608
822.846268,-459.657299,-814.226536,7698.141797
822.846584,-1378.971896,-1628.453072,8808.450710
822.846899,-2298.286494,-2738.761985,9400.615463
822.847215,-2374.896044,-4071.132681,10584.944971
822.847531,-3140.991542,-4071.132681,10881.027347
822.847847,-3447.429741,-3182.885551,10140.821405
822.848163,-3140.991542,-2886.803174,10881.027347
822.848479,-2757.943793,-2738.761985,11103.089130
822.848794,-2681.334243,-3182.885551,9696.697840
822.849110,-1991.848295,-2886.803174,10807.006753
822.849426,-1685.410096,-1776.494261,9474.636058
822.849742,-612.876398,-666.185348,7920.203579
822.850058,153.219100,-222.061783,7772.162391
822.850374,1225.752797,-296.082377,7476.080014
822.850690,995.924147,-1258.350101,7624.121203
822.851005,995.924147,-1924.535449,8808.450710
822.851321,-459.657299,-1702.473667,8660.409521
822.851637,-306.438199,-2368.659014,9178.553681
822.851953,-995.924147,-2738.761985,10140.821405
822.852269,-1762.019645,-1776.494261,9622.677246
822.852585,-2068.457845,-2072.576638,10362.883188
822.852901,-1455.581446,-3034.844362,10658.965565
822.853216,-2834.553343,-2664.741391,9992.780217
822.853532,-2604.724693,-2368.659014,9622.677246
822.853848,-2221.676944,-2368.659014,9622.677246
822.854164,-2221.676944,-1924.535449,9178.553681
822.854480,-2834.553343,-1258.350101,9178.553681
822.854796,-2068.457845,-3034.844362,10066.800811
822.855111,-1915.238745,-3034.844362,9326.594869
822.855427,-2298.286494,-2738.761985,9622.677246
822.855743,-2374.896044,-3849.070898,9696.697840
822.856059,-1302.362347,-3478.967927,10436.903782
822.856375,-1685.410096,-2886.803174,10510.924376
822.856691,-2068.457845,-2368.659014,9844.739029
822.857007,-1302.362347,-962.267725,8882.471304
822.857322,-1302.362347,-962.267725,9400.615463
822.857638,-1149.143247,-1702.473667,9474.636058
822.857954,-919.314598,-1628.453072,8586.388927
822.858270,-919.314598,-962.267725,8142.265362
822.858585,-995.924147,-1480.411884,8734.430116
822.858901,-1149.143247,-1924.535449,8734.430116
822.859217,-1532.190996,-1998.556043,8734.430116
822.859533,-1991.848295,-3034.844362,8808.450710
822.859848,-2528.115143,-3108.864956,9474.636058
822.860164,-2374.896044,-3775.050304,10510.924376
822.860480,-3294.210641,-3775.050304,10214.842000
822.860795,-3830.477490,-3775.050304,10955.047942
822.861111,-3524.039291,-4071.132681,11177.109724
822.861427,-3217.601092,-3552.988522,11029.068536
822.861743,-3370.820191,-2294.638420,10436.903782
822.862058,-2834.553343,-1406.391290,9548.656652
822.862374,-1532.190996,-1332.370696,8586.388927
822.862690,-1072.533697,-1184.329507,8882.471304
822.863006,0.000000,-1628.453072,8364.327145
822.863321,76.609550,-1406.391290,7105.977043
822.863637,689.485948,-1628.453072,7698.141797
822.863953,766.095498,-1998.556043,8734.430116
822.864269,459.657299,-1702.473667,8364.327145
822.864584,0.000000,-518.144159,8512.368333
822.864900,-995.924147,-518.144159,8882.471304
822.865216,-1149.143247,-1332.370696,9252.574275
822.865531,-1838.629195,-2368.659014,9104.533087
822.865847,-2298.286494,-2738.761985,10140.821405
822.866163,-2681.334243,-2812.782580,10955.047942
822.866479,-2834.553343,-3849.070898,11251.130318
822.866794,-2757.943793,-3404.947333,11547.212695
822.867110,-2604.724693,-3108.864956,11103.089130
822.867426,-1838.629195,-1850.514855,10214.842000
822.867742,-1608.800546,-444.123565,9400.615463
822.868057,-1072.533697,-148.041188,7994.224174
822.868373,459.657299,-74.020594,7476.080014
822.868689,459.657299,-666.185348,7550.100608
822.869004,383.047749,-1184.329507,7772.162391
822.869320,0.000000,-2590.720797,8586.388927
822.869636,-842.705048,-3923.091493,9622.677246
822.869952,-1685.410096,-3701.029710,10436.903782
822.870267,-1991.848295,-3108.864956,11473.192101
822.870583,-2604.724693,-2368.659014,11621.233289
822.870899,-3140.991542,-2220.617826,11399.171507
822.871215,-2911.162892,-1924.535449,10658.965565
822.871530,-2451.505594,-1998.556043,10214.842000
822.871846,-2145.067394,-1184.329507,9400.615463
822.872162,-1149.143247,-1406.391290,8586.388927
822.872478,-919.314598,-2220.617826,8512.368333
822.872793,-919.314598,-2590.720797,8364.327145
822.873109,-1455.581446,-3182.885551,8882.471304
822.873425,-1532.190996,-3256.906145,9622.677246
822.873740,-1838.629195,-3404.947333,9548.656652
822.874056,-1838.629195,-3478.967927,10140.821405
822.874372,-1762.019645,-3182.885551,10436.903782
822.874688,-1608.800546,-2590.720797,10140.821405
822.875003,-1838.629195,-2368.659014,9770.718434
822.875319,-1991.848295,-1628.453072,9622.677246
822.875635,-1685.410096,-1332.370696,9030.512492
822.875951,-1378.971896,-1258.350101,8438.347739
822.876266,-919.314598,-2072.576638,8068.244768
822.876582,-1608.800546,-2220.617826,8364.327145
822.876898,-1685.410096,-3182.885551,8808.450710
822.877214,-1608.800546,-3997.112087,8734.430116
822.877529,-1608.800546,-3997.112087,9474.636058
822.877845,-2068.457845,-4071.132681,9844.739029
822.878161,-2604.724693,-3701.029710,9992.780217
822.878476,-2528.115143,-2960.823768,10510.924376
822.878792,-2681.334243,-2442.679609,10732.986159
822.879108,-2757.943793,-2220.617826,9918.759623
822.879424,-2298.286494,-1332.370696,9548.656652
822.879739,-1685.410096,-1406.391290,9030.512492
822.880055,-1149.143247,-1110.308913,8512.368333
822.880371,-612.876398,-962.267725,8216.285956
822.880687,-459.657299,-740.205942,7402.059420
822.881002,-536.266849,-1258.350101,7624.121203
822.881318,-459.657299,-1406.391290,7624.121203
822.881634,-995.924147,-2146.597232,8216.285956
822.881949,-1532.190996,-2738.761985,8734.430116
822.882265,-2834.553343,-3108.864956,10140.821405
822.882581,-2987.772442,-4145.153275,10955.047942
822.882897,-3983.696590,-4737.318029,11769.274478
822.883212,-4136.915689,-4811.338623,11843.295072
822.883528,-4290.134789,-4219.173869,12139.377449
822.883844,-4213.525239,-3330.926739,12213.398043
822.884160,-3217.601092,-1924.535449,11473.192101
822.884475,-2145.067394,-666.185348,9844.739029
822.884791,-919.314598,-74.020594,8438.347739
822.885107,689.485948,-0.000000,7920.203579
822.885423,1838.629195,-0.000000,6735.874072
822.885738,2451.505594,-370.102971,6587.832884
822.886054,3140.991542,-518.144159,6365.771101
822.886370,2834.553343,-1036.288319,6661.853478
822.886685,2528.115143,-1998.556043,7772.162391
822.887001,1072.533697,-2442.679609,9178.553681
822.887317,-459.657299,-3034.844362,10362.883188
822.887633,-1762.019645,-2812.782580,10881.027347
822.887948,-2681.334243,-2590.720797,11547.212695
822.888264,-3370.820191,-2072.576638,11843.295072
822.888580,-3753.867940,-1998.556043,11399.171507
822.888896,-3753.867940,-1850.514855,11177.109724
822.889211,-3524.039291,-1850.514855,10510.924376
822.889527,-3217.601092,-2516.700203,9548.656652
822.889843,-2911.162892,-2368.659014,9400.615463
822.890159,-2374.896044,-2368.659014,9104.533087
822.890474,-1762.019645,-2146.597232,8808.450710
822.890790,-995.924147,-1776.494261,8438.347739
822.891106,-919.314598,-1480.411884,8660.409521
822.891421,-383.047749,-1776.494261,8734.430116
822.891737,-689.485948,-2220.617826,9252.574275
822.892053,-1149.143247,-2368.659014,9622.677246
822.892369,-1149.143247,-2146.597232,9844.739029
822.892684,-1608.800546,-2072.576638,9992.780217
822.893000,-1762.019645,-1554.432478,10140.821405
822.893316,-1685.410096,-1702.473667,9992.780217
822.893632,-2068.457845,-1924.535449,9844.739029
822.893947,-1762.019645,-1998.556043,9696.697840
822.894263,-1991.848295,-2368.659014,9474.636058
822.894579,-1608.800546,-2960.823768,9326.594869
822.894894,-1072.533697,-3034.844362,9252.574275
822.895210,-995.924147,-3404.947333,8956.491898
822.895526,-1072.533697,-3108.864956,9178.553681
822.895842,-1455.581446,-3404.947333,9400.615463
822.896157,-995.924147,-3627.009116,9770.718434
822.896473,-1149.143247,-2812.782580,9770.718434
822.896789,-995.924147,-2220.617826,9548.656652
822.897105,-689.485948,-2072.576638,9474.636058
822.897420,-306.438199,-1480.411884,9252.574275
822.897736,-383.047749,-1258.350101,8882.471304
822.898052,383.047749,-888.247130,8512.368333
822.898368,536.266849,-592.164754,8142.265362
822.898683,1072.533697,-814.226536,8142.265362
822.898999,842.705048,-1184.329507,8142.265362
822.899315,229.828649,-1554.432478,7920.203579
822.899630,0.000000,-1776.494261,8216.285956
822.899946,-689.485948,-2368.659014,9030.512492
822.900262,-1532.190996,-2516.700203,9770.718434
822.900578,-2145.067394,-2664.741391,10140.821405
822.900893,-3140.991542,-2368.659014,10510.924376
822.901209,-3447.429741,-1776.494261,10584.944971
822.901525,-3600.648841,-1184.329507,10510.924376
822.901841,-3524.039291,-666.185348,10584.944971
822.902156,-2987.772442,-444.123565,9770.718434
822.902472,-2451.505594,-814.226536,9548.656652
822.902788,-1532.190996,-1184.329507,9252.574275
822.903103,-842.705048,-1258.350101,9178.553681
822.903419,-459.657299,-1628.453072,8808.450710
822.903735,-689.485948,-1184.329507,8364.327145
822.904051,-842.705048,-1406.391290,8808.450710
822.904366,-995.924147,-1406.391290,9178.553681
822.904682,-1685.410096,-1480.411884,9326.594869
822.904998,-2068.457845,-1998.556043,9548.656652
822.905314,-2451.505594,-2220.617826,9622.677246
822.905629,-2987.772442,-2516.700203,10140.821405
822.905945,-3294.210641,-2590.720797,10510.924376
822.906261,-3983.696590,-2442.679609,10658.965565
822.906577,-3907.087040,-2886.803174,10510.924376
822.906892,-3983.696590,-3330.926739,10658.965565
822.907208,-3907.087040,-3775.050304,10658.965565
822.907524,-3677.258390,-4071.132681,10510.924376
822.907839,-3064.381992,-4293.194464,10214.842000
822.908155,-2681.334243,-3923.091493,10140.821405
822.908471,-2145.067394,-4145.153275,9696.697840
822.908787,-1762.019645,-4071.132681,9474.636058
822.909102,-1302.362347,-3849.070898,9252.574275
822.909418,-1149.143247,-4145.153275,9178.553681
822.909734,-1225.752797,-3627.009116,9474.636058
822.910050,-1608.800546,-3701.029710,9326.594869
822.910365,-1532.190996,-3627.009116,9474.636058
822.910681,-1685.410096,-3478.967927,9696.697840
822.910997,-1915.238745,-3627.009116,9770.718434
822.911313,-1378.971896,-3404.947333,9474.636058
822.911628,-995.924147,-3478.967927,9326.594869
822.911944,-995.924147,-3256.906145,9400.615463
822.912260,-306.438199,-3108.864956,8586.388927
822.912575,0.000000,-2590.720797,8290.306550
822.912891,0.000000,-1850.514855,7920.203579
822.913207,0.000000,-2146.597232,7846.182985
822.913523,-459.657299,-2442.679609,7476.080014
822.913838,-995.924147,-2442.679609,7846.182985
822.914154,-1762.019645,-2960.823768,8364.327145
822.914470,-2068.457845,-3330.926739,9178.553681
822.914786,-2757.943793,-3701.029710,9696.697840
822.915101,-3294.210641,-3849.070898,10066.800811
822.915417,-3064.381992,-3404.947333,10436.903782
822.915733,-3140.991542,-3404.947333,10362.883188
822.916048,-3064.381992,-3330.926739,10658.965565
822.916364,-2604.724693,-3923.091493,10288.862594
822.916680,-1915.238745,-2738.761985,9844.739029
822.916996,-689.485948,-1554.432478,9104.533087
822.917311,0.000000,-814.226536,8290.306550
822.917627,842.705048,-0.000000,7920.203579
822.917943,1378.971896,592.164754,6883.915261
822.918259,1685.410096,1036.288319,6513.812290
822.918574,1915.238745,1110.308913,6735.874072
822.918890,1532.190996,444.123565,6735.874072
822.919206,842.705048,-296.082377,7550.100608
822.919522,-306.438199,-1628.453072,8734.430116
822.919837,-1302.362347,-2664.741391,9844.739029
822.920153,-2528.115143,-3701.029710,11843.295072
822.920469,-3524.039291,-4737.318029,12805.562797
822.920784,-4290.134789,-4589.276840,13545.768739
822.921100,-4519.963438,-4145.153275,13619.789333
822.921416,-4290.134789,-3478.967927,12805.562797
822.921732,-3064.381992,-1480.411884,11917.315666
822.922047,-1991.848295,-0.000000,9918.759623
822.922363,-536.266849,1110.308913,8290.306550
822.922679,689.485948,1184.329507,7105.977043
822.922995,1762.019645,1332.370696,5995.668130
822.923310,1302.362347,1110.308913,5625.565159
822.923626,1302.362347,-0.000000,6513.812290
822.923942,612.876398,-1332.370696,7920.203579
822.924257,-383.047749,-2590.720797,9326.594869
822.924573,-1915.238745,-3775.050304,11399.171507
822.924889,-3524.039291,-4219.173869,12509.480420
822.925205,-4596.572988,-3923.091493,13249.686362
822.925520,-4596.572988,-3108.864956,13027.624579
822.925836,-4826.401637,-2146.597232,12657.521608
822.926152,-4443.353888,-1332.370696,12065.356855
822.926468,-4060.306139,-296.082377,10510.924376
822.926783,-3447.429741,-296.082377,9178.553681
822.927099,-2451.505594,-740.205942,8586.388927
822.927415,-1378.971896,-1406.391290,8290.306550
822.927731,-1149.143247,-1998.556043,8438.347739
822.928046,-1225.752797,-2368.659014,8660.409521
822.928362,-1149.143247,-2146.597232,8216.285956
822.928678,-689.485948,-1998.556043,8734.430116
822.928993,-306.438199,-1702.473667,9178.553681
822.929309,-1532.190996,-1554.432478,9178.553681
822.929625,-1991.848295,-1924.535449,9474.636058
822.929941,-2068.457845,-2516.700203,9770.718434
822.930256,-2528.115143,-3627.009116,10732.986159
822.930572,-2834.553343,-3627.009116,11251.130318
822.930888,-3217.601092,-3330.926739,10732.986159
822.931204,-3064.381992,-2886.803174,10214.842000
822.931519,-2374.896044,-3330.926739,10214.842000
822.931835,-1149.143247,-2738.761985,9326.594869
822.932151,-1072.533697,-2664.741391,7920.203579
822.932467,0.000000,-2664.741391,6957.935855
822.932782,229.828649,-3478.967927,6883.915261
822.933098,536.266849,-4367.215058,7846.182985
822.933414,-383.047749,-3552.988522,8290.306550
822.933729,-766.095498,-4145.153275,9474.636058
822.934045,-1838.629195,-4515.256246,9474.636058
822.934361,-1838.629195,-3330.926739,9326.594869
822.934677,-1608.800546,-3182.885551,9696.697840
822.934992,-1072.533697,-1702.473667,9918.759623
822.935308,-1149.143247,-1554.432478,8808.450710
822.935624,-306.438199,-3034.844362,9104.533087
822.935940,153.219100,-2664.741391,8512.368333
822.936255,0.000000,-2294.638420,8068.244768
822.936571,306.438199,-2146.597232,7624.121203
822.936887,-306.438199,-2516.700203,8068.244768
822.937202,-689.485948,-2812.782580,8438.347739
822.937518,-689.485948,-3108.864956,8734.430116
822.937834,-1685.410096,-4145.153275,9252.574275
822.938150,-2681.334243,-4441.235652,9992.780217
822.938465,-2451.505594,-3923.091493,10584.944971
822.938781,-3217.601092,-2960.823768,9918.759623
822.939097,-2451.505594,-1332.370696,10584.944971
822.939413,-2451.505594,-370.102971,9992.780217
822.939728,-2145.067394,-444.123565,9548.656652
822.940044,-1532.190996,-1184.329507,9252.574275
822.940360,-1302.362347,-1110.308913,9474.636058
822.940676,-842.705048,-1110.308913,8216.285956
822.940991,0.000000,-1258.350101,8364.327145
822.941307,0.000000,-1036.288319,7920.203579
822.941623,-459.657299,-1850.514855,8142.265362
822.941938,-459.657299,-3330.926739,9326.594869
822.942254,-1532.190996,-3404.947333,9992.780217
822.942570,-3447.429741,-3256.906145,11103.089130
822.942886,-3830.477490,-3256.906145,11473.192101
822.943201,-3907.087040,-2516.700203,11399.171507
822.943517,-4060.306139,-1258.350101,11843.295072
822.943833,-3447.429741,-1184.329507,11769.274478
822.944149,-3294.210641,-1332.370696,10732.986159
822.944464,-2834.553343,-592.164754,9622.677246
822.944780,-2374.896044,-666.185348,8660.409521
822.945096,-689.485948,-666.185348,8586.388927
822.945412,0.000000,-518.144159,8290.306550
822.945727,76.609550,-814.226536,8438.347739
822.946043,766.095498,-1628.453072,7994.224174
822.946359,153.219100,-1850.514855,8586.388927
822.946674,-995.924147,-1924.535449,9474.636058
822.946990,-1225.752797,-3034.844362,9992.780217
822.947306,-1685.410096,-3034.844362,11103.089130
822.947622,-2757.943793,-3404.947333,11917.315666
822.947937,-3830.477490,-3404.947333,11695.253884
822.948253,-4136.915689,-2294.638420,11991.336260
822.948569,-4443.353888,-1554.432478,11695.253884
822.948885,-2987.772442,-666.185348,10288.862594
822.949200,-1762.019645,-592.164754,9622.677246
822.949516,-1072.533697,-1110.308913,9252.574275
822.949832,-306.438199,-1110.308913,7994.224174
822.950147,536.266849,-1924.535449,7698.141797
822.950463,995.924147,-1332.370696,7179.997637
822.950779,1915.238745,-814.226536,7402.059420
822.951095,1838.629195,-1480.411884,8142.265362
822.951410,459.657299,-1406.391290,8216.285956
822.951726,-919.314598,-2368.659014,9104.533087
822.952042,-1838.629195,-2664.741391,9844.739029
822.952358,-2451.505594,-1924.535449,10584.944971
822.952673,-2604.724693,-1924.535449,10436.903782
822.952989,-2451.505594,-2886.803174,11843.295072
822.953305,-3064.381992,-2516.700203,11103.089130
822.953621,-3600.648841,-2442.679609,9770.718434
822.953936,-2911.162892,-2590.720797,9992.780217
822.954252,-1915.238745,-2072.576638,9474.636058
822.954568,-459.657299,-2220.617826,8512.368333
822.954883,-306.438199,-1924.535449,8216.285956
822.955199,-153.219100,-888.247130,7105.977043
822.955515,0.000000,-1406.391290,7105.977043
822.955831,383.047749,-1258.350101,7105.977043
822.956146,612.876398,-2146.597232,7402.059420
822.956462,-766.095498,-2516.700203,8364.327145
822.956778,-1378.971896,-1776.494261,9474.636058
822.957094,-2221.676944,-2960.823768,9474.636058
822.957409,-2451.505594,-2072.576638,10732.986159
822.957725,-1915.238745,-2442.679609,11325.150913
822.958041,-3064.381992,-2368.659014,9548.656652
822.958356,-3140.991542,-2368.659014,11399.171507
822.958672,-2911.162892,-3034.844362,11251.130318
822.958988,-1608.800546,-1924.535449,9400.615463
822.959304,-536.266849,-518.144159,9030.512492
822.959619,-536.266849,-1184.329507,8438.347739
822.959935,0.000000,-666.185348,7402.059420
822.960251,229.828649,-962.267725,8438.347739
822.960567,1225.752797,-888.247130,8734.430116
822.960882,995.924147,-0.000000,8586.388927
822.961198,766.095498,888.247130,7846.182985
822.961514,76.609550,1332.370696,8364.327145
822.961830,0.000000,-0.000000,9548.656652
822.962145,306.438199,296.082377,9992.780217
822.962461,919.314598,-888.247130,10732.986159
822.962777,-153.219100,-1036.288319,9918.759623
822.963093,-995.924147,-518.144159,10807.006753
822.963408,-459.657299,-1776.494261,10140.821405
822.963724,766.095498,-1554.432478,11177.109724
822.964040,76.609550,-1110.308913,11251.130318
822.964356,-689.485948,-1480.411884,9622.677246
822.964671,-229.828649,-1036.288319,9696.697840
822.964987,0.000000,-814.226536,8660.409521
822.965303,919.314598,-0.000000,9474.636058
822.965619,1149.143247,518.144159,9474.636058
822.965934,-153.219100,1110.308913,7698.141797
822.966250,0.000000,-74.020594,9104.533087
822.966566,-612.876398,-1184.329507,10140.821405
822.966882,153.219100,-1406.391290,10658.965565
822.967197,306.438199,-444.123565,9696.697840
822.967513,-383.047749,-518.144159,10807.006753
822.967829,0.000000,-1554.432478,10881.027347
822.968145,612.876398,-888.247130,10881.027347
822.968460,1838.629195,-296.082377,10584.944971
822.968776,842.705048,666.185348,9474.636058
822.969092,919.314598,370.102971,9770.718434
822.969408,1608.800546,-0.000000,8734.430116
822.969723,1915.238745,592.164754,8808.450710
822.970039,2145.067394,-0.000000,9326.594869
822.970355,1225.752797,-74.020594,8956.491898
822.970671,536.266849,148.041188,9474.636058
822.970986,842.705048,-740.205942,8956.491898
822.971302,2298.286494,-0.000000,9474.636058
822.971618,1532.190996,740.205942,9030.512492
822.971934,612.876398,518.144159,8660.409521
822.972249,689.485948,-592.164754,9178.553681
822.972565,842.705048,-666.185348,8956.491898
822.972881,1608.800546,-370.102971,9696.697840
822.973197,766.095498,-0.000000,9474.636058
822.973512,-76.609550,-74.020594,8660.409521
822.973828,0.000000,-518.144159,8882.471304
822.974144,229.828649,-592.164754,8956.491898
822.974460,612.876398,-1258.350101,10066.800811
822.974775,-383.047749,148.041188,8808.450710
822.975091,-1225.752797,-444.123565,8956.491898
822.975407,-766.095498,-1110.308913,9696.697840
822.975723,0.000000,-222.061783,9474.636058
822.976038,0.000000,592.164754,9326.594869
822.976354,-995.924147,1406.391290,9030.512492
822.976670,-459.657299,814.226536,8364.327145
822.976986,-76.609550,-0.000000,7994.224174
822.977301,842.705048,-0.000000,9770.718434
822.977617,383.047749,-0.000000,9326.594869
822.977933,229.828649,222.061783,8956.491898
822.978249,0.000000,-666.185348,9622.677246
822.978564,842.705048,-962.267725,8808.450710
822.978880,1225.752797,-74.020594,10140.821405
822.979196,76.609550,296.082377,9178.553681
822.979511,-383.047749,-370.102971,9696.697840
822.979827,-153.219100,-1406.391290,9992.780217
822.980143,383.047749,-592.164754,9548.656652
822.980459,0.000000,-444.123565,9770.718434
822.980774,-1149.143247,-222.061783,9844.739029
822.981090,-306.438199,-1554.432478,9918.759623
822.981406,-612.876398,-1110.308913,9844.739029
822.981722,153.219100,-962.267725,10584.944971
822.982037,306.438199,-296.082377,8882.471304
822.982353,0.000000,148.041188,9770.718434
822.982669,612.876398,-814.226536,10584.944971
822.982985,1838.629195,-888.247130,9178.553681
822.983300,2374.896044,-0.000000,9696.697840
822.983616,1838.629195,-148.041188,9770.718434
822.983932,1225.752797,-222.061783,9770.718434
822.984248,1378.971896,-1258.350101,9252.574275
822.984563,1762.019645,-814.226536,9918.759623
822.984879,1532.190996,-0.000000,10584.944971
822.985195,842.705048,-370.102971,10732.986159
822.985511,0.000000,-296.082377,10436.903782
822.985826,689.485948,296.082377,8512.368333
822.986142,1302.362347,-518.144159,9622.677246
822.986458,1072.533697,444.123565,9696.697840
822.986774,0.000000,740.205942,9178.553681
822.987089,689.485948,-1110.308913,9474.636058
822.987405,919.314598,-592.164754,8512.368333
822.987721,1302.362347,-592.164754,9770.718434
822.988037,766.095498,296.082377,9474.636058
822.988352,153.219100,222.061783,8882.471304
822.988668,306.438199,-888.247130,8882.471304
822.988984,1072.533697,-1184.329507,9696.697840
822.989300,995.924147,-370.102971,8586.388927
822.989615,-383.047749,740.205942,9104.533087
822.989931,-383.047749,-1184.329507,9844.739029
822.990247,-459.657299,-1776.494261,8882.471304
822.990563,76.609550,-370.102971,9474.636058
822.990878,-229.828649,-296.082377,9918.759623
822.991194,-1378.971896,-0.000000,9030.512492
822.991510,-995.924147,-1036.288319,9400.615463
822.991826,-306.438199,-1036.288319,8586.388927
822.992141,766.095498,-370.102971,9622.677246
822.992457,153.219100,1258.350101,8660.409521
822.992773,0.000000,814.226536,8216.285956
822.993089,919.314598,-0.000000,8290.306550
822.993404,1455.581446,-0.000000,8216.285956
822.993720,1532.190996,444.123565,9474.636058
822.994036,76.609550,1036.288319,8882.471304
822.994352,459.657299,296.082377,9548.656652
822.994667,919.314598,-518.144159,8808.450710
822.994983,842.705048,-148.041188,9030.512492
822.995299,1225.752797,222.061783,10510.924376
822.995615,306.438199,74.020594,9474.636058
822.995930,-306.438199,-666.185348,10510.924376
822.996246,0.000000,-962.267725,10955.047942
822.996562,1149.143247,-148.041188,9992.780217
822.996878,0.000000,1184.329507,9548.656652
822.997193,-536.266849,1036.288319,10140.821405
822.997509,689.485948,-518.144159,8808.450710
822.997825,1149.143247,-370.102971,8956.491898
822.998141,766.095498,-222.061783,11029.068536
822.998456,153.219100,-370.102971,9548.656652
822.998772,153.219100,-444.123565,9548.656652
822.999088,383.047749,-1554.432478,10214.842000
822.999403,689.485948,-1628.453072,11547.212695
822.999719,1455.581446,-148.041188,11769.274478
823.000035,306.438199,814.226536,9104.533087
823.000351,306.438199,222.061783,9696.697840
823.000666,1455.581446,-370.102971,9622.677246
823.000982,2068.457845,-148.041188,9474.636058
823.001298,1685.410096,1554.432478,9474.636058
823.001614,919.314598,518.144159,9474.636058
823.001929,842.705048,-962.267725,9030.512492
823.002245,1072.533697,-518.144159,9326.594869
823.002561,689.485948,-740.205942,9844.739029
823.002877,-383.047749,666.185348,9844.739029
823.003192,-459.657299,-0.000000,9696.697840
823.003508,76.609550,-1110.308913,9548.656652
823.003824,229.828649,-962.267725,10140.821405
823.004140,-306.438199,-518.144159,9992.780217
823.004455,-1378.971896,-518.144159,9548.656652
823.004771,-689.485948,-1110.308913,9548.656652
823.005087,-383.047749,-1628.453072,9326.594869
823.005403,689.485948,370.102971,10140.821405
823.005718,-229.828649,222.061783,9252.574275
823.006034,0.000000,-296.082377,9252.574275
823.006350,-229.828649,-370.102971,8512.368333
823.006666,1072.533697,-962.267725,7994.224174
823.006981,2145.067394,-296.082377,9178.553681
823.007297,842.705048,740.205942,8512.368333
823.007613,153.219100,-0.000000,8142.265362
823.007929,842.705048,-1258.350101,8882.471304
823.008244,995.924147,-296.082377,9400.615463
823.008560,229.828649,-222.061783,9030.512492
823.008876,-995.924147,222.061783,10140.821405
823.009192,-689.485948,-962.267725,9622.677246
823.009507,153.219100,-444.123565,9474.636058
823.009823,1302.362347,-74.020594,9326.594869
823.010139,153.219100,740.205942,8586.388927
823.010455,-536.266849,148.041188,8882.471304
823.010770,306.438199,-1258.350101,8956.491898
823.011086,612.876398,-1184.329507,9326.594869
823.011402,1378.971896,-0.000000,9252.574275
823.011718,0.000000,-0.000000,9178.553681
823.012033,-153.219100,-0.000000,9326.594869
823.012349,766.095498,-518.144159,9030.512492
823.012665,919.314598,-296.082377,8808.450710
823.012981,306.438199,-0.000000,9992.780217
823.013296,0.000000,-0.000000,9992.780217
823.013612,536.266849,-814.226536,9400.615463
823.013928,306.438199,-740.205942,9252.574275
823.014244,536.266849,-740.205942,10584.944971
823.014559,612.876398,-74.020594,10955.047942
823.014875,76.609550,-444.123565,10436.903782
823.015191,153.219100,-74.020594,9548.656652
823.015507,1608.800546,666.185348,8882.471304
823.015822,1608.800546,888.247130,9326.594869
823.016138,612.876398,888.247130,9252.574275
823.016454,459.657299,-444.123565,10288.862594
823.016770,842.705048,-370.102971,9030.512492
823.017085,995.924147,-74.020594,9918.759623
823.017401,229.828649,-0.000000,10658.965565
823.017717,0.000000,740.205942,9992.780217
823.018033,-229.828649,-518.144159,10214.842000
823.018348,0.000000,-296.082377,10066.800811
823.018664,229.828649,-444.123565,10732.986159
823.018980,153.219100,740.205942,10362.883188
823.019295,229.828649,666.185348,9622.677246
823.019611,383.047749,-74.020594,8882.471304
823.019927,1149.143247,222.061783,9548.656652
823.020243,1532.190996,296.082377,9030.512492
823.020558,459.657299,1036.288319,9252.574275
823.020874,229.828649,740.205942,9474.636058
823.021190,689.485948,-74.020594,7994.224174
823.021506,1072.533697,-0.000000,8734.430116
823.021821,459.657299,-592.164754,9918.759623
823.022137,-229.828649,-370.102971,9844.739029
823.022453,-536.266849,-1036.288319,9622.677246
823.022769,-459.657299,-888.247130,9400.615463
823.023084,612.876398,-1036.288319,10807.006753
823.023400,-229.828649,-0.000000,9326.594869
823.023716,-1149.143247,370.102971,9104.533087
823.024032,-459.657299,-1110.308913,9474.636058
823.024347,995.924147,-814.226536,8660.409521
823.024663,1225.752797,-74.020594,8512.368333
823.024979,-306.438199,-0.000000,8512.368333
823.025295,306.438199,-1332.370696,9474.636058
823.025610,229.828649,-1184.329507,7846.182985
823.025926,689.485948,-518.144159,9474.636058
823.026242,689.485948,-148.041188,9548.656652
823.026558,-229.828649,-0.000000,8956.491898
823.026873,0.000000,-296.082377,9400.615463
823.027189,766.095498,-518.144159,8808.450710
823.027505,1225.752797,-888.247130,9548.656652
823.027821,306.438199,-148.041188,9178.553681
823.028136,-306.438199,-370.102971,9548.656652
823.028452,153.219100,-1332.370696,10140.821405
823.028768,842.705048,-444.123565,9400.615463
823.029084,995.924147,-0.000000,9548.656652
823.029399,153.219100,222.061783,10362.883188
823.029715,229.828649,-74.020594,9696.697840
823.030031,612.876398,-148.041188,8734.430116
823.030347,1838.629195,-296.082377,10436.903782
823.030662,1455.581446,-0.000000,8956.491898
823.030978,1378.971896,296.082377,8882.471304
823.031294,1072.533697,-0.000000,9474.636058
823.031610,1608.800546,-592.164754,9622.677246
823.031925,1455.581446,-444.123565,9992.780217
823.032241,536.266849,1776.494261,9844.739029
823.032557,229.828649,888.247130,9622.677246
823.032873,459.657299,-518.144159,8808.450710
823.033188,842.705048,-0.000000,9104.533087
823.033504,1149.143247,-888.247130,10510.924376
823.033820,0.000000,-1480.411884,9918.759623
823.034136,-536.266849,-1702.473667,10658.965565
823.034451,-306.438199,-1702.473667,9400.615463
823.034767,612.876398,-1924.535449,10436.903782
823.035083,0.000000,-740.205942,10881.027347
823.035399,-612.876398,592.164754,10288.862594
823.035714,-612.876398,-592.164754,9844.739029
823.036030,229.828649,-296.082377,8956.491898
823.036346,842.705048,-740.205942,8956.491898
823.036662,689.485948,-666.185348,9474.636058
823.036977,689.485948,-814.226536,9844.739029
823.037293,229.828649,-2294.638420,9918.759623
823.037609,766.095498,-1628.453072,9622.677246
823.037925,612.876398,-296.082377,9474.636058
823.038240,-536.266849,814.226536,9326.594869
823.038556,0.000000,-666.185348,9326.594869
823.038872,0.000000,-814.226536,8364.327145
823.039188,766.095498,-814.226536,9178.553681
823.039503,383.047749,-592.164754,9104.533087
823.039819,153.219100,-592.164754,9326.594869
823.040135,-536.266849,-1702.473667,9400.615463
823.040450,-306.438199,-1332.370696,9030.512492
823.040766,306.438199,-222.061783,10140.821405
823.041082,0.000000,1036.288319,9178.553681
823.041398,-1225.752797,518.144159,9252.574275
823.041713,-536.266849,-0.000000,8586.388927
823.042029,995.924147,-666.185348,9104.533087
823.042345,766.095498,-0.000000,9326.594869
823.042661,0.000000,1406.391290,9252.574275
823.042976,153.219100,-0.000000,9844.739029
823.043292,1149.143247,666.185348,8438.347739
823.043608,1378.971896,1776.494261,8734.430116
823.043924,919.314598,740.205942,9326.594869
823.044239,612.876398,1702.473667,9104.533087
823.044555,0.000000,592.164754,8586.388927
823.044871,1072.533697,-296.082377,9400.615463
823.045187,1915.238745,-0.000000,9844.739029
823.045502,766.095498,1628.453072,9030.512492
823.045818,0.000000,518.144159,9622.677246
823.046134,306.438199,-296.082377,9252.574275
823.046450,689.485948,148.041188,9474.636058
823.046765,995.924147,1184.329507,9548.656652
823.047081,-536.266849,1036.288319,9844.739029
823.047397,-383.047749,-740.205942,10362.883188
823.047713,153.219100,-666.185348,9252.574275
823.048028,1072.533697,-148.041188,9400.615463
823.048344,459.657299,296.082377,10066.800811
823.048660,229.828649,1110.308913,9918.759623
823.048976,-153.219100,-0.000000,8586.388927
823.049291,689.485948,-370.102971,9326.594869
823.049607,1302.362347,-74.020594,10362.883188
823.049923,76.609550,-0.000000,10436.903782
823.050239,153.219100,296.082377,10140.821405
823.050554,459.657299,-518.144159,9844.739029
823.050870,919.314598,666.185348,9400.615463
823.051186,1915.238745,1184.329507,9622.677246
823.051502,689.485948,1554.432478,8512.368333
823.051817,459.657299,222.061783,9770.718434
823.052133,689.485948,-1332.370696,9474.636058
823.052449,1378.971896,-814.226536,10362.883188
823.052765,1149.143247,-74.020594,10658.965565
823.053080,76.609550,666.185348,9548.656652
823.053396,689.485948,370.102971,9622.677246
823.053712,766.095498,-0.000000,7698.141797
823.054028,1762.019645,-0.000000,10362.883188
823.054343,229.828649,518.144159,9252.574275
823.054659,-229.828649,-370.102971,9770.718434
823.054975,-306.438199,-1184.329507,9844.739029
823.055291,383.047749,-1258.350101,10288.862594
823.055606,919.314598,-296.082377,10436.903782
823.055922,-536.266849,518.144159,10066.800811
823.056238,-229.828649,-0.000000,9474.636058
823.056554,536.266849,-888.247130,8882.471304
823.056869,1149.143247,-0.000000,9252.574275
823.057185,1225.752797,-370.102971,9918.759623
823.057501,842.705048,592.164754,9548.656652
823.057817,766.095498,-370.102971,8660.409521
823.058132,1072.533697,-888.247130,9548.656652
823.058448,1149.143247,-222.061783,10066.800811
823.058764,536.266849,-0.000000,9178.553681
823.059080,-459.657299,444.123565,8808.450710
823.059395,-306.438199,-1406.391290,9844.739029
823.059711,459.657299,-2368.659014,10066.800811
823.060027,229.828649,-888.247130,10066.800811
823.060343,-766.095498,-148.041188,8586.388927
823.060658,-689.485948,-1332.370696,9622.677246
823.060974,-383.047749,-1258.350101,9548.656652
823.061290,0.000000,-1258.350101,8882.471304
823.061606,229.828649,-814.226536,9474.636058
823.061921,-1225.752797,-1184.329507,9696.697840
823.062237,-766.095498,-1480.411884,8956.491898
823.062553,459.657299,-1480.411884,8364.327145
823.062869,536.266849,-1184.329507,9030.512492
823.063184,766.095498,-74.020594,9326.594869
823.063500,76.609550,-444.123565,8364.327145
823.063816,0.000000,-1480.411884,8364.327145
823.064132,229.828649,-1184.329507,9474.636058
823.064447,612.876398,-1184.329507,9474.636058
823.064763,-842.705048,444.123565,8808.450710
823.065079,-766.095498,-0.000000,9474.636058
823.065395,0.000000,-1184.329507,9104.533087
823.065711,1072.533697,-740.205942,8882.471304
823.066026,153.219100,-962.267725,9400.615463
823.066342,-766.095498,-740.205942,10140.821405
823.066658,0.000000,-1036.288319,9918.759623
823.066974,689.485948,-592.164754,8216.285956
823.067289,1072.533697,-0.000000,10066.800811
823.067605,536.266849,-148.041188,10362.883188
823.067921,306.438199,1332.370696,8808.450710
823.068237,612.876398,222.061783,9104.533087
823.068552,1838.629195,-370.102971,8808.450710
823.068868,2298.286494,148.041188,9400.615463
823.069184,995.924147,814.226536,8882.471304
823.069500,1302.362347,-74.020594,10066.800811
823.069815,1378.971896,-666.185348,9770.718434
823.070131,1685.410096,-0.000000,10214.842000
823.070447,1225.752797,1184.329507,9770.718434
823.070763,919.314598,1850.514855,10140.821405
823.071079,1072.533697,-0.000000,9696.697840
823.071394,1762.019645,-74.020594,9104.533087
823.071710,1915.238745,-518.144159,10807.006753
823.072026,1455.581446,518.144159,10140.821405
823.072342,995.924147,-148.041188,10214.842000
823.072657,1072.533697,-0.000000,9844.739029
823.072973,1915.238745,1110.308913,8882.471304
823.073289,1685.410096,1406.391290,9696.697840
823.073605,766.095498,1776.494261,9622.677246
823.073920,1302.362347,1332.370696,9400.615463
823.074236,1225.752797,-0.000000,9252.574275
823.074552,1302.362347,-0.000000,10214.842000
823.074868,1149.143247,370.102971,10510.924376
823.075183,-229.828649,1110.308913,9548.656652
823.075499,153.219100,-0.000000,9844.739029
823.075815,76.609550,-0.000000,9622.677246
823.076131,306.438199,740.205942,10214.842000
823.076447,-766.095498,1406.391290,10362.883188
823.076762,-842.705048,962.267725,10066.800811
823.077078,-153.219100,-0.000000,8660.409521
823.077394,459.657299,222.061783,9252.574275
823.077710,153.219100,-0.000000,10584.944971
823.078025,-229.828649,740.205942,9622.677246
823.078341,-306.438199,666.185348,8882.471304
823.078657,766.095498,-0.000000,8438.347739
823.078973,306.438199,-370.102971,9622.677246
823.079288,306.438199,370.102971,9548.656652
823.079604,-612.876398,222.061783,9178.553681
823.079920,-229.828649,-814.226536,9474.636058
823.080236,-306.438199,-814.226536,8586.388927
823.080551,612.876398,-444.123565,9548.656652
823.080867,0.000000,296.082377,9696.697840
823.081183,-766.095498,-444.123565,9030.512492
823.081499,0.000000,-962.267725,8660.409521
823.081815,459.657299,-1628.453072,9030.512492
823.082130,536.266849,-1332.370696,10584.944971
823.082446,-383.047749,-296.082377,9770.718434
823.082762,-689.485948,-592.164754,8512.368333
823.083078,536.266849,-1036.288319,8956.491898
823.083393,1072.533697,-370.102971,8956.491898
823.083709,612.876398,-592.164754,9400.615463
823.084025,0.000000,-370.102971,9474.636058
823.084341,306.438199,-2294.638420,9030.512492
823.084656,842.705048,-2368.659014,9326.594869
823.084972,612.876398,-1332.370696,10362.883188
823.085288,0.000000,-814.226536,9918.759623
823.085604,0.000000,-74.020594,9252.574275
823.085919,689.485948,-518.144159,9178.553681
823.086235,1225.752797,-148.041188,8660.409521
823.086551,1685.410096,-74.020594,9474.636058
823.086867,306.438199,-518.144159,9178.553681
823.087182,536.266849,-1258.350101,9474.636058
823.087498,612.876398,-1554.432478,9548.656652
823.087814,1455.581446,-1036.288319,10214.842000
823.088130,689.485948,-444.123565,10066.800811
823.088446,-229.828649,148.041188,9548.656652
823.088761,76.609550,-888.247130,9252.574275
823.089077,689.485948,-888.247130,9696.697840
823.089393,1532.190996,-1258.350101,10288.862594
823.089709,383.047749,-296.082377,9030.512492
823.090024,-153.219100,-740.205942,10140.821405
823.090340,459.657299,-1480.411884,9844.739029
823.090656,1608.800546,-296.082377,9104.533087
823.090972,842.705048,296.082377,9474.636058
823.091287,76.609550,666.185348,9622.677246
823.091603,383.047749,-518.144159,8808.450710
823.091919,842.705048,-666.185348,8882.471304
823.092235,1455.581446,-814.226536,9474.636058
823.092550,995.924147,-888.247130,10436.903782
823.092866,76.609550,-0.000000,9178.553681
823.093182,229.828649,-222.061783,8512.368333
823.093498,612.876398,-666.185348,9104.533087
823.093814,1302.362347,-444.123565,10288.862594
823.094129,0.000000,888.247130,9326.594869
823.094445,-229.828649,1036.288319,8512.368333
823.094761,0.000000,-666.185348,9918.759623
823.095077,766.095498,-148.041188,8882.471304
823.095392,1378.971896,592.164754,9918.759623
823.095708,0.000000,740.205942,9178.553681
823.096024,-383.047749,296.082377,9474.636058
823.096340,842.705048,-666.185348,9548.656652
823.096655,689.485948,370.102971,9252.574275
823.096971,383.047749,1110.308913,10510.924376
823.097287,-306.438199,1036.288319,8734.430116
823.097603,76.609550,296.082377,9030.512492
823.097918,612.876398,296.082377,8882.471304
823.098234,1302.362347,518.144159,9696.697840
823.098550,0.000000,444.123565,9548.656652
823.098866,-689.485948,-0.000000,9548.656652
823.099182,-229.828649,-1036.288319,9918.759623
823.099497,-153.219100,-444.123565,9104.533087
823.099813,229.828649,-296.082377,10807.006753
823.100129,-842.705048,592.164754,10436.903782
823.100445,-919.314598,-74.020594,10066.800811
823.100760,-229.828649,-0.000000,8882.471304
823.101076,1302.362347,296.082377,9474.636058
823.101392,1072.533697,888.247130,9400.615463
823.101708,0.000000,666.185348,9548.656652
823.102023,306.438199,-296.082377,9992.780217
823.102339,842.705048,-740.205942,8882.471304
823.102655,842.705048,444.123565,9992.780217
823.102971,459.657299,962.267725,9326.594869
823.103286,-536.266849,740.205942,9474.636058
823.103602,76.609550,-666.185348,9992.780217
823.103918,536.266849,-148.041188,9178.553681
823.104234,919.314598,-666.185348,10362.883188
823.104550,0.000000,-296.082377,9992.780217
823.104865,0.000000,-740.205942,10362.883188
823.105181,383.047749,-888.247130,9178.553681
823.105497,1302.362347,-370.102971,9030.512492
823.105813,842.705048,1184.329507,9548.656652
823.106128,76.609550,1406.391290,9474.636058
823.106444,229.828649,-222.061783,8364.327145
823.106760,1072.533697,-444.123565,8512.368333
823.107076,1685.410096,-296.082377,9030.512492
823.107391,1072.533697,-0.000000,9178.553681
823.107707,306.438199,-444.123565,9474.636058
823.108023,612.876398,-888.247130,9622.677246
823.108339,1149.143247,-1110.308913,8808.450710
823.108654,383.047749,-0.000000,10584.944971
823.108970,-229.828649,740.205942,9622.677246
823.109286,0.000000,-592.164754,10066.800811
823.109602,536.266849,-1036.288319,9696.697840
823.109918,1302.362347,-962.267725,9992.780217
823.110233,1762.019645,-444.123565,9178.553681
823.110549,76.609550,222.061783,8808.450710
823.110865,459.657299,-370.102971,9400.615463
823.111181,1991.848295,-962.267725,8882.471304
823.111496,1455.581446,-0.000000,8660.409521
823.111812,306.438199,370.102971,9622.677246
823.112128,306.438199,-222.061783,8956.491898
