#time,accel_x,accel_y,accel_z
1018.376499,-612.876398,666.185348,10362.883188
1018.376815,-995.924147,1258.350101,10288.862594
1018.377131,-612.876398,1110.308913,10066.800811
1018.377447,-689.485948,1776.494261,9770.718434
1018.377763,-383.047749,1554.432478,9474.636058
1018.378078,383.047749,1184.329507,9474.636058
1018.378394,0.000000,1332.370696,9696.697840
1018.378710,459.657299,1184.329507,9474.636058
1018.379026,612.876398,1406.391290,9474.636058
1018.379342,383.047749,1184.329507,9548.656652
1018.379658,229.828649,1036.288319,8956.491898
1018.379973,76.609550,1480.411884,9548.656652
1018.380289,-153.219100,1628.453072,9326.594869
1018.380605,0.000000,1776.494261,9548.656652
1018.380921,-153.219100,1776.494261,9474.636058
1018.381237,-459.657299,1554.432478,9252.574275
1018.381552,-919.314598,1110.308913,9178.553681
1018.381868,-1225.752797,962.267725,9548.656652
1018.382184,-1455.581446,962.267725,9326.594869
1018.382500,-1838.629195,888.247130,9622.677246
1018.382816,-2298.286494,1110.308913,9696.697840
1018.383132,-2451.505594,962.267725,9770.718434
1018.383447,-2451.505594,888.247130,9548.656652
1018.383763,-2451.505594,1332.370696,9696.697840
1018.384079,-2451.505594,1480.411884,9326.594869
1018.384395,-2374.896044,1776.494261,9030.512492
1018.384711,-2451.505594,1998.556043,8734.430116
1018.385026,-2374.896044,1998.556043,8882.471304
1018.385342,-2374.896044,1998.556043,8512.368333
1018.385658,-2145.067394,2220.617826,8512.368333
1018.385974,-2911.162892,2146.597232,8808.450710
1018.386290,-3064.381992,1924.535449,8956.491898
1018.386606,-3140.991542,1924.535449,9104.533087
1018.386921,-3294.210641,2072.576638,9252.574275
1018.387237,-3370.820191,1776.494261,9104.533087
1018.387553,-3140.991542,1998.556043,9104.533087
1018.387869,-3524.039291,1850.514855,9400.615463
1018.388185,-3370.820191,1998.556043,9474.636058
1018.388500,-3064.381992,2220.617826,9770.718434
1018.388816,-3064.381992,2072.576638,9770.718434
1018.389132,-2681.334243,2368.659014,9474.636058
1018.389448,-2987.772442,3034.844362,9252.574275
1018.389764,-2757.943793,3404.947333,9030.512492
1018.390080,-2451.505594,3404.947333,8956.491898
1018.390395,-2145.067394,4441.235652,8364.327145
1018.390711,-2451.505594,4367.215058,8216.285956
1018.391027,-2451.505594,4367.215058,8586.388927
1018.391343,-2451.505594,3849.070898,8660.409521
1018.391659,-2604.724693,3256.906145,9548.656652
1018.391974,-2987.772442,2516.700203,9992.780217
1018.392290,-2987.772442,2146.597232,10510.924376
1018.392606,-2681.334243,1776.494261,10955.047942
1018.392922,-2298.286494,1998.556043,10807.006753
1018.393238,-2298.286494,1924.535449,10807.006753
1018.393554,-1532.190996,2368.659014,10288.862594
1018.393869,-842.705048,2812.782580,9992.780217
1018.394185,0.000000,3552.988522,9474.636058
1018.394501,76.609550,3997.112087,9178.553681
1018.394817,459.657299,4071.132681,8882.471304
1018.395133,536.266849,3849.070898,8808.450710
1018.395448,229.828649,3701.029710,8808.450710
1018.395764,-76.609550,3478.967927,9178.553681
1018.396080,-689.485948,2812.782580,9474.636058
1018.396396,-1302.362347,2368.659014,9992.780217
1018.396712,-2068.457845,1776.494261,10362.883188
1018.397028,-2681.334243,962.267725,10955.047942
1018.397343,-2757.943793,296.082377,11399.171507
1018.397659,-3064.381992,-0.000000,11621.233289
1018.397975,-2757.943793,-74.020594,11399.171507
1018.398291,-2681.334243,-0.000000,11695.253884
1018.398607,-2068.457845,-444.123565,10881.027347
1018.398922,-1072.533697,-0.000000,10881.027347
1018.399238,-459.657299,-0.000000,9992.780217
1018.399554,459.657299,-0.000000,9104.533087
1018.399870,1225.752797,740.205942,8438.347739
1018.400186,1762.019645,1110.308913,8438.347739
1018.400502,1991.848295,1110.308913,8364.327145
1018.400817,1149.143247,1258.350101,7994.224174
1018.401133,1225.752797,1776.494261,8068.244768
1018.401449,766.095498,1110.308913,8142.265362
1018.401765,229.828649,814.226536,7920.203579
1018.402080,-1072.533697,370.102971,9030.512492
1018.402396,-1685.410096,-518.144159,9474.636058
1018.402712,-2451.505594,-1480.411884,9992.780217
1018.403027,-2681.334243,-2516.700203,10362.883188
1018.403343,-2987.772442,-2738.761985,10658.965565
1018.403658,-2911.162892,-3478.967927,10807.006753
1018.403974,-2221.676944,-3404.947333,10807.006753
1018.404289,-995.924147,-2590.720797,10362.883188
1018.404605,76.609550,-1480.411884,9400.615463
1018.404920,1608.800546,-222.061783,8586.388927
1018.405236,2298.286494,592.164754,7476.080014
1018.405552,2604.724693,1776.494261,6661.853478
1018.405867,3217.601092,2368.659014,6291.750507
1018.406183,2757.943793,2368.659014,5921.647536
1018.406498,1608.800546,1998.556043,6217.729913
1018.406814,536.266849,1628.453072,7402.059420
1018.407129,-612.876398,-148.041188,8438.347739
1018.407445,-1838.629195,-1554.432478,9696.697840
1018.407760,-2451.505594,-2812.782580,10584.944971
1018.408076,-3064.381992,-3701.029710,11399.171507
1018.408392,-3753.867940,-4071.132681,12435.459826
1018.408707,-3370.820191,-3849.070898,11695.253884
1018.409023,-2604.724693,-3108.864956,11399.171507
1018.409338,-1455.581446,-1924.535449,10658.965565
1018.409654,-689.485948,-740.205942,9030.512492
1018.409969,383.047749,962.267725,7846.182985
1018.410285,919.314598,2146.597232,7179.997637
1018.410601,1302.362347,2664.741391,6513.812290
1018.410916,1762.019645,2738.761985,7105.977043
1018.411232,1915.238745,2368.659014,7920.203579
1018.411547,1072.533697,740.205942,8364.327145
1018.411863,766.095498,-592.164754,9696.697840
1018.412178,153.219100,-1924.535449,10955.047942
1018.412494,153.219100,-2220.617826,11843.295072
1018.412809,0.000000,-2220.617826,11843.295072
1018.413125,76.609550,-1110.308913,11843.295072
1018.413441,383.047749,-148.041188,11029.068536
1018.413756,995.924147,1036.288319,10214.842000
1018.414072,1608.800546,2146.597232,9252.574275
1018.414387,2145.067394,3034.844362,8586.388927
1018.414703,2068.457845,3923.091493,8068.244768
1018.415018,2221.676944,4145.153275,8142.265362
1018.415334,2145.067394,3256.906145,8734.430116
1018.415649,1608.800546,1924.535449,9474.636058
1018.415965,1225.752797,296.082377,10510.924376
1018.416281,383.047749,-1110.308913,11473.192101
1018.416596,536.266849,-1628.453072,12361.439231
1018.416912,689.485948,-1110.308913,12435.459826
1018.417227,766.095498,296.082377,11843.295072
1018.417543,995.924147,1406.391290,10510.924376
1018.417858,1302.362347,2368.659014,9400.615463
1018.418174,1532.190996,2738.761985,8586.388927
1018.418489,2068.457845,3182.885551,8216.285956
1018.418805,2528.115143,3478.967927,7994.224174
1018.419121,2145.067394,2812.782580,7698.141797
1018.419436,1838.629195,2220.617826,8290.306550
1018.419752,919.314598,888.247130,9326.594869
1018.420067,229.828649,-518.144159,9844.739029
1018.420383,-766.095498,-1110.308913,11399.171507
1018.420698,-1149.143247,-1628.453072,11991.336260
1018.421014,-1225.752797,-1406.391290,11991.336260
1018.421330,-1302.362347,-296.082377,11325.150913
1018.421645,-919.314598,222.061783,10362.883188
1018.421961,-766.095498,666.185348,9622.677246
1018.422276,-153.219100,814.226536,8734.430116
1018.422592,306.438199,888.247130,8586.388927
1018.422907,536.266849,148.041188,8512.368333
1018.423223,842.705048,-222.061783,8586.388927
1018.423538,612.876398,-1036.288319,8586.388927
1018.423854,766.095498,-1184.329507,8808.450710
1018.424170,842.705048,-1258.350101,9104.533087
1018.424485,995.924147,-962.267725,9474.636058
1018.424801,919.314598,-518.144159,9474.636058
1018.425116,536.266849,-0.000000,8734.430116
1018.425432,153.219100,444.123565,8364.327145
1018.425747,-229.828649,296.082377,8586.388927
1018.426063,-459.657299,-296.082377,8956.491898
1018.426378,-459.657299,-1332.370696,9548.656652
1018.426694,-995.924147,-2072.576638,9622.677246
1018.427010,-1378.971896,-2960.823768,9770.718434
1018.427325,-1225.752797,-3478.967927,9992.780217
1018.427641,-842.705048,-3034.844362,10066.800811
1018.427956,0.000000,-2590.720797,10214.842000
1018.428272,612.876398,-1554.432478,9474.636058
1018.428587,1378.971896,-444.123565,8512.368333
1018.428903,1302.362347,222.061783,8142.265362
1018.429218,1455.581446,962.267725,7550.100608
1018.429534,1762.019645,1036.288319,7254.018232
1018.429850,1378.971896,1110.308913,7550.100608
1018.430165,1149.143247,296.082377,8364.327145
1018.430481,536.266849,-518.144159,9030.512492
1018.430796,0.000000,-1702.473667,9992.780217
1018.431112,-919.314598,-2886.803174,10214.842000
1018.431427,-689.485948,-3404.947333,10881.027347
1018.431743,-536.266849,-3627.009116,11547.212695
1018.432059,-153.219100,-2886.803174,11325.150913
1018.432374,459.657299,-1776.494261,10362.883188
1018.432690,1149.143247,-444.123565,9696.697840
1018.433005,1532.190996,444.123565,8512.368333
1018.433321,1915.238745,1332.370696,7698.141797
1018.433636,1991.848295,1628.453072,7846.182985
1018.433952,2145.067394,1110.308913,8512.368333
1018.434267,1455.581446,-0.000000,8808.450710
1018.434583,1302.362347,-962.267725,9400.615463
1018.434899,612.876398,-1850.514855,10066.800811
1018.435214,229.828649,-2368.659014,10881.027347
1018.435530,0.000000,-2368.659014,10658.965565
1018.435845,459.657299,-1258.350101,10881.027347
1018.436161,459.657299,-518.144159,10807.006753
1018.436476,766.095498,-0.000000,10140.821405
1018.436792,842.705048,814.226536,9252.574275
1018.437107,919.314598,1406.391290,8586.388927
1018.437423,1455.581446,1406.391290,8586.388927
1018.437739,1608.800546,1036.288319,8808.450710
1018.438054,1072.533697,296.082377,9030.512492
1018.438370,766.095498,-370.102971,9696.697840
1018.438685,306.438199,-962.267725,9696.697840
1018.439001,76.609550,-666.185348,10214.842000
1018.439316,306.438199,-222.061783,10510.924376
1018.439632,306.438199,444.123565,10288.862594
1018.439948,229.828649,1554.432478,10214.842000
1018.440263,306.438199,2072.576638,9252.574275
1018.440579,383.047749,2368.659014,8660.409521
1018.440894,383.047749,2294.638420,8512.368333
1018.441210,306.438199,1924.535449,8808.450710
1018.441525,383.047749,1406.391290,9104.533087
1018.441841,0.000000,740.205942,8956.491898
1018.442156,-153.219100,-74.020594,9696.697840
1018.442472,-842.705048,-666.185348,10066.800811
1018.442788,-689.485948,-592.164754,10510.924376
1018.443103,-689.485948,-666.185348,10658.965565
1018.443419,-536.266849,518.144159,10214.842000
1018.443734,-306.438199,1480.411884,9770.718434
1018.444050,-229.828649,2220.617826,9104.533087
1018.444365,0.000000,2368.659014,8660.409521
1018.444681,76.609550,2294.638420,8586.388927
1018.444996,-229.828649,1702.473667,8438.347739
1018.445312,0.000000,518.144159,9104.533087
1018.445628,-153.219100,-518.144159,9474.636058
1018.445943,-306.438199,-1258.350101,9622.677246
1018.446259,-689.485948,-1480.411884,10140.821405
1018.446574,-689.485948,-1850.514855,10732.986159
1018.446890,-229.828649,-1184.329507,10584.944971
1018.447205,153.219100,-148.041188,10066.800811
1018.447521,689.485948,962.267725,9548.656652
1018.447836,842.705048,814.226536,8512.368333
1018.448152,536.266849,2220.617826,8290.306550
1018.448468,995.924147,2294.638420,8364.327145
1018.448783,612.876398,1036.288319,8660.409521
1018.449099,536.266849,-296.082377,8956.491898
1018.449414,0.000000,-1480.411884,9918.759623
1018.449730,-536.266849,-2294.638420,10584.944971
1018.450045,-306.438199,-2664.741391,10881.027347
1018.450361,-153.219100,-2368.659014,11103.089130
1018.450677,0.000000,-1554.432478,10732.986159
1018.450992,536.266849,-518.144159,10436.903782
1018.451308,1149.143247,370.102971,9622.677246
1018.451623,1149.143247,1036.288319,8734.430116
1018.451939,1608.800546,1554.432478,8364.327145
1018.452254,2068.457845,1110.308913,8068.244768
1018.452570,1991.848295,888.247130,8512.368333
1018.452885,1532.190996,-0.000000,8808.450710
1018.453201,1225.752797,-1258.350101,9326.594869
1018.453517,459.657299,-2072.576638,9622.677246
1018.453832,536.266849,-2368.659014,10584.944971
1018.454148,459.657299,-2368.659014,11177.109724
1018.454463,689.485948,-1776.494261,11029.068536
1018.454779,1072.533697,-740.205942,10214.842000
1018.455094,1149.143247,-296.082377,9400.615463
1018.455410,1762.019645,666.185348,8660.409521
1018.455725,1302.362347,962.267725,8364.327145
1018.456041,1685.410096,666.185348,8364.327145
1018.456357,1532.190996,-0.000000,8660.409521
1018.456672,1608.800546,-740.205942,9104.533087
1018.456988,766.095498,-2220.617826,9178.553681
1018.457303,383.047749,-2590.720797,9918.759623
1018.457619,383.047749,-2516.700203,9918.759623
1018.457934,0.000000,-2220.617826,10510.924376
1018.458250,229.828649,-1702.473667,10214.842000
1018.458566,153.219100,-444.123565,9696.697840
1018.458881,306.438199,-0.000000,8882.471304
1018.459197,536.266849,740.205942,8216.285956
1018.459512,689.485948,814.226536,7994.224174
1018.459828,766.095498,148.041188,8216.285956
1018.460143,842.705048,-148.041188,8586.388927
1018.460459,306.438199,-1480.411884,8808.450710
1018.460774,-229.828649,-2442.679609,9548.656652
1018.461090,-383.047749,-2516.700203,9992.780217
1018.461406,-612.876398,-2146.597232,10955.047942
1018.461721,-383.047749,-1554.432478,10140.821405
1018.462037,0.000000,-592.164754,9918.759623
1018.462352,229.828649,222.061783,9400.615463
1018.462668,153.219100,518.144159,8512.368333
1018.462983,229.828649,1258.350101,8364.327145
1018.463299,536.266849,1406.391290,8216.285956
1018.463614,689.485948,1110.308913,8068.244768
1018.463930,0.000000,222.061783,8512.368333
1018.464246,0.000000,-666.185348,9400.615463
1018.464561,-383.047749,-1924.535449,9918.759623
1018.464877,-459.657299,-2072.576638,10436.903782
1018.465192,-383.047749,-1480.411884,10881.027347
1018.465508,0.000000,-962.267725,10732.986159
1018.465823,459.657299,-0.000000,10658.965565
1018.466139,995.924147,1184.329507,9474.636058
1018.466454,1225.752797,2072.576638,8660.409521
1018.466770,1225.752797,2442.679609,7994.224174
1018.467086,1378.971896,2294.638420,8290.306550
1018.467401,1378.971896,1480.411884,8512.368333
1018.467717,919.314598,666.185348,9104.533087
1018.468032,689.485948,-518.144159,9696.697840
1018.468348,76.609550,-1628.453072,10510.924376
1018.468663,0.000000,-1776.494261,11251.130318
1018.468979,0.000000,-1480.411884,11325.150913
1018.469295,229.828649,-888.247130,11473.192101
1018.469610,306.438199,296.082377,10658.965565
1018.469926,689.485948,1480.411884,9696.697840
1018.470241,1225.752797,1628.453072,9178.553681
1018.470557,1225.752797,2220.617826,8660.409521
1018.470872,1072.533697,1628.453072,8808.450710
1018.471188,1225.752797,1258.350101,8808.450710
1018.471503,842.705048,148.041188,9474.636058
1018.471819,612.876398,-962.267725,9844.739029
1018.472135,229.828649,-1036.288319,10288.862594
1018.472450,76.609550,-1332.370696,10584.944971
1018.472766,229.828649,-1332.370696,11251.130318
1018.473081,383.047749,-296.082377,10881.027347
1018.473397,995.924147,370.102971,9918.759623
1018.473712,842.705048,962.267725,9474.636058
1018.474028,1072.533697,1702.473667,8512.368333
1018.474343,995.924147,1702.473667,8290.306550
1018.474659,1149.143247,1184.329507,8364.327145
1018.474975,842.705048,518.144159,8956.491898
1018.475290,612.876398,-444.123565,9326.594869
1018.475606,0.000000,-1702.473667,9474.636058
1018.475921,-153.219100,-2072.576638,9844.739029
1018.476237,-153.219100,-2294.638420,10510.924376
1018.476552,153.219100,-1850.514855,10362.883188
1018.476868,306.438199,-666.185348,10066.800811
1018.477183,536.266849,370.102971,9474.636058
1018.477499,612.876398,1332.370696,8586.388927
1018.477815,689.485948,1554.432478,7920.203579
1018.478130,612.876398,1554.432478,8142.265362
1018.478446,995.924147,962.267725,7994.224174
1018.478761,536.266849,-0.000000,8438.347739
1018.479077,459.657299,-1332.370696,9104.533087
1018.479392,-383.047749,-2368.659014,9474.636058
1018.479708,-766.095498,-1850.514855,9474.636058
1018.480024,-459.657299,-2664.741391,10362.883188
1018.480339,-229.828649,-2072.576638,11029.068536
1018.480655,-76.609550,-370.102971,9770.718434
1018.480970,536.266849,-0.000000,9252.574275
1018.481286,459.657299,1110.308913,8660.409521
1018.481601,536.266849,1332.370696,7994.224174
1018.481917,766.095498,1184.329507,7772.162391
1018.482232,919.314598,222.061783,8216.285956
1018.482548,459.657299,-814.226536,9104.533087
1018.482864,459.657299,-2220.617826,9400.615463
1018.483179,-229.828649,-2294.638420,9548.656652
1018.483495,-536.266849,-2516.700203,10140.821405
1018.483810,76.609550,-2146.597232,10584.944971
1018.484126,76.609550,-1258.350101,10214.842000
1018.484441,383.047749,-148.041188,9992.780217
1018.484757,766.095498,740.205942,9104.533087
1018.485072,766.095498,962.267725,8438.347739
1018.485388,1225.752797,1628.453072,8216.285956
1018.485704,842.705048,1258.350101,8660.409521
1018.486019,689.485948,444.123565,8956.491898
1018.486335,842.705048,-148.041188,9178.553681
1018.486650,306.438199,-1406.391290,9622.677246
1018.486966,-383.047749,-1850.514855,10288.862594
1018.487281,-459.657299,-1554.432478,10881.027347
1018.487597,0.000000,-1554.432478,10658.965565
1018.487913,76.609550,-666.185348,10807.006753
1018.488228,689.485948,148.041188,10510.924376
1018.488544,383.047749,888.247130,9252.574275
1018.488859,1072.533697,1184.329507,8808.450710
1018.489175,1302.362347,1628.453072,8660.409521
1018.489490,1685.410096,1406.391290,8586.388927
1018.489806,1685.410096,1184.329507,8734.430116
1018.490121,919.314598,-0.000000,9400.615463
1018.490437,842.705048,-666.185348,9696.697840
1018.490753,459.657299,-1406.391290,9992.780217
1018.491068,0.000000,-1406.391290,10807.006753
1018.491384,459.657299,-888.247130,11177.109724
1018.491699,383.047749,-370.102971,10658.965565
1018.492015,689.485948,1036.288319,9770.718434
1018.492330,383.047749,1184.329507,9400.615463
1018.492646,995.924147,1406.391290,8882.471304
1018.492961,536.266849,1998.556043,8438.347739
1018.493277,536.266849,1110.308913,8660.409521
1018.493593,306.438199,222.061783,9104.533087
1018.493908,0.000000,-592.164754,9474.636058
1018.494224,-383.047749,-1480.411884,9696.697840
1018.494539,-612.876398,-1702.473667,10436.903782
1018.494855,-766.095498,-1776.494261,10881.027347
1018.495170,-306.438199,-1110.308913,10732.986159
1018.495486,0.000000,-666.185348,10140.821405
1018.495801,76.609550,370.102971,9770.718434
1018.496117,0.000000,1110.308913,8882.471304
1018.496433,306.438199,1332.370696,8216.285956
1018.496748,229.828649,1554.432478,8290.306550
1018.497064,536.266849,1110.308913,8438.347739
1018.497379,306.438199,518.144159,8660.409521
1018.497695,306.438199,-518.144159,9104.533087
1018.498010,-459.657299,-1776.494261,9400.615463
1018.498326,-612.876398,-2220.617826,9844.739029
1018.498642,-919.314598,-1924.535449,10288.862594
1018.498957,-459.657299,-1332.370696,10436.903782
1018.499273,-153.219100,-666.185348,9918.759623
1018.499588,229.828649,518.144159,9474.636058
1018.499904,0.000000,888.247130,8734.430116
1018.500219,153.219100,1110.308913,8216.285956
1018.500535,76.609550,1406.391290,8142.265362
1018.500850,76.609550,592.164754,8586.388927
1018.501166,229.828649,-148.041188,9030.512492
1018.501482,76.609550,-1036.288319,9474.636058
1018.501797,-383.047749,-2072.576638,9548.656652
1018.502113,-383.047749,-2368.659014,10140.821405
1018.502428,-153.219100,-2516.700203,10584.944971
1018.502744,383.047749,-1184.329507,10362.883188
1018.503060,842.705048,-148.041188,9770.718434
1018.503375,1149.143247,814.226536,8882.471304
1018.503691,1225.752797,1554.432478,8290.306550
1018.504007,1838.629195,1110.308913,8142.265362
1018.504322,1762.019645,888.247130,8438.347739
1018.504638,1762.019645,296.082377,8882.471304
1018.504954,1225.752797,-518.144159,9178.553681
1018.505270,919.314598,-1628.453072,9548.656652
1018.505585,689.485948,-2294.638420,10362.883188
1018.505901,459.657299,-2368.659014,10510.924376
1018.506217,459.657299,-1776.494261,10881.027347
1018.506532,689.485948,-1184.329507,10807.006753
1018.506848,1149.143247,-370.102971,10288.862594
1018.507164,1225.752797,-74.020594,9622.677246
1018.507480,1378.971896,592.164754,8808.450710
1018.507795,1455.581446,1036.288319,8290.306550
1018.508111,1915.238745,888.247130,8734.430116
1018.508427,1991.848295,296.082377,8956.491898
1018.508742,1455.581446,-666.185348,9400.615463
1018.509058,842.705048,-1258.350101,9252.574275
1018.509374,612.876398,-1776.494261,9918.759623
1018.509690,229.828649,-2072.576638,10436.903782
1018.510005,536.266849,-1628.453072,11029.068536
1018.510321,459.657299,-888.247130,10658.965565
1018.510637,689.485948,-0.000000,10066.800811
1018.510953,766.095498,592.164754,9252.574275
1018.511268,919.314598,1184.329507,8364.327145
1018.511584,612.876398,1184.329507,8364.327145
1018.511900,689.485948,740.205942,8660.409521
1018.512215,612.876398,-0.000000,9104.533087
1018.512531,153.219100,-962.267725,9474.636058
1018.512847,-153.219100,-1628.453072,10066.800811
1018.513163,-383.047749,-1924.535449,10066.800811
1018.513478,0.000000,-1702.473667,10288.862594
1018.513794,76.609550,-1184.329507,10510.924376
1018.514110,306.438199,-962.267725,10140.821405
1018.514425,1149.143247,148.041188,9400.615463
1018.514741,612.876398,814.226536,8364.327145
1018.515057,536.266849,1628.453072,8142.265362
1018.515373,842.705048,1702.473667,7846.182985
1018.515688,766.095498,1628.453072,8290.306550
1018.516004,229.828649,962.267725,8660.409521
1018.516320,0.000000,-148.041188,9252.574275
1018.516635,-766.095498,-1036.288319,9474.636058
1018.516951,-1225.752797,-1406.391290,10140.821405
1018.517267,-766.095498,-1998.556043,10807.006753
1018.517583,-1302.362347,-1406.391290,10881.027347
1018.517898,-689.485948,-592.164754,10288.862594
1018.518214,0.000000,148.041188,9770.718434
1018.518530,383.047749,1628.453072,8956.491898
1018.518846,383.047749,1924.535449,8216.285956
1018.519161,842.705048,2220.617826,7772.162391
1018.519477,536.266849,1850.514855,8290.306550
1018.519793,459.657299,666.185348,8660.409521
1018.520108,536.266849,-444.123565,9178.553681
1018.520424,0.000000,-1258.350101,9696.697840
1018.520740,76.609550,-1702.473667,10436.903782
1018.521056,229.828649,-1406.391290,10510.924376
1018.521371,0.000000,-888.247130,10140.821405
1018.521687,459.657299,222.061783,9992.780217
1018.522003,689.485948,1184.329507,9252.574275
1018.522318,766.095498,1628.453072,9104.533087
1018.522634,995.924147,2368.659014,8660.409521
1018.522950,995.924147,1850.514855,8438.347739
1018.523266,919.314598,1110.308913,8808.450710
1018.523581,919.314598,-0.000000,9474.636058
1018.523897,153.219100,-1628.453072,9474.636058
1018.524213,0.000000,-1628.453072,10510.924376
1018.524528,-229.828649,-1998.556043,10807.006753
1018.524844,0.000000,-1480.411884,11029.068536
1018.525160,766.095498,-666.185348,10955.047942
1018.525476,995.924147,296.082377,10066.800811
1018.525791,612.876398,1036.288319,9326.594869
1018.526107,1378.971896,1702.473667,8956.491898
1018.526423,1378.971896,1702.473667,8364.327145
1018.526739,1838.629195,1628.453072,8734.430116
1018.527054,1762.019645,666.185348,8734.430116
1018.527370,1302.362347,-0.000000,8808.450710
1018.527686,766.095498,-1258.350101,9696.697840
1018.528001,383.047749,-2072.576638,10214.842000
1018.528317,459.657299,-2368.659014,11103.089130
1018.528633,153.219100,-1924.535449,11251.130318
1018.528949,229.828649,-962.267725,10732.986159
1018.529264,306.438199,-0.000000,10140.821405
1018.529580,459.657299,814.226536,9474.636058
1018.529896,842.705048,1480.411884,9178.553681
1018.530211,612.876398,1554.432478,8438.347739
1018.530527,689.485948,740.205942,8364.327145
1018.530843,536.266849,-0.000000,8734.430116
1018.531159,153.219100,-1036.288319,9104.533087
1018.531474,0.000000,-2220.617826,9178.553681
1018.531790,-536.266849,-2590.720797,10140.821405
1018.532106,-766.095498,-2220.617826,10510.924376
1018.532421,-459.657299,-1628.453072,10510.924376
1018.532737,-229.828649,-740.205942,10214.842000
1018.533053,153.219100,296.082377,9548.656652
1018.533369,383.047749,888.247130,8586.388927
1018.533684,689.485948,1332.370696,7994.224174
1018.534000,689.485948,814.226536,8216.285956
1018.534316,459.657299,148.041188,8364.327145
1018.534632,306.438199,-518.144159,8512.368333
1018.534947,0.000000,-1258.350101,9252.574275
1018.535263,-459.657299,-2146.597232,9400.615463
1018.535579,-612.876398,-2294.638420,9844.739029
1018.535894,-766.095498,-2220.617826,10510.924376
1018.536210,153.219100,-1406.391290,10288.862594
1018.536526,0.000000,-518.144159,9548.656652
1018.536842,229.828649,592.164754,9400.615463
1018.537157,229.828649,1036.288319,8512.368333
1018.537473,689.485948,1258.350101,8216.285956
1018.537789,995.924147,1036.288319,7846.182985
1018.538104,689.485948,444.123565,8512.368333
1018.538420,306.438199,-148.041188,8956.491898
1018.538736,0.000000,-1036.288319,9326.594869
1018.539052,-306.438199,-2072.576638,9474.636058
1018.539367,-536.266849,-1850.514855,10140.821405
1018.539683,0.000000,-1924.535449,10584.944971
1018.539999,0.000000,-962.267725,10362.883188
1018.540315,383.047749,-0.000000,10140.821405
1018.540630,1378.971896,592.164754,9474.636058
1018.540946,995.924147,1332.370696,8660.409521
1018.541262,995.924147,1776.494261,8438.347739
1018.541577,1455.581446,1480.411884,8364.327145
1018.541893,1378.971896,1036.288319,8660.409521
1018.542209,995.924147,-74.020594,9326.594869
1018.542525,383.047749,-1110.308913,9696.697840
1018.542840,0.000000,-1998.556043,10584.944971
1018.543156,306.438199,-1998.556043,10881.027347
1018.543472,536.266849,-1776.494261,10807.006753
1018.543787,612.876398,-1110.308913,10881.027347
1018.544103,995.924147,296.082377,10436.903782
1018.544419,995.924147,814.226536,9474.636058
1018.544735,995.924147,1628.453072,8956.491898
1018.545050,1302.362347,1628.453072,8808.450710
1018.545366,1378.971896,1258.350101,8734.430116
1018.545682,1532.190996,962.267725,9030.512492
1018.545997,612.876398,-370.102971,9252.574275
1018.546313,229.828649,-1110.308913,9770.718434
1018.546629,153.219100,-1332.370696,10362.883188
1018.546945,229.828649,-1406.391290,10584.944971
1018.547260,536.266849,-1184.329507,11103.089130
1018.547576,612.876398,-518.144159,10658.965565
1018.547892,919.314598,222.061783,10066.800811
1018.548208,842.705048,740.205942,9474.636058
1018.548523,995.924147,1332.370696,8808.450710
1018.548839,995.924147,1776.494261,8512.368333
1018.549155,995.924147,1110.308913,8512.368333
1018.549470,689.485948,370.102971,8808.450710
1018.549786,459.657299,-740.205942,9844.739029
1018.550102,-383.047749,-1480.411884,9548.656652
1018.550418,-306.438199,-1998.556043,10066.800811
1018.550733,-459.657299,-1850.514855,10510.924376
1018.551049,-229.828649,-1406.391290,10658.965565
1018.551365,229.828649,-814.226536,10140.821405
1018.551680,536.266849,370.102971,9548.656652
1018.551996,612.876398,1184.329507,8586.388927
1018.552312,536.266849,1406.391290,8290.306550
1018.552628,689.485948,1406.391290,8216.285956
1018.552943,766.095498,1036.288319,8364.327145
1018.553259,229.828649,-0.000000,8438.347739
1018.553575,0.000000,-1184.329507,9326.594869
1018.553890,-536.266849,-1554.432478,9474.636058
1018.554206,-229.828649,-1998.556043,9992.780217
1018.554522,-689.485948,-1924.535449,10140.821405
1018.554838,-536.266849,-1406.391290,10584.944971
1018.555153,-306.438199,-740.205942,10066.800811
1018.555469,0.000000,-0.000000,9400.615463
1018.555785,153.219100,518.144159,8882.471304
1018.556101,383.047749,1406.391290,8068.244768
1018.556416,536.266849,1554.432478,8142.265362
1018.556732,766.095498,888.247130,8216.285956
1018.557048,612.876398,148.041188,8808.450710
1018.557363,229.828649,-740.205942,9104.533087
1018.557679,76.609550,-1702.473667,9844.739029
1018.557995,0.000000,-1924.535449,9992.780217
1018.558311,229.828649,-1702.473667,10436.903782
1018.558626,919.314598,-1110.308913,10510.924376
1018.558942,612.876398,-148.041188,9992.780217
1018.559258,842.705048,740.205942,9474.636058
1018.559573,1378.971896,1258.350101,9030.512492
1018.559889,1532.190996,1998.556043,8512.368333
1018.560205,1455.581446,1480.411884,8438.347739
1018.560521,1455.581446,962.267725,8512.368333
1018.560836,1149.143247,-0.000000,9104.533087
1018.561152,612.876398,-1332.370696,9548.656652
1018.561468,229.828649,-2220.617826,10214.842000
1018.561783,229.828649,-2294.638420,11029.068536
1018.562099,153.219100,-1554.432478,10881.027347
1018.562415,383.047749,-814.226536,10584.944971
1018.562731,689.485948,-0.000000,10436.903782
1018.563046,1225.752797,814.226536,9548.656652
1018.563362,1608.800546,1628.453072,8956.491898
1018.563678,1455.581446,1702.473667,8512.368333
1018.563994,1685.410096,888.247130,8660.409521
1018.564309,1532.190996,444.123565,8808.450710
1018.564625,1149.143247,-518.144159,9178.553681
1018.564941,995.924147,-1258.350101,9474.636058
1018.565256,536.266849,-1776.494261,10066.800811
1018.565572,459.657299,-1850.514855,10584.944971
1018.565888,536.266849,-1628.453072,11177.109724
1018.566204,536.266849,-740.205942,10584.944971
1018.566519,612.876398,148.041188,9992.780217
1018.566835,842.705048,1036.288319,9104.533087
1018.567151,995.924147,1554.432478,8586.388927
1018.567466,842.705048,1924.535449,8734.430116
1018.567782,1072.533697,1184.329507,8808.450710
1018.568098,0.000000,888.247130,8956.491898
1018.568414,153.219100,-814.226536,9474.636058
1018.568729,-536.266849,-1480.411884,9622.677246
1018.569045,-766.095498,-2146.597232,10436.903782
1018.569361,-689.485948,-2146.597232,10732.986159
1018.569676,-229.828649,-1258.350101,10807.006753
1018.569992,0.000000,-370.102971,10362.883188
1018.570308,306.438199,666.185348,9474.636058
1018.570624,459.657299,1258.350101,8808.450710
1018.570939,612.876398,1850.514855,8364.327145
1018.571255,689.485948,1776.494261,7994.224174
1018.571571,995.924147,1036.288319,8290.306550
1018.571887,383.047749,-0.000000,8956.491898
1018.572202,229.828649,-888.247130,9400.615463
1018.572518,0.000000,-2146.597232,9696.697840
1018.572834,-536.266849,-2368.659014,10140.821405
1018.573149,-689.485948,-1998.556043,10436.903782
1018.573465,-153.219100,-1332.370696,10510.924376
1018.573781,0.000000,-444.123565,10066.800811
1018.574097,-153.219100,370.102971,9252.574275
1018.574412,306.438199,1110.308913,8586.388927
1018.574728,689.485948,1332.370696,8290.306550
1018.575044,689.485948,1258.350101,8142.265362
1018.575359,612.876398,666.185348,8364.327145
1018.575675,306.438199,-0.000000,9030.512492
1018.575991,0.000000,-1332.370696,9030.512492
1018.576307,-229.828649,-2294.638420,9770.718434
1018.576622,-459.657299,-2072.576638,10510.924376
1018.576938,-383.047749,-1998.556043,10584.944971
1018.577254,153.219100,-1332.370696,10658.965565
1018.577570,383.047749,-222.061783,9770.718434
1018.577885,153.219100,444.123565,9252.574275
1018.578201,766.095498,1332.370696,8660.409521
1018.578517,842.705048,1628.453072,8512.368333
1018.578832,995.924147,1480.411884,8660.409521
1018.579148,1149.143247,740.205942,8734.430116
1018.579464,612.876398,-370.102971,8660.409521
1018.579780,383.047749,-1406.391290,9770.718434
1018.580095,-383.047749,-1776.494261,9918.759623
1018.580411,153.219100,-2146.597232,10584.944971
1018.580727,306.438199,-1628.453072,11177.109724
1018.581042,842.705048,-962.267725,10658.965565
1018.581358,919.314598,-0.000000,9992.780217
1018.581674,1225.752797,1036.288319,9252.574275
1018.581990,1302.362347,1702.473667,8586.388927
1018.582305,1608.800546,1702.473667,8216.285956
1018.582621,1685.410096,1332.370696,8586.388927
1018.582937,1608.800546,740.205942,8734.430116
1018.583252,1072.533697,-296.082377,9548.656652
1018.583568,536.266849,-1554.432478,9918.759623
1018.583884,229.828649,-1924.535449,10362.883188
1018.584200,229.828649,-1628.453072,10658.965565
1018.584515,459.657299,-1480.411884,10881.027347
1018.584831,689.485948,-592.164754,10510.924376
1018.585147,689.485948,148.041188,9696.697840
1018.585463,689.485948,888.247130,9252.574275
1018.585778,842.705048,1110.308913,8512.368333
1018.586094,919.314598,1184.329507,8586.388927
1018.586410,919.314598,666.185348,8734.430116
1018.586725,919.314598,-74.020594,9474.636058
1018.587041,689.485948,-962.267725,9474.636058
1018.587357,-229.828649,-1258.350101,9844.739029
1018.587673,-306.438199,-1998.556043,10140.821405
1018.587988,153.219100,-1850.514855,10658.965565
1018.588304,153.219100,-1406.391290,10510.924376
1018.588620,383.047749,-222.061783,10214.842000
1018.588935,689.485948,444.123565,9474.636058
1018.589251,612.876398,1110.308913,8586.388927
1018.589567,-229.828649,1554.432478,8438.347739
1018.589883,383.047749,1554.432478,7994.224174
1018.590198,306.438199,814.226536,8364.327145
1018.590514,76.609550,-0.000000,8734.430116
1018.590830,-536.266849,-1480.411884,9548.656652
1018.591145,-1072.533697,-2072.576638,10362.883188
1018.591461,-1072.533697,-2294.638420,10584.944971
1018.591777,-995.924147,-1924.535449,10732.986159
1018.592093,-766.095498,-1110.308913,10658.965565
1018.592408,0.000000,-0.000000,9992.780217
1018.592724,229.828649,962.267725,9104.533087
1018.593040,306.438199,1554.432478,8216.285956
1018.593356,689.485948,1480.411884,8290.306550
1018.593671,1072.533697,1554.432478,8290.306550
1018.593987,842.705048,518.144159,8660.409521
1018.594303,689.485948,74.020594,8660.409521
1018.594618,536.266849,-888.247130,9252.574275
1018.594934,153.219100,-1554.432478,9696.697840
1018.595250,76.609550,-1258.350101,10066.800811
1018.595566,153.219100,-1406.391290,10436.903782
1018.595881,459.657299,-592.164754,10584.944971
1018.596197,229.828649,370.102971,9844.739029
1018.596513,612.876398,1110.308913,9252.574275
1018.596828,1072.533697,1332.370696,8586.388927
1018.597144,689.485948,1406.391290,8438.347739
1018.597460,995.924147,1184.329507,8882.471304
1018.597776,766.095498,592.164754,8808.450710
1018.598091,766.095498,-148.041188,9400.615463
1018.598407,383.047749,-1628.453072,9696.697840
1018.598723,76.609550,-1776.494261,9992.780217
1018.599038,76.609550,-1924.535449,10436.903782
1018.599354,383.047749,-1628.453072,10584.944971
1018.599670,612.876398,-666.185348,10584.944971
1018.599986,766.095498,-0.000000,9992.780217
1018.600301,919.314598,1036.288319,9474.636058
1018.600617,1302.362347,1480.411884,8512.368333
1018.600933,1302.362347,1628.453072,8660.409521
1018.601249,1608.800546,888.247130,8734.430116
1018.601564,1149.143247,444.123565,8956.491898
1018.601880,1072.533697,-592.164754,9400.615463
1018.602196,383.047749,-1480.411884,9696.697840
1018.602511,0.000000,-1702.473667,10510.924376
1018.602827,76.609550,-2738.761985,11029.068536
1018.603143,306.438199,-1332.370696,10807.006753
1018.603459,459.657299,-296.082377,10584.944971
1018.603774,689.485948,444.123565,9992.780217
1018.604089,766.095498,1110.308913,8882.471304
1018.604405,1225.752797,1258.350101,8882.471304
1018.604721,919.314598,1776.494261,8586.388927
1018.605037,842.705048,888.247130,8660.409521
1018.605353,0.000000,148.041188,8956.491898
1018.605668,0.000000,-1184.329507,9548.656652
1018.605984,-766.095498,-2220.617826,9918.759623
1018.606300,-612.876398,-2516.700203,10288.862594
1018.606616,-612.876398,-2072.576638,10807.006753
1018.606932,-306.438199,-1332.370696,10436.903782
1018.607247,-229.828649,-740.205942,9918.759623
1018.607563,0.000000,370.102971,9696.697840
1018.607879,306.438199,1110.308913,8660.409521
1018.608195,612.876398,1258.350101,7994.224174
1018.608511,842.705048,1184.329507,7994.224174
1018.608826,689.485948,444.123565,8290.306550
1018.609142,766.095498,-740.205942,8882.471304
1018.609458,383.047749,-1332.370696,9252.574275
1018.609774,-536.266849,-1998.556043,9474.636058
1018.610090,-306.438199,-2294.638420,10214.842000
1018.610405,-229.828649,-2146.597232,10658.965565
1018.610721,0.000000,-1406.391290,10362.883188
1018.611037,0.000000,-74.020594,9696.697840
1018.611353,153.219100,666.185348,9030.512492
1018.611669,612.876398,1258.350101,8512.368333
1018.611984,306.438199,1702.473667,8142.265362
1018.612300,689.485948,518.144159,8364.327145
1018.612616,766.095498,592.164754,8660.409521
1018.612932,459.657299,-444.123565,8882.471304
1018.613248,0.000000,-1480.411884,9400.615463
1018.613563,-229.828649,-2220.617826,10066.800811
1018.613879,-459.657299,-2368.659014,10510.924376
1018.614195,-153.219100,-1554.432478,10807.006753
1018.614511,153.219100,-592.164754,10658.965565
1018.614827,459.657299,370.102971,9696.697840
1018.615143,766.095498,962.267725,8660.409521
1018.615458,1378.971896,1406.391290,8364.327145
1018.615774,1302.362347,1480.411884,8142.265362
1018.616090,1302.362347,1036.288319,8586.388927
1018.616406,1378.971896,-0.000000,8882.471304
1018.616722,1225.752797,-666.185348,9400.615463
1018.617037,459.657299,-1628.453072,9992.780217
1018.617353,383.047749,-1924.535449,10288.862594
1018.617669,306.438199,-1850.514855,10658.965565
1018.617985,536.266849,-962.267725,11029.068536
1018.618301,766.095498,-148.041188,10510.924376
1018.618616,689.485948,444.123565,9622.677246
1018.618932,1225.752797,1184.329507,9400.615463
1018.619248,1225.752797,1406.391290,8808.450710
1018.619564,1455.581446,1480.411884,8734.430116
1018.619880,1072.533697,740.205942,9178.553681
1018.620195,1225.752797,-0.000000,9178.553681
1018.620511,766.095498,-518.144159,9474.636058
1018.620827,383.047749,-1110.308913,9844.739029
1018.621143,0.000000,-1628.453072,10066.800811
1018.621459,306.438199,-1332.370696,10658.965565
1018.621774,0.000000,-1036.288319,10584.944971
1018.622090,536.266849,-74.020594,10510.924376
1018.622406,306.438199,518.144159,9844.739029
1018.622722,842.705048,888.247130,9030.512492
1018.623038,1378.971896,1332.370696,8660.409521
1018.623353,995.924147,1332.370696,8660.409521
1018.623669,842.705048,888.247130,8734.430116
1018.623985,536.266849,-0.000000,8586.388927
1018.624301,229.828649,-740.205942,9400.615463
1018.624617,0.000000,-1924.535449,10066.800811
1018.624932,-153.219100,-1998.556043,10140.821405
1018.625248,-229.828649,-1554.432478,10510.924376
1018.625564,-306.438199,-962.267725,10214.842000
1018.625880,229.828649,-222.061783,9844.739029
1018.626196,459.657299,888.247130,9548.656652
1018.626512,383.047749,1184.329507,8882.471304
1018.626827,306.438199,1480.411884,8142.265362
1018.627143,383.047749,1480.411884,8068.244768
1018.627459,76.609550,888.247130,8512.368333
1018.627775,0.000000,-0.000000,8882.471304
1018.628091,-383.047749,-1184.329507,9400.615463
1018.628406,-689.485948,-1554.432478,9548.656652
1018.628722,-1072.533697,-2146.597232,10362.883188
1018.629038,-689.485948,-1850.514855,10881.027347
1018.629354,-306.438199,-1332.370696,10288.862594
1018.629670,0.000000,-0.000000,9770.718434
1018.629985,229.828649,814.226536,8956.491898
1018.630301,459.657299,1554.432478,8438.347739
1018.630617,612.876398,1628.453072,8290.306550
1018.630933,919.314598,1924.535449,8142.265362
1018.631249,1149.143247,1258.350101,8364.327145
1018.631564,612.876398,-74.020594,8660.409521
1018.631880,383.047749,-1110.308913,9252.574275
1018.632196,383.047749,-1554.432478,9992.780217
1018.632512,153.219100,-1924.535449,10362.883188
1018.632828,229.828649,-1406.391290,10436.903782
1018.633143,383.047749,-740.205942,10436.903782
1018.633459,689.485948,296.082377,10066.800811
1018.633775,1149.143247,888.247130,9178.553681
1018.634091,1455.581446,1480.411884,8808.450710
1018.634407,995.924147,1628.453072,8216.285956
1018.634722,1302.362347,1554.432478,8808.450710
1018.635038,1225.752797,888.247130,8734.430116
1018.635354,1455.581446,-370.102971,9474.636058
1018.635670,459.657299,-1480.411884,9918.759623
1018.635986,306.438199,-2220.617826,10584.944971
1018.636301,76.609550,-2220.617826,11103.089130
1018.636617,612.876398,-1998.556043,11029.068536
1018.636933,306.438199,-666.185348,10658.965565
1018.637249,536.266849,444.123565,9992.780217
1018.637565,1225.752797,1406.391290,9252.574275
1018.637881,1455.581446,1776.494261,8734.430116
1018.638196,1455.581446,1332.370696,8438.347739
1018.638512,1608.800546,370.102971,8808.450710
1018.638828,1302.362347,-222.061783,9252.574275
1018.639144,1225.752797,-1184.329507,9548.656652
1018.639460,383.047749,-1850.514855,9992.780217
1018.639775,229.828649,-2442.679609,10955.047942
1018.640091,383.047749,-2072.576638,11029.068536
1018.640407,383.047749,-1184.329507,10732.986159
1018.640723,306.438199,-222.061783,10214.842000
1018.641039,612.876398,740.205942,9474.636058
1018.641354,842.705048,1258.350101,8438.347739
1018.641670,766.095498,1406.391290,8216.285956
1018.641986,689.485948,1406.391290,8364.327145
1018.642302,766.095498,296.082377,8660.409521
1018.642618,0.000000,-444.123565,8808.450710
1018.642933,-153.219100,-1702.473667,9400.615463
1018.643249,-766.095498,-2072.576638,9918.759623
1018.643565,-1149.143247,-2294.638420,10510.924376
1018.643881,-842.705048,-1998.556043,10732.986159
1018.644197,-689.485948,-1184.329507,10436.903782
1018.644512,-383.047749,-444.123565,9918.759623
1018.644828,0.000000,518.144159,8808.450710
1018.645144,0.000000,1258.350101,8290.306550
1018.645460,459.657299,1628.453072,8068.244768
1018.645776,229.828649,1110.308913,8290.306550
1018.646091,383.047749,370.102971,8216.285956
1018.646407,306.438199,-444.123565,8734.430116
1018.646723,-383.047749,-1110.308913,9326.594869
1018.647039,-689.485948,-1998.556043,9844.739029
1018.647355,-689.485948,-1850.514855,10214.842000
1018.647670,-383.047749,-1702.473667,10732.986159
1018.647986,0.000000,-888.247130,10362.883188
1018.648302,612.876398,-0.000000,9844.739029
1018.648618,383.047749,592.164754,8882.471304
1018.648934,306.438199,1332.370696,8512.368333
1018.649250,919.314598,1776.494261,7994.224174
1018.649565,612.876398,1480.411884,8660.409521
1018.649881,459.657299,888.247130,8808.450710
1018.650197,0.000000,-0.000000,9178.553681
1018.650513,-612.876398,-1184.329507,9770.718434
1018.650829,-612.876398,-1850.514855,10732.986159
1018.651144,-306.438199,-1924.535449,10881.027347
1018.651460,-229.828649,-1184.329507,11029.068536
1018.651776,76.609550,-148.041188,10510.924376
1018.652092,612.876398,740.205942,10214.842000
1018.652408,766.095498,1110.308913,9252.574275
1018.652723,1225.752797,1406.391290,8586.388927
1018.653039,1532.190996,1406.391290,8438.347739
1018.653355,1838.629195,962.267725,8438.347739
1018.653671,1378.971896,444.123565,8808.450710
1018.653987,1455.581446,-222.061783,9474.636058
1018.654302,995.924147,-1258.350101,9622.677246
1018.654618,612.876398,-1850.514855,9992.780217
1018.654934,766.095498,-1702.473667,10807.006753
1018.655250,842.705048,-1406.391290,11029.068536
1018.655566,1225.752797,-444.123565,10436.903782
1018.655881,1302.362347,222.061783,9992.780217
1018.656197,1608.800546,740.205942,9178.553681
1018.656513,1608.800546,1554.432478,8660.409521
1018.656829,1302.362347,1480.411884,8512.368333
1018.657145,1455.581446,1258.350101,8808.450710
1018.657460,1302.362347,222.061783,8956.491898
1018.657776,536.266849,-814.226536,9622.677246
1018.658092,306.438199,-1628.453072,10066.800811
1018.658408,76.609550,-1998.556043,10362.883188
1018.658724,306.438199,-1776.494261,10881.027347
1018.659039,536.266849,-1036.288319,10510.924376
1018.659355,766.095498,-370.102971,10362.883188
1018.659671,842.705048,222.061783,9548.656652
1018.659987,1302.362347,1110.308913,8586.388927
1018.660303,1072.533697,1406.391290,8438.347739
1018.660618,1149.143247,1110.308913,8142.265362
1018.660934,1072.533697,-0.000000,8882.471304
1018.661250,536.266849,-296.082377,9030.512492
1018.661566,229.828649,-1110.308913,9252.574275
1018.661882,-229.828649,-1924.535449,9622.677246
1018.662198,-229.828649,-2146.597232,9770.718434
1018.662513,0.000000,-2072.576638,10362.883188
1018.662829,-459.657299,-1332.370696,10362.883188
1018.663145,0.000000,-444.123565,9622.677246
1018.663461,0.000000,-0.000000,8882.471304
1018.663777,229.828649,814.226536,8364.327145
1018.664092,229.828649,962.267725,7772.162391
1018.664408,153.219100,1110.308913,8216.285956
1018.664724,0.000000,518.144159,8364.327145
1018.665040,-612.876398,-444.123565,8586.388927
1018.665356,-995.924147,-1554.432478,9474.636058
1018.665671,-1149.143247,-2294.638420,10066.800811
1018.665987,-1302.362347,-2368.659014,10288.862594
1018.666303,-1072.533697,-1776.494261,10807.006753
1018.666619,-1149.143247,-962.267725,10140.821405
1018.666935,-459.657299,148.041188,9844.739029
1018.667250,0.000000,962.267725,9252.574275
1018.667566,306.438199,1776.494261,8364.327145
1018.667882,459.657299,1850.514855,8216.285956
1018.668198,1072.533697,1258.350101,8290.306550
1018.668514,842.705048,370.102971,8512.368333
1018.668829,995.924147,-370.102971,9178.553681
1018.669145,306.438199,-1258.350101,9474.636058
1018.669461,0.000000,-1702.473667,9918.759623
1018.669777,76.609550,-1406.391290,10510.924376
1018.670093,612.876398,-814.226536,10510.924376
1018.670408,766.095498,-0.000000,10288.862594
1018.670724,536.266849,814.226536,9918.759623
1018.671040,689.485948,1184.329507,9178.553681
1018.671356,1149.143247,1702.473667,8882.471304
1018.671672,1302.362347,1554.432478,8660.409521
1018.671987,1302.362347,1332.370696,9030.512492
1018.672303,766.095498,592.164754,9178.553681
1018.672619,612.876398,-296.082377,9844.739029
1018.672935,383.047749,-1406.391290,10140.821405
1018.673251,842.705048,-1702.473667,10881.027347
1018.673567,229.828649,-1554.432478,11325.150913
1018.673882,459.657299,-814.226536,11029.068536
1018.674198,919.314598,-0.000000,10658.965565
1018.674514,1225.752797,814.226536,9844.739029
1018.674830,1685.410096,1480.411884,9104.533087
1018.675146,1838.629195,2294.638420,8512.368333
1018.675461,2145.067394,2146.597232,8438.347739
1018.675777,2145.067394,1184.329507,8734.430116
1018.676093,1762.019645,444.123565,9400.615463
1018.676409,1225.752797,-888.247130,9326.594869
1018.676725,459.657299,-1776.494261,10140.821405
1018.677040,0.000000,-1998.556043,10658.965565
1018.677356,0.000000,-1850.514855,10881.027347
1018.677672,459.657299,-962.267725,10955.047942
1018.677988,153.219100,-74.020594,10288.862594
1018.678304,229.828649,444.123565,9400.615463
1018.678619,536.266849,1258.350101,8586.388927
1018.678935,766.095498,1406.391290,7994.224174
1018.679251,919.314598,1332.370696,8142.265362
1018.679567,306.438199,592.164754,8290.306550
1018.679883,153.219100,-222.061783,9104.533087
1018.680198,-153.219100,-1258.350101,9178.553681
1018.680514,-612.876398,-2072.576638,9770.718434
1018.680830,-1072.533697,-2442.679609,10288.862594
1018.681146,-612.876398,-2368.659014,10436.903782
1018.681462,-689.485948,-1184.329507,10214.842000
1018.681777,0.000000,-148.041188,9622.677246
1018.682093,153.219100,444.123565,8808.450710
1018.682409,842.705048,888.247130,8216.285956
1018.682725,459.657299,1702.473667,7920.203579
1018.683041,536.266849,1184.329507,7846.182985
1018.683356,229.828649,592.164754,8512.368333
1018.683672,76.609550,-740.205942,8808.450710
1018.683988,-689.485948,-1776.494261,9400.615463
1018.684304,-766.095498,-2294.638420,10066.800811
1018.684620,-842.705048,-2664.741391,10510.924376
1018.684936,-459.657299,-2146.597232,10807.006753
1018.685251,-229.828649,-1036.288319,10584.944971
1018.685567,0.000000,-444.123565,9992.780217
1018.685883,229.828649,1036.288319,8956.491898
1018.686199,766.095498,1332.370696,8216.285956
1018.686515,919.314598,1554.432478,8216.285956
1018.686830,766.095498,814.226536,8216.285956
1018.687146,612.876398,-74.020594,8660.409521
1018.687462,689.485948,-888.247130,9252.574275
1018.687778,76.609550,-1850.514855,9474.636058
1018.688094,-383.047749,-2368.659014,10140.821405
1018.688409,229.828649,-2146.597232,10881.027347
1018.688725,0.000000,-1702.473667,10807.006753
1018.689041,229.828649,-592.164754,10510.924376
1018.689357,612.876398,148.041188,9770.718434
1018.689673,766.095498,962.267725,8956.491898
1018.689988,766.095498,1406.391290,8956.491898
1018.690304,1455.581446,1406.391290,8660.409521
1018.690620,1302.362347,592.164754,8586.388927
1018.690936,919.314598,-296.082377,9252.574275
1018.691252,919.314598,-1554.432478,9770.718434
1018.691567,459.657299,-1850.514855,10140.821405
1018.691883,459.657299,-1850.514855,10436.903782
1018.692199,689.485948,-1406.391290,10510.924376
1018.692515,842.705048,-740.205942,10584.944971
1018.692831,1225.752797,148.041188,10436.903782
1018.693146,1608.800546,740.205942,9548.656652
1018.693462,1685.410096,1258.350101,8956.491898
1018.693778,1838.629195,1702.473667,8586.388927
1018.694094,1838.629195,1480.411884,8290.306550
1018.694410,1915.238745,592.164754,8586.388927
1018.694725,1149.143247,-148.041188,9326.594869
1018.695041,612.876398,-1258.350101,9770.718434
1018.695357,153.219100,-1554.432478,10362.883188
1018.695673,76.609550,-1924.535449,10510.924376
1018.695989,76.609550,-1184.329507,10584.944971
1018.696305,153.219100,-592.164754,10658.965565
1018.696620,459.657299,-0.000000,10140.821405
1018.696936,612.876398,740.205942,9252.574275
1018.697252,995.924147,1184.329507,8438.347739
1018.697568,766.095498,1184.329507,8364.327145
1018.697884,842.705048,888.247130,8586.388927
1018.698199,766.095498,296.082377,8660.409521
1018.698515,459.657299,-222.061783,8956.491898
1018.698831,306.438199,-1480.411884,9400.615463
1018.699147,-306.438199,-1702.473667,9918.759623
1018.699463,-536.266849,-1776.494261,10066.800811
1018.699778,0.000000,-1332.370696,10436.903782
1018.700094,-229.828649,-666.185348,10066.800811
1018.700410,0.000000,222.061783,9474.636058
1018.700726,383.047749,666.185348,8956.491898
1018.701042,0.000000,1110.308913,8290.306550
1018.701357,383.047749,1332.370696,8216.285956
1018.701673,153.219100,1036.288319,8512.368333
1018.701989,229.828649,222.061783,8364.327145
1018.702305,-383.047749,-296.082377,9178.553681
1018.702621,-689.485948,-1184.329507,9474.636058
1018.702936,-995.924147,-1702.473667,9992.780217
1018.703252,-995.924147,-1850.514855,10362.883188
1018.703568,-766.095498,-1332.370696,10807.006753
1018.703884,-383.047749,-888.247130,10288.862594
1018.704200,-306.438199,-0.000000,9844.739029
1018.704515,76.609550,1110.308913,8956.491898
1018.704831,459.657299,1702.473667,8142.265362
1018.705147,612.876398,1554.432478,8438.347739
1018.705463,766.095498,1554.432478,8216.285956
1018.705779,766.095498,666.185348,8956.491898
1018.706095,536.266849,-370.102971,9252.574275
1018.706411,229.828649,-888.247130,9400.615463
1018.706726,0.000000,-1702.473667,10288.862594
1018.707042,536.266849,-1406.391290,10584.944971
1018.707358,459.657299,-814.226536,10881.027347
1018.707674,306.438199,222.061783,10436.903782
1018.707990,919.314598,740.205942,10066.800811
1018.708306,766.095498,1258.350101,9252.574275
1018.708622,1072.533697,1702.473667,8734.430116
1018.708937,1302.362347,1776.494261,8364.327145
1018.709253,1072.533697,1258.350101,9030.512492
1018.709569,1225.752797,296.082377,9326.594869
1018.709885,919.314598,-888.247130,9474.636058
1018.710201,153.219100,-1406.391290,9992.780217
1018.710517,383.047749,-1480.411884,10510.924376
1018.710833,229.828649,-1406.391290,10807.006753
1018.711148,612.876398,-1332.370696,10955.047942
1018.711464,689.485948,-296.082377,10510.924376
1018.711780,995.924147,518.144159,9696.697840
1018.712096,1225.752797,1036.288319,9030.512492
1018.712412,1378.971896,1628.453072,8290.306550
1018.712728,1455.581446,1184.329507,8586.388927
1018.713044,1225.752797,740.205942,8808.450710
1018.713360,1608.800546,-0.000000,9326.594869
1018.713675,919.314598,-1110.308913,9474.636058
1018.713991,689.485948,-1924.535449,9696.697840
1018.714307,612.876398,-2220.617826,10066.800811
1018.714623,306.438199,-1924.535449,10436.903782
1018.714939,536.266849,-1036.288319,10658.965565
1018.715255,536.266849,-74.020594,9918.759623
1018.715571,766.095498,444.123565,9326.594869
1018.715886,612.876398,740.205942,8734.430116
1018.716202,842.705048,1184.329507,8216.285956
1018.716518,842.705048,888.247130,8512.368333
1018.716834,689.485948,370.102971,8586.388927
1018.717150,153.219100,-740.205942,8956.491898
1018.717466,-536.266849,-1702.473667,9770.718434
1018.717782,-766.095498,-1998.556043,10066.800811
1018.718097,-689.485948,-1998.556043,10510.924376
1018.718413,-459.657299,-1554.432478,10436.903782
1018.718729,0.000000,-814.226536,10584.944971
1018.719045,0.000000,-74.020594,9770.718434
1018.719361,0.000000,444.123565,8660.409521
1018.719677,-153.219100,888.247130,8364.327145
1018.719993,612.876398,1258.350101,8142.265362
1018.720308,689.485948,666.185348,8364.327145
1018.720624,229.828649,444.123565,8438.347739
1018.720940,536.266849,-518.144159,9030.512492
1018.721256,0.000000,-1406.391290,9696.697840
1018.721572,-306.438199,-2368.659014,9918.759623
1018.721888,-383.047749,-2368.659014,10732.986159
1018.722204,-153.219100,-1702.473667,10658.965565
1018.722519,-153.219100,-888.247130,9992.780217
1018.722835,153.219100,-0.000000,9696.697840
1018.723151,459.657299,666.185348,8808.450710
1018.723467,919.314598,1554.432478,8142.265362
1018.723783,842.705048,1702.473667,7772.162391
1018.724099,1072.533697,1110.308913,8142.265362
1018.724415,995.924147,296.082377,8586.388927
1018.724731,612.876398,-666.185348,9326.594869
1018.725046,-153.219100,-1998.556043,9548.656652
1018.725362,-459.657299,-2368.659014,10658.965565
1018.725678,-459.657299,-2294.638420,10955.047942
1018.725994,-383.047749,-1480.411884,10807.006753
1018.726310,0.000000,-444.123565,10881.027347
1018.726626,536.266849,370.102971,9770.718434
1018.726942,766.095498,1110.308913,8882.471304
1018.727257,1072.533697,1776.494261,8438.347739
1018.727573,1455.581446,1628.453072,8364.327145
1018.727889,1532.190996,888.247130,8586.388927
1018.728205,1608.800546,518.144159,8734.430116
1018.728521,1072.533697,-518.144159,9178.553681
1018.728837,383.047749,-1406.391290,10066.800811
1018.729153,842.705048,-1554.432478,10807.006753
1018.729468,383.047749,-1480.411884,10732.986159
1018.729784,842.705048,-888.247130,10955.047942
1018.730100,766.095498,-0.000000,10288.862594
1018.730416,1149.143247,592.164754,9622.677246
1018.730732,1149.143247,1110.308913,9252.574275
1018.731048,1302.362347,1850.514855,8660.409521
1018.731364,1072.533697,1850.514855,8660.409521
1018.731679,1072.533697,1036.288319,8956.491898
1018.731995,919.314598,-0.000000,9104.533087
1018.732311,383.047749,-1406.391290,9918.759623
1018.732627,0.000000,-1998.556043,10066.800811
1018.732943,-153.219100,-2294.638420,10732.986159
1018.733259,0.000000,-1998.556043,11029.068536
1018.733575,153.219100,-1184.329507,10732.986159
1018.733890,536.266849,-0.000000,10066.800811
1018.734206,766.095498,1110.308913,9252.574275
1018.734522,766.095498,1628.453072,8438.347739
1018.734838,995.924147,1480.411884,8290.306550
1018.735154,1072.533697,1110.308913,8512.368333
1018.735470,459.657299,-0.000000,8660.409521
1018.735786,459.657299,-740.205942,9178.553681
1018.736102,0.000000,-1850.514855,9474.636058
1018.736417,-383.047749,-2368.659014,10214.842000
1018.736733,-459.657299,-2516.700203,10510.924376
1018.737049,0.000000,-1628.453072,10436.903782
1018.737365,0.000000,-666.185348,9992.780217
1018.737681,306.438199,-0.000000,9474.636058
1018.737997,76.609550,814.226536,8586.388927
1018.738313,153.219100,1480.411884,8512.368333
1018.738628,229.828649,1332.370696,8216.285956
1018.738944,153.219100,1110.308913,8290.306550
1018.739260,0.000000,222.061783,8364.327145
1018.739576,-459.657299,-444.123565,9104.533087
1018.739892,-995.924147,-2146.597232,9474.636058
1018.740208,-995.924147,-1850.514855,9992.780217
1018.740524,-1149.143247,-2072.576638,10510.924376
1018.740839,-612.876398,-1554.432478,10658.965565
1018.741155,-229.828649,-666.185348,10066.800811
1018.741471,-383.047749,666.185348,9474.636058
1018.741787,76.609550,888.247130,8808.450710
1018.742103,306.438199,1628.453072,8216.285956
1018.742419,383.047749,1850.514855,8142.265362
1018.742735,766.095498,1258.350101,8216.285956
1018.743050,766.095498,-0.000000,8660.409521
1018.743366,229.828649,-666.185348,9400.615463
1018.743682,0.000000,-1480.411884,9622.677246
1018.743998,-229.828649,-1924.535449,10436.903782
1018.744314,-383.047749,-1776.494261,10510.924376
1018.744630,76.609550,-666.185348,10807.006753
1018.744946,689.485948,-0.000000,10584.944971
1018.745261,612.876398,666.185348,9622.677246
1018.745577,919.314598,1628.453072,8956.491898
1018.745893,1302.362347,1480.411884,8364.327145
1018.746209,1685.410096,1554.432478,8512.368333
1018.746525,1685.410096,1110.308913,8956.491898
1018.746841,1455.581446,370.102971,9178.553681
1018.747157,1072.533697,-740.205942,9622.677246
1018.747473,612.876398,-1702.473667,9918.759623
1018.747788,459.657299,-1702.473667,10584.944971
1018.748104,383.047749,-1554.432478,10955.047942
1018.748420,459.657299,-1036.288319,10881.027347
1018.748736,689.485948,-0.000000,10584.944971
1018.749052,689.485948,370.102971,9918.759623
1018.749368,1225.752797,1554.432478,9030.512492
1018.749684,1149.143247,1924.535449,8438.347739
1018.749999,1302.362347,1702.473667,8660.409521
1018.750315,1149.143247,888.247130,9104.533087
1018.750631,1455.581446,-148.041188,9326.594869
1018.750947,459.657299,-1332.370696,9770.718434
1018.751263,153.219100,-2146.597232,10214.842000
1018.751579,229.828649,-1924.535449,10510.924376
1018.751895,229.828649,-1480.411884,10881.027347
1018.752210,306.438199,-814.226536,10807.006753
1018.752526,612.876398,444.123565,10214.842000
1018.752842,919.314598,1258.350101,9030.512492
1018.753158,1149.143247,1776.494261,8290.306550
1018.753474,1149.143247,1480.411884,8364.327145
1018.753790,919.314598,814.226536,8438.347739
1018.754106,383.047749,148.041188,8882.471304
1018.754421,229.828649,-888.247130,9400.615463
1018.754737,-306.438199,-1258.350101,9696.697840
1018.755053,-689.485948,-2146.597232,10140.821405
1018.755369,-536.266849,-2146.597232,10436.903782
1018.755685,-689.485948,-1776.494261,10807.006753
1018.756001,-383.047749,-1036.288319,10584.944971
1018.756317,0.000000,-0.000000,9622.677246
1018.756632,306.438199,962.267725,8586.388927
1018.756948,536.266849,1184.329507,8068.244768
1018.757264,459.657299,1406.391290,7920.203579
1018.757580,306.438199,888.247130,8364.327145
1018.757896,306.438199,-74.020594,8586.388927
1018.758212,0.000000,-1184.329507,8956.491898
1018.758528,-229.828649,-2072.576638,9474.636058
1018.758844,-689.485948,-2368.659014,10140.821405
1018.759159,-536.266849,-2146.597232,10510.924376
1018.759475,-229.828649,-1406.391290,10436.903782
1018.759791,306.438199,-1110.308913,10288.862594
1018.760107,153.219100,222.061783,9178.553681
1018.760423,153.219100,962.267725,8512.368333
1018.760739,612.876398,1628.453072,8216.285956
1018.761055,1072.533697,1406.391290,8142.265362
1018.761370,383.047749,962.267725,8364.327145
1018.761686,383.047749,222.061783,8882.471304
1018.762002,76.609550,-1036.288319,9252.574275
1018.762318,-306.438199,-1776.494261,9696.697840
1018.762634,-153.219100,-2220.617826,10510.924376
1018.762950,-229.828649,-1776.494261,10807.006753
1018.763266,0.000000,-962.267725,10584.944971
1018.763581,459.657299,-370.102971,10214.842000
1018.763897,919.314598,666.185348,9548.656652
1018.764213,995.924147,1332.370696,9030.512492
1018.764529,1225.752797,1628.453072,8364.327145
1018.764845,1302.362347,1480.411884,8512.368333
1018.765161,1455.581446,962.267725,8808.450710
1018.765477,919.314598,-0.000000,9252.574275
1018.765792,766.095498,-962.267725,9696.697840
1018.766108,536.266849,-1480.411884,9992.780217
1018.766424,383.047749,-1850.514855,10807.006753
1018.766740,995.924147,-1850.514855,10955.047942
1018.767056,1302.362347,-1036.288319,10881.027347
1018.767372,995.924147,-0.000000,10214.842000
1018.767688,919.314598,1036.288319,9696.697840
1018.768004,1225.752797,1258.350101,9104.533087
1018.768319,1608.800546,1628.453072,8808.450710
1018.768635,1762.019645,1258.350101,8438.347739
1018.768951,1378.971896,666.185348,9104.533087
1018.769267,1225.752797,-222.061783,9474.636058
1018.769583,612.876398,-1258.350101,9696.697840
1018.769899,536.266849,-1554.432478,10362.883188
1018.770215,383.047749,-1924.535449,10436.903782
1018.770530,229.828649,-1110.308913,10881.027347
1018.770846,536.266849,-592.164754,10881.027347
1018.771162,842.705048,-0.000000,10066.800811
1018.771478,919.314598,962.267725,9178.553681
1018.771794,995.924147,1258.350101,8512.368333
1018.772110,842.705048,1332.370696,8216.285956
1018.772426,919.314598,962.267725,8512.368333
1018.772741,842.705048,296.082377,8660.409521
1018.773057,306.438199,-518.144159,9326.594869
1018.773373,-306.438199,-2294.638420,9400.615463
1018.773689,-306.438199,-2072.576638,9992.780217
1018.774005,-612.876398,-2072.576638,10510.924376
1018.774321,-536.266849,-1628.453072,10436.903782
1018.774637,0.000000,-814.226536,10288.862594
1018.774952,76.609550,-0.000000,9474.636058
1018.775268,229.828649,1036.288319,8586.388927
1018.775584,229.828649,1480.411884,8142.265362
1018.775900,229.828649,1628.453072,7920.203579
1018.776216,612.876398,962.267725,8216.285956
1018.776532,536.266849,-148.041188,8512.368333
1018.776848,-306.438199,-962.267725,8734.430116
1018.777163,-612.876398,-2072.576638,9696.697840
1018.777479,-842.705048,-1998.556043,10140.821405
1018.777795,-995.924147,-1850.514855,10214.842000
1018.778111,-689.485948,-1258.350101,10288.862594
1018.778427,-306.438199,-370.102971,10140.821405
1018.778743,0.000000,518.144159,9326.594869
1018.779059,0.000000,1332.370696,8512.368333
1018.779375,383.047749,1702.473667,8142.265362
1018.779690,229.828649,1332.370696,8364.327145
1018.780006,689.485948,740.205942,8290.306550
1018.780322,153.219100,-148.041188,8734.430116
1018.780638,153.219100,-888.247130,9252.574275
1018.780954,0.000000,-1998.556043,9844.739029
1018.781270,-612.876398,-1702.473667,10436.903782
1018.781586,0.000000,-1702.473667,10732.986159
1018.781901,0.000000,-1184.329507,10807.006753
1018.782217,229.828649,-74.020594,10066.800811
1018.782533,1225.752797,518.144159,9400.615463
1018.782849,995.924147,1406.391290,8882.471304
1018.783165,1302.362347,1702.473667,8364.327145
1018.783481,1532.190996,1776.494261,8438.347739
1018.783797,1532.190996,1258.350101,8364.327145
1018.784112,1149.143247,148.041188,8956.491898
1018.784428,1149.143247,-666.185348,9696.697840
1018.784744,536.266849,-1628.453072,10140.821405
1018.785060,229.828649,-1628.453072,10584.944971
1018.785376,459.657299,-1776.494261,10807.006753
1018.785692,766.095498,-1776.494261,10955.047942
1018.786008,1072.533697,-74.020594,10362.883188
1018.786323,995.924147,592.164754,9770.718434
1018.786639,1072.533697,1258.350101,9252.574275
1018.786955,1378.971896,1702.473667,8660.409521
1018.787271,1608.800546,1406.391290,8734.430116
1018.787587,1532.190996,518.144159,9030.512492
1018.787903,1225.752797,-222.061783,9326.594869
1018.788219,919.314598,-1036.288319,9696.697840
1018.788534,689.485948,-1702.473667,10214.842000
1018.788850,612.876398,-1924.535449,10362.883188
1018.789166,1072.533697,-1480.411884,10658.965565
1018.789482,1072.533697,-222.061783,10362.883188
1018.789798,919.314598,148.041188,9844.739029
1018.790114,995.924147,740.205942,9178.553681
1018.790430,1072.533697,1406.391290,8734.430116
1018.790746,1072.533697,1702.473667,8586.388927
1018.791061,766.095498,1110.308913,8660.409521
1018.791377,612.876398,444.123565,8808.450710
1018.791693,0.000000,-444.123565,9178.553681
1018.792009,-229.828649,-1702.473667,9918.759623
1018.792325,-766.095498,-2442.679609,10288.862594
1018.792641,-995.924147,-2368.659014,10955.047942
1018.792957,-766.095498,-2220.617826,10658.965565
1018.793272,-383.047749,-1184.329507,10807.006753
1018.793588,0.000000,-0.000000,9548.656652
1018.793904,153.219100,666.185348,8734.430116
1018.794220,459.657299,1332.370696,7994.224174
1018.794536,766.095498,1702.473667,7698.141797
1018.794852,842.705048,1332.370696,8438.347739
1018.795168,459.657299,296.082377,8438.347739
1018.795483,383.047749,-666.185348,8882.471304
1018.795799,-153.219100,-1850.514855,9178.553681
1018.796115,-536.266849,-2368.659014,10066.800811
1018.796431,-383.047749,-2368.659014,10807.006753
1018.796747,-536.266849,-1776.494261,10510.924376
1018.797063,-229.828649,-814.226536,10066.800811
1018.797379,0.000000,296.082377,9474.636058
1018.797694,0.000000,1036.288319,9104.533087
1018.798010,153.219100,1406.391290,8068.244768
1018.798326,459.657299,1554.432478,8660.409521
1018.798642,766.095498,814.226536,8438.347739
1018.798958,383.047749,-0.000000,8808.450710
1018.799274,76.609550,-1110.308913,9252.574275
1018.799590,-229.828649,-1776.494261,9696.697840
1018.799905,-229.828649,-2220.617826,10436.903782
1018.800221,-306.438199,-1924.535449,10658.965565
1018.800537,0.000000,-1036.288319,10658.965565
1018.800853,536.266849,-222.061783,10066.800811
1018.801169,766.095498,814.226536,9400.615463
1018.801485,919.314598,1554.432478,8734.430116
1018.801801,1302.362347,1998.556043,8216.285956
1018.802117,1378.971896,1702.473667,8512.368333
1018.802432,1455.581446,1110.308913,8956.491898
1018.802748,1072.533697,-0.000000,9104.533087
1018.803064,842.705048,-888.247130,9474.636058
1018.803380,229.828649,-1924.535449,10140.821405
1018.803696,383.047749,-2220.617826,10732.986159
1018.804012,229.828649,-1850.514855,11177.109724
1018.804327,536.266849,-592.164754,11177.109724
1018.804643,766.095498,370.102971,10362.883188
1018.804959,995.924147,814.226536,9474.636058
1018.805275,1302.362347,1258.350101,8882.471304
1018.805591,1378.971896,1702.473667,8512.368333
1018.805906,1762.019645,1184.329507,8882.471304
1018.806222,1685.410096,296.082377,9030.512492
1018.806538,842.705048,-370.102971,9474.636058
1018.806854,689.485948,-1406.391290,9696.697840
1018.807170,153.219100,-1776.494261,10362.883188
1018.807486,306.438199,-1776.494261,10881.027347
1018.807801,76.609550,-1258.350101,10807.006753
1018.808117,1072.533697,-592.164754,10436.903782
1018.808433,842.705048,592.164754,9992.780217
1018.808749,689.485948,1036.288319,9326.594869
1018.809065,1072.533697,1258.350101,8290.306550
1018.809381,1072.533697,1036.288319,8586.388927
1018.809696,1149.143247,740.205942,8660.409521
1018.810012,842.705048,-0.000000,9030.512492
1018.810328,306.438199,-814.226536,9178.553681
1018.810644,-612.876398,-1776.494261,9770.718434
1018.810960,-383.047749,-2072.576638,10214.842000
1018.811275,-459.657299,-2146.597232,10288.862594
1018.811591,-306.438199,-1554.432478,10658.965565
1018.811907,-153.219100,-740.205942,10140.821405
1018.812223,0.000000,-0.000000,9178.553681
1018.812539,459.657299,814.226536,8438.347739
1018.812855,306.438199,1702.473667,7994.224174
1018.813170,383.047749,1258.350101,7994.224174
1018.813486,689.485948,814.226536,8290.306550
1018.813802,229.828649,-74.020594,8364.327145
1018.814118,229.828649,-1036.288319,9104.533087
1018.814434,-459.657299,-1850.514855,9918.759623
1018.814750,-766.095498,-1850.514855,9696.697840
1018.815065,-459.657299,-1554.432478,10214.842000
1018.815381,-459.657299,-1258.350101,10362.883188
1018.815697,-153.219100,-296.082377,10066.800811
1018.816013,0.000000,148.041188,9252.574275
1018.816329,76.609550,962.267725,8512.368333
1018.816645,229.828649,1258.350101,8364.327145
1018.816960,383.047749,1332.370696,8438.347739
1018.817276,306.438199,888.247130,8290.306550
1018.817592,0.000000,444.123565,8808.450710
1018.817908,-229.828649,-592.164754,9770.718434
1018.818224,-383.047749,-1258.350101,9844.739029
1018.818539,0.000000,-1554.432478,10288.862594
1018.818855,0.000000,-1184.329507,10510.924376
1018.819171,536.266849,-592.164754,10436.903782
1018.819487,766.095498,370.102971,10066.800811
1018.819803,919.314598,1110.308913,9400.615463
1018.820119,1072.533697,1406.391290,8882.471304
1018.820434,1378.971896,1776.494261,8586.388927
1018.820750,1532.190996,1554.432478,8660.409521
1018.821066,1225.752797,962.267725,9178.553681
1018.821382,995.924147,-74.020594,9400.615463
1018.821698,459.657299,-962.267725,9844.739029
1018.822014,306.438199,-1406.391290,10288.862594
1018.822329,0.000000,-1628.453072,10807.006753
1018.822645,229.828649,-1258.350101,11029.068536
1018.822961,612.876398,-518.144159,10807.006753
1018.823277,612.876398,222.061783,10362.883188
1018.823593,995.924147,888.247130,9696.697840
1018.823908,1149.143247,1184.329507,8956.491898
1018.824224,1225.752797,1332.370696,9104.533087
1018.824540,1455.581446,1554.432478,8882.471304
1018.824856,1302.362347,1110.308913,8734.430116
1018.825172,995.924147,-0.000000,9326.594869
1018.825488,612.876398,-814.226536,9992.780217
1018.825803,459.657299,-1628.453072,10436.903782
1018.826119,306.438199,-1776.494261,10510.924376
1018.826435,306.438199,-1628.453072,10881.027347
1018.826751,459.657299,-888.247130,10584.944971
1018.827067,76.609550,148.041188,10140.821405
1018.827383,766.095498,1036.288319,9474.636058
1018.827698,689.485948,1554.432478,8512.368333
1018.828014,536.266849,1776.494261,8290.306550
1018.828330,1149.143247,814.226536,8808.450710
1018.828646,459.657299,-148.041188,8808.450710
1018.828962,76.609550,-1036.288319,9474.636058
1018.829277,-229.828649,-2146.597232,9844.739029
1018.829593,-459.657299,-2516.700203,10214.842000
1018.829909,-536.266849,-2590.720797,10881.027347
1018.830225,-459.657299,-2294.638420,10510.924376
1018.830541,0.000000,-1110.308913,9992.780217
1018.830857,229.828649,-74.020594,9252.574275
1018.831172,459.657299,888.247130,8290.306550
1018.831488,766.095498,1554.432478,7994.224174
1018.831804,919.314598,1332.370696,7624.121203
1018.832120,919.314598,740.205942,7920.203579
1018.832436,689.485948,-74.020594,8216.285956
1018.832752,153.219100,-1184.329507,8808.450710
1018.833067,-383.047749,-2368.659014,9622.677246
1018.833383,-919.314598,-2590.720797,9992.780217
1018.833699,-689.485948,-2590.720797,10436.903782
1018.834015,-689.485948,-2146.597232,10732.986159
1018.834331,-536.266849,-1110.308913,10140.821405
1018.834646,0.000000,222.061783,9474.636058
1018.834962,-76.609550,962.267725,8734.430116
1018.835278,383.047749,1998.556043,8142.265362
1018.835594,766.095498,1850.514855,8068.244768
1018.835910,76.609550,1406.391290,7772.162391
1018.836226,536.266849,-148.041188,8956.491898
1018.836541,76.609550,-962.267725,9474.636058
1018.836857,0.000000,-2072.576638,9844.739029
1018.837173,-383.047749,-2368.659014,10732.986159
1018.837489,-306.438199,-1702.473667,10807.006753
1018.837805,0.000000,-888.247130,10584.944971
1018.838121,383.047749,74.020594,10066.800811
1018.838436,536.266849,888.247130,9548.656652
1018.838752,842.705048,1702.473667,8734.430116
1018.839068,995.924147,1776.494261,8586.388927
1018.839384,1378.971896,1258.350101,8512.368333
1018.839700,766.095498,518.144159,9104.533087
1018.840015,1225.752797,-444.123565,9474.636058
1018.840331,459.657299,-1406.391290,9918.759623
1018.840647,383.047749,-1850.514855,10955.047942
1018.840963,153.219100,-2146.597232,10955.047942
1018.841279,459.657299,-1406.391290,10955.047942
1018.841595,689.485948,-592.164754,10881.027347
1018.841910,995.924147,296.082377,10140.821405
1018.842226,1072.533697,1184.329507,9844.739029
1018.842542,1455.581446,1628.453072,8882.471304
1018.842858,1762.019645,2146.597232,8364.327145
1018.843174,1838.629195,1554.432478,8586.388927
1018.843490,1608.800546,814.226536,8956.491898
1018.843805,1302.362347,-222.061783,9474.636058
1018.844121,842.705048,-1480.411884,9918.759623
1018.844437,612.876398,-2072.576638,10510.924376
1018.844753,229.828649,-1850.514855,10807.006753
1018.845069,459.657299,-1332.370696,10658.965565
1018.845385,536.266849,-0.000000,10362.883188
1018.845700,459.657299,370.102971,9474.636058
1018.846016,766.095498,888.247130,9252.574275
1018.846332,1149.143247,1702.473667,8438.347739
1018.846648,1149.143247,1406.391290,8364.327145
1018.846964,842.705048,1036.288319,8512.368333
1018.847279,536.266849,-74.020594,8956.491898
1018.847595,153.219100,-1110.308913,9252.574275
1018.847911,-306.438199,-1702.473667,9770.718434
1018.848227,-306.438199,-2294.638420,10214.842000
1018.848543,-536.266849,-2294.638420,10510.924376
1018.848859,-383.047749,-1036.288319,10510.924376
1018.849174,383.047749,-222.061783,9770.718434
1018.849490,383.047749,518.144159,9252.574275
1018.849806,0.000000,1110.308913,8956.491898
1018.850122,536.266849,1628.453072,8142.265362
1018.850438,612.876398,1628.453072,7698.141797
1018.850754,383.047749,1110.308913,8290.306550
1018.851069,0.000000,-0.000000,8364.327145
1018.851385,-229.828649,-1184.329507,9326.594869
1018.851701,-612.876398,-2220.617826,9696.697840
1018.852017,-689.485948,-2368.659014,10214.842000
1018.852333,-842.705048,-2220.617826,10362.883188
1018.852648,-612.876398,-1258.350101,10288.862594
1018.852964,0.000000,-148.041188,9770.718434
1018.853280,76.609550,814.226536,8956.491898
1018.853596,612.876398,1554.432478,8290.306550
1018.853912,306.438199,1776.494261,7920.203579
1018.854228,383.047749,962.267725,8142.265362
1018.854543,842.705048,518.144159,8142.265362
1018.854859,689.485948,-518.144159,9030.512492
1018.855175,0.000000,-1628.453072,9548.656652
1018.855491,0.000000,-1554.432478,9918.759623
1018.855807,-229.828649,-1480.411884,10510.924376
1018.856123,229.828649,-1036.288319,10881.027347
1018.856438,306.438199,-296.082377,10362.883188
1018.856754,612.876398,888.247130,9622.677246
1018.857070,919.314598,814.226536,9548.656652
1018.857386,842.705048,1480.411884,8956.491898
1018.857702,995.924147,1850.514855,8512.368333
1018.858017,1302.362347,1110.308913,8660.409521
1018.858333,766.095498,592.164754,9178.553681
1018.858649,76.609550,-518.144159,9696.697840
1018.858965,383.047749,-1036.288319,9844.739029
1018.859281,306.438199,-1554.432478,10436.903782
1018.859597,76.609550,-1628.453072,10881.027347
1018.859912,383.047749,-1184.329507,11177.109724
1018.860228,919.314598,-444.123565,10436.903782
1018.860544,995.924147,518.144159,10066.800811
1018.860860,1072.533697,1110.308913,9178.553681
1018.861176,1302.362347,1924.535449,8660.409521
1018.861492,1455.581446,1850.514855,8438.347739
1018.861807,1302.362347,1332.370696,8882.471304
1018.862123,1072.533697,222.061783,8882.471304
1018.862439,995.924147,-1184.329507,9844.739029
1018.862755,459.657299,-2072.576638,10140.821405
1018.863071,153.219100,-2072.576638,10658.965565
1018.863386,306.438199,-2072.576638,10658.965565
1018.863702,766.095498,-1332.370696,10807.006753
1018.864018,919.314598,-148.041188,10288.862594
1018.864334,995.924147,666.185348,9548.656652
1018.864650,1149.143247,1554.432478,8734.430116
1018.864966,766.095498,1184.329507,8438.347739
1018.865281,766.095498,1332.370696,8216.285956
1018.865597,1072.533697,814.226536,8660.409521
1018.865913,766.095498,-370.102971,8956.491898
1018.866229,536.266849,-1184.329507,9474.636058
1018.866545,0.000000,-2072.576638,9770.718434
1018.866861,-383.047749,-2368.659014,10288.862594
1018.867176,-459.657299,-2220.617826,10807.006753
1018.867492,-306.438199,-1628.453072,10658.965565
1018.867808,-153.219100,-666.185348,10436.903782
1018.868124,229.828649,-74.020594,9474.636058
1018.868440,76.609550,814.226536,8660.409521
1018.868755,459.657299,1480.411884,7772.162391
1018.869071,919.314598,1258.350101,7698.141797
1018.869387,383.047749,888.247130,8438.347739
1018.869703,459.657299,-222.061783,8216.285956
1018.870019,0.000000,-1554.432478,9178.553681
1018.870335,-383.047749,-2146.597232,9696.697840
1018.870650,-612.876398,-2664.741391,10066.800811
1018.870966,0.000000,-2368.659014,10732.986159
1018.871282,-153.219100,-1184.329507,10288.862594
1018.871598,76.609550,-370.102971,9992.780217
1018.871914,383.047749,444.123565,9030.512492
1018.872230,842.705048,962.267725,8142.265362
1018.872545,1072.533697,1702.473667,7994.224174
1018.872861,766.095498,1332.370696,7846.182985
1018.873177,842.705048,740.205942,8364.327145
1018.873493,229.828649,-370.102971,8808.450710
1018.873809,0.000000,-1480.411884,9252.574275
1018.874125,-612.876398,-1850.514855,10214.842000
1018.874440,-383.047749,-2220.617826,10658.965565
1018.874756,0.000000,-1702.473667,10732.986159
1018.875072,0.000000,-888.247130,10807.006753
1018.875388,0.000000,-0.000000,10140.821405
1018.875704,689.485948,1110.308913,9548.656652
1018.876019,689.485948,1332.370696,8660.409521
1018.876335,766.095498,1850.514855,8438.347739
1018.876651,1149.143247,1480.411884,8364.327145
1018.876967,1225.752797,518.144159,9030.512492
1018.877283,766.095498,-740.205942,9622.677246
1018.877599,383.047749,-1628.453072,9918.759623
1018.877914,383.047749,-1776.494261,10510.924376
1018.878230,306.438199,-1628.453072,10658.965565
1018.878546,306.438199,-1110.308913,10658.965565
1018.878862,766.095498,-148.041188,10732.986159
1018.879178,842.705048,666.185348,9696.697840
1018.879494,1225.752797,1406.391290,9178.553681
1018.879809,995.924147,1998.556043,8882.471304
1018.880125,1455.581446,1628.453072,8290.306550
1018.880441,1149.143247,1110.308913,9104.533087
1018.880757,1225.752797,296.082377,8956.491898
1018.881073,459.657299,-592.164754,9770.718434
1018.881388,0.000000,-1406.391290,10066.800811
1018.881704,-229.828649,-2220.617826,10584.944971
1018.882020,0.000000,-1702.473667,10881.027347
1018.882336,153.219100,-1332.370696,11177.109724
1018.882652,153.219100,-444.123565,10658.965565
1018.882968,612.876398,592.164754,9770.718434
1018.883283,919.314598,1258.350101,8734.430116
1018.883599,612.876398,1702.473667,8290.306550
1018.883915,842.705048,1258.350101,7920.203579
1018.884231,1302.362347,1258.350101,8216.285956
1018.884547,919.314598,-0.000000,9104.533087
1018.884863,536.266849,-1480.411884,9770.718434
1018.885178,-229.828649,-2072.576638,9844.739029
1018.885494,-229.828649,-2368.659014,10214.842000
1018.885810,0.000000,-2072.576638,10732.986159
1018.886126,-306.438199,-1480.411884,10214.842000
1018.886442,306.438199,-518.144159,9844.739029
1018.886757,536.266849,740.205942,9252.574275
1018.887073,153.219100,1258.350101,8364.327145
1018.887389,612.876398,1480.411884,7772.162391
1018.887705,766.095498,1406.391290,8142.265362
1018.888021,612.876398,518.144159,8142.265362
1018.888337,383.047749,-370.102971,8882.471304
1018.888652,0.000000,-1332.370696,9326.594869
1018.888968,-459.657299,-1702.473667,9548.656652
1018.889284,-383.047749,-1998.556043,10214.842000
1018.889600,-919.314598,-1554.432478,10140.821405
1018.889916,-306.438199,-1184.329507,10584.944971
1018.890232,0.000000,-296.082377,9918.759623
1018.890547,76.609550,592.164754,9252.574275
1018.890863,0.000000,1036.288319,8882.471304
1018.891179,766.095498,1554.432478,8068.244768
1018.891495,612.876398,1480.411884,8068.244768
1018.891811,612.876398,962.267725,8364.327145
1018.892126,919.314598,-74.020594,9104.533087
1018.892442,459.657299,-1480.411884,9252.574275
1018.892758,76.609550,-2146.597232,9844.739029
1018.893074,153.219100,-2220.617826,10066.800811
1018.893390,306.438199,-1702.473667,10955.047942
1018.893706,766.095498,-592.164754,10732.986159
1018.894021,842.705048,518.144159,9696.697840
1018.894337,995.924147,1480.411884,8882.471304
1018.894653,1225.752797,1998.556043,8512.368333
1018.894969,1149.143247,1850.514855,8068.244768
1018.895285,1455.581446,1258.350101,8956.491898
1018.895601,689.485948,444.123565,9252.574275
1018.895916,536.266849,-814.226536,9770.718434
1018.896232,153.219100,-1850.514855,10214.842000
1018.896548,-153.219100,-1998.556043,10584.944971
1018.896864,-383.047749,-1776.494261,10807.006753
1018.897180,0.000000,-888.247130,11103.089130
1018.897495,76.609550,-0.000000,10658.965565
1018.897811,689.485948,444.123565,9992.780217
1018.898127,1225.752797,1184.329507,9252.574275
1018.898443,919.314598,1702.473667,8808.450710
1018.898759,1072.533697,1480.411884,8512.368333
1018.899075,1225.752797,962.267725,8808.450710
1018.899390,1378.971896,518.144159,9252.574275
1018.899706,612.876398,-0.000000,9548.656652
1018.900022,153.219100,-1480.411884,9844.739029
1018.900338,76.609550,-1702.473667,10214.842000
1018.900654,76.609550,-1554.432478,10658.965565
1018.900970,153.219100,-1184.329507,10658.965565
1018.901285,536.266849,-444.123565,10288.862594
1018.901601,383.047749,518.144159,9474.636058
1018.901917,612.876398,1184.329507,8956.491898
1018.902233,612.876398,1332.370696,8438.347739
1018.902549,842.705048,1406.391290,8808.450710
1018.902865,383.047749,666.185348,8882.471304
1018.903180,459.657299,-74.020594,9030.512492
1018.903496,76.609550,-1036.288319,9474.636058
1018.903812,-612.876398,-1924.535449,9770.718434
1018.904128,-689.485948,-1998.556043,10288.862594
1018.904444,-536.266849,-1850.514855,10362.883188
1018.904759,-306.438199,-1036.288319,10362.883188
1018.905075,0.000000,-222.061783,10066.800811
1018.905391,536.266849,222.061783,9178.553681
1018.905707,536.266849,740.205942,8290.306550
1018.906022,1149.143247,1258.350101,7846.182985
1018.906338,1072.533697,962.267725,8142.265362
1018.906654,995.924147,296.082377,8586.388927
1018.906970,612.876398,-0.000000,8734.430116
1018.907285,459.657299,-888.247130,9104.533087
1018.907601,-229.828649,-1776.494261,9326.594869
1018.907917,0.000000,-1924.535449,9696.697840
1018.908233,0.000000,-1554.432478,10510.924376
1018.908548,306.438199,-1184.329507,10362.883188
1018.908864,76.609550,-148.041188,9918.759623
1018.909180,0.000000,444.123565,9252.574275
1018.909496,689.485948,814.226536,8512.368333
1018.909812,612.876398,1184.329507,8364.327145
1018.910127,689.485948,1258.350101,8512.368333
1018.910443,689.485948,592.164754,8734.430116
1018.910759,153.219100,-296.082377,9252.574275
1018.911075,0.000000,-1702.473667,9770.718434
1018.911390,0.000000,-2072.576638,10066.800811
1018.911706,229.828649,-1998.556043,10436.903782
1018.912022,459.657299,-1184.329507,10288.862594
1018.912338,459.657299,-666.185348,9992.780217
1018.912653,995.924147,444.123565,9622.677246
1018.912969,995.924147,888.247130,9104.533087
1018.913285,1302.362347,1628.453072,8586.388927
1018.913601,1455.581446,1850.514855,8290.306550
1018.913917,995.924147,1184.329507,9030.512492
1018.914232,1225.752797,666.185348,9474.636058
1018.914548,536.266849,-518.144159,9622.677246
1018.914864,153.219100,-1332.370696,10066.800811
1018.915180,-153.219100,-1850.514855,10658.965565
1018.915495,459.657299,-2146.597232,11251.130318
1018.915811,459.657299,-1628.453072,11103.089130
1018.916127,689.485948,-518.144159,10955.047942
1018.916443,766.095498,-0.000000,10066.800811
1018.916758,766.095498,962.267725,9104.533087
1018.917074,919.314598,1480.411884,8808.450710
1018.917390,1225.752797,1776.494261,8438.347739
1018.917706,1225.752797,1184.329507,8586.388927
1018.918022,1149.143247,370.102971,8882.471304
1018.918337,919.314598,-814.226536,9622.677246
1018.918653,153.219100,-1850.514855,9844.739029
1018.918969,76.609550,-2368.659014,10066.800811
1018.919285,0.000000,-2072.576638,10881.027347
1018.919600,0.000000,-1258.350101,10881.027347
1018.919916,0.000000,-592.164754,10658.965565
1018.920232,612.876398,814.226536,9696.697840
1018.920548,766.095498,1332.370696,8586.388927
1018.920863,1072.533697,1776.494261,8364.327145
1018.921179,1225.752797,1258.350101,7994.224174
1018.921495,1072.533697,444.123565,8142.265362
1018.921811,536.266849,-444.123565,9030.512492
1018.922127,383.047749,-1702.473667,9622.677246
1018.922442,-306.438199,-2368.659014,9918.759623
1018.922758,-383.047749,-2146.597232,10140.821405
1018.923074,-383.047749,-2072.576638,10362.883188
1018.923390,0.000000,-1184.329507,10510.924376
1018.923705,0.000000,-0.000000,9548.656652
1018.924021,459.657299,740.205942,9030.512492
1018.924337,536.266849,1332.370696,8438.347739
1018.924653,1225.752797,1776.494261,7772.162391
1018.924968,612.876398,1554.432478,7772.162391
1018.925284,459.657299,666.185348,8438.347739
1018.925600,0.000000,-592.164754,8882.471304
1018.925916,-229.828649,-1776.494261,9400.615463
1018.926231,-766.095498,-2220.617826,10140.821405
1018.926547,-995.924147,-1998.556043,10584.944971
1018.926863,-842.705048,-1702.473667,10362.883188
1018.927179,-229.828649,-740.205942,10288.862594
1018.927495,306.438199,-74.020594,9844.739029
1018.927810,153.219100,1036.288319,9104.533087
1018.928126,383.047749,1924.535449,8438.347739
1018.928442,536.266849,1554.432478,8142.265362
1018.928758,766.095498,1110.308913,8512.368333
1018.929073,612.876398,666.185348,8808.450710
1018.929389,612.876398,-444.123565,9252.574275
1018.929705,76.609550,-1184.329507,9770.718434
1018.930021,0.000000,-1702.473667,10214.842000
1018.930336,153.219100,-1850.514855,10362.883188
1018.930652,689.485948,-1036.288319,10362.883188
1018.930968,612.876398,222.061783,10362.883188
1018.931284,612.876398,666.185348,9844.739029
1018.931600,995.924147,1332.370696,9400.615463
1018.931915,842.705048,1998.556043,8364.327145
1018.932231,842.705048,1924.535449,8364.327145
1018.932547,919.314598,1332.370696,9030.512492
1018.932863,153.219100,518.144159,9326.594869
1018.933178,229.828649,-592.164754,9696.697840
1018.933494,0.000000,-1628.453072,10436.903782
1018.933810,-306.438199,-1924.535449,10881.027347
1018.934126,-306.438199,-1850.514855,11029.068536
1018.934441,76.609550,-814.226536,11103.089130
1018.934757,612.876398,-222.061783,10658.965565
1018.935073,842.705048,740.205942,10066.800811
1018.935389,1149.143247,1850.514855,8956.491898
1018.935705,1302.362347,1628.453072,8290.306550
1018.936020,1378.971896,1480.411884,8660.409521
1018.936336,1302.362347,962.267725,8882.471304
1018.936652,1838.629195,370.102971,9252.574275
1018.936968,1149.143247,-518.144159,9622.677246
1018.937283,536.266849,-1480.411884,9918.759623
1018.937599,383.047749,-1554.432478,10288.862594
1018.937915,689.485948,-1258.350101,10510.924376
1018.938231,766.095498,-962.267725,10436.903782
1018.938546,1072.533697,-148.041188,10140.821405
1018.938862,766.095498,518.144159,9696.697840
1018.939178,689.485948,888.247130,9178.553681
1018.939494,306.438199,1184.329507,9104.533087
1018.939810,536.266849,1110.308913,8438.347739
1018.940125,689.485948,814.226536,8734.430116
1018.940441,76.609550,-370.102971,8956.491898
1018.940757,0.000000,-1406.391290,9474.636058
1018.941073,-306.438199,-2294.638420,9992.780217
1018.941388,-612.876398,-2516.700203,10436.903782
1018.941704,-383.047749,-2146.597232,10510.924376
1018.942020,-153.219100,-1406.391290,10288.862594
1018.942336,459.657299,-370.102971,9844.739029
1018.942651,459.657299,518.144159,8808.450710
1018.942967,689.485948,1406.391290,7846.182985
1018.943283,612.876398,1406.391290,7476.080014
1018.943599,612.876398,1184.329507,8216.285956
1018.943914,1378.971896,-0.000000,8142.265362
1018.944230,76.609550,-666.185348,8808.450710
1018.944546,0.000000,-1332.370696,9770.718434
1018.944862,-689.485948,-2368.659014,9918.759623
1018.945178,-689.485948,-2146.597232,10288.862594
1018.945493,-306.438199,-1628.453072,10881.027347
1018.945809,0.000000,-888.247130,10066.800811
1018.946125,153.219100,-74.020594,9696.697840
1018.946441,0.000000,592.164754,8882.471304
1018.946756,536.266849,1332.370696,8290.306550
1018.947072,1378.971896,1332.370696,8216.285956
1018.947388,766.095498,888.247130,8290.306550
1018.947704,919.314598,296.082377,8586.388927
1018.948019,766.095498,-1036.288319,9030.512492
1018.948335,0.000000,-1554.432478,9474.636058
1018.948651,306.438199,-2516.700203,10214.842000
1018.948967,0.000000,-2220.617826,10288.862594
1018.949283,306.438199,-1628.453072,10658.965565
1018.949598,612.876398,-888.247130,10436.903782
1018.949914,689.485948,-0.000000,9770.718434
1018.950230,459.657299,-0.000000,9400.615463
1018.950546,689.485948,1850.514855,8438.347739
1018.950861,1225.752797,1776.494261,8142.265362
1018.951177,995.924147,1110.308913,8438.347739
1018.951493,1302.362347,296.082377,9178.553681
1018.951809,919.314598,-814.226536,9844.739029
1018.952124,383.047749,-1850.514855,10140.821405
1018.952440,229.828649,-1924.535449,10584.944971
1018.952756,383.047749,-1924.535449,10881.027347
1018.953072,689.485948,-1184.329507,11177.109724
1018.953388,1072.533697,296.082377,10658.965565
1018.953703,1302.362347,1406.391290,9992.780217
1018.954019,1608.800546,1776.494261,9104.533087
1018.954335,1378.971896,2220.617826,8512.368333
1018.954651,1302.362347,1850.514855,8438.347739
1018.954966,1302.362347,740.205942,8956.491898
1018.955282,995.924147,222.061783,9474.636058
1018.955598,383.047749,-962.267725,10066.800811
1018.955914,0.000000,-1702.473667,10362.883188
1018.956229,-306.438199,-1776.494261,10510.924376
1018.956545,-306.438199,-1998.556043,11029.068536
1018.956861,459.657299,-740.205942,10881.027347
1018.957177,536.266849,-74.020594,10436.903782
1018.957493,689.485948,1036.288319,9400.615463
1018.957808,919.314598,1332.370696,8660.409521
1018.958124,1149.143247,1480.411884,8290.306550
1018.958440,1378.971896,1258.350101,8216.285956
1018.958756,995.924147,740.205942,8438.347739
1018.959071,995.924147,-74.020594,9030.512492
1018.959387,153.219100,-1406.391290,9400.615463
1018.959703,-383.047749,-2368.659014,9696.697840
1018.960019,0.000000,-2146.597232,10140.821405
1018.960334,0.000000,-2294.638420,10288.862594
1018.960650,76.609550,-1258.350101,10436.903782
1018.960966,536.266849,-222.061783,9474.636058
1018.961282,0.000000,740.205942,8882.471304
1018.961597,536.266849,1332.370696,8142.265362
1018.961913,306.438199,1406.391290,8142.265362
1018.962229,229.828649,1036.288319,8216.285956
1018.962545,153.219100,-0.000000,8364.327145
1018.962861,-306.438199,-962.267725,9104.533087
1018.963176,-536.266849,-1924.535449,9622.677246
1018.963492,-842.705048,-2072.576638,9992.780217
1018.963808,-842.705048,-1924.535449,10214.842000
1018.964124,76.609550,-1554.432478,10732.986159
1018.964439,0.000000,-740.205942,9992.780217
1018.964755,306.438199,444.123565,9474.636058
1018.965071,383.047749,1110.308913,8734.430116
1018.965387,919.314598,1406.391290,8216.285956
1018.965702,995.924147,1628.453072,7920.203579
1018.966018,766.095498,888.247130,7994.224174
1018.966334,536.266849,370.102971,8808.450710
1018.966650,76.609550,-296.082377,9252.574275
1018.966966,-229.828649,-1480.411884,9696.697840
1018.967281,-689.485948,-1924.535449,10510.924376
1018.967597,-306.438199,-2294.638420,10807.006753
1018.967913,0.000000,-1406.391290,11103.089130
1018.968229,306.438199,-370.102971,10288.862594
1018.968544,612.876398,222.061783,9918.759623
1018.968860,1302.362347,1332.370696,9104.533087
1018.969176,995.924147,2146.597232,8512.368333
1018.969492,1685.410096,2294.638420,8142.265362
1018.969807,1455.581446,1406.391290,8512.368333
1018.970123,2068.457845,370.102971,9178.553681
1018.970439,842.705048,-888.247130,9548.656652
1018.970755,459.657299,-1480.411884,10214.842000
1018.971071,306.438199,-1776.494261,10658.965565
1018.971386,229.828649,-1554.432478,10955.047942
1018.971702,612.876398,-518.144159,11325.150913
1018.972018,689.485948,-0.000000,10288.862594
1018.972334,995.924147,1036.288319,9622.677246
1018.972649,1072.533697,1480.411884,9178.553681
1018.972965,1455.581446,1702.473667,8882.471304
1018.973281,1532.190996,1184.329507,8734.430116
1018.973597,1149.143247,592.164754,9104.533087
1018.973912,995.924147,-222.061783,9326.594869
1018.974228,536.266849,-1406.391290,9918.759623
1018.974544,76.609550,-1924.535449,10288.862594
1018.974860,0.000000,-1850.514855,10584.944971
1018.975175,306.438199,-1702.473667,10807.006753
1018.975491,153.219100,-666.185348,10362.883188
1018.975807,612.876398,148.041188,10066.800811
1018.976123,842.705048,962.267725,9178.553681
1018.976439,1149.143247,1258.350101,8734.430116
1018.976754,995.924147,1702.473667,8216.285956
1018.977070,919.314598,1332.370696,8438.347739
1018.977386,536.266849,444.123565,8438.347739
1018.977702,0.000000,-444.123565,9178.553681
1018.978017,0.000000,-1554.432478,9474.636058
1018.978333,-383.047749,-1998.556043,9770.718434
1018.978649,-689.485948,-1850.514855,10066.800811
1018.978965,-383.047749,-1628.453072,10584.944971
1018.979280,-459.657299,-962.267725,10362.883188
1018.979596,-383.047749,-0.000000,9770.718434
1018.979912,-229.828649,444.123565,8882.471304
1018.980228,76.609550,1110.308913,8660.409521
1018.980544,0.000000,1110.308913,8216.285956
1018.980859,153.219100,666.185348,8882.471304
1018.981175,153.219100,-74.020594,8586.388927
1018.981491,383.047749,-666.185348,9326.594869
1018.981807,0.000000,-1332.370696,9474.636058
1018.982122,-306.438199,-1702.473667,9622.677246
1018.982438,0.000000,-1850.514855,10066.800811
1018.982754,383.047749,-1184.329507,10362.883188
1018.983070,383.047749,-370.102971,9918.759623
1018.983385,536.266849,370.102971,9104.533087
1018.983701,383.047749,740.205942,8512.368333
1018.984017,995.924147,814.226536,8216.285956
1018.984333,842.705048,1258.350101,8290.306550
1018.984649,612.876398,370.102971,8734.430116
1018.984964,0.000000,-0.000000,8808.450710
1018.985280,0.000000,-740.205942,9400.615463
1018.985596,-306.438199,-1924.535449,9770.718434
1018.985912,-536.266849,-2146.597232,10510.924376
1018.986227,-612.876398,-1776.494261,10807.006753
1018.986543,-153.219100,-1184.329507,10584.944971
1018.986859,612.876398,-592.164754,9918.759623
1018.987175,842.705048,148.041188,9770.718434
1018.987490,1149.143247,1110.308913,8882.471304
1018.987806,1225.752797,1480.411884,8734.430116
1018.988122,1378.971896,1628.453072,8512.368333
1018.988438,1762.019645,962.267725,8734.430116
1018.988754,1532.190996,296.082377,8956.491898
1018.989069,995.924147,-518.144159,9474.636058
1018.989385,612.876398,-1332.370696,9844.739029
1018.989701,995.924147,-1924.535449,10214.842000
1018.990017,689.485948,-1258.350101,10584.944971
1018.990332,995.924147,-1110.308913,10732.986159
1018.990648,766.095498,-0.000000,10584.944971
1018.990964,1149.143247,518.144159,9474.636058
1018.991280,1072.533697,1036.288319,9326.594869
1018.991595,1225.752797,1110.308913,8734.430116
1018.991911,1149.143247,962.267725,9178.553681
1018.992227,1302.362347,592.164754,9178.553681
1018.992543,995.924147,-0.000000,9178.553681
1018.992858,229.828649,-1184.329507,9992.780217
1018.993174,229.828649,-1924.535449,10140.821405
1018.993490,383.047749,-2072.576638,10362.883188
1018.993806,306.438199,-1628.453072,10807.006753
1018.994122,689.485948,-1110.308913,10732.986159
1018.994437,919.314598,-222.061783,10140.821405
1018.994753,689.485948,814.226536,9400.615463
1018.995069,842.705048,1184.329507,8734.430116
1018.995385,995.924147,1406.391290,8364.327145
1018.995700,919.314598,1406.391290,8216.285956
1018.996016,995.924147,518.144159,8734.430116
1018.996332,689.485948,-518.144159,9030.512492
1018.996648,153.219100,-1554.432478,9400.615463
1018.996963,-612.876398,-2146.597232,9992.780217
1018.997279,-612.876398,-2368.659014,10658.965565
1018.997595,-229.828649,-2442.679609,10732.986159
1018.997911,0.000000,-888.247130,10362.883188
1018.998227,0.000000,-0.000000,9844.739029
1018.998542,0.000000,518.144159,9030.512492
1018.998858,153.219100,1406.391290,8364.327145
1018.999174,536.266849,1332.370696,7772.162391
1018.999490,153.219100,962.267725,7920.203579
1018.999805,229.828649,370.102971,8512.368333
1019.000121,-306.438199,-740.205942,9104.533087
1019.000437,-229.828649,-1776.494261,9474.636058
1019.000753,-995.924147,-2146.597232,9992.780217
1019.001068,-1072.533697,-1628.453072,10214.842000
1019.001384,-383.047749,-962.267725,10140.821405
1019.001700,-229.828649,-222.061783,10140.821405
1019.002016,-153.219100,444.123565,9548.656652
1019.002332,229.828649,1110.308913,9326.594869
1019.002647,229.828649,1776.494261,8290.306550
1019.002963,306.438199,1702.473667,8216.285956
1019.003279,842.705048,1332.370696,8438.347739
1019.003595,689.485948,518.144159,8808.450710
1019.003910,689.485948,-444.123565,9400.615463
1019.004226,76.609550,-1406.391290,9770.718434
1019.004542,-306.438199,-1850.514855,9992.780217
1019.004858,-229.828649,-1702.473667,10658.965565
1019.005173,0.000000,-1184.329507,10584.944971
1019.005489,612.876398,-148.041188,10510.924376
1019.005805,689.485948,962.267725,9696.697840
1019.006121,1149.143247,1776.494261,8660.409521
1019.006437,1378.971896,2146.597232,8660.409521
1019.006752,1455.581446,2146.597232,8364.327145
1019.007068,1608.800546,1406.391290,8660.409521
1019.007384,1532.190996,666.185348,8882.471304
1019.007700,919.314598,-592.164754,9622.677246
1019.008015,459.657299,-1554.432478,10436.903782
1019.008331,0.000000,-1850.514855,10807.006753
1019.008647,459.657299,-1702.473667,10955.047942
1019.008963,612.876398,-814.226536,10732.986159
1019.009278,842.705048,148.041188,10658.965565
1019.009594,842.705048,1258.350101,9770.718434
1019.009910,1149.143247,1702.473667,8956.491898
1019.010226,1378.971896,2072.576638,8586.388927
1019.010542,1455.581446,1258.350101,9030.512492
1019.010857,1378.971896,740.205942,8882.471304
1019.011173,1072.533697,-0.000000,9178.553681
1019.011489,842.705048,-1036.288319,9844.739029
1019.011805,383.047749,-1776.494261,10510.924376
1019.012120,306.438199,-1628.453072,10807.006753
1019.012436,229.828649,-1332.370696,10584.944971
1019.012752,536.266849,-666.185348,10584.944971
1019.013068,1149.143247,-74.020594,10140.821405
1019.013383,766.095498,222.061783,9548.656652
1019.013699,919.314598,888.247130,8882.471304
1019.014015,1072.533697,1480.411884,8364.327145
1019.014331,842.705048,888.247130,8290.306550
1019.014647,383.047749,222.061783,8660.409521
1019.014962,229.828649,-740.205942,9178.553681
1019.015278,-306.438199,-1628.453072,9548.656652
1019.015594,-459.657299,-2294.638420,10214.842000
1019.015910,-689.485948,-2146.597232,10807.006753
1019.016225,-229.828649,-1924.535449,10584.944971
1019.016541,-383.047749,-1332.370696,9992.780217
1019.016857,229.828649,-148.041188,9770.718434
1019.017173,76.609550,444.123565,8734.430116
1019.017488,766.095498,962.267725,8142.265362
1019.017804,536.266849,1258.350101,8216.285956
1019.018120,536.266849,518.144159,7994.224174
1019.018436,383.047749,-74.020594,8290.306550
1019.018752,0.000000,-1036.288319,9104.533087
1019.019067,-536.266849,-1850.514855,9474.636058
1019.019383,-842.705048,-2738.761985,9548.656652
1019.019699,-995.924147,-2516.700203,10140.821405
1019.020015,-612.876398,-1924.535449,10732.986159
1019.020330,0.000000,-962.267725,9918.759623
1019.020646,0.000000,-0.000000,9178.553681
1019.020962,229.828649,296.082377,8586.388927
1019.021278,306.438199,888.247130,8364.327145
1019.021593,459.657299,1184.329507,8216.285956
1019.021909,229.828649,1036.288319,8068.244768
1019.022225,229.828649,-0.000000,8734.430116
1019.022541,229.828649,-962.267725,9326.594869
1019.022857,-383.047749,-1924.535449,9770.718434
1019.023172,-153.219100,-2220.617826,10362.883188
1019.023488,-306.438199,-2072.576638,10436.903782
1019.023804,0.000000,-1258.350101,10436.903782
1019.024120,0.000000,-148.041188,10436.903782
1019.024435,612.876398,518.144159,9622.677246
1019.024751,842.705048,1258.350101,8882.471304
1019.025067,1149.143247,1998.556043,8290.306550
1019.025383,1072.533697,1628.453072,8734.430116
1019.025698,1608.800546,1184.329507,9252.574275
1019.026014,1532.190996,222.061783,9400.615463
1019.026330,1072.533697,-814.226536,9622.677246
1019.026646,766.095498,-1702.473667,10288.862594
1019.026962,1072.533697,-1554.432478,10658.965565
1019.027277,919.314598,-1258.350101,11029.068536
1019.027593,1225.752797,-518.144159,10955.047942
1019.027909,1149.143247,222.061783,10584.944971
1019.028225,1378.971896,1036.288319,9770.718434
1019.028540,1608.800546,1628.453072,9030.512492
1019.028856,1915.238745,1998.556043,8586.388927
1019.029172,1838.629195,1702.473667,8364.327145
1019.029488,1762.019645,888.247130,9104.533087
1019.029803,1455.581446,-0.000000,9326.594869
1019.030119,995.924147,-1184.329507,10066.800811
1019.030435,459.657299,-1702.473667,10510.924376
1019.030751,306.438199,-1998.556043,10658.965565
1019.031067,459.657299,-1480.411884,11029.068536
1019.031382,689.485948,-666.185348,10584.944971
1019.031698,459.657299,444.123565,10214.842000
1019.032014,842.705048,814.226536,9474.636058
1019.032330,766.095498,1332.370696,8808.450710
1019.032645,536.266849,1628.453072,8438.347739
1019.032961,766.095498,1110.308913,8660.409521
1019.033277,612.876398,148.041188,9030.512492
1019.033593,459.657299,-740.205942,9104.533087
1019.033908,0.000000,-1776.494261,9548.656652
1019.034224,0.000000,-2368.659014,10362.883188
1019.034540,-383.047749,-2146.597232,10436.903782
1019.034856,76.609550,-1480.411884,10362.883188
1019.035172,153.219100,-370.102971,9992.780217
1019.035487,459.657299,518.144159,9252.574275
1019.035803,229.828649,1184.329507,8808.450710
1019.036119,383.047749,1554.432478,8364.327145
1019.036435,306.438199,1480.411884,7994.224174
1019.036750,0.000000,888.247130,8142.265362
1019.037066,0.000000,-0.000000,8438.347739
1019.037382,-536.266849,-962.267725,9178.553681
1019.037698,-1072.533697,-2146.597232,9400.615463
1019.038013,-1378.971896,-2368.659014,10362.883188
1019.038329,-1225.752797,-2072.576638,10362.883188
1019.038645,-1072.533697,-1554.432478,10510.924376
1019.038961,-612.876398,-666.185348,10066.800811
1019.039277,-612.876398,-0.000000,9474.636058
1019.039592,76.609550,1110.308913,8438.347739
1019.039908,383.047749,1628.453072,7846.182985
1019.040224,689.485948,1554.432478,7772.162391
1019.040540,1149.143247,962.267725,7994.224174
1019.040855,459.657299,296.082377,8734.430116
1019.041171,153.219100,-1110.308913,8956.491898
1019.041487,0.000000,-1480.411884,9770.718434
1019.041803,-229.828649,-2146.597232,10214.842000
1019.042118,0.000000,-1776.494261,10658.965565
1019.042434,153.219100,-1036.288319,10732.986159
1019.042750,459.657299,-0.000000,10362.883188
1019.043066,689.485948,888.247130,9474.636058
1019.043382,766.095498,1406.391290,9030.512492
1019.043697,1072.533697,1850.514855,8290.306550
1019.044013,1455.581446,1850.514855,8586.388927
1019.044329,1608.800546,1554.432478,8660.409521
1019.044645,995.924147,370.102971,9104.533087
1019.044960,766.095498,-1036.288319,9992.780217
1019.045276,383.047749,-1554.432478,10362.883188
1019.045592,459.657299,-1554.432478,10732.986159
1019.045908,612.876398,-1406.391290,10955.047942
1019.046223,919.314598,-518.144159,10881.027347
1019.046539,1302.362347,-0.000000,10658.965565
1019.046855,1302.362347,962.267725,9844.739029
1019.047171,1378.971896,1554.432478,8882.471304
1019.047487,1532.190996,2072.576638,8734.430116
1019.047802,1838.629195,1480.411884,8660.409521
1019.048118,1378.971896,740.205942,9252.574275
1019.048434,1302.362347,-148.041188,9548.656652
1019.048750,842.705048,-1184.329507,10066.800811
1019.049065,536.266849,-1924.535449,10510.924376
1019.049381,153.219100,-1850.514855,10658.965565
1019.049697,306.438199,-1480.411884,10881.027347
1019.050013,766.095498,-444.123565,10658.965565
1019.050328,766.095498,592.164754,9844.739029
1019.050644,766.095498,1554.432478,9030.512492
1019.050960,1149.143247,1480.411884,8438.347739
1019.051276,1532.190996,1554.432478,8364.327145
1019.051592,383.047749,1406.391290,8216.285956
1019.051907,306.438199,222.061783,8956.491898
1019.052223,153.219100,-1184.329507,9400.615463
1019.052539,-229.828649,-1850.514855,9696.697840
1019.052855,-612.876398,-1998.556043,10066.800811
1019.053170,-689.485948,-2072.576638,10214.842000
1019.053486,-459.657299,-1332.370696,10214.842000
1019.053802,-306.438199,-296.082377,9918.759623
1019.054118,0.000000,148.041188,9400.615463
1019.054433,-306.438199,518.144159,9030.512492
1019.054749,229.828649,1258.350101,8290.306550
1019.055065,229.828649,962.267725,7994.224174
1019.055381,459.657299,592.164754,8142.265362
1019.055697,-459.657299,-296.082377,8364.327145
1019.056012,-306.438199,-888.247130,9104.533087
1019.056328,-766.095498,-1850.514855,9548.656652
1019.056644,-919.314598,-2294.638420,10140.821405
1019.056960,-766.095498,-2220.617826,10066.800811
1019.057275,-459.657299,-1406.391290,10140.821405
1019.057591,0.000000,-518.144159,9844.739029
1019.057907,229.828649,-0.000000,9474.636058
1019.058223,536.266849,814.226536,8364.327145
1019.058538,229.828649,1480.411884,8290.306550
1019.058854,459.657299,1110.308913,7994.224174
1019.059170,536.266849,592.164754,8438.347739
1019.059486,383.047749,-222.061783,8586.388927
1019.059802,153.219100,-1258.350101,9474.636058
1019.060117,-383.047749,-2146.597232,9992.780217
1019.060433,-383.047749,-2146.597232,10510.924376
1019.060749,-306.438199,-1628.453072,10584.944971
1019.061065,0.000000,-962.267725,10362.883188
1019.061380,612.876398,-0.000000,10066.800811
1019.061696,766.095498,740.205942,9622.677246
1019.062012,995.924147,962.267725,9104.533087
1019.062328,1225.752797,1332.370696,8512.368333
1019.062643,1302.362347,962.267725,8660.409521
1019.062959,1685.410096,666.185348,8882.471304
1019.063275,1608.800546,-592.164754,9178.553681
1019.063591,919.314598,-740.205942,9474.636058
1019.063907,995.924147,-1480.411884,10288.862594
1019.064222,689.485948,-1702.473667,10510.924376
1019.064538,842.705048,-1110.308913,10732.986159
1019.064854,1532.190996,-444.123565,10510.924376
1019.065170,1532.190996,-0.000000,10288.862594
1019.065485,1302.362347,666.185348,9622.677246
1019.065801,1378.971896,888.247130,9178.553681
1019.066117,1455.581446,1332.370696,8882.471304
1019.066433,1608.800546,1184.329507,9104.533087
1019.066748,1532.190996,888.247130,8956.491898
1019.067064,995.924147,-666.185348,9474.636058
1019.067380,536.266849,-1554.432478,10066.800811
1019.067696,459.657299,-2368.659014,10436.903782
1019.068012,766.095498,-2516.700203,11399.171507
1019.068327,536.266849,-1554.432478,10807.006753
1019.068643,919.314598,-444.123565,10362.883188
1019.068959,919.314598,370.102971,9474.636058
1019.069275,1302.362347,962.267725,8956.491898
1019.069590,1149.143247,888.247130,8142.265362
1019.069906,995.924147,1332.370696,8512.368333
1019.070222,1149.143247,1036.288319,8216.285956
1019.070538,612.876398,296.082377,9030.512492
1019.070853,229.828649,-1110.308913,9178.553681
1019.071169,-229.828649,-1998.556043,9548.656652
1019.071485,-689.485948,-2368.659014,10288.862594
1019.071801,-842.705048,-2072.576638,10436.903782
1019.072117,-612.876398,-1332.370696,10510.924376
1019.072432,76.609550,-666.185348,9992.780217
1019.072748,0.000000,-0.000000,9326.594869
1019.073064,-383.047749,888.247130,8734.430116
1019.073380,0.000000,1332.370696,8290.306550
1019.073695,76.609550,1554.432478,8142.265362
1019.074011,76.609550,888.247130,8142.265362
1019.074327,0.000000,370.102971,8290.306550
1019.074643,-306.438199,-740.205942,9178.553681
1019.074958,-919.314598,-1406.391290,9400.615463
1019.075274,-1149.143247,-1776.494261,10214.842000
1019.075590,-1225.752797,-1702.473667,10288.862594
1019.075906,-842.705048,-814.226536,10436.903782
1019.076222,-612.876398,-0.000000,10140.821405
1019.076537,-153.219100,814.226536,9104.533087
1019.076853,-306.438199,1184.329507,8956.491898
1019.077169,-229.828649,1332.370696,8660.409521
1019.077485,153.219100,1332.370696,8364.327145
1019.077800,76.609550,1110.308913,8660.409521
1019.078116,383.047749,-0.000000,8882.471304
1019.078432,153.219100,-888.247130,9622.677246
1019.078748,0.000000,-1554.432478,10140.821405
1019.079063,0.000000,-1702.473667,10214.842000
1019.079379,0.000000,-1110.308913,10881.027347
1019.079695,536.266849,-740.205942,10436.903782
1019.080011,1455.581446,370.102971,10140.821405
1019.080327,1149.143247,962.267725,9400.615463
1019.080642,1072.533697,1184.329507,8956.491898
1019.080958,1532.190996,1702.473667,8882.471304
1019.081274,1302.362347,1850.514855,8956.491898
1019.081590,1302.362347,1406.391290,9178.553681
1019.081905,1072.533697,222.061783,9326.594869
1019.082221,766.095498,-518.144159,9622.677246
1019.082537,612.876398,-1628.453072,10288.862594
1019.082853,766.095498,-1850.514855,10955.047942
1019.083168,766.095498,-1406.391290,10807.006753
1019.083484,919.314598,-518.144159,10807.006753
1019.083800,995.924147,-0.000000,10214.842000
1019.084116,1149.143247,1036.288319,9622.677246
1019.084432,1608.800546,1554.432478,9252.574275
1019.084747,1608.800546,1998.556043,8438.347739
1019.085063,1532.190996,1554.432478,8882.471304
1019.085379,1532.190996,962.267725,9252.574275
1019.085695,1378.971896,-518.144159,9400.615463
1019.086010,919.314598,-1406.391290,9844.739029
1019.086326,536.266849,-1776.494261,10732.986159
1019.086642,383.047749,-1924.535449,10732.986159
1019.086958,383.047749,-1406.391290,10881.027347
1019.087273,766.095498,-666.185348,10510.924376
1019.087589,766.095498,148.041188,9844.739029
1019.087905,612.876398,814.226536,9104.533087
1019.088221,1149.143247,1406.391290,8586.388927
1019.088537,919.314598,1258.350101,8290.306550
1019.088852,842.705048,888.247130,8438.347739
1019.089168,842.705048,-0.000000,8734.430116
1019.089484,76.609550,-1184.329507,9104.533087
1019.089800,-229.828649,-2072.576638,9548.656652
1019.090115,-842.705048,-2738.761985,10288.862594
1019.090431,-536.266849,-2368.659014,10436.903782
1019.090747,-612.876398,-2294.638420,10362.883188
1019.091063,-612.876398,-1184.329507,10140.821405
1019.091378,-229.828649,-296.082377,9252.574275
1019.091694,153.219100,444.123565,8660.409521
1019.092010,0.000000,1184.329507,8142.265362
1019.092326,383.047749,1036.288319,7920.203579
1019.092642,306.438199,518.144159,7994.224174
1019.092957,383.047749,-148.041188,8364.327145
1019.093273,-229.828649,-1332.370696,8882.471304
1019.093589,-612.876398,-2368.659014,9548.656652
1019.093905,-842.705048,-2368.659014,9992.780217
1019.094220,-612.876398,-1924.535449,10362.883188
1019.094536,-306.438199,-1184.329507,10140.821405
1019.094852,0.000000,-370.102971,9844.739029
1019.095168,76.609550,814.226536,8956.491898
1019.095483,0.000000,814.226536,8734.430116
1019.095799,689.485948,1184.329507,8290.306550
1019.096115,536.266849,962.267725,8364.327145
1019.096431,306.438199,592.164754,8364.327145
1019.096747,153.219100,-74.020594,8956.491898
1019.097062,-383.047749,-1110.308913,9252.574275
1019.097378,-612.876398,-1998.556043,10140.821405
1019.097694,-689.485948,-2072.576638,10807.006753
1019.098010,-536.266849,-1850.514855,10584.944971
1019.098325,0.000000,-666.185348,10510.924376
1019.098641,383.047749,222.061783,10288.862594
1019.098957,612.876398,740.205942,9474.636058
1019.099273,1225.752797,1332.370696,8808.450710
1019.099589,1225.752797,1702.473667,8438.347739
1019.099904,1378.971896,1628.453072,8290.306550
1019.100220,1608.800546,1036.288319,8808.450710
1019.100536,1302.362347,74.020594,9400.615463
1019.100852,919.314598,-1036.288319,9696.697840
1019.101167,689.485948,-1480.411884,10436.903782
1019.101483,612.876398,-1850.514855,11177.109724
1019.101799,689.485948,-1332.370696,11177.109724
1019.102115,1072.533697,-0.000000,10732.986159
1019.102430,1302.362347,666.185348,10214.842000
1019.102746,1225.752797,1036.288319,9548.656652
1019.103062,1608.800546,1702.473667,8956.491898
1019.103378,1608.800546,1850.514855,8808.450710
1019.103694,1608.800546,1332.370696,8956.491898
1019.104009,1378.971896,1110.308913,9178.553681
1019.104325,1378.971896,-74.020594,9548.656652
1019.104641,919.314598,-1258.350101,9844.739029
1019.104957,0.000000,-2146.597232,10732.986159
1019.105272,229.828649,-1998.556043,10881.027347
1019.105588,306.438199,-1406.391290,10807.006753
1019.105904,459.657299,-370.102971,10807.006753
1019.106220,536.266849,518.144159,9770.718434
1019.106536,689.485948,1184.329507,8956.491898
1019.106851,689.485948,1480.411884,8734.430116
1019.107167,612.876398,1554.432478,8438.347739
1019.107483,229.828649,1258.350101,8734.430116
1019.107799,536.266849,296.082377,8808.450710
1019.108115,0.000000,-814.226536,9252.574275
1019.108430,-229.828649,-1924.535449,9844.739029
1019.108746,-766.095498,-2294.638420,10214.842000
1019.109062,-383.047749,-2146.597232,10510.924376
1019.109378,-459.657299,-1406.391290,10214.842000
1019.109694,0.000000,-74.020594,9696.697840
1019.110009,0.000000,666.185348,8586.388927
1019.110325,76.609550,814.226536,8068.244768
1019.110641,383.047749,1332.370696,8290.306550
1019.110957,0.000000,1184.329507,7698.141797
1019.111273,76.609550,592.164754,8660.409521
1019.111588,-153.219100,-444.123565,8364.327145
1019.111904,-459.657299,-1554.432478,9400.615463
1019.112220,-842.705048,-1998.556043,9474.636058
1019.112536,-1149.143247,-2220.617826,9992.780217
1019.112852,-919.314598,-1924.535449,10214.842000
1019.113167,-766.095498,-1406.391290,10140.821405
1019.113483,-229.828649,-666.185348,9696.697840
1019.113799,-153.219100,370.102971,8882.471304
1019.114115,76.609550,740.205942,8660.409521
1019.114431,536.266849,1406.391290,7994.224174
1019.114747,459.657299,1332.370696,8216.285956
1019.115062,689.485948,814.226536,8364.327145
1019.115378,459.657299,-0.000000,8808.450710
1019.115694,459.657299,-1184.329507,8956.491898
1019.116010,0.000000,-1850.514855,9844.739029
1019.116326,229.828649,-1924.535449,10658.965565
1019.116641,0.000000,-1628.453072,10510.924376
1019.116957,306.438199,-592.164754,10584.944971
1019.117273,459.657299,666.185348,10214.842000
1019.117589,919.314598,1036.288319,9252.574275
1019.117905,766.095498,1406.391290,9030.512492
1019.118220,1225.752797,1850.514855,8512.368333
1019.118536,1608.800546,1628.453072,8808.450710
1019.118852,1378.971896,888.247130,8734.430116
1019.119168,919.314598,-0.000000,9474.636058
1019.119484,1072.533697,-1184.329507,10140.821405
1019.119799,612.876398,-1258.350101,10584.944971
1019.120115,459.657299,-1184.329507,10807.006753
1019.120431,383.047749,-888.247130,10881.027347
1019.120747,1378.971896,-0.000000,10658.965565
1019.121063,1072.533697,370.102971,10140.821405
1019.121378,1455.581446,1110.308913,9622.677246
1019.121694,1608.800546,1850.514855,9104.533087
1019.122010,1455.581446,1998.556043,8586.388927
1019.122326,1762.019645,1702.473667,8956.491898
1019.122642,1302.362347,666.185348,9474.636058
1019.122958,919.314598,-296.082377,9770.718434
1019.123273,229.828649,-1332.370696,10362.883188
1019.123589,153.219100,-2146.597232,10807.006753
1019.123905,459.657299,-2368.659014,11251.130318
1019.124221,306.438199,-1702.473667,10584.944971
1019.124537,842.705048,-518.144159,10362.883188
1019.124852,842.705048,666.185348,9696.697840
1019.125168,919.314598,1406.391290,8808.450710
1019.125484,842.705048,1776.494261,8068.244768
1019.125800,1225.752797,1628.453072,8290.306550
1019.126116,1149.143247,1110.308913,8512.368333
1019.126431,612.876398,-0.000000,8512.368333
1019.126747,0.000000,-1036.288319,9178.553681
1019.127063,-536.266849,-1776.494261,10214.842000
1019.127379,-459.657299,-2220.617826,9992.780217
1019.127695,-995.924147,-2072.576638,10362.883188
1019.128010,-842.705048,-1480.411884,10214.842000
1019.128326,-306.438199,-666.185348,9844.739029
1019.128642,-459.657299,148.041188,9326.594869
1019.128958,-306.438199,666.185348,8586.388927
1019.129274,-153.219100,1110.308913,8216.285956
1019.129589,76.609550,962.267725,7994.224174
1019.129905,76.609550,370.102971,8068.244768
1019.130221,-306.438199,-370.102971,8142.265362
1019.130537,-459.657299,-1184.329507,8956.491898
1019.130853,-612.876398,-2220.617826,9326.594869
1019.131169,-612.876398,-2220.617826,9696.697840
1019.131484,-153.219100,-2146.597232,10362.883188
1019.131800,0.000000,-1184.329507,9918.759623
1019.132116,0.000000,-148.041188,9326.594869
1019.132432,229.828649,444.123565,8808.450710
1019.132748,612.876398,1332.370696,8216.285956
1019.133063,1225.752797,1554.432478,7846.182985
1019.133379,766.095498,1184.329507,8068.244768
1019.133695,383.047749,740.205942,8586.388927
1019.134011,76.609550,-370.102971,9104.533087
1019.134327,-383.047749,-1480.411884,9622.677246
1019.134642,-383.047749,-2442.679609,10140.821405
1019.134958,-459.657299,-2368.659014,10658.965565
1019.135274,76.609550,-1554.432478,10732.986159
1019.135590,229.828649,-592.164754,10140.821405
1019.135906,1302.362347,296.082377,10066.800811
1019.136221,995.924147,814.226536,9696.697840
1019.136537,1455.581446,1110.308913,9252.574275
1019.136853,1608.800546,1258.350101,8586.388927
1019.137169,1608.800546,1036.288319,8956.491898
1019.137485,1608.800546,814.226536,8808.450710
1019.137801,1455.581446,-222.061783,9474.636058
1019.138116,995.924147,-1258.350101,9918.759623
1019.138432,842.705048,-1554.432478,10510.924376
1019.138748,766.095498,-1850.514855,11177.109724
1019.139064,842.705048,-1332.370696,11251.130318
1019.139380,1072.533697,-370.102971,10881.027347
1019.139695,1455.581446,370.102971,9918.759623
1019.140011,1302.362347,814.226536,9548.656652
1019.140327,1762.019645,1406.391290,9400.615463
1019.140643,1608.800546,1702.473667,8956.491898
1019.140959,1685.410096,1480.411884,9252.574275
1019.141274,1072.533697,740.205942,9326.594869
1019.141590,995.924147,-222.061783,9252.574275
1019.141906,689.485948,-1184.329507,9844.739029
1019.142222,459.657299,-1998.556043,10436.903782
1019.142538,76.609550,-1998.556043,10807.006753
1019.142853,383.047749,-1258.350101,10732.986159
1019.143169,689.485948,-296.082377,10362.883188
1019.143485,689.485948,592.164754,9548.656652
1019.143801,153.219100,1258.350101,9104.533087
1019.144117,842.705048,1480.411884,8142.265362
1019.144432,536.266849,1258.350101,8438.347739
1019.144748,612.876398,444.123565,8586.388927
1019.145064,229.828649,-222.061783,8956.491898
1019.145380,0.000000,-1184.329507,9474.636058
1019.145696,-459.657299,-2220.617826,9474.636058
1019.146012,-459.657299,-2294.638420,10066.800811
1019.146327,-459.657299,-1998.556043,10214.842000
1019.146643,-383.047749,-1258.350101,10288.862594
1019.146959,0.000000,-222.061783,9548.656652
1019.147275,0.000000,444.123565,8882.471304
1019.147591,76.609550,962.267725,8216.285956
1019.147906,306.438199,1258.350101,7920.203579
1019.148222,383.047749,1110.308913,7846.182985
1019.148538,306.438199,888.247130,7698.141797
1019.148854,-153.219100,-0.000000,8586.388927
1019.149170,-612.876398,-1258.350101,9030.512492
1019.149485,-919.314598,-2072.576638,9918.759623
1019.149801,-919.314598,-2220.617826,10436.903782
1019.150117,-995.924147,-1998.556043,10288.862594
1019.150433,-766.095498,-962.267725,10362.883188
1019.150749,-229.828649,-222.061783,9770.718434
1019.151064,0.000000,592.164754,8882.471304
1019.151380,76.609550,1332.370696,8734.430116
1019.151696,153.219100,1480.411884,7994.224174
1019.152012,306.438199,1258.350101,8438.347739
1019.152328,689.485948,888.247130,8734.430116
1019.152643,612.876398,-0.000000,9104.533087
1019.152959,76.609550,-1184.329507,9326.594869
1019.153275,76.609550,-1554.432478,9992.780217
1019.153591,-229.828649,-2072.576638,10732.986159
1019.153907,153.219100,-1480.411884,10881.027347
1019.154223,76.609550,-518.144159,11029.068536
1019.154538,766.095498,370.102971,10214.842000
1019.154854,1149.143247,1332.370696,9474.636058
1019.155170,1225.752797,1850.514855,8956.491898
1019.155486,1302.362347,1850.514855,8586.388927
1019.155802,1915.238745,1702.473667,8808.450710
1019.156117,1455.581446,518.144159,8734.430116
1019.156433,1378.971896,-370.102971,9474.636058
1019.156749,919.314598,-1332.370696,10214.842000
1019.157065,459.657299,-1850.514855,10584.944971
1019.157381,612.876398,-1628.453072,11029.068536
1019.157696,612.876398,-888.247130,10732.986159
1019.158012,689.485948,-370.102971,10584.944971
1019.158328,1149.143247,444.123565,9992.780217
1019.158644,1378.971896,1184.329507,9252.574275
1019.158960,1532.190996,1702.473667,8734.430116
1019.159275,1455.581446,1628.453072,8660.409521
1019.159591,1685.410096,1110.308913,8734.430116
1019.159907,1225.752797,518.144159,9178.553681
1019.160223,919.314598,-740.205942,9696.697840
1019.160539,612.876398,-1628.453072,9844.739029
1019.160854,0.000000,-2072.576638,10436.903782
1019.161170,229.828649,-1776.494261,11029.068536
1019.161486,383.047749,-1110.308913,10288.862594
1019.161802,766.095498,-296.082377,9992.780217
1019.162118,612.876398,592.164754,9770.718434
1019.162434,919.314598,1184.329507,8956.491898
1019.162749,766.095498,1628.453072,8438.347739
1019.163065,689.485948,1332.370696,8216.285956
1019.163381,536.266849,666.185348,8586.388927
1019.163697,229.828649,-296.082377,8882.471304
1019.164013,0.000000,-1332.370696,9326.594869
1019.164328,-689.485948,-2072.576638,9844.739029
1019.164644,-536.266849,-2516.700203,10362.883188
1019.164960,-919.314598,-2294.638420,10584.944971
1019.165276,-459.657299,-1406.391290,10436.903782
1019.165592,-306.438199,-296.082377,9548.656652
1019.165907,0.000000,370.102971,9030.512492
1019.166223,-306.438199,1110.308913,8364.327145
1019.166539,306.438199,1110.308913,8142.265362
1019.166855,383.047749,1258.350101,7920.203579
1019.167171,76.609550,666.185348,8142.265362
1019.167486,76.609550,-296.082377,8660.409521
1019.167802,-612.876398,-1554.432478,9474.636058
1019.168118,-1455.581446,-1924.535449,10066.800811
1019.168434,-1302.362347,-2146.597232,10510.924376
1019.168750,-995.924147,-2072.576638,10584.944971
1019.169066,-689.485948,-962.267725,10214.842000
1019.169381,-536.266849,-222.061783,9400.615463
1019.169697,0.000000,222.061783,8808.450710
1019.170013,306.438199,740.205942,8438.347739
1019.170329,612.876398,1554.432478,8216.285956
1019.170645,842.705048,1332.370696,8142.265362
1019.170960,612.876398,962.267725,8512.368333
1019.171276,612.876398,-148.041188,8734.430116
1019.171592,153.219100,-1258.350101,9400.615463
1019.171908,0.000000,-1554.432478,10066.800811
