#time,accel_x,accel_y,accel_z
517.545219,2298.286494,370.102971,8882.471304
517.545535,2374.896044,444.123565,9104.533087
517.545850,2451.505594,222.061783,9252.574275
517.546166,2298.286494,222.061783,9400.615463
517.546482,2068.457845,444.123565,9474.636058
517.546797,1762.019645,740.205942,9326.594869
517.547113,1455.581446,814.226536,9326.594869
517.547428,1762.019645,962.267725,9622.677246
517.547744,1149.143247,592.164754,9178.553681
517.548059,1149.143247,296.082377,9474.636058
517.548375,612.876398,-0.000000,9326.594869
517.548690,0.000000,-296.082377,9474.636058
517.549006,306.438199,-518.144159,9696.697840
517.549321,76.609550,-296.082377,9622.677246
517.549637,229.828649,-0.000000,9622.677246
517.549953,0.000000,-0.000000,9548.656652
517.550268,0.000000,148.041188,9400.615463
517.550584,76.609550,296.082377,9400.615463
517.550899,383.047749,1036.288319,9400.615463
517.551215,536.266849,962.267725,9104.533087
517.551530,689.485948,814.226536,9178.553681
517.551846,766.095498,518.144159,9474.636058
517.552161,612.876398,148.041188,9400.615463
517.552477,995.924147,148.041188,9548.656652
517.552793,766.095498,-74.020594,9474.636058
517.553108,766.095498,-0.000000,9696.697840
517.553424,383.047749,-444.123565,9622.677246
517.553739,1149.143247,74.020594,9770.718434
517.554055,995.924147,296.082377,9696.697840
517.554370,995.924147,444.123565,9474.636058
517.554686,995.924147,814.226536,9622.677246
517.555001,1149.143247,592.164754,9474.636058
517.555317,1378.971896,444.123565,9622.677246
517.555633,1455.581446,370.102971,9474.636058
517.555948,1608.800546,444.123565,9474.636058
517.556264,1378.971896,296.082377,9474.636058
517.556579,1532.190996,-74.020594,9696.697840
517.556895,2145.067394,-0.000000,9474.636058
517.557210,2068.457845,-148.041188,9474.636058
517.557526,1762.019645,-0.000000,9696.697840
517.557841,1762.019645,-0.000000,9844.739029
517.558157,1608.800546,-148.041188,10066.800811
517.558472,1762.019645,-0.000000,9770.718434
517.558788,1532.190996,148.041188,9474.636058
517.559104,1455.581446,148.041188,9400.615463
517.559419,1302.362347,-0.000000,9252.574275
517.559735,1149.143247,148.041188,9548.656652
517.560050,1302.362347,148.041188,9252.574275
517.560366,842.705048,518.144159,9474.636058
517.560681,842.705048,296.082377,9474.636058
517.560997,766.095498,592.164754,9252.574275
517.561312,766.095498,444.123565,9326.594869
517.561628,842.705048,370.102971,9104.533087
517.561944,919.314598,740.205942,9400.615463
517.562259,842.705048,518.144159,9400.615463
517.562575,995.924147,592.164754,9474.636058
517.562890,919.314598,814.226536,9252.574275
517.563206,842.705048,740.205942,9030.512492
517.563521,536.266849,740.205942,9178.553681
517.563837,536.266849,814.226536,9178.553681
517.564152,1072.533697,814.226536,9474.636058
517.564468,229.828649,1036.288319,9104.533087
517.564783,153.219100,1184.329507,9178.553681
517.565099,0.000000,1036.288319,9178.553681
517.565415,-153.219100,814.226536,9326.594869
517.565730,-153.219100,370.102971,9178.553681
517.566046,-459.657299,296.082377,9474.636058
517.566361,-306.438199,444.123565,9474.636058
517.566677,-612.876398,-74.020594,9622.677246
517.566992,-842.705048,-0.000000,9770.718434
517.567308,-919.314598,-296.082377,10214.842000
517.567623,-842.705048,-74.020594,9696.697840
517.567939,-766.095498,-296.082377,9770.718434
517.568255,-766.095498,-148.041188,9696.697840
517.568570,-689.485948,-888.247130,9696.697840
517.568886,-459.657299,-592.164754,10288.862594
517.569201,-766.095498,-814.226536,9992.780217
517.569517,-536.266849,-666.185348,9992.780217
517.569832,-383.047749,-888.247130,9844.739029
517.570148,-153.219100,-666.185348,9770.718434
517.570463,-306.438199,-666.185348,9696.697840
517.570779,-383.047749,-444.123565,9622.677246
517.571094,0.000000,-740.205942,9548.656652
517.571410,0.000000,-888.247130,9474.636058
517.571726,0.000000,-1036.288319,9696.697840
517.572041,76.609550,-1258.350101,9696.697840
517.572357,153.219100,-1184.329507,9696.697840
517.572672,306.438199,-1184.329507,9622.677246
517.572988,229.828649,-1184.329507,9696.697840
517.573303,229.828649,-1110.308913,9770.718434
517.573619,383.047749,-1184.329507,9622.677246
517.573935,229.828649,-1110.308913,9622.677246
517.574250,306.438199,-1036.288319,9696.697840
517.574566,612.876398,-1110.308913,9548.656652
517.574882,919.314598,-1036.288319,9548.656652
517.575197,919.314598,-740.205942,9252.574275
517.575513,1302.362347,-666.185348,9030.512492
517.575828,1685.410096,-444.123565,8734.430116
517.576144,1685.410096,-148.041188,8660.409521
517.576460,2145.067394,-0.000000,8660.409521
517.576775,1915.238745,-0.000000,8586.388927
517.577091,1838.629195,-0.000000,8660.409521
517.577407,1915.238745,-0.000000,8586.388927
517.577722,1762.019645,-518.144159,8956.491898
517.578038,1455.581446,-74.020594,9178.553681
517.578354,1762.019645,-222.061783,9104.533087
517.578669,1225.752797,-370.102971,9400.615463
517.578985,1225.752797,-222.061783,9400.615463
517.579301,1149.143247,-370.102971,9400.615463
517.579616,1149.143247,-74.020594,9400.615463
517.579932,1302.362347,148.041188,9326.594869
517.580248,1378.971896,296.082377,9252.574275
517.580563,1072.533697,666.185348,9030.512492
517.580879,1072.533697,592.164754,8956.491898
517.581195,919.314598,740.205942,9030.512492
517.581510,995.924147,888.247130,8882.471304
517.581826,766.095498,296.082377,9104.533087
517.582142,766.095498,-74.020594,9178.553681
517.582457,153.219100,-0.000000,9696.697840
517.582773,-229.828649,-296.082377,10066.800811
517.583089,-689.485948,-444.123565,10288.862594
517.583404,-766.095498,-222.061783,10510.924376
517.583720,-1225.752797,-0.000000,10436.903782
517.584036,-1072.533697,222.061783,10362.883188
517.584351,-995.924147,444.123565,10066.800811
517.584667,-689.485948,814.226536,9770.718434
517.584983,-842.705048,518.144159,9474.636058
517.585298,-766.095498,518.144159,9326.594869
517.585614,-459.657299,296.082377,9696.697840
517.585930,-459.657299,666.185348,9400.615463
517.586245,-229.828649,222.061783,9548.656652
517.586561,-306.438199,518.144159,9770.718434
517.586877,-229.828649,444.123565,9622.677246
517.587192,-612.876398,518.144159,9696.697840
517.587508,-536.266849,592.164754,9992.780217
517.587824,-689.485948,592.164754,9844.739029
517.588139,-459.657299,370.102971,9844.739029
517.588455,-306.438199,518.144159,10214.842000
517.588771,-612.876398,222.061783,9918.759623
517.589086,-536.266849,-0.000000,10066.800811
517.589402,-536.266849,222.061783,9918.759623
517.589718,-76.609550,-222.061783,9844.739029
517.590033,76.609550,-0.000000,9770.718434
517.590349,306.438199,-0.000000,9696.697840
517.590664,536.266849,-0.000000,9252.574275
517.590980,766.095498,-0.000000,9252.574275
517.591296,1149.143247,-0.000000,9400.615463
517.591611,919.314598,-74.020594,8956.491898
517.591927,919.314598,-74.020594,9252.574275
517.592243,919.314598,-222.061783,9104.533087
517.592558,689.485948,-296.082377,9400.615463
517.592874,995.924147,-888.247130,9400.615463
517.593190,459.657299,-592.164754,9474.636058
517.593505,612.876398,-592.164754,9770.718434
517.593821,689.485948,-814.226536,9400.615463
517.594137,919.314598,-888.247130,9400.615463
517.594452,689.485948,-1036.288319,9474.636058
517.594768,766.095498,-1110.308913,9474.636058
517.595084,612.876398,-962.267725,9400.615463
517.595399,842.705048,-740.205942,9178.553681
517.595715,995.924147,-740.205942,9178.553681
517.596031,995.924147,-888.247130,9104.533087
517.596346,689.485948,-962.267725,8882.471304
517.596662,995.924147,-1110.308913,9178.553681
517.596978,459.657299,-1332.370696,9178.553681
517.597293,689.485948,-1258.350101,9400.615463
517.597609,689.485948,-1628.453072,9770.718434
517.597925,306.438199,-1554.432478,9548.656652
517.598240,383.047749,-1184.329507,9622.677246
517.598556,536.266849,-1036.288319,9400.615463
517.598872,919.314598,-962.267725,9474.636058
517.599187,1225.752797,-962.267725,9252.574275
517.599503,842.705048,-740.205942,9104.533087
517.599819,1072.533697,-666.185348,8808.450710
517.600134,1149.143247,-666.185348,9104.533087
517.600450,1149.143247,-666.185348,9104.533087
517.600766,459.657299,-1184.329507,9104.533087
517.601081,459.657299,-888.247130,9400.615463
517.601397,536.266849,-888.247130,9474.636058
517.601713,536.266849,-666.185348,9474.636058
517.602028,0.000000,-518.144159,9548.656652
517.602344,76.609550,-518.144159,9770.718434
517.602660,306.438199,-592.164754,9622.677246
517.602975,76.609550,-444.123565,9622.677246
517.603291,459.657299,-222.061783,9622.677246
517.603607,306.438199,-148.041188,9474.636058
517.603922,306.438199,-222.061783,9474.636058
517.604238,459.657299,-74.020594,9400.615463
517.604554,766.095498,-0.000000,9104.533087
517.604869,919.314598,518.144159,9326.594869
517.605185,995.924147,-0.000000,9400.615463
517.605500,612.876398,222.061783,9252.574275
517.605816,536.266849,222.061783,9474.636058
517.606132,536.266849,222.061783,9622.677246
517.606447,383.047749,296.082377,9548.656652
517.606763,76.609550,-0.000000,9770.718434
517.607079,306.438199,296.082377,9918.759623
517.607394,306.438199,518.144159,9696.697840
517.607710,383.047749,518.144159,9992.780217
517.608026,383.047749,518.144159,9770.718434
517.608341,153.219100,518.144159,9622.677246
517.608657,459.657299,666.185348,9548.656652
517.608973,306.438199,962.267725,9474.636058
517.609288,459.657299,1110.308913,9474.636058
517.609604,229.828649,962.267725,9400.615463
517.609920,1225.752797,888.247130,9400.615463
517.610235,766.095498,1036.288319,9474.636058
517.610551,306.438199,666.185348,9400.615463
517.610867,383.047749,518.144159,9770.718434
517.611182,459.657299,518.144159,9992.780217
517.611498,0.000000,296.082377,10288.862594
517.611814,0.000000,148.041188,10140.821405
517.612129,0.000000,296.082377,10214.842000
517.612445,229.828649,296.082377,9918.759623
517.612761,306.438199,370.102971,9918.759623
517.613076,229.828649,444.123565,9696.697840
517.613392,459.657299,370.102971,9326.594869
517.613708,919.314598,666.185348,9326.594869
517.614023,1149.143247,518.144159,9104.533087
517.614339,1149.143247,-74.020594,9178.553681
517.614655,1302.362347,148.041188,9178.553681
517.614970,995.924147,-74.020594,9326.594869
517.615286,919.314598,-148.041188,9548.656652
517.615602,689.485948,-296.082377,9622.677246
517.615917,536.266849,-518.144159,9548.656652
517.616233,459.657299,-666.185348,9696.697840
517.616549,306.438199,-814.226536,9770.718434
517.616864,0.000000,-666.185348,9918.759623
517.617180,76.609550,-888.247130,9844.739029
517.617496,229.828649,-814.226536,9622.677246
517.617811,536.266849,-740.205942,9474.636058
517.618127,612.876398,-666.185348,9326.594869
517.618443,766.095498,-666.185348,9030.512492
517.618758,1149.143247,-814.226536,9178.553681
517.619074,766.095498,-518.144159,8734.430116
517.619389,1072.533697,-444.123565,8882.471304
517.619705,766.095498,-444.123565,8808.450710
517.620021,689.485948,-592.164754,8956.491898
517.620336,229.828649,-666.185348,9104.533087
517.620652,76.609550,-740.205942,9474.636058
517.620968,0.000000,-814.226536,9474.636058
517.621283,0.000000,-962.267725,9622.677246
517.621599,0.000000,-888.247130,9474.636058
517.621915,0.000000,-740.205942,9474.636058
517.622230,0.000000,-814.226536,9252.574275
517.622546,76.609550,-740.205942,9178.553681
517.622862,842.705048,-666.185348,9252.574275
517.623177,459.657299,-740.205942,9178.553681
517.623493,0.000000,-740.205942,9030.512492
517.623809,0.000000,-444.123565,9326.594869
517.624124,0.000000,-666.185348,9030.512492
517.624440,0.000000,-370.102971,9326.594869
517.624756,153.219100,-518.144159,9252.574275
517.625071,0.000000,-592.164754,9474.636058
517.625387,-306.438199,-888.247130,9548.656652
517.625703,-536.266849,-888.247130,9844.739029
517.626018,76.609550,-962.267725,9918.759623
517.626334,-612.876398,-888.247130,9918.759623
517.626650,-536.266849,-888.247130,9992.780217
517.626965,0.000000,-296.082377,9696.697840
517.627281,0.000000,-518.144159,9326.594869
517.627597,383.047749,-296.082377,9400.615463
517.627912,689.485948,-666.185348,9548.656652
517.628228,536.266849,-370.102971,9326.594869
517.628544,459.657299,-222.061783,9252.574275
517.628859,689.485948,-370.102971,9252.574275
517.629175,689.485948,-222.061783,9474.636058
517.629491,76.609550,-296.082377,9474.636058
517.629806,383.047749,-148.041188,9622.677246
517.630122,76.609550,-518.144159,9474.636058
517.630438,0.000000,-74.020594,9918.759623
517.630753,76.609550,-222.061783,9696.697840
517.631069,459.657299,-0.000000,9548.656652
517.631385,383.047749,-148.041188,9770.718434
517.631700,612.876398,-0.000000,9474.636058
517.632016,766.095498,-0.000000,9622.677246
517.632332,919.314598,-0.000000,9326.594869
517.632647,1455.581446,-0.000000,9252.574275
517.632963,919.314598,444.123565,9400.615463
517.633279,1149.143247,444.123565,9030.512492
517.633594,919.314598,666.185348,9252.574275
517.633910,995.924147,666.185348,9326.594869
517.634225,842.705048,518.144159,9474.636058
517.634541,766.095498,666.185348,9548.656652
517.634857,612.876398,1036.288319,9548.656652
517.635172,1072.533697,740.205942,9326.594869
517.635488,536.266849,740.205942,9770.718434
517.635804,766.095498,592.164754,9622.677246
517.636119,689.485948,666.185348,9622.677246
517.636435,842.705048,740.205942,9474.636058
517.636751,995.924147,666.185348,9400.615463
517.637066,1378.971896,444.123565,9104.533087
517.637382,842.705048,666.185348,9252.574275
517.637698,995.924147,814.226536,9178.553681
517.638013,919.314598,740.205942,9030.512492
517.638329,766.095498,666.185348,9104.533087
517.638645,842.705048,444.123565,9474.636058
517.638960,229.828649,222.061783,9770.718434
517.639276,153.219100,-0.000000,9696.697840
517.639592,153.219100,-222.061783,9918.759623
517.639907,229.828649,-296.082377,9992.780217
517.640223,153.219100,-592.164754,10066.800811
517.640539,0.000000,-74.020594,9992.780217
517.640854,459.657299,-74.020594,9770.718434
517.641170,459.657299,-148.041188,9548.656652
517.641486,612.876398,-148.041188,9400.615463
517.641801,995.924147,-0.000000,9474.636058
517.642117,612.876398,-222.061783,9252.574275
517.642433,612.876398,-296.082377,9400.615463
517.642748,459.657299,-592.164754,9104.533087
517.643064,459.657299,-444.123565,9252.574275
517.643380,383.047749,-592.164754,9400.615463
517.643695,76.609550,-888.247130,9622.677246
517.644011,0.000000,-666.185348,9696.697840
517.644327,-229.828649,-666.185348,9770.718434
517.644642,0.000000,-814.226536,9992.780217
517.644958,-459.657299,-1406.391290,9622.677246
517.645274,-306.438199,-1332.370696,9770.718434
517.645589,-383.047749,-962.267725,9844.739029
517.645905,0.000000,-1110.308913,9548.656652
517.646221,0.000000,-888.247130,9474.636058
517.646536,229.828649,-592.164754,9326.594869
517.646852,459.657299,-592.164754,8882.471304
517.647168,536.266849,-592.164754,8882.471304
517.647483,842.705048,-444.123565,9030.512492
517.647799,689.485948,-444.123565,9104.533087
517.648115,689.485948,-518.144159,8808.450710
517.648430,612.876398,-592.164754,8956.491898
517.648746,459.657299,-592.164754,9326.594869
517.649061,306.438199,-666.185348,9400.615463
517.649377,76.609550,-814.226536,9400.615463
517.649693,306.438199,-592.164754,9474.636058
517.650008,153.219100,-740.205942,9548.656652
517.650324,153.219100,-592.164754,9622.677246
517.650640,383.047749,-666.185348,9474.636058
517.650955,383.047749,-814.226536,9400.615463
517.651271,306.438199,-814.226536,9252.574275
517.651587,612.876398,-222.061783,9030.512492
517.651902,459.657299,-370.102971,9326.594869
517.652218,306.438199,-370.102971,9178.553681
517.652534,383.047749,-296.082377,9400.615463
517.652849,536.266849,-370.102971,9252.574275
517.653165,459.657299,-370.102971,9474.636058
517.653481,153.219100,-518.144159,9474.636058
517.653796,229.828649,-888.247130,9696.697840
517.654112,306.438199,-666.185348,9622.677246
517.654428,459.657299,-666.185348,9770.718434
517.654743,0.000000,-370.102971,9918.759623
517.655059,229.828649,-370.102971,9622.677246
517.655375,612.876398,-296.082377,9770.718434
517.655690,459.657299,-0.000000,9474.636058
517.656006,919.314598,-0.000000,9252.574275
517.656322,995.924147,-0.000000,9252.574275
517.656637,1225.752797,-0.000000,9178.553681
517.656953,995.924147,-0.000000,9030.512492
517.657269,995.924147,-0.000000,9400.615463
517.657584,1149.143247,148.041188,9474.636058
517.657900,766.095498,148.041188,9696.697840
517.658216,612.876398,-0.000000,9770.718434
517.658531,995.924147,-518.144159,9918.759623
517.658847,689.485948,222.061783,9918.759623
517.659163,306.438199,222.061783,9770.718434
517.659478,612.876398,444.123565,9844.739029
517.659794,766.095498,444.123565,9696.697840
517.660110,842.705048,296.082377,9696.697840
517.660425,612.876398,370.102971,9326.594869
517.660741,459.657299,740.205942,9696.697840
517.661057,919.314598,740.205942,9326.594869
517.661372,919.314598,740.205942,9400.615463
517.661688,995.924147,740.205942,9400.615463
517.662004,842.705048,666.185348,9400.615463
517.662319,766.095498,592.164754,9474.636058
517.662635,919.314598,592.164754,9548.656652
517.662951,842.705048,370.102971,9844.739029
517.663266,459.657299,740.205942,9474.636058
517.663582,229.828649,592.164754,9770.718434
517.663897,536.266849,666.185348,9770.718434
517.664213,689.485948,518.144159,9696.697840
517.664529,689.485948,592.164754,9918.759623
517.664844,919.314598,592.164754,9474.636058
517.665160,536.266849,444.123565,9474.636058
517.665476,689.485948,370.102971,9474.636058
517.665791,842.705048,666.185348,9252.574275
517.666107,612.876398,370.102971,9104.533087
517.666423,612.876398,444.123565,9178.553681
517.666738,612.876398,370.102971,9252.574275
517.667054,459.657299,-0.000000,9622.677246
517.667370,76.609550,-444.123565,9252.574275
517.667685,0.000000,-370.102971,9918.759623
517.668001,0.000000,-814.226536,9992.780217
517.668317,-306.438199,-518.144159,10140.821405
517.668632,-459.657299,-296.082377,10140.821405
517.668948,0.000000,-666.185348,10140.821405
517.669264,76.609550,-518.144159,9696.697840
517.669579,153.219100,-518.144159,9696.697840
517.669895,306.438199,-518.144159,9474.636058
517.670211,383.047749,-888.247130,9030.512492
517.670526,842.705048,-444.123565,9178.553681
517.670842,842.705048,-518.144159,9104.533087
517.671158,459.657299,-666.185348,9178.553681
517.671473,766.095498,-740.205942,9326.594869
517.671789,306.438199,-740.205942,9474.636058
517.672104,0.000000,-518.144159,9548.656652
517.672420,0.000000,-888.247130,9400.615463
517.672735,0.000000,-1184.329507,9622.677246
517.673051,0.000000,-1332.370696,9844.739029
517.673366,0.000000,-1702.473667,9622.677246
517.673681,0.000000,-1480.411884,9400.615463
517.673997,0.000000,-1258.350101,9622.677246
517.674312,-153.219100,-962.267725,9696.697840
517.674628,153.219100,-1036.288319,9400.615463
517.674943,153.219100,-666.185348,9400.615463
517.675259,306.438199,-888.247130,9252.574275
517.675574,383.047749,-888.247130,8956.491898
517.675890,383.047749,-666.185348,8956.491898
517.676205,842.705048,-444.123565,8882.471304
517.676521,536.266849,-666.185348,9030.512492
517.676836,1072.533697,-888.247130,9178.553681
517.677151,766.095498,-666.185348,9178.553681
517.677467,229.828649,-962.267725,9400.615463
517.677782,153.219100,-888.247130,9474.636058
517.678098,0.000000,-888.247130,9474.636058
517.678413,0.000000,-888.247130,9474.636058
517.678729,153.219100,-592.164754,9548.656652
517.679044,229.828649,-592.164754,9400.615463
517.679360,306.438199,-518.144159,9326.594869
517.679675,229.828649,-518.144159,9252.574275
517.679991,459.657299,370.102971,9104.533087
517.680306,229.828649,-74.020594,9326.594869
517.680621,229.828649,-74.020594,9030.512492
517.680937,229.828649,-0.000000,9326.594869
517.681252,0.000000,-296.082377,9400.615463
517.681568,76.609550,-222.061783,9918.759623
517.681883,76.609550,-370.102971,9474.636058
517.682199,0.000000,-370.102971,9696.697840
517.682514,0.000000,-444.123565,9992.780217
517.682830,153.219100,-370.102971,9992.780217
517.683145,-459.657299,-518.144159,9770.718434
517.683461,229.828649,-0.000000,9770.718434
517.683776,306.438199,-0.000000,9770.718434
517.684091,229.828649,-0.000000,9474.636058
517.684407,612.876398,222.061783,9400.615463
517.684722,383.047749,-296.082377,9030.512492
517.685038,612.876398,296.082377,9326.594869
517.685353,612.876398,370.102971,9252.574275
517.685669,612.876398,148.041188,9400.615463
517.685984,612.876398,222.061783,9548.656652
517.686300,0.000000,-222.061783,9548.656652
517.686615,536.266849,296.082377,9548.656652
517.686930,0.000000,-0.000000,9992.780217
517.687246,0.000000,222.061783,9918.759623
517.687561,383.047749,222.061783,9696.697840
517.687877,995.924147,148.041188,10288.862594
517.688192,612.876398,370.102971,9696.697840
517.688508,536.266849,444.123565,9548.656652
517.688823,612.876398,444.123565,9548.656652
517.689139,766.095498,592.164754,9474.636058
517.689454,383.047749,444.123565,8660.409521
517.689770,536.266849,592.164754,9326.594869
517.690085,689.485948,592.164754,9400.615463
517.690400,842.705048,592.164754,9474.636058
517.690716,919.314598,740.205942,9474.636058
517.691031,1225.752797,444.123565,9844.739029
517.691347,536.266849,592.164754,9400.615463
517.691662,536.266849,592.164754,9622.677246
517.691978,995.924147,444.123565,9474.636058
517.692293,842.705048,518.144159,9548.656652
517.692609,842.705048,518.144159,9696.697840
517.692924,766.095498,370.102971,9474.636058
517.693240,766.095498,518.144159,9474.636058
517.693555,919.314598,592.164754,9474.636058
517.693870,1225.752797,518.144159,9178.553681
517.694186,995.924147,666.185348,9104.533087
517.694501,995.924147,518.144159,9178.553681
517.694817,842.705048,370.102971,9178.553681
517.695132,383.047749,222.061783,9252.574275
517.695448,766.095498,148.041188,9474.636058
517.695763,229.828649,-0.000000,9696.697840
517.696079,459.657299,-296.082377,9696.697840
517.696394,153.219100,-370.102971,9992.780217
517.696710,0.000000,-666.185348,10140.821405
517.697025,306.438199,-814.226536,10066.800811
517.697340,153.219100,-370.102971,9622.677246
517.697656,76.609550,-370.102971,9474.636058
517.697971,459.657299,-148.041188,9474.636058
517.698287,689.485948,-222.061783,9326.594869
517.698602,766.095498,-296.082377,9252.574275
517.698918,536.266849,-444.123565,9104.533087
517.699233,766.095498,-222.061783,9252.574275
517.699549,919.314598,-666.185348,9178.553681
517.699864,383.047749,-666.185348,9326.594869
517.700179,153.219100,-592.164754,9844.739029
517.700495,76.609550,-666.185348,9474.636058
517.700810,-229.828649,-888.247130,9548.656652
517.701126,-229.828649,-888.247130,9696.697840
517.701441,0.000000,-1184.329507,9992.780217
517.701757,-153.219100,-962.267725,10066.800811
517.702072,76.609550,-962.267725,9844.739029
517.702388,-306.438199,-962.267725,9770.718434
517.702703,76.609550,-1110.308913,9474.636058
517.703019,536.266849,-740.205942,9622.677246
517.703334,536.266849,-592.164754,9252.574275
517.703649,459.657299,-592.164754,9030.512492
517.703965,689.485948,-370.102971,9104.533087
517.704280,612.876398,-296.082377,8882.471304
517.704596,995.924147,-148.041188,8882.471304
517.704911,459.657299,-444.123565,9178.553681
517.705227,536.266849,-296.082377,9548.656652
517.705542,612.876398,-444.123565,9474.636058
517.705858,383.047749,-592.164754,9548.656652
517.706173,459.657299,-814.226536,9252.574275
517.706489,459.657299,-444.123565,9622.677246
517.706804,229.828649,-518.144159,9548.656652
517.707119,459.657299,-370.102971,9474.636058
517.707435,306.438199,-370.102971,9474.636058
517.707750,0.000000,-444.123565,9474.636058
517.708066,459.657299,-296.082377,9178.553681
517.708381,459.657299,-222.061783,9178.553681
517.708697,229.828649,-370.102971,9178.553681
517.709012,306.438199,-222.061783,9104.533087
517.709328,153.219100,-0.000000,9400.615463
517.709643,459.657299,-296.082377,9252.574275
517.709959,153.219100,-444.123565,9474.636058
517.710274,76.609550,-592.164754,9622.677246
517.710589,306.438199,-666.185348,9918.759623
517.710905,229.828649,-444.123565,9844.739029
517.711220,229.828649,-370.102971,9918.759623
517.711536,383.047749,-148.041188,9622.677246
517.711851,306.438199,-222.061783,9770.718434
517.712167,459.657299,-222.061783,9622.677246
517.712482,689.485948,-296.082377,9326.594869
517.712798,842.705048,-222.061783,9104.533087
517.713113,842.705048,-0.000000,9178.553681
517.713429,995.924147,-222.061783,9326.594869
517.713744,1225.752797,-296.082377,9178.553681
517.714059,766.095498,-148.041188,9400.615463
517.714375,459.657299,-222.061783,9474.636058
517.714690,383.047749,-0.000000,9844.739029
517.715006,612.876398,-148.041188,9770.718434
517.715321,536.266849,-222.061783,9696.697840
517.715637,459.657299,-222.061783,9770.718434
517.715952,306.438199,-74.020594,9696.697840
517.716268,383.047749,-74.020594,9770.718434
517.716583,689.485948,-0.000000,9474.636058
517.716898,842.705048,-0.000000,9326.594869
517.717214,766.095498,148.041188,9400.615463
517.717529,766.095498,370.102971,9326.594869
517.717845,842.705048,444.123565,9178.553681
517.718160,919.314598,444.123565,9178.553681
517.718476,919.314598,148.041188,8734.430116
517.718791,1149.143247,296.082377,9178.553681
517.719107,919.314598,444.123565,9474.636058
517.719422,612.876398,222.061783,9474.636058
517.719738,689.485948,518.144159,9622.677246
517.720053,459.657299,148.041188,9400.615463
517.720368,842.705048,296.082377,9474.636058
517.720684,383.047749,296.082377,9770.718434
517.720999,689.485948,296.082377,9696.697840
517.721315,459.657299,370.102971,9548.656652
517.721630,612.876398,222.061783,9474.636058
517.721946,919.314598,592.164754,9400.615463
517.722261,766.095498,444.123565,9252.574275
517.722577,612.876398,518.144159,9104.533087
517.722892,536.266849,518.144159,9326.594869
517.723208,536.266849,296.082377,9030.512492
517.723523,306.438199,-0.000000,9400.615463
517.723838,229.828649,-0.000000,9548.656652
517.724154,612.876398,-74.020594,9992.780217
517.724469,-153.219100,-370.102971,9770.718434
517.724785,0.000000,-518.144159,9992.780217
517.725100,-153.219100,-296.082377,10214.842000
517.725416,-383.047749,-296.082377,10362.883188
517.725731,0.000000,-296.082377,9770.718434
517.726047,229.828649,-148.041188,9622.677246
517.726362,306.438199,-370.102971,9474.636058
517.726678,536.266849,-74.020594,9326.594869
517.726993,689.485948,-444.123565,9178.553681
517.727308,689.485948,-518.144159,9474.636058
517.727624,689.485948,-296.082377,9252.574275
517.727939,612.876398,-518.144159,9400.615463
517.728255,306.438199,-518.144159,9400.615463
517.728570,76.609550,-444.123565,9474.636058
517.728886,0.000000,-740.205942,9696.697840
517.729201,0.000000,-740.205942,9696.697840
517.729517,-306.438199,-666.185348,9844.739029
517.729832,-153.219100,-888.247130,9844.739029
517.730147,-229.828649,-1110.308913,9844.739029
517.730463,0.000000,-962.267725,9548.656652
517.730778,0.000000,-888.247130,9548.656652
517.731094,229.828649,-518.144159,9474.636058
517.731409,306.438199,-370.102971,9474.636058
517.731725,612.876398,-370.102971,9104.533087
517.732040,689.485948,-222.061783,8882.471304
517.732356,842.705048,-222.061783,8882.471304
517.732671,689.485948,-296.082377,9030.512492
517.732987,766.095498,-222.061783,9030.512492
517.733302,536.266849,-370.102971,9104.533087
517.733617,229.828649,-370.102971,9030.512492
517.733933,383.047749,-444.123565,9400.615463
517.734248,229.828649,-296.082377,9252.574275
517.734564,76.609550,-222.061783,9474.636058
517.734879,306.438199,-0.000000,9622.677246
517.735195,306.438199,-370.102971,9548.656652
517.735510,229.828649,-148.041188,9474.636058
517.735826,229.828649,-74.020594,9400.615463
517.736141,459.657299,-222.061783,9104.533087
517.736457,842.705048,-148.041188,9326.594869
517.736772,383.047749,-518.144159,9178.553681
517.737087,612.876398,-0.000000,9104.533087
517.737403,306.438199,-0.000000,9252.574275
517.737718,229.828649,-0.000000,9474.636058
517.738034,0.000000,-444.123565,9622.677246
517.738349,76.609550,-444.123565,9474.636058
517.738665,0.000000,-444.123565,9918.759623
517.738980,0.000000,-444.123565,9844.739029
517.739296,76.609550,-518.144159,9844.739029
517.739611,229.828649,-592.164754,10066.800811
517.739927,76.609550,-296.082377,9844.739029
517.740242,306.438199,-0.000000,9622.677246
517.740557,689.485948,-0.000000,9474.636058
517.740873,612.876398,-74.020594,9474.636058
517.741188,1455.581446,-0.000000,9326.594869
517.741504,1072.533697,-0.000000,9252.574275
517.741819,689.485948,-0.000000,9400.615463
517.742135,766.095498,-0.000000,9474.636058
517.742450,689.485948,-0.000000,9474.636058
517.742766,306.438199,-0.000000,9548.656652
517.743081,306.438199,-370.102971,9622.677246
517.743397,76.609550,-222.061783,9696.697840
517.743712,306.438199,-0.000000,9844.739029
517.744027,229.828649,-0.000000,9918.759623
517.744343,306.438199,-74.020594,9696.697840
517.744658,459.657299,-0.000000,9622.677246
517.744974,536.266849,-0.000000,9622.677246
517.745289,612.876398,148.041188,9548.656652
517.745605,766.095498,148.041188,9400.615463
517.745920,689.485948,370.102971,9326.594869
517.746236,842.705048,296.082377,9400.615463
517.746551,995.924147,222.061783,8882.471304
517.746866,766.095498,222.061783,9252.574275
517.747182,766.095498,370.102971,9474.636058
517.747497,919.314598,296.082377,9474.636058
517.747813,689.485948,-0.000000,9548.656652
517.748128,536.266849,296.082377,9474.636058
517.748444,536.266849,-0.000000,9474.636058
517.748759,842.705048,-0.000000,9622.677246
517.749075,1149.143247,-0.000000,9474.636058
517.749390,766.095498,-0.000000,9326.594869
517.749706,919.314598,-0.000000,9252.574275
517.750021,766.095498,148.041188,9252.574275
517.750336,919.314598,222.061783,9326.594869
517.750652,995.924147,148.041188,9326.594869
517.750967,919.314598,148.041188,9252.574275
517.751283,689.485948,518.144159,9178.553681
517.751598,612.876398,148.041188,8956.491898
517.751914,153.219100,-148.041188,9400.615463
517.752229,306.438199,-148.041188,9992.780217
517.752545,229.828649,-370.102971,9622.677246
517.752860,153.219100,-222.061783,9844.739029
517.753176,-306.438199,-666.185348,9770.718434
517.753491,0.000000,-370.102971,9770.718434
517.753806,76.609550,-370.102971,9770.718434
517.754122,0.000000,-296.082377,9548.656652
517.754437,383.047749,-0.000000,9622.677246
517.754753,766.095498,-74.020594,9252.574275
517.755068,536.266849,-444.123565,9326.594869
517.755384,842.705048,-222.061783,8882.471304
517.755699,766.095498,-222.061783,9104.533087
517.756015,689.485948,-296.082377,9400.615463
517.756330,612.876398,-666.185348,9326.594869
517.756646,995.924147,-444.123565,9474.636058
517.756961,229.828649,-592.164754,9474.636058
517.757276,76.609550,-740.205942,9622.677246
517.757592,0.000000,-814.226536,9844.739029
517.757907,0.000000,-888.247130,9770.718434
517.758223,153.219100,-1036.288319,9992.780217
517.758538,-229.828649,-962.267725,9918.759623
517.758854,0.000000,-814.226536,9696.697840
517.759169,383.047749,-740.205942,9622.677246
517.759485,229.828649,-666.185348,9474.636058
517.759800,76.609550,-814.226536,9400.615463
517.760115,536.266849,-296.082377,9104.533087
517.760431,689.485948,-296.082377,9030.512492
517.760746,612.876398,-222.061783,9104.533087
517.761062,306.438199,-296.082377,9030.512492
517.761377,842.705048,-74.020594,9104.533087
517.761693,383.047749,-296.082377,9326.594869
517.762008,153.219100,-296.082377,9252.574275
517.762324,306.438199,-370.102971,9548.656652
517.762639,153.219100,-444.123565,9474.636058
517.762955,153.219100,-518.144159,9844.739029
517.763270,153.219100,-444.123565,9548.656652
517.763585,229.828649,-444.123565,9474.636058
517.763901,153.219100,-370.102971,9474.636058
517.764216,0.000000,-296.082377,9474.636058
517.764532,536.266849,-148.041188,9178.553681
517.764847,306.438199,-74.020594,9104.533087
517.765163,76.609550,-0.000000,9104.533087
517.765478,76.609550,-148.041188,9178.553681
517.765794,459.657299,-148.041188,9104.533087
517.766109,229.828649,-148.041188,9252.574275
517.766425,0.000000,-148.041188,9326.594869
517.766740,0.000000,-370.102971,9474.636058
517.767055,153.219100,-592.164754,9622.677246
517.767371,153.219100,-518.144159,9770.718434
517.767686,0.000000,-222.061783,9696.697840
517.768002,383.047749,-222.061783,9622.677246
517.768317,153.219100,-296.082377,9548.656652
517.768633,306.438199,-222.061783,9474.636058
517.768948,383.047749,-444.123565,9252.574275
517.769264,766.095498,-222.061783,9104.533087
517.769579,842.705048,-0.000000,9326.594869
517.769895,689.485948,-0.000000,9252.574275
517.770210,612.876398,-148.041188,9474.636058
517.770525,766.095498,-74.020594,9104.533087
517.770841,383.047749,-296.082377,9326.594869
517.771156,229.828649,-74.020594,9770.718434
517.771472,306.438199,-148.041188,9622.677246
517.771787,0.000000,-370.102971,9696.697840
517.772103,306.438199,-222.061783,9844.739029
517.772418,306.438199,-148.041188,9844.739029
517.772734,306.438199,-0.000000,9844.739029
517.773049,1072.533697,-444.123565,9696.697840
517.773365,766.095498,-0.000000,9622.677246
517.773680,842.705048,148.041188,9400.615463
517.773995,689.485948,370.102971,9474.636058
517.774311,919.314598,370.102971,9178.553681
517.774626,1225.752797,148.041188,9104.533087
517.774942,1072.533697,370.102971,9400.615463
517.775257,612.876398,-0.000000,9326.594869
517.775573,766.095498,370.102971,9474.636058
517.775888,383.047749,370.102971,9474.636058
517.776204,536.266849,296.082377,9178.553681
517.776519,383.047749,74.020594,9548.656652
517.776835,536.266849,444.123565,9770.718434
517.777150,536.266849,222.061783,9770.718434
517.777466,766.095498,370.102971,9548.656652
517.777781,995.924147,-0.000000,9400.615463
517.778097,919.314598,-0.000000,9252.574275
517.778412,536.266849,-0.000000,9252.574275
517.778728,766.095498,296.082377,9326.594869
517.779043,766.095498,296.082377,9326.594869
517.779359,459.657299,592.164754,9178.553681
517.779674,689.485948,370.102971,9104.533087
517.779990,306.438199,148.041188,9178.553681
517.780305,229.828649,-74.020594,9548.656652
517.780621,536.266849,-148.041188,9622.677246
517.780936,153.219100,-148.041188,9844.739029
517.781252,0.000000,-74.020594,9918.759623
517.781568,0.000000,-518.144159,9844.739029
517.781883,76.609550,-148.041188,9918.759623
517.782199,-383.047749,-666.185348,10066.800811
517.782514,0.000000,-222.061783,9696.697840
517.782830,306.438199,-222.061783,9474.636058
517.783145,536.266849,-444.123565,9178.553681
517.783461,536.266849,-222.061783,9104.533087
517.783776,536.266849,-222.061783,9104.533087
517.784092,689.485948,-296.082377,9326.594869
517.784407,766.095498,-518.144159,9030.512492
517.784723,536.266849,-740.205942,9104.533087
517.785038,306.438199,-666.185348,9474.636058
517.785354,766.095498,-814.226536,9400.615463
517.785669,153.219100,-666.185348,9696.697840
517.785985,0.000000,-740.205942,9770.718434
517.786300,-153.219100,-592.164754,9918.759623
517.786616,0.000000,-962.267725,9918.759623
517.786931,-306.438199,-962.267725,9770.718434
517.787247,76.609550,-814.226536,9548.656652
517.787562,0.000000,-962.267725,9252.574275
517.787878,459.657299,-666.185348,9252.574275
517.788193,306.438199,-444.123565,9030.512492
517.788509,536.266849,-592.164754,9104.533087
517.788824,612.876398,-148.041188,8956.491898
517.789140,612.876398,-74.020594,9030.512492
517.789455,689.485948,-74.020594,9178.553681
517.789771,459.657299,-444.123565,9030.512492
517.790087,229.828649,-148.041188,9548.656652
517.790402,76.609550,-444.123565,9474.636058
517.790718,229.828649,-518.144159,9622.677246
517.791033,229.828649,-296.082377,9622.677246
517.791349,229.828649,-148.041188,9622.677246
517.791664,306.438199,-370.102971,9696.697840
517.791980,229.828649,-370.102971,9400.615463
517.792295,306.438199,-296.082377,9474.636058
517.792611,383.047749,-222.061783,9252.574275
517.792926,229.828649,-148.041188,9474.636058
517.793242,689.485948,-0.000000,9622.677246
517.793557,459.657299,-74.020594,9030.512492
517.793873,306.438199,-0.000000,9178.553681
517.794188,383.047749,-222.061783,9326.594869
517.794504,536.266849,-666.185348,9474.636058
517.794819,0.000000,-296.082377,9548.656652
517.795135,229.828649,-518.144159,9844.739029
517.795450,0.000000,-740.205942,9696.697840
517.795766,0.000000,-666.185348,9992.780217
517.796081,0.000000,-444.123565,9918.759623
517.796397,229.828649,-370.102971,9622.677246
517.796712,153.219100,-74.020594,9696.697840
517.797028,459.657299,-222.061783,9622.677246
517.797343,689.485948,-148.041188,9326.594869
517.797659,766.095498,-74.020594,9178.553681
517.797974,995.924147,-222.061783,9178.553681
517.798290,995.924147,-0.000000,9252.574275
517.798606,842.705048,-370.102971,9326.594869
517.798921,766.095498,-74.020594,9474.636058
517.799237,842.705048,-74.020594,9696.697840
517.799552,459.657299,-74.020594,9770.718434
517.799868,536.266849,-0.000000,9622.677246
517.800183,153.219100,-148.041188,9770.718434
517.800499,153.219100,-148.041188,9770.718434
517.800814,229.828649,-74.020594,9548.656652
517.801130,612.876398,-74.020594,9548.656652
517.801445,689.485948,-74.020594,9474.636058
517.801761,459.657299,222.061783,9474.636058
517.802076,919.314598,-0.000000,9474.636058
517.802392,1072.533697,222.061783,9400.615463
517.802707,1072.533697,370.102971,9252.574275
517.803023,1225.752797,444.123565,9104.533087
517.803338,1072.533697,592.164754,9326.594869
517.803654,766.095498,592.164754,9474.636058
517.803969,766.095498,444.123565,9326.594869
517.804285,612.876398,370.102971,9400.615463
517.804600,689.485948,296.082377,9474.636058
517.804916,612.876398,370.102971,9474.636058
517.805231,383.047749,222.061783,9696.697840
517.805547,459.657299,444.123565,9918.759623
517.805862,842.705048,296.082377,9696.697840
517.806178,919.314598,296.082377,9400.615463
517.806493,995.924147,518.144159,9474.636058
517.806809,1225.752797,222.061783,9400.615463
517.807125,919.314598,518.144159,9104.533087
517.807440,842.705048,592.164754,9178.553681
517.807756,919.314598,518.144159,9104.533087
517.808071,612.876398,444.123565,9326.594869
517.808387,536.266849,148.041188,9474.636058
517.808702,383.047749,148.041188,9622.677246
517.809018,229.828649,-148.041188,9474.636058
517.809333,0.000000,-444.123565,9844.739029
517.809649,459.657299,-518.144159,9992.780217
517.809964,0.000000,-296.082377,10140.821405
517.810280,0.000000,-370.102971,9770.718434
517.810595,76.609550,-222.061783,9844.739029
517.810911,229.828649,-74.020594,9474.636058
517.811226,229.828649,-518.144159,9252.574275
517.811542,536.266849,-0.000000,9400.615463
517.811857,1225.752797,-222.061783,9178.553681
517.812173,536.266849,-444.123565,9178.553681
517.812488,766.095498,-370.102971,9400.615463
517.812804,689.485948,-444.123565,9326.594869
517.813119,306.438199,-518.144159,9474.636058
517.813435,76.609550,-592.164754,9548.656652
517.813750,0.000000,-740.205942,9622.677246
517.814066,229.828649,-592.164754,10140.821405
517.814381,0.000000,-814.226536,9770.718434
517.814697,-229.828649,-962.267725,9770.718434
517.815012,-229.828649,-888.247130,9770.718434
517.815328,0.000000,-962.267725,9474.636058
517.815644,-306.438199,-888.247130,9696.697840
517.815959,76.609550,-814.226536,9178.553681
517.816275,153.219100,-296.082377,9104.533087
517.816590,459.657299,-444.123565,9178.553681
517.816906,766.095498,-222.061783,8882.471304
517.817221,842.705048,-518.144159,8734.430116
517.817537,383.047749,-296.082377,8956.491898
517.817852,612.876398,-222.061783,8956.491898
517.818168,459.657299,-222.061783,9030.512492
517.818483,612.876398,-444.123565,9400.615463
517.818799,306.438199,-222.061783,9770.718434
517.819114,306.438199,-518.144159,9474.636058
517.819430,76.609550,-518.144159,9474.636058
517.819745,0.000000,-592.164754,9326.594869
517.820061,229.828649,-518.144159,9252.574275
517.820376,0.000000,-370.102971,9474.636058
517.820692,229.828649,-370.102971,9252.574275
517.821007,306.438199,-518.144159,9030.512492
517.821323,306.438199,-444.123565,9178.553681
517.821638,306.438199,-148.041188,9104.533087
517.821954,459.657299,-296.082377,9326.594869
517.822269,383.047749,-0.000000,9252.574275
517.822585,536.266849,-148.041188,8956.491898
517.822900,76.609550,-518.144159,9252.574275
517.823216,153.219100,-592.164754,9400.615463
517.823531,153.219100,-740.205942,9400.615463
517.823847,0.000000,-814.226536,9770.718434
517.824163,0.000000,-444.123565,9992.780217
517.824478,0.000000,-370.102971,9918.759623
517.824794,76.609550,-222.061783,9696.697840
517.825109,306.438199,-296.082377,9918.759623
517.825425,229.828649,-148.041188,9400.615463
517.825740,842.705048,-0.000000,9326.594869
517.826056,612.876398,-148.041188,9252.574275
517.826371,766.095498,-74.020594,9252.574275
517.826687,919.314598,-296.082377,9326.594869
517.827002,153.219100,-222.061783,9400.615463
517.827318,459.657299,-296.082377,9400.615463
517.827633,459.657299,-296.082377,9622.677246
517.827949,229.828649,-74.020594,9770.718434
517.828264,612.876398,-370.102971,9474.636058
517.828580,229.828649,-0.000000,9844.739029
517.828895,383.047749,-74.020594,9770.718434
517.829211,383.047749,-74.020594,9770.718434
517.829526,919.314598,-74.020594,9696.697840
517.829842,612.876398,-0.000000,9548.656652
517.830157,766.095498,222.061783,9548.656652
517.830473,766.095498,148.041188,9548.656652
517.830788,1149.143247,370.102971,9178.553681
517.831104,1378.971896,444.123565,9104.533087
517.831419,1378.971896,666.185348,9326.594869
517.831735,919.314598,148.041188,9326.594869
517.832050,919.314598,444.123565,9400.615463
517.832366,842.705048,370.102971,9326.594869
517.832682,842.705048,296.082377,9622.677246
517.832997,536.266849,370.102971,9770.718434
517.833313,766.095498,370.102971,9548.656652
517.833628,612.876398,518.144159,9696.697840
517.833944,766.095498,370.102971,9548.656652
517.834259,995.924147,-0.000000,9844.739029
517.834575,689.485948,370.102971,9474.636058
517.834890,766.095498,518.144159,9474.636058
517.835206,1072.533697,592.164754,9252.574275
517.835521,689.485948,740.205942,9326.594869
517.835837,766.095498,518.144159,9030.512492
517.836152,536.266849,592.164754,8956.491898
517.836468,459.657299,296.082377,8956.491898
517.836783,306.438199,-0.000000,9474.636058
517.837099,0.000000,-0.000000,9622.677246
517.837414,0.000000,-148.041188,9770.718434
517.837730,0.000000,-370.102971,9548.656652
517.838045,0.000000,-592.164754,9770.718434
517.838361,153.219100,-222.061783,9992.780217
517.838676,0.000000,-222.061783,9696.697840
517.838992,76.609550,-148.041188,9844.739029
517.839307,0.000000,-222.061783,9474.636058
517.839623,459.657299,-74.020594,9326.594869
517.839938,459.657299,-222.061783,9178.553681
517.840254,536.266849,-518.144159,9326.594869
517.840569,766.095498,-518.144159,9178.553681
517.840885,536.266849,-296.082377,9400.615463
517.841201,459.657299,-518.144159,9400.615463
517.841516,383.047749,-518.144159,9696.697840
517.841832,0.000000,-444.123565,9696.697840
517.842147,0.000000,-666.185348,9770.718434
517.842463,0.000000,-666.185348,9696.697840
517.842778,-229.828649,-888.247130,9844.739029
517.843094,0.000000,-888.247130,9844.739029
517.843409,0.000000,-814.226536,9696.697840
517.843725,0.000000,-888.247130,9622.677246
517.844040,0.000000,-592.164754,9770.718434
517.844356,536.266849,-592.164754,9400.615463
517.844671,459.657299,-444.123565,9326.594869
517.844987,842.705048,-518.144159,9104.533087
517.845302,919.314598,-444.123565,9104.533087
517.845618,612.876398,-74.020594,9178.553681
517.845933,689.485948,-370.102971,9030.512492
517.846249,612.876398,-370.102971,9252.574275
517.846564,536.266849,-296.082377,9326.594869
517.846880,536.266849,-296.082377,9474.636058
517.847195,459.657299,-370.102971,9548.656652
517.847511,459.657299,-444.123565,9548.656652
517.847826,612.876398,-444.123565,9548.656652
517.848142,229.828649,-592.164754,9622.677246
517.848457,306.438199,-518.144159,9548.656652
517.848773,383.047749,-0.000000,9548.656652
517.849088,383.047749,-296.082377,9400.615463
517.849404,306.438199,-148.041188,9474.636058
517.849720,766.095498,-148.041188,9474.636058
517.850035,612.876398,-444.123565,8956.491898
517.850351,459.657299,-296.082377,8956.491898
517.850666,383.047749,-296.082377,9104.533087
517.850982,612.876398,-666.185348,9178.553681
517.851297,153.219100,-444.123565,9474.636058
517.851613,0.000000,-666.185348,9696.697840
517.851928,0.000000,-814.226536,9844.739029
517.852244,0.000000,-814.226536,10066.800811
517.852559,-229.828649,-518.144159,10066.800811
517.852875,383.047749,-444.123565,9696.697840
517.853190,153.219100,-444.123565,9548.656652
517.853506,383.047749,-444.123565,9326.594869
517.853821,612.876398,-74.020594,9326.594869
517.854137,1149.143247,-370.102971,9252.574275
517.854452,1072.533697,-222.061783,9104.533087
517.854768,919.314598,-0.000000,9326.594869
517.855083,689.485948,-370.102971,9178.553681
517.855399,1149.143247,-592.164754,9474.636058
517.855714,306.438199,-222.061783,9474.636058
517.856030,459.657299,-370.102971,9548.656652
517.856345,459.657299,-74.020594,9548.656652
517.856661,459.657299,-222.061783,9696.697840
517.856976,0.000000,-222.061783,9770.718434
517.857292,306.438199,-74.020594,9474.636058
517.857607,459.657299,-74.020594,9696.697840
517.857923,229.828649,-0.000000,9696.697840
517.858239,536.266849,-0.000000,9474.636058
517.858554,766.095498,296.082377,9696.697840
517.858870,1149.143247,370.102971,9252.574275
517.859185,995.924147,296.082377,9104.533087
517.859501,995.924147,370.102971,9178.553681
517.859816,995.924147,222.061783,9400.615463
517.860132,842.705048,444.123565,9400.615463
517.860447,842.705048,518.144159,9326.594869
517.860763,842.705048,370.102971,9474.636058
517.861078,689.485948,444.123565,9474.636058
517.861394,689.485948,370.102971,9474.636058
517.861709,459.657299,444.123565,9548.656652
517.862025,612.876398,370.102971,9548.656652
517.862340,536.266849,370.102971,9696.697840
517.862656,459.657299,444.123565,9474.636058
517.862971,229.828649,518.144159,9548.656652
517.863287,689.485948,592.164754,9548.656652
517.863602,536.266849,518.144159,9326.594869
517.863918,842.705048,592.164754,9252.574275
517.864233,689.485948,740.205942,9178.553681
517.864549,612.876398,518.144159,9400.615463
517.864864,689.485948,444.123565,9474.636058
517.865180,383.047749,-0.000000,9474.636058
517.865495,306.438199,-0.000000,9844.739029
517.865811,0.000000,-296.082377,9992.780217
517.866127,383.047749,-666.185348,9844.739029
517.866442,0.000000,-296.082377,10140.821405
517.866758,0.000000,-74.020594,9918.759623
517.867073,0.000000,-74.020594,9992.780217
517.867389,383.047749,-0.000000,9770.718434
517.867704,306.438199,-74.020594,9474.636058
517.868020,689.485948,-74.020594,9474.636058
517.868335,459.657299,-0.000000,9400.615463
517.868651,919.314598,-74.020594,9400.615463
517.868966,536.266849,-148.041188,9178.553681
517.869282,536.266849,-444.123565,9252.574275
517.869597,229.828649,-518.144159,9178.553681
517.869913,153.219100,-518.144159,9696.697840
517.870228,76.609550,-518.144159,9474.636058
517.870544,0.000000,-518.144159,9548.656652
517.870859,0.000000,-888.247130,9844.739029
517.871175,0.000000,-888.247130,9918.759623
517.871490,-153.219100,-888.247130,9918.759623
517.871806,0.000000,-962.267725,9696.697840
517.872121,0.000000,-814.226536,9696.697840
517.872437,0.000000,-592.164754,9622.677246
517.872752,306.438199,-518.144159,9400.615463
517.873068,536.266849,-518.144159,9104.533087
517.873383,536.266849,-592.164754,9030.512492
517.873699,459.657299,-666.185348,9326.594869
517.874015,612.876398,-370.102971,9104.533087
517.874330,459.657299,-370.102971,9104.533087
517.874646,383.047749,-518.144159,9030.512492
517.874961,383.047749,-518.144159,9030.512492
517.875277,383.047749,-518.144159,9474.636058
517.875592,306.438199,-592.164754,9178.553681
517.875908,0.000000,-740.205942,9474.636058
517.876224,0.000000,-666.185348,9474.636058
517.876539,0.000000,-666.185348,9548.656652
517.876855,383.047749,-444.123565,9548.656652
517.877170,153.219100,-592.164754,9326.594869
517.877486,229.828649,-518.144159,9400.615463
517.877801,459.657299,-444.123565,9178.553681
517.878117,153.219100,-444.123565,9178.553681
517.878433,459.657299,-370.102971,9104.533087
517.878748,383.047749,-444.123565,9030.512492
517.879064,153.219100,-296.082377,9400.615463
517.879379,229.828649,-222.061783,9252.574275
517.879695,153.219100,-518.144159,9400.615463
517.880010,0.000000,-518.144159,9474.636058
517.880326,76.609550,-666.185348,9992.780217
517.880642,76.609550,-592.164754,9696.697840
517.880957,76.609550,-518.144159,9770.718434
517.881273,383.047749,-296.082377,9548.656652
517.881588,459.657299,-148.041188,9770.718434
517.881904,919.314598,-74.020594,9326.594869
517.882219,689.485948,-74.020594,9400.615463
517.882535,842.705048,-0.000000,9326.594869
517.882851,995.924147,-0.000000,9252.574275
517.883166,1302.362347,-444.123565,9178.553681
517.883482,919.314598,-148.041188,9326.594869
517.883797,766.095498,-0.000000,9548.656652
517.884113,842.705048,-74.020594,9622.677246
517.884428,766.095498,-74.020594,9622.677246
517.884744,306.438199,-592.164754,9548.656652
517.885060,306.438199,-148.041188,9696.697840
517.885375,459.657299,-222.061783,9622.677246
517.885691,306.438199,-0.000000,9844.739029
517.886006,229.828649,-0.000000,9696.697840
517.886322,842.705048,-0.000000,9844.739029
517.886637,842.705048,370.102971,9622.677246
517.886953,689.485948,444.123565,9474.636058
517.887269,842.705048,222.061783,9178.553681
517.887584,1149.143247,444.123565,9178.553681
517.887900,919.314598,518.144159,9622.677246
517.888215,1072.533697,370.102971,9474.636058
517.888531,919.314598,518.144159,9474.636058
517.888847,689.485948,370.102971,9548.656652
517.889162,536.266849,222.061783,9474.636058
517.889478,306.438199,-148.041188,9548.656652
517.889793,459.657299,296.082377,9696.697840
517.890109,383.047749,444.123565,9548.656652
517.890424,306.438199,444.123565,9844.739029
517.890740,536.266849,518.144159,9770.718434
517.891056,689.485948,518.144159,9992.780217
517.891371,842.705048,444.123565,9400.615463
517.891687,689.485948,518.144159,9400.615463
517.892002,612.876398,592.164754,9178.553681
517.892318,766.095498,592.164754,9030.512492
517.892633,689.485948,518.144159,9030.512492
517.892949,612.876398,296.082377,9252.574275
517.893265,612.876398,222.061783,9474.636058
517.893580,306.438199,-0.000000,9474.636058
517.893896,229.828649,-370.102971,9770.718434
517.894211,229.828649,-592.164754,9918.759623
517.894527,0.000000,-518.144159,10288.862594
517.894842,-153.219100,-518.144159,9992.780217
517.895158,0.000000,-222.061783,10066.800811
517.895474,383.047749,-296.082377,9844.739029
517.895789,76.609550,-296.082377,9548.656652
517.896105,153.219100,-370.102971,9474.636058
517.896420,612.876398,-74.020594,9326.594869
517.896736,536.266849,-370.102971,9104.533087
517.897051,919.314598,-444.123565,9178.553681
517.897367,689.485948,-444.123565,9400.615463
517.897683,919.314598,-444.123565,9104.533087
517.897998,459.657299,-740.205942,9252.574275
517.898314,459.657299,-518.144159,9622.677246
517.898629,383.047749,-370.102971,9474.636058
517.898945,0.000000,-814.226536,9770.718434
517.899260,0.000000,-1036.288319,9770.718434
517.899576,0.000000,-962.267725,9918.759623
517.899892,0.000000,-814.226536,9992.780217
517.900207,0.000000,-740.205942,9548.656652
517.900523,0.000000,-814.226536,9696.697840
517.900838,612.876398,-370.102971,9622.677246
517.901154,383.047749,-740.205942,9326.594869
517.901469,612.876398,-666.185348,9178.553681
517.901785,612.876398,-370.102971,9178.553681
517.902101,689.485948,-518.144159,8882.471304
517.902416,842.705048,-518.144159,9030.512492
517.902732,689.485948,-518.144159,9030.512492
517.903047,536.266849,-370.102971,9326.594869
517.903363,306.438199,-592.164754,9548.656652
517.903678,229.828649,-740.205942,9548.656652
517.903994,76.609550,-370.102971,9622.677246
517.904310,229.828649,-444.123565,9548.656652
517.904625,153.219100,-444.123565,9548.656652
517.904941,306.438199,-296.082377,9474.636058
517.905256,383.047749,-444.123565,9326.594869
517.905572,229.828649,-370.102971,9400.615463
517.905887,459.657299,-296.082377,9252.574275
517.906203,459.657299,-296.082377,8956.491898
517.906519,306.438199,-518.144159,9104.533087
517.906834,306.438199,-296.082377,9326.594869
517.907150,229.828649,-0.000000,9252.574275
517.907465,76.609550,-148.041188,9326.594869
517.907781,76.609550,-740.205942,9770.718434
517.908096,76.609550,-444.123565,9548.656652
517.908412,76.609550,-518.144159,9696.697840
517.908728,0.000000,-592.164754,9770.718434
517.909043,0.000000,-296.082377,9918.759623
517.909359,76.609550,-444.123565,9548.656652
517.909674,0.000000,-74.020594,9622.677246
517.909990,229.828649,-0.000000,9474.636058
517.910305,459.657299,-74.020594,9474.636058
517.910621,766.095498,74.020594,9252.574275
517.910937,842.705048,222.061783,9252.574275
517.911252,766.095498,-0.000000,9178.553681
517.911568,612.876398,-74.020594,9474.636058
517.911883,689.485948,-0.000000,9326.594869
517.912199,459.657299,-370.102971,9474.636058
517.912514,459.657299,-222.061783,9696.697840
517.912830,383.047749,-148.041188,9770.718434
517.913146,229.828649,-0.000000,9548.656652
517.913461,153.219100,-148.041188,9474.636058
517.913777,153.219100,-74.020594,9622.677246
517.914092,306.438199,-74.020594,9770.718434
517.914408,459.657299,-74.020594,9696.697840
517.914723,842.705048,-74.020594,9474.636058
517.915039,612.876398,-0.000000,9474.636058
517.915355,766.095498,296.082377,9326.594869
517.915670,766.095498,296.082377,9326.594869
517.915986,995.924147,444.123565,9252.574275
517.916301,919.314598,296.082377,9178.553681
517.916617,842.705048,370.102971,9474.636058
517.916933,1378.971896,740.205942,9474.636058
517.917248,842.705048,518.144159,9252.574275
517.917564,383.047749,592.164754,9548.656652
517.917879,919.314598,370.102971,9548.656652
517.918195,1149.143247,-0.000000,9844.739029
517.918510,689.485948,444.123565,9622.677246
517.918826,536.266849,666.185348,9548.656652
517.919142,766.095498,444.123565,9770.718434
517.919457,1072.533697,518.144159,9622.677246
517.919773,766.095498,74.020594,9178.553681
517.920088,842.705048,148.041188,9400.615463
517.920404,1149.143247,666.185348,9178.553681
517.920719,919.314598,592.164754,9178.553681
517.921035,766.095498,592.164754,9326.594869
517.921351,766.095498,-0.000000,9622.677246
517.921666,383.047749,-0.000000,9400.615463
517.921982,229.828649,-0.000000,9770.718434
517.922297,76.609550,-148.041188,9918.759623
517.922613,0.000000,-370.102971,9992.780217
517.922928,76.609550,-444.123565,10140.821405
517.923244,-306.438199,-444.123565,10066.800811
517.923560,0.000000,-518.144159,10140.821405
517.923875,153.219100,-370.102971,9622.677246
517.924191,153.219100,-148.041188,9548.656652
517.924506,919.314598,-370.102971,9474.636058
517.924822,459.657299,-370.102971,9400.615463
517.925137,536.266849,-296.082377,9178.553681
517.925453,536.266849,-370.102971,9252.574275
517.925769,536.266849,-518.144159,9252.574275
517.926084,306.438199,-444.123565,9400.615463
517.926400,0.000000,-814.226536,9474.636058
517.926715,-306.438199,-888.247130,9474.636058
517.927031,0.000000,-888.247130,9622.677246
517.927346,0.000000,-962.267725,9844.739029
517.927662,153.219100,-1332.370696,9992.780217
517.927978,-229.828649,-962.267725,9844.739029
517.928293,-383.047749,-1110.308913,9770.718434
517.928609,-76.609550,-1036.288319,9622.677246
517.928924,0.000000,-740.205942,9548.656652
517.929240,153.219100,-962.267725,9252.574275
517.929555,459.657299,-666.185348,9104.533087
517.929871,536.266849,-222.061783,9030.512492
517.930187,459.657299,-444.123565,8956.491898
517.930502,689.485948,-444.123565,9030.512492
517.930818,536.266849,-740.205942,9030.512492
517.931133,383.047749,-888.247130,9104.533087
517.931449,689.485948,-444.123565,9178.553681
517.931764,689.485948,-370.102971,9178.553681
517.932080,76.609550,-518.144159,9252.574275
517.932396,229.828649,-592.164754,9548.656652
517.932711,76.609550,-592.164754,9474.636058
517.933027,76.609550,-518.144159,9474.636058
517.933342,0.000000,-666.185348,9400.615463
517.933658,229.828649,-296.082377,9474.636058
517.933973,383.047749,-666.185348,9178.553681
517.934289,459.657299,-296.082377,9178.553681
517.934605,306.438199,-370.102971,9030.512492
517.934920,306.438199,-74.020594,9178.553681
517.935236,383.047749,-148.041188,9400.615463
517.935551,306.438199,-74.020594,8956.491898
517.935867,306.438199,-518.144159,9400.615463
517.936182,0.000000,-444.123565,9474.636058
517.936498,153.219100,-592.164754,9622.677246
517.936814,689.485948,-592.164754,9696.697840
517.937129,0.000000,-444.123565,9918.759623
517.937445,0.000000,-370.102971,9918.759623
517.937760,153.219100,-148.041188,9918.759623
517.938076,766.095498,-74.020594,9844.739029
517.938391,689.485948,-222.061783,9992.780217
517.938707,766.095498,222.061783,9474.636058
517.939023,536.266849,-74.020594,9252.574275
517.939338,536.266849,-0.000000,9178.553681
517.939654,842.705048,-0.000000,9178.553681
517.939969,919.314598,-370.102971,9548.656652
517.940285,995.924147,-0.000000,9548.656652
517.940600,612.876398,-0.000000,9548.656652
517.940916,612.876398,-0.000000,9622.677246
517.941232,229.828649,-296.082377,9770.718434
517.941547,689.485948,-74.020594,9918.759623
517.941863,153.219100,-148.041188,9844.739029
517.942178,612.876398,74.020594,10066.800811
517.942494,459.657299,-0.000000,9770.718434
517.942809,459.657299,222.061783,9770.718434
517.943125,612.876398,148.041188,9474.636058
517.943441,995.924147,444.123565,9548.656652
517.943756,1072.533697,296.082377,9326.594869
517.944072,919.314598,592.164754,9326.594869
517.944387,1378.971896,592.164754,9252.574275
517.944703,536.266849,370.102971,9326.594869
517.945018,995.924147,592.164754,9252.574275
517.945334,612.876398,296.082377,9178.553681
517.945650,766.095498,370.102971,9400.615463
517.945965,229.828649,-0.000000,9622.677246
517.946281,612.876398,370.102971,9770.718434
517.946596,536.266849,370.102971,9474.636058
517.946912,536.266849,370.102971,9548.656652
517.947228,612.876398,296.082377,9474.636058
517.947543,612.876398,370.102971,9474.636058
517.947859,536.266849,518.144159,9622.677246
517.948174,1149.143247,444.123565,9104.533087
517.948490,842.705048,518.144159,9178.553681
517.948805,842.705048,370.102971,9104.533087
517.949121,919.314598,296.082377,9252.574275
517.949437,689.485948,370.102971,9252.574275
517.949752,536.266849,222.061783,9326.594869
517.950068,0.000000,-0.000000,9474.636058
517.950383,153.219100,-222.061783,9696.697840
517.950699,153.219100,-592.164754,9844.739029
517.951014,153.219100,-444.123565,9844.739029
517.951330,0.000000,-444.123565,9918.759623
517.951646,-306.438199,-296.082377,9918.759623
517.951961,76.609550,-444.123565,9770.718434
517.952277,153.219100,-370.102971,9918.759623
517.952592,383.047749,-222.061783,9400.615463
517.952908,536.266849,-222.061783,9474.636058
517.953223,536.266849,-370.102971,9178.553681
517.953539,766.095498,-296.082377,9474.636058
517.953855,766.095498,-370.102971,9400.615463
517.954170,383.047749,-740.205942,9474.636058
517.954486,459.657299,-444.123565,9326.594869
517.954801,76.609550,-666.185348,9474.636058
517.955117,-153.219100,-666.185348,9770.718434
517.955432,0.000000,-740.205942,9918.759623
517.955748,0.000000,-1036.288319,9770.718434
517.956064,-306.438199,-888.247130,9696.697840
517.956379,0.000000,-740.205942,9918.759623
517.956695,76.609550,-1110.308913,9770.718434
517.957010,383.047749,-814.226536,9622.677246
517.957326,306.438199,-592.164754,9474.636058
517.957641,306.438199,-666.185348,9548.656652
517.957957,689.485948,-370.102971,9030.512492
517.958273,612.876398,-592.164754,8956.491898
517.958588,919.314598,-296.082377,9252.574275
517.958904,919.314598,-296.082377,9178.553681
517.959219,919.314598,-296.082377,8882.471304
517.959535,689.485948,-592.164754,9104.533087
517.959850,459.657299,-444.123565,9400.615463
517.960166,306.438199,-370.102971,9474.636058
517.960482,76.609550,-444.123565,9696.697840
517.960797,76.609550,-370.102971,9622.677246
517.961113,306.438199,-444.123565,9474.636058
517.961428,536.266849,-444.123565,9474.636058
517.961744,76.609550,-148.041188,9548.656652
517.962059,306.438199,-296.082377,9326.594869
517.962375,459.657299,-296.082377,9104.533087
517.962691,383.047749,-444.123565,9252.574275
517.963006,612.876398,-74.020594,9178.553681
517.963322,153.219100,-222.061783,8808.450710
517.963637,76.609550,-74.020594,9400.615463
517.963953,153.219100,-370.102971,9252.574275
517.964268,229.828649,-148.041188,9474.636058
517.964584,0.000000,-444.123565,9622.677246
517.964900,0.000000,-592.164754,9696.697840
517.965215,-153.219100,-444.123565,9844.739029
517.965531,-153.219100,-888.247130,9770.718434
517.965846,153.219100,-370.102971,9844.739029
517.966162,0.000000,-148.041188,9770.718434
517.966477,0.000000,-148.041188,9474.636058
517.966793,612.876398,-148.041188,9252.574275
517.967109,766.095498,-592.164754,9400.615463
517.967424,842.705048,-0.000000,9178.553681
517.967740,383.047749,-148.041188,9104.533087
517.968055,766.095498,-0.000000,9474.636058
517.968371,612.876398,-296.082377,9400.615463
517.968686,842.705048,-74.020594,9474.636058
517.969002,459.657299,-222.061783,9474.636058
517.969318,76.609550,-0.000000,9844.739029
517.969633,153.219100,-370.102971,9696.697840
517.969949,766.095498,-518.144159,9622.677246
517.970264,0.000000,-444.123565,9844.739029
517.970580,229.828649,-296.082377,9770.718434
517.970895,459.657299,-0.000000,9622.677246
517.971211,689.485948,-0.000000,9474.636058
517.971527,766.095498,-0.000000,9474.636058
517.971842,919.314598,-0.000000,9474.636058
517.972158,689.485948,296.082377,9178.553681
517.972473,919.314598,222.061783,9104.533087
517.972789,919.314598,518.144159,9178.553681
517.973104,766.095498,370.102971,9400.615463
517.973420,842.705048,148.041188,9104.533087
517.973736,766.095498,370.102971,9474.636058
517.974051,612.876398,518.144159,9474.636058
517.974367,459.657299,296.082377,9622.677246
517.974682,536.266849,296.082377,9918.759623
517.974998,995.924147,-0.000000,9770.718434
517.975314,612.876398,296.082377,9770.718434
517.975629,612.876398,296.082377,9622.677246
517.975945,766.095498,222.061783,9474.636058
517.976260,995.924147,370.102971,9548.656652
517.976576,1149.143247,962.267725,9474.636058
517.976892,1225.752797,740.205942,9178.553681
517.977207,689.485948,518.144159,9252.574275
517.977523,612.876398,592.164754,9104.533087
517.977838,536.266849,592.164754,9474.636058
517.978154,459.657299,222.061783,9918.759623
517.978470,383.047749,-0.000000,9548.656652
517.978785,153.219100,-148.041188,9770.718434
517.979101,0.000000,-444.123565,9992.780217
517.979417,153.219100,-296.082377,9992.780217
517.979732,76.609550,-296.082377,10140.821405
517.980048,0.000000,-222.061783,9770.718434
517.980363,0.000000,-222.061783,9770.718434
517.980679,153.219100,-148.041188,9622.677246
517.980995,306.438199,-0.000000,9326.594869
517.981310,536.266849,-222.061783,9104.533087
517.981626,842.705048,-0.000000,9474.636058
517.981941,842.705048,-74.020594,9178.553681
517.982257,842.705048,-74.020594,9326.594869
517.982573,383.047749,-370.102971,9326.594869
517.982888,306.438199,-296.082377,9326.594869
517.983204,306.438199,-592.164754,9622.677246
517.983519,0.000000,-666.185348,9622.677246
517.983835,-229.828649,-740.205942,9696.697840
517.984151,0.000000,-888.247130,10066.800811
517.984466,0.000000,-1110.308913,9770.718434
517.984782,-306.438199,-740.205942,9696.697840
517.985097,0.000000,-666.185348,9918.759623
517.985413,-153.219100,-666.185348,9770.718434
517.985729,0.000000,-814.226536,9548.656652
517.986044,536.266849,-518.144159,9474.636058
517.986360,459.657299,-370.102971,9030.512492
517.986676,536.266849,-296.082377,8956.491898
517.986991,766.095498,-518.144159,8808.450710
517.987307,459.657299,-296.082377,9252.574275
517.987622,459.657299,-148.041188,8956.491898
517.987938,612.876398,-518.144159,9178.553681
517.988254,76.609550,-666.185348,9326.594869
517.988569,76.609550,-592.164754,9474.636058
517.988885,0.000000,-962.267725,9474.636058
517.989200,-153.219100,-666.185348,9548.656652
517.989516,153.219100,-740.205942,9622.677246
517.989832,383.047749,-592.164754,9474.636058
517.990147,383.047749,-666.185348,9548.656652
517.990463,306.438199,-888.247130,9178.553681
517.990778,306.438199,-592.164754,9252.574275
517.991094,229.828649,-370.102971,9400.615463
517.991410,229.828649,-296.082377,9104.533087
517.991725,153.219100,-444.123565,9030.512492
517.992041,383.047749,-370.102971,9400.615463
517.992356,76.609550,-518.144159,8956.491898
517.992672,0.000000,-814.226536,9474.636058
517.992988,153.219100,-814.226536,9400.615463
517.993303,76.609550,-814.226536,9548.656652
517.993619,306.438199,-740.205942,9770.718434
517.993934,153.219100,-740.205942,9770.718434
517.994250,229.828649,-296.082377,9918.759623
517.994566,306.438199,-296.082377,9622.677246
517.994881,536.266849,-222.061783,9474.636058
517.995197,919.314598,-74.020594,9400.615463
517.995513,612.876398,-0.000000,9252.574275
517.995828,842.705048,-0.000000,9252.574275
517.996144,842.705048,-0.000000,9252.574275
517.996459,995.924147,-296.082377,9252.574275
517.996775,689.485948,-222.061783,9326.594869
517.997091,536.266849,-148.041188,9548.656652
517.997406,459.657299,-148.041188,9548.656652
517.997722,383.047749,-148.041188,9548.656652
517.998037,229.828649,-74.020594,10066.800811
517.998353,229.828649,-222.061783,9844.739029
517.998669,153.219100,-370.102971,9992.780217
517.998984,383.047749,-0.000000,9844.739029
517.999300,459.657299,-0.000000,9622.677246
517.999615,459.657299,-0.000000,9770.718434
517.999931,919.314598,148.041188,9474.636058
518.000247,995.924147,370.102971,9326.594869
518.000562,1149.143247,296.082377,9104.533087
518.000878,1072.533697,444.123565,9252.574275
518.001193,1225.752797,-0.000000,9030.512492
518.001509,919.314598,444.123565,9622.677246
518.001825,1072.533697,444.123565,9474.636058
518.002140,612.876398,518.144159,9400.615463
518.002456,612.876398,444.123565,9548.656652
518.002772,383.047749,370.102971,9918.759623
518.003087,536.266849,444.123565,9622.677246
518.003403,459.657299,370.102971,9918.759623
518.003718,459.657299,518.144159,9622.677246
518.004034,1378.971896,148.041188,9474.636058
518.004350,1072.533697,444.123565,9548.656652
518.004665,842.705048,222.061783,9030.512492
518.004981,842.705048,444.123565,9400.615463
518.005296,842.705048,666.185348,9178.553681
518.005612,1072.533697,444.123565,9178.553681
518.005928,612.876398,518.144159,9178.553681
518.006243,536.266849,296.082377,9400.615463
518.006559,383.047749,-0.000000,9400.615463
518.006874,229.828649,-74.020594,9622.677246
518.007190,0.000000,-296.082377,9992.780217
518.007506,0.000000,-74.020594,9918.759623
518.007821,-306.438199,-74.020594,10140.821405
518.008137,0.000000,-222.061783,9844.739029
518.008452,0.000000,-222.061783,9770.718434
518.008768,306.438199,296.082377,9696.697840
518.009084,383.047749,-296.082377,9326.594869
518.009399,306.438199,-222.061783,9326.594869
518.009715,842.705048,-222.061783,9104.533087
518.010031,1072.533697,-74.020594,9104.533087
518.010346,612.876398,-592.164754,9178.553681
518.010662,383.047749,-518.144159,9252.574275
518.010977,383.047749,-592.164754,9400.615463
518.011293,383.047749,-666.185348,9400.615463
518.011609,0.000000,-666.185348,9622.677246
518.011924,0.000000,-814.226536,9622.677246
518.012240,-229.828649,-888.247130,9622.677246
518.012555,-306.438199,-888.247130,9918.759623
518.012871,-229.828649,-1036.288319,9696.697840
518.013187,-153.219100,-1184.329507,10066.800811
518.013502,-306.438199,-1036.288319,9474.636058
518.013818,0.000000,-962.267725,9474.636058
518.014133,383.047749,-814.226536,9400.615463
518.014449,536.266849,-814.226536,9030.512492
518.014765,536.266849,-518.144159,9104.533087
518.015080,536.266849,-444.123565,9030.512492
518.015396,842.705048,-370.102971,8882.471304
518.015711,842.705048,-296.082377,9178.553681
518.016027,689.485948,-444.123565,8956.491898
518.016343,229.828649,-592.164754,9252.574275
518.016658,153.219100,-518.144159,9474.636058
518.016974,383.047749,-518.144159,9400.615463
518.017290,306.438199,-518.144159,9622.677246
518.017605,153.219100,-148.041188,9844.739029
518.017921,153.219100,-370.102971,9474.636058
518.018236,229.828649,-370.102971,9474.636058
518.018552,229.828649,-296.082377,9326.594869
518.018868,229.828649,-222.061783,9326.594869
518.019183,459.657299,-74.020594,9400.615463
518.019499,612.876398,-148.041188,9474.636058
518.019814,153.219100,-0.000000,9252.574275
518.020130,229.828649,-74.020594,9326.594869
518.020446,229.828649,-592.164754,9104.533087
518.020761,689.485948,-370.102971,9548.656652
518.021077,76.609550,-518.144159,9474.636058
518.021392,0.000000,-444.123565,9548.656652
518.021708,0.000000,-666.185348,9696.697840
518.022024,0.000000,-518.144159,9844.739029
518.022339,0.000000,-444.123565,10140.821405
518.022655,229.828649,-370.102971,9844.739029
518.022970,459.657299,-222.061783,9696.697840
518.023286,536.266849,-0.000000,9474.636058
518.023602,536.266849,-74.020594,9474.636058
518.023917,919.314598,-0.000000,9326.594869
518.024233,689.485948,-148.041188,9400.615463
518.024548,766.095498,-222.061783,9030.512492
518.024864,689.485948,-0.000000,9326.594869
518.025180,459.657299,-148.041188,9474.636058
518.025495,383.047749,-222.061783,9770.718434
518.025811,306.438199,-74.020594,9770.718434
518.026127,306.438199,-222.061783,9918.759623
518.026442,306.438199,-370.102971,9622.677246
518.026758,536.266849,-370.102971,9622.677246
518.027073,306.438199,-222.061783,9770.718434
518.027389,229.828649,-296.082377,9844.739029
518.027705,842.705048,-0.000000,9696.697840
518.028020,612.876398,222.061783,9400.615463
518.028336,842.705048,148.041188,9178.553681
518.028651,842.705048,222.061783,9622.677246
518.028967,1072.533697,296.082377,9326.594869
518.029283,842.705048,518.144159,9178.553681
518.029598,766.095498,666.185348,9326.594869
518.029914,689.485948,148.041188,9326.594869
518.030229,1302.362347,296.082377,9252.574275
518.030545,689.485948,370.102971,9252.574275
518.030861,612.876398,370.102971,9400.615463
518.031176,689.485948,518.144159,9622.677246
518.031492,612.876398,296.082377,9474.636058
518.031807,306.438199,444.123565,9918.759623
518.032123,612.876398,370.102971,9474.636058
518.032439,689.485948,296.082377,9474.636058
518.032754,919.314598,444.123565,9474.636058
518.033070,766.095498,444.123565,9178.553681
518.033386,995.924147,148.041188,9474.636058
518.033701,842.705048,666.185348,9178.553681
518.034017,1072.533697,518.144159,9030.512492
518.034332,766.095498,444.123565,9178.553681
518.034648,459.657299,148.041188,9400.615463
518.034964,383.047749,-0.000000,9474.636058
518.035279,306.438199,-296.082377,9474.636058
518.035595,76.609550,-222.061783,9918.759623
518.035910,0.000000,-444.123565,10066.800811
518.036226,383.047749,-148.041188,9992.780217
518.036542,153.219100,-222.061783,10140.821405
518.036857,0.000000,-296.082377,9918.759623
518.037173,76.609550,-296.082377,9696.697840
518.037488,536.266849,-222.061783,9474.636058
518.037804,919.314598,-148.041188,9252.574275
518.038120,766.095498,-222.061783,9474.636058
518.038435,612.876398,-222.061783,9326.594869
518.038751,689.485948,-296.082377,9400.615463
518.039066,536.266849,-370.102971,9326.594869
518.039382,383.047749,-592.164754,9474.636058
518.039698,0.000000,-814.226536,9622.677246
518.040013,0.000000,-1036.288319,9622.677246
518.040329,0.000000,-814.226536,9918.759623
518.040645,-153.219100,-888.247130,9918.759623
518.040960,0.000000,-962.267725,9844.739029
518.041276,0.000000,-888.247130,10140.821405
518.041591,0.000000,-888.247130,9770.718434
518.041907,-153.219100,-1110.308913,9474.636058
518.042223,153.219100,-740.205942,9400.615463
518.042538,459.657299,-518.144159,9474.636058
518.042854,306.438199,-444.123565,9326.594869
518.043169,766.095498,-296.082377,9178.553681
518.043485,919.314598,-370.102971,8882.471304
518.043801,842.705048,-444.123565,8882.471304
518.044116,842.705048,-444.123565,9030.512492
518.044432,842.705048,-222.061783,9178.553681
518.044747,229.828649,-666.185348,9326.594869
518.045063,306.438199,-518.144159,9696.697840
518.045379,306.438199,-814.226536,9474.636058
518.045694,153.219100,-518.144159,9474.636058
518.046010,153.219100,-370.102971,9622.677246
518.046325,0.000000,-666.185348,9400.615463
518.046641,459.657299,-370.102971,9326.594869
518.046957,383.047749,-370.102971,9252.574275
518.047272,383.047749,-370.102971,9252.574275
518.047588,0.000000,-444.123565,9104.533087
518.047903,306.438199,-148.041188,9030.512492
518.048219,306.438199,-148.041188,8956.491898
518.048535,229.828649,-148.041188,9104.533087
518.048850,153.219100,-370.102971,9178.553681
518.049166,383.047749,-444.123565,9474.636058
518.049482,0.000000,-370.102971,9622.677246
518.049797,0.000000,-518.144159,9474.636058
518.050113,0.000000,-666.185348,9918.759623
518.050428,0.000000,-592.164754,9918.759623
518.050744,0.000000,-444.123565,9770.718434
518.051060,153.219100,-296.082377,9844.739029
518.051375,229.828649,-74.020594,9622.677246
518.051691,536.266849,-0.000000,9326.594869
518.052006,459.657299,-0.000000,9252.574275
518.052322,766.095498,-0.000000,9030.512492
518.052638,612.876398,-0.000000,9252.574275
518.052953,689.485948,-74.020594,9178.553681
518.053269,689.485948,-0.000000,9326.594869
518.053584,1225.752797,-74.020594,9622.677246
518.053900,229.828649,-222.061783,9548.656652
518.054216,459.657299,-0.000000,9844.739029
518.054531,153.219100,-0.000000,10140.821405
518.054847,153.219100,-0.000000,9992.780217
518.055162,229.828649,-0.000000,9770.718434
518.055478,0.000000,-148.041188,9844.739029
518.055794,153.219100,-74.020594,9770.718434
518.056109,459.657299,222.061783,9622.677246
518.056425,612.876398,296.082377,9400.615463
518.056741,995.924147,222.061783,9622.677246
518.057056,995.924147,666.185348,9400.615463
518.057372,1149.143247,444.123565,9178.553681
518.057687,995.924147,370.102971,9252.574275
518.058003,842.705048,444.123565,9474.636058
518.058319,612.876398,370.102971,9474.636058
518.058634,842.705048,518.144159,9622.677246
518.058950,995.924147,592.164754,9474.636058
518.059265,612.876398,370.102971,9622.677246
518.059581,536.266849,370.102971,9696.697840
518.059897,536.266849,296.082377,9696.697840
518.060212,689.485948,296.082377,9548.656652
518.060528,766.095498,222.061783,9474.636058
518.060843,842.705048,296.082377,9548.656652
518.061159,919.314598,296.082377,9252.574275
518.061475,1072.533697,222.061783,9400.615463
518.061790,1302.362347,666.185348,9178.553681
518.062106,766.095498,666.185348,9178.553681
518.062421,842.705048,296.082377,9030.512492
518.062737,536.266849,222.061783,9326.594869
518.063053,306.438199,-222.061783,9326.594869
518.063368,0.000000,-222.061783,9696.697840
518.063684,0.000000,-518.144159,9992.780217
518.064000,0.000000,-444.123565,10066.800811
518.064315,153.219100,-592.164754,10140.821405
518.064631,0.000000,-666.185348,9918.759623
518.064946,0.000000,-444.123565,9992.780217
518.065262,0.000000,-148.041188,9770.718434
518.065578,229.828649,-370.102971,9474.636058
518.065893,612.876398,-222.061783,9252.574275
518.066209,766.095498,-370.102971,9104.533087
518.066524,919.314598,-296.082377,9104.533087
518.066840,919.314598,-370.102971,8956.491898
518.067156,612.876398,-518.144159,9178.553681
518.067471,383.047749,-740.205942,9252.574275
518.067787,229.828649,-666.185348,9474.636058
518.068102,0.000000,-888.247130,9696.697840
518.068418,0.000000,-814.226536,9474.636058
518.068734,-229.828649,-888.247130,9696.697840
518.069049,76.609550,-1258.350101,9474.636058
518.069365,-383.047749,-1110.308913,9622.677246
518.069680,-229.828649,-1036.288319,9622.677246
518.069996,0.000000,-1036.288319,9474.636058
518.070312,0.000000,-740.205942,9474.636058
518.070627,229.828649,-814.226536,9326.594869
518.070943,459.657299,-666.185348,9252.574275
518.071259,689.485948,-148.041188,9178.553681
518.071574,612.876398,-370.102971,9030.512492
518.071890,842.705048,-444.123565,9104.533087
518.072205,919.314598,-444.123565,9104.533087
518.072521,536.266849,-222.061783,9252.574275
518.072837,383.047749,-296.082377,9326.594869
518.073152,383.047749,-444.123565,9474.636058
518.073468,-306.438199,-592.164754,9622.677246
518.073783,459.657299,-444.123565,9696.697840
518.074099,0.000000,-592.164754,9844.739029
518.074415,383.047749,-296.082377,9622.677246
518.074730,229.828649,-444.123565,9474.636058
518.075046,536.266849,-148.041188,9474.636058
518.075361,306.438199,-222.061783,9474.636058
518.075677,306.438199,-222.061783,9474.636058
518.075992,459.657299,-222.061783,9252.574275
518.076308,459.657299,-148.041188,9030.512492
518.076624,383.047749,-222.061783,8956.491898
518.076939,306.438199,-0.000000,9252.574275
518.077255,229.828649,-0.000000,9622.677246
518.077570,76.609550,-444.123565,9548.656652
518.077886,0.000000,-370.102971,9696.697840
518.078201,0.000000,-444.123565,10066.800811
518.078517,0.000000,-518.144159,9992.780217
518.078832,0.000000,-444.123565,9918.759623
518.079148,229.828649,-296.082377,9844.739029
518.079463,612.876398,-222.061783,9770.718434
518.079779,459.657299,-74.020594,9548.656652
518.080095,689.485948,-0.000000,9400.615463
518.080410,459.657299,-222.061783,9104.533087
518.080726,842.705048,-148.041188,9178.553681
518.081041,919.314598,-0.000000,9400.615463
518.081357,995.924147,-148.041188,9326.594869
518.081672,459.657299,-370.102971,9474.636058
518.081988,536.266849,-74.020594,9474.636058
518.082303,306.438199,-296.082377,9548.656652
518.082619,612.876398,-666.185348,8956.491898
518.082934,383.047749,-296.082377,9770.718434
518.083250,76.609550,-370.102971,9770.718434
518.083566,306.438199,-148.041188,9400.615463
518.083881,306.438199,-0.000000,9696.697840
518.084197,459.657299,-0.000000,9770.718434
518.084512,919.314598,-74.020594,9326.594869
518.084828,689.485948,-0.000000,9400.615463
518.085143,1072.533697,296.082377,9326.594869
518.085459,1149.143247,370.102971,9400.615463
518.085774,1072.533697,296.082377,9178.553681
518.086090,1072.533697,296.082377,9104.533087
518.086405,766.095498,296.082377,9252.574275
518.086721,842.705048,296.082377,9326.594869
518.087036,536.266849,444.123565,9622.677246
518.087352,612.876398,370.102971,9548.656652
518.087668,689.485948,222.061783,9844.739029
518.087983,689.485948,148.041188,9622.677246
518.088299,766.095498,222.061783,9622.677246
518.088614,842.705048,-148.041188,9696.697840
518.088930,842.705048,222.061783,9252.574275
518.089245,842.705048,444.123565,9252.574275
518.089561,1072.533697,444.123565,9178.553681
518.089876,842.705048,296.082377,9326.594869
518.090192,842.705048,518.144159,9178.553681
518.090507,689.485948,518.144159,8882.471304
518.090823,383.047749,296.082377,9252.574275
518.091139,459.657299,-0.000000,9474.636058
518.091454,459.657299,370.102971,9474.636058
518.091770,76.609550,-222.061783,9622.677246
518.092085,0.000000,-74.020594,9992.780217
518.092401,-229.828649,-370.102971,9844.739029
518.092716,0.000000,-222.061783,9992.780217
518.093032,0.000000,-222.061783,10140.821405
518.093347,383.047749,-222.061783,9696.697840
518.093663,0.000000,-444.123565,9622.677246
518.093978,383.047749,-148.041188,9548.656652
518.094294,612.876398,-74.020594,9474.636058
518.094610,766.095498,-222.061783,9400.615463
518.094925,766.095498,-0.000000,9252.574275
518.095241,536.266849,-74.020594,9252.574275
518.095556,459.657299,-296.082377,9400.615463
518.095872,766.095498,-222.061783,9474.636058
518.096187,0.000000,-518.144159,9770.718434
518.096503,0.000000,-666.185348,9548.656652
518.096818,0.000000,-814.226536,9992.780217
518.097134,-229.828649,-888.247130,9770.718434
518.097449,0.000000,-666.185348,9992.780217
518.097765,-306.438199,-740.205942,9844.739029
518.098080,0.000000,-740.205942,9992.780217
518.098396,153.219100,-814.226536,9696.697840
518.098712,76.609550,-592.164754,9400.615463
518.099027,459.657299,-370.102971,9474.636058
518.099343,306.438199,-740.205942,9178.553681
518.099658,1149.143247,-74.020594,9178.553681
518.099974,766.095498,-74.020594,8956.491898
518.100289,919.314598,-222.061783,9178.553681
518.100605,689.485948,-444.123565,8956.491898
518.100920,612.876398,-370.102971,9252.574275
518.101236,459.657299,-444.123565,9326.594869
518.101551,459.657299,-592.164754,9400.615463
518.101867,153.219100,-592.164754,9474.636058
518.102183,383.047749,-666.185348,9474.636058
518.102498,153.219100,-740.205942,9548.656652
518.102814,153.219100,-814.226536,9548.656652
518.103129,612.876398,-518.144159,9400.615463
518.103445,383.047749,-444.123565,9400.615463
518.103760,229.828649,-518.144159,9252.574275
518.104076,229.828649,-444.123565,9252.574275
518.104391,536.266849,-444.123565,9104.533087
518.104707,459.657299,-222.061783,9178.553681
518.105022,153.219100,-148.041188,9326.594869
518.105338,153.219100,-370.102971,9326.594869
518.105654,76.609550,-740.205942,9104.533087
518.105969,0.000000,-888.247130,9622.677246
518.106285,0.000000,-888.247130,9548.656652
518.106600,0.000000,-814.226536,9696.697840
518.106916,0.000000,-962.267725,9696.697840
518.107231,0.000000,-740.205942,9622.677246
518.107547,153.219100,-296.082377,9696.697840
518.107862,229.828649,-148.041188,9622.677246
518.108178,919.314598,-222.061783,9326.594869
518.108493,995.924147,-0.000000,8956.491898
518.108809,536.266849,-74.020594,9104.533087
518.109124,612.876398,-444.123565,8956.491898
518.109440,766.095498,-296.082377,9326.594869
518.109756,536.266849,-222.061783,9474.636058
518.110071,459.657299,-370.102971,9548.656652
518.110387,229.828649,-296.082377,9548.656652
518.110702,459.657299,-370.102971,9696.697840
518.111018,0.000000,-370.102971,9770.718434
518.111333,229.828649,-444.123565,10066.800811
518.111649,306.438199,-296.082377,9844.739029
518.111964,153.219100,-296.082377,9696.697840
518.112280,459.657299,-0.000000,9696.697840
518.112595,536.266849,-0.000000,9548.656652
518.112911,995.924147,370.102971,9622.677246
518.113227,842.705048,370.102971,9474.636058
518.113542,766.095498,592.164754,9326.594869
518.113858,1225.752797,444.123565,9252.574275
518.114173,919.314598,518.144159,9326.594869
518.114489,919.314598,296.082377,9252.574275
518.114804,842.705048,148.041188,9548.656652
518.115120,842.705048,518.144159,9474.636058
518.115435,383.047749,444.123565,9696.697840
518.115751,536.266849,444.123565,9696.697840
518.116066,383.047749,-74.020594,10066.800811
518.116382,153.219100,296.082377,9844.739029
518.116698,536.266849,222.061783,9770.718434
518.117013,612.876398,222.061783,9474.636058
518.117329,842.705048,222.061783,9474.636058
518.117644,689.485948,370.102971,9326.594869
518.117960,612.876398,444.123565,9326.594869
518.118275,689.485948,740.205942,9326.594869
518.118591,766.095498,740.205942,9104.533087
518.118906,536.266849,444.123565,9104.533087
518.119222,536.266849,296.082377,9400.615463
518.119537,383.047749,296.082377,9400.615463
518.119853,153.219100,-0.000000,9622.677246
518.120168,76.609550,-148.041188,9770.718434
518.120484,-229.828649,-296.082377,10140.821405
518.120800,-383.047749,-518.144159,10140.821405
518.121115,-153.219100,-296.082377,10214.842000
518.121431,0.000000,-370.102971,9770.718434
518.121746,153.219100,-370.102971,9696.697840
518.122062,153.219100,-222.061783,9474.636058
518.122377,383.047749,-148.041188,9326.594869
518.122693,612.876398,-0.000000,9252.574275
518.123008,536.266849,-222.061783,9030.512492
518.123324,689.485948,-296.082377,9474.636058
518.123639,612.876398,-222.061783,9178.553681
518.123955,689.485948,-296.082377,9326.594869
518.124271,459.657299,-444.123565,9474.636058
518.124586,76.609550,-592.164754,9622.677246
518.124902,229.828649,-740.205942,9992.780217
518.125217,153.219100,-666.185348,9622.677246
518.125533,-229.828649,-1036.288319,9770.718434
518.125848,-229.828649,-814.226536,9622.677246
518.126164,-306.438199,-888.247130,9622.677246
518.126479,76.609550,-1110.308913,9918.759623
518.126795,153.219100,-666.185348,9548.656652
518.127110,306.438199,-666.185348,9326.594869
518.127426,306.438199,-666.185348,9104.533087
518.127742,306.438199,-444.123565,9252.574275
518.128057,1149.143247,-222.061783,8956.491898
518.128373,536.266849,-444.123565,8956.491898
518.128688,766.095498,-148.041188,9030.512492
518.129004,459.657299,-444.123565,9178.553681
518.129319,536.266849,-370.102971,9104.533087
518.129635,306.438199,-592.164754,9474.636058
518.129950,76.609550,-518.144159,9474.636058
518.130266,0.000000,-444.123565,9622.677246
518.130581,0.000000,-592.164754,9548.656652
518.130897,76.609550,-666.185348,9030.512492
518.131212,-229.828649,-814.226536,9252.574275
518.131528,0.000000,-666.185348,9326.594869
518.131844,76.609550,-444.123565,9474.636058
518.132159,306.438199,-148.041188,9326.594869
518.132475,536.266849,-74.020594,9104.533087
518.132790,306.438199,-296.082377,9400.615463
518.133106,306.438199,-74.020594,9030.512492
518.133421,306.438199,-0.000000,9326.594869
518.133737,76.609550,-296.082377,9400.615463
518.134052,153.219100,-740.205942,9622.677246
518.134368,-459.657299,-592.164754,9918.759623
518.134683,0.000000,-888.247130,9992.780217
518.134999,229.828649,-666.185348,10066.800811
518.135315,153.219100,-296.082377,9844.739029
518.135630,0.000000,-444.123565,9844.739029
518.135946,383.047749,-296.082377,9622.677246
518.136261,459.657299,-148.041188,9622.677246
518.136577,536.266849,-148.041188,9326.594869
518.136892,919.314598,-148.041188,9252.574275
518.137208,842.705048,-0.000000,9400.615463
518.137523,919.314598,-222.061783,8882.471304
518.137839,612.876398,-0.000000,9548.656652
518.138154,689.485948,-296.082377,9326.594869
518.138470,306.438199,-74.020594,9622.677246
518.138786,459.657299,-0.000000,9696.697840
518.139101,612.876398,-444.123565,9622.677246
518.139417,153.219100,-296.082377,9770.718434
518.139732,153.219100,-148.041188,9770.718434
518.140048,459.657299,-0.000000,9696.697840
518.140363,612.876398,-74.020594,9622.677246
518.140679,229.828649,-518.144159,9548.656652
518.140994,536.266849,-148.041188,9178.553681
518.141310,383.047749,222.061783,9474.636058
518.141625,919.314598,222.061783,9326.594869
518.141941,919.314598,148.041188,9326.594869
518.142256,766.095498,444.123565,9030.512492
518.142572,1072.533697,518.144159,9326.594869
518.142888,1072.533697,592.164754,9474.636058
518.143203,842.705048,296.082377,9326.594869
518.143519,612.876398,296.082377,9252.574275
518.143834,612.876398,296.082377,9622.677246
518.144150,459.657299,148.041188,9474.636058
518.144465,612.876398,-0.000000,9548.656652
518.144781,536.266849,370.102971,9696.697840
518.145096,842.705048,222.061783,9622.677246
518.145412,1149.143247,-0.000000,9474.636058
518.145727,919.314598,296.082377,9326.594869
518.146043,766.095498,592.164754,9400.615463
518.146359,1072.533697,518.144159,9400.615463
518.146674,842.705048,518.144159,9252.574275
518.146990,1225.752797,444.123565,9326.594869
518.147305,459.657299,296.082377,9400.615463
518.147621,459.657299,-148.041188,9400.615463
518.147936,306.438199,148.041188,9622.677246
518.148252,153.219100,-148.041188,9696.697840
518.148567,306.438199,-296.082377,9992.780217
518.148883,76.609550,-444.123565,9770.718434
518.149198,0.000000,-222.061783,9844.739029
518.149514,0.000000,-222.061783,10066.800811
518.149830,0.000000,-296.082377,9844.739029
518.150145,612.876398,-222.061783,9622.677246
518.150461,383.047749,-0.000000,9548.656652
518.150776,689.485948,-0.000000,9326.594869
518.151092,689.485948,-0.000000,9326.594869
518.151407,766.095498,-148.041188,9252.574275
518.151723,689.485948,-592.164754,9178.553681
518.152038,383.047749,-222.061783,9400.615463
518.152354,459.657299,-370.102971,9474.636058
518.152669,459.657299,-222.061783,9474.636058
518.152985,0.000000,-666.185348,9696.697840
518.153300,0.000000,-814.226536,9696.697840
518.153616,0.000000,-740.205942,9844.739029
518.153932,-459.657299,-962.267725,9918.759623
518.154247,0.000000,-888.247130,9844.739029
518.154563,0.000000,-1036.288319,9992.780217
518.154878,76.609550,-814.226536,9622.677246
518.155194,229.828649,-962.267725,9474.636058
518.155509,229.828649,-666.185348,9400.615463
518.155825,612.876398,-370.102971,8956.491898
518.156140,689.485948,-222.061783,9400.615463
518.156456,536.266849,-370.102971,9252.574275
518.156771,536.266849,-444.123565,9030.512492
518.157087,766.095498,-296.082377,8808.450710
518.157403,919.314598,-370.102971,9178.553681
518.157718,689.485948,-740.205942,9548.656652
518.158034,383.047749,-370.102971,9400.615463
518.158349,229.828649,-666.185348,9474.636058
518.158665,306.438199,-444.123565,9474.636058
518.158980,306.438199,-666.185348,9622.677246
518.159296,153.219100,-888.247130,9696.697840
518.159611,612.876398,-592.164754,9326.594869
518.159927,0.000000,-518.144159,9474.636058
518.160242,153.219100,-370.102971,9400.615463
518.160558,383.047749,-444.123565,9030.512492
518.160874,229.828649,-222.061783,9696.697840
518.161189,306.438199,-148.041188,9252.574275
518.161505,306.438199,-148.041188,9178.553681
518.161820,383.047749,-222.061783,9178.553681
518.162136,306.438199,-888.247130,9400.615463
518.162451,842.705048,-814.226536,9400.615463
518.162767,76.609550,-444.123565,9622.677246
518.163082,76.609550,-740.205942,9474.636058
518.163398,153.219100,-518.144159,9696.697840
518.163713,76.609550,-518.144159,9696.697840
518.164029,229.828649,-444.123565,9770.718434
518.164344,229.828649,-296.082377,9548.656652
518.164660,153.219100,-0.000000,9548.656652
518.164976,383.047749,-148.041188,9400.615463
518.165291,536.266849,-222.061783,9252.574275
518.165607,766.095498,-296.082377,9474.636058
518.165922,689.485948,-74.020594,9622.677246
518.166238,842.705048,-0.000000,9474.636058
518.166553,306.438199,-74.020594,9400.615463
518.166869,229.828649,-222.061783,9474.636058
518.167184,689.485948,-370.102971,9622.677246
518.167500,306.438199,-296.082377,9622.677246
518.167815,306.438199,-296.082377,9696.697840
518.168131,383.047749,-222.061783,9844.739029
518.168447,459.657299,-518.144159,9548.656652
518.168762,689.485948,-0.000000,9770.718434
518.169078,612.876398,-0.000000,9844.739029
518.169393,842.705048,-0.000000,9548.656652
518.169709,995.924147,296.082377,9474.636058
518.170024,1072.533697,222.061783,9400.615463
518.170340,842.705048,222.061783,9104.533087
518.170655,1149.143247,370.102971,9104.533087
518.170971,1072.533697,296.082377,9252.574275
518.171286,842.705048,222.061783,9474.636058
518.171602,842.705048,222.061783,9474.636058
518.171918,459.657299,444.123565,9548.656652
518.172233,536.266849,370.102971,9770.718434
518.172549,536.266849,222.061783,9622.677246
518.172864,689.485948,222.061783,9696.697840
518.173180,383.047749,222.061783,9844.739029
518.173495,766.095498,444.123565,9474.636058
518.173811,766.095498,444.123565,9474.636058
518.174126,842.705048,370.102971,9474.636058
518.174442,1149.143247,518.144159,9474.636058
518.174757,1149.143247,370.102971,9104.533087
518.175073,842.705048,444.123565,9104.533087
518.175388,766.095498,444.123565,9400.615463
518.175704,766.095498,444.123565,9104.533087
518.176020,612.876398,-0.000000,9178.553681
518.176335,383.047749,-0.000000,9474.636058
518.176644,229.828649,-148.041188,9770.718434
518.176959,0.000000,-296.082377,10066.800811
518.177275,0.000000,-370.102971,9918.759623
518.177590,0.000000,-222.061783,10214.842000
518.177906,0.000000,-222.061783,10066.800811
518.178222,229.828649,-222.061783,9844.739029
518.178537,306.438199,-0.000000,9696.697840
518.178853,306.438199,-296.082377,9400.615463
518.179169,459.657299,-0.000000,9474.636058
518.179484,995.924147,-0.000000,9178.553681
518.179800,919.314598,-148.041188,9178.553681
518.180115,842.705048,-370.102971,8956.491898
518.180431,306.438199,-296.082377,9474.636058
518.180747,76.609550,-370.102971,9400.615463
518.181062,0.000000,-444.123565,9696.697840
518.181378,-76.609550,-740.205942,9548.656652
518.181693,-306.438199,-888.247130,9770.718434
518.182009,0.000000,-666.185348,9844.739029
518.182325,-306.438199,-1036.288319,9844.739029
518.182640,-306.438199,-666.185348,9770.718434
518.182956,0.000000,-814.226536,9844.739029
518.183272,0.000000,-814.226536,9548.656652
518.183587,229.828649,-888.247130,9474.636058
518.183903,306.438199,-888.247130,9178.553681
518.184218,689.485948,-740.205942,8956.491898
518.184534,612.876398,-222.061783,8956.491898
518.184850,612.876398,-518.144159,8956.491898
518.185165,689.485948,-666.185348,9104.533087
518.185481,842.705048,-888.247130,9474.636058
518.185796,536.266849,-222.061783,9326.594869
518.186112,612.876398,-518.144159,9326.594869
518.186428,306.438199,-444.123565,9326.594869
518.186743,153.219100,-592.164754,9400.615463
518.187059,153.219100,-592.164754,9548.656652
518.187374,0.000000,-444.123565,9622.677246
518.187690,536.266849,-592.164754,9178.553681
518.188006,306.438199,-444.123565,9326.594869
518.188321,306.438199,-444.123565,9178.553681
518.188637,459.657299,-592.164754,9252.574275
518.188953,306.438199,-296.082377,9252.574275
518.189268,383.047749,-370.102971,9030.512492
518.189584,459.657299,-370.102971,9104.533087
518.189899,612.876398,-814.226536,9252.574275
518.190215,383.047749,-518.144159,9400.615463
518.190531,383.047749,-444.123565,9252.574275
518.190846,0.000000,-888.247130,9548.656652
518.191162,76.609550,-592.164754,9770.718434
518.191477,0.000000,-814.226536,10066.800811
518.191793,0.000000,-592.164754,9770.718434
518.192109,76.609550,-370.102971,9770.718434
518.192424,153.219100,-370.102971,9696.697840
518.192740,229.828649,-296.082377,9400.615463
518.193055,459.657299,-148.041188,9474.636058
518.193371,689.485948,222.061783,9326.594869
518.193687,919.314598,370.102971,9252.574275
518.194002,612.876398,-0.000000,9178.553681
518.194318,1378.971896,-222.061783,9252.574275
518.194634,766.095498,-0.000000,9252.574275
518.194949,536.266849,-370.102971,9400.615463
518.195265,383.047749,-222.061783,9400.615463
518.195580,229.828649,-148.041188,9622.677246
518.195896,0.000000,-0.000000,9918.759623
518.196212,306.438199,-0.000000,9918.759623
518.196527,383.047749,-0.000000,9844.739029
518.196843,306.438199,-296.082377,9770.718434
518.197158,306.438199,-0.000000,10066.800811
518.197474,536.266849,-148.041188,9696.697840
518.197790,842.705048,-0.000000,9252.574275
518.198105,919.314598,-0.000000,9252.574275
518.198421,842.705048,296.082377,9400.615463
518.198737,1072.533697,370.102971,9178.553681
518.199052,995.924147,592.164754,9178.553681
518.199368,995.924147,740.205942,9252.574275
518.199683,766.095498,518.144159,9474.636058
518.199999,766.095498,444.123565,9474.636058
518.200315,995.924147,592.164754,9696.697840
518.200630,536.266849,-0.000000,9770.718434
518.200946,689.485948,370.102971,9548.656652
518.201261,153.219100,370.102971,9918.759623
518.201577,689.485948,296.082377,9622.677246
518.201893,766.095498,74.020594,9548.656652
518.202208,919.314598,518.144159,9474.636058
518.202524,1072.533697,518.144159,9400.615463
518.202839,1072.533697,444.123565,9400.615463
518.203155,919.314598,444.123565,9178.553681
518.203471,766.095498,666.185348,9326.594869
518.203786,229.828649,518.144159,9252.574275
518.204102,459.657299,222.061783,9400.615463
518.204418,612.876398,296.082377,9548.656652
518.204733,76.609550,-0.000000,9548.656652
518.205049,229.828649,-74.020594,9918.759623
518.205364,76.609550,-444.123565,9844.739029
518.205680,76.609550,-296.082377,9918.759623
518.205996,76.609550,-0.000000,9844.739029
518.206311,383.047749,-0.000000,9918.759623
518.206627,383.047749,222.061783,9548.656652
518.206942,459.657299,-0.000000,9622.677246
518.207258,536.266849,-0.000000,9622.677246
518.207574,536.266849,-0.000000,9104.533087
518.207889,689.485948,-0.000000,9252.574275
518.208205,766.095498,-370.102971,9326.594869
518.208520,536.266849,-518.144159,9104.533087
518.208836,536.266849,-370.102971,9474.636058
518.209152,383.047749,-740.205942,9474.636058
518.209467,153.219100,-592.164754,9474.636058
518.209783,0.000000,-592.164754,9696.697840
518.210099,-536.266849,-888.247130,9622.677246
518.210414,-306.438199,-888.247130,9992.780217
518.210730,-153.219100,-740.205942,9918.759623
518.211045,-153.219100,-1036.288319,9770.718434
518.211361,0.000000,-814.226536,9622.677246
518.211677,153.219100,-666.185348,9696.697840
518.211992,306.438199,-666.185348,9252.574275
518.212308,766.095498,-592.164754,9326.594869
518.212623,459.657299,-296.082377,9030.512492
518.212939,1072.533697,-518.144159,9030.512492
518.213255,766.095498,-592.164754,8734.430116
518.213570,383.047749,-518.144159,8882.471304
518.213886,459.657299,-518.144159,9178.553681
518.214202,459.657299,-370.102971,9252.574275
518.214517,229.828649,-518.144159,9474.636058
518.214833,76.609550,-518.144159,9474.636058
518.215148,0.000000,-888.247130,9622.677246
518.215464,76.609550,-444.123565,9548.656652
518.215780,306.438199,-592.164754,9548.656652
518.216095,306.438199,-592.164754,9548.656652
518.216411,153.219100,-740.205942,9400.615463
518.216726,229.828649,-370.102971,9548.656652
518.217042,536.266849,-222.061783,9104.533087
518.217358,459.657299,-222.061783,9178.553681
518.217673,306.438199,-444.123565,9252.574275
518.217989,383.047749,-296.082377,9104.533087
518.218304,229.828649,-296.082377,9030.512492
518.218620,76.609550,-666.185348,9252.574275
518.218936,306.438199,-444.123565,9326.594869
518.219251,0.000000,-740.205942,9622.677246
518.219567,76.609550,-592.164754,9844.739029
518.219883,153.219100,-370.102971,9770.718434
518.220198,-229.828649,-518.144159,9992.780217
518.220514,153.219100,-444.123565,9696.697840
518.220829,-229.828649,-444.123565,9548.656652
518.221145,459.657299,-222.061783,9400.615463
518.221461,536.266849,-0.000000,9326.594869
518.221776,766.095498,-0.000000,9252.574275
518.222092,766.095498,-148.041188,9104.533087
518.222407,1149.143247,-148.041188,9252.574275
518.222723,612.876398,-296.082377,9474.636058
518.223039,766.095498,-74.020594,9474.636058
518.223354,383.047749,-222.061783,9400.615463
518.223670,383.047749,-148.041188,9770.718434
518.223986,612.876398,-444.123565,9770.718434
518.224301,229.828649,-296.082377,9918.759623
518.224617,306.438199,-148.041188,9844.739029
518.224932,383.047749,-0.000000,9918.759623
518.225248,459.657299,-0.000000,9770.718434
518.225564,689.485948,-222.061783,9770.718434
518.225879,459.657299,74.020594,9474.636058
518.226195,612.876398,222.061783,9622.677246
518.226510,919.314598,370.102971,9178.553681
518.226826,919.314598,666.185348,9178.553681
518.227142,766.095498,592.164754,9400.615463
518.227457,919.314598,592.164754,9400.615463
518.227773,1225.752797,592.164754,9400.615463
518.228088,842.705048,296.082377,9326.594869
518.228404,612.876398,444.123565,9474.636058
518.228720,612.876398,296.082377,9326.594869
518.229035,842.705048,370.102971,9696.697840
518.229351,536.266849,296.082377,9696.697840
518.229667,306.438199,370.102971,9696.697840
518.229982,689.485948,518.144159,9696.697840
518.230298,1149.143247,370.102971,9548.656652
518.230613,842.705048,666.185348,9400.615463
518.230929,995.924147,518.144159,9474.636058
518.231245,766.095498,740.205942,9030.512492
518.231560,995.924147,592.164754,9104.533087
518.231876,1225.752797,370.102971,9178.553681
518.232191,919.314598,444.123565,9400.615463
518.232507,536.266849,370.102971,9400.615463
518.232823,383.047749,74.020594,9400.615463
518.233138,229.828649,-0.000000,9696.697840
518.233454,-306.438199,-296.082377,9844.739029
518.233769,0.000000,-370.102971,9918.759623
518.234085,0.000000,-296.082377,9992.780217
518.234401,-229.828649,-370.102971,9918.759623
518.234716,-383.047749,-74.020594,9918.759623
518.235032,459.657299,-0.000000,9696.697840
518.235348,229.828649,148.041188,9548.656652
518.235663,612.876398,-0.000000,9030.512492
518.235979,459.657299,-148.041188,9178.553681
518.236294,689.485948,-222.061783,9326.594869
518.236610,536.266849,-518.144159,9104.533087
518.236926,612.876398,-296.082377,9326.594869
518.237241,459.657299,-518.144159,9326.594869
518.237557,306.438199,-666.185348,9474.636058
518.237872,0.000000,-888.247130,9696.697840
518.238188,76.609550,-666.185348,9770.718434
518.238504,-229.828649,-962.267725,9622.677246
518.238819,0.000000,-1036.288319,9548.656652
518.239135,-306.438199,-962.267725,9770.718434
518.239451,-229.828649,-1184.329507,9548.656652
518.239766,0.000000,-814.226536,9622.677246
518.240082,383.047749,-518.144159,9400.615463
518.240397,536.266849,-666.185348,9326.594869
518.240713,689.485948,-518.144159,9104.533087
518.241029,689.485948,-518.144159,9104.533087
518.241344,612.876398,-518.144159,8882.471304
518.241660,689.485948,-666.185348,9104.533087
518.241975,766.095498,-296.082377,9104.533087
518.242291,689.485948,-592.164754,9252.574275
518.242607,459.657299,-592.164754,9400.615463
518.242922,229.828649,-370.102971,9474.636058
518.243238,306.438199,-666.185348,9326.594869
518.243553,229.828649,-666.185348,9474.636058
518.243869,-76.609550,-740.205942,9548.656652
518.244185,229.828649,-518.144159,9178.553681
518.244500,383.047749,-666.185348,9622.677246
518.244816,383.047749,-444.123565,9400.615463
518.245132,459.657299,-370.102971,9252.574275
518.245447,306.438199,-222.061783,9104.533087
518.245763,229.828649,-296.082377,9400.615463
518.246078,306.438199,-296.082377,8956.491898
518.246394,153.219100,-0.000000,9104.533087
518.246710,459.657299,-296.082377,9252.574275
518.247025,-229.828649,-370.102971,9696.697840
518.247341,-306.438199,-592.164754,9622.677246
518.247656,0.000000,-666.185348,9918.759623
518.247972,0.000000,-444.123565,9992.780217
518.248288,-153.219100,-518.144159,9918.759623
518.248603,229.828649,-444.123565,10066.800811
518.248919,229.828649,-518.144159,9696.697840
518.249234,306.438199,-0.000000,9548.656652
518.249550,383.047749,-0.000000,9474.636058
518.249866,766.095498,-74.020594,9178.553681
518.250181,842.705048,-148.041188,9178.553681
518.250497,689.485948,-0.000000,9104.533087
518.250813,689.485948,-148.041188,9178.553681
518.251128,842.705048,-0.000000,9178.553681
518.251444,536.266849,-74.020594,9548.656652
518.251759,766.095498,-148.041188,9844.739029
518.252075,306.438199,-74.020594,9622.677246
518.252391,153.219100,-148.041188,9696.697840
518.252706,0.000000,-74.020594,9918.759623
518.253022,76.609550,-148.041188,9844.739029
518.253337,459.657299,-222.061783,9844.739029
518.253653,459.657299,-0.000000,9548.656652
518.253969,306.438199,-74.020594,9622.677246
518.254284,459.657299,222.061783,9474.636058
518.254600,536.266849,-0.000000,9474.636058
518.254916,1149.143247,370.102971,9400.615463
518.255231,842.705048,444.123565,9252.574275
518.255547,919.314598,592.164754,9326.594869
518.255862,919.314598,370.102971,9400.615463
518.256178,842.705048,592.164754,9326.594869
518.256494,689.485948,222.061783,9326.594869
518.256809,766.095498,296.082377,9622.677246
518.257125,459.657299,814.226536,9696.697840
518.257440,612.876398,444.123565,9696.697840
518.257756,689.485948,296.082377,9548.656652
518.258072,689.485948,222.061783,9474.636058
518.258387,842.705048,370.102971,9696.697840
518.258703,919.314598,222.061783,9326.594869
518.259018,1225.752797,222.061783,9474.636058
518.259334,995.924147,444.123565,9400.615463
518.259650,766.095498,518.144159,9178.553681
518.259965,536.266849,518.144159,9178.553681
518.260281,766.095498,592.164754,9030.512492
518.260597,229.828649,-74.020594,9326.594869
518.260912,153.219100,-0.000000,9474.636058
518.261228,76.609550,-296.082377,9622.677246
518.261543,0.000000,-444.123565,9622.677246
518.261859,0.000000,-370.102971,9770.718434
518.262175,0.000000,-296.082377,9770.718434
518.262490,0.000000,-296.082377,9770.718434
518.262806,0.000000,-222.061783,9696.697840
518.263121,229.828649,-222.061783,9548.656652
518.263437,306.438199,-0.000000,9474.636058
518.263753,459.657299,-0.000000,9326.594869
518.264068,766.095498,-74.020594,9252.574275
518.264384,306.438199,-296.082377,9104.533087
518.264699,766.095498,-222.061783,9104.533087
518.265015,766.095498,-296.082377,9178.553681
518.265331,612.876398,-518.144159,9474.636058
518.265646,229.828649,-592.164754,9474.636058
518.265962,153.219100,-740.205942,9548.656652
518.266278,0.000000,-740.205942,9548.656652
518.266593,0.000000,-888.247130,9844.739029
518.266909,229.828649,-666.185348,9696.697840
518.267224,0.000000,-814.226536,10066.800811
518.267540,153.219100,-888.247130,9844.739029
518.267856,0.000000,-1036.288319,9770.718434
518.268171,229.828649,-1110.308913,9474.636058
518.268487,306.438199,-814.226536,9400.615463
518.268802,229.828649,-444.123565,9178.553681
518.269118,612.876398,-148.041188,9178.553681
518.269434,536.266849,-148.041188,9178.553681
518.269749,689.485948,-370.102971,9326.594869
518.270065,1072.533697,-296.082377,9400.615463
518.270381,383.047749,-518.144159,9178.553681
518.270696,536.266849,-296.082377,9104.533087
518.271012,306.438199,-444.123565,9400.615463
518.271327,383.047749,-592.164754,9474.636058
518.271643,153.219100,-444.123565,9696.697840
518.271959,0.000000,-592.164754,9622.677246
518.272274,76.609550,-370.102971,9696.697840
518.272590,153.219100,-518.144159,9474.636058
518.272905,153.219100,-296.082377,9548.656652
518.273221,536.266849,-148.041188,9770.718434
518.273537,306.438199,-296.082377,9622.677246
518.273852,383.047749,-0.000000,9178.553681
518.274168,383.047749,-222.061783,9104.533087
518.274483,229.828649,-148.041188,9178.553681
518.274799,536.266849,-370.102971,9400.615463
518.275115,229.828649,-444.123565,9178.553681
518.275430,76.609550,-370.102971,9622.677246
518.275746,153.219100,-518.144159,9770.718434
518.276062,0.000000,-1036.288319,9622.677246
518.276377,-306.438199,-0.000000,10214.842000
518.276693,383.047749,-666.185348,9770.718434
518.277008,153.219100,-444.123565,9622.677246
518.277324,153.219100,-222.061783,9770.718434
518.277640,459.657299,-222.061783,9548.656652
518.277955,612.876398,-148.041188,9844.739029
518.278271,612.876398,-74.020594,9400.615463
518.278586,842.705048,-0.000000,9178.553681
518.278902,842.705048,-222.061783,9178.553681
518.279218,919.314598,-296.082377,9252.574275
518.279533,995.924147,-666.185348,9474.636058
518.279849,383.047749,-518.144159,9400.615463
518.280164,459.657299,-444.123565,9770.718434
518.280480,383.047749,-592.164754,9474.636058
518.280796,0.000000,-222.061783,9844.739029
518.281111,153.219100,-296.082377,9992.780217
518.281427,383.047749,-148.041188,9548.656652
518.281742,459.657299,-74.020594,9696.697840
518.282058,536.266849,74.020594,9918.759623
518.282373,612.876398,-0.000000,9474.636058
518.282689,842.705048,-148.041188,9252.574275
518.283005,842.705048,444.123565,9400.615463
518.283320,995.924147,148.041188,9252.574275
518.283636,1072.533697,370.102971,9178.553681
518.283951,1072.533697,148.041188,9030.512492
518.284267,919.314598,370.102971,9104.533087
518.284583,689.485948,370.102971,9400.615463
518.284898,689.485948,222.061783,9548.656652
518.285214,536.266849,370.102971,9622.677246
518.285529,459.657299,74.020594,9548.656652
518.285845,459.657299,222.061783,9844.739029
518.286161,842.705048,296.082377,9696.697840
518.286476,766.095498,370.102971,9474.636058
518.286792,689.485948,222.061783,9474.636058
518.287107,689.485948,148.041188,9326.594869
518.287423,842.705048,518.144159,9326.594869
518.287739,1072.533697,592.164754,9474.636058
518.288054,1072.533697,592.164754,9326.594869
518.288370,919.314598,814.226536,9104.533087
518.288685,306.438199,666.185348,9474.636058
518.289001,459.657299,444.123565,9474.636058
518.289317,536.266849,-74.020594,9474.636058
518.289632,0.000000,-148.041188,9770.718434
518.289948,0.000000,-74.020594,9992.780217
518.290263,-383.047749,-518.144159,10140.821405
518.290579,-229.828649,-370.102971,9992.780217
518.290894,-229.828649,-296.082377,9918.759623
518.291210,0.000000,-222.061783,9844.739029
518.291526,229.828649,-222.061783,9696.697840
518.291841,76.609550,-370.102971,9548.656652
518.292157,536.266849,-74.020594,9474.636058
518.292472,689.485948,-148.041188,9400.615463
518.292788,536.266849,-222.061783,9178.553681
518.293104,842.705048,-296.082377,9252.574275
518.293419,689.485948,-370.102971,9474.636058
518.293735,306.438199,-518.144159,9400.615463
518.294050,306.438199,-370.102971,9548.656652
518.294366,153.219100,-518.144159,9696.697840
518.294682,0.000000,-888.247130,9992.780217
518.294997,-306.438199,-1184.329507,9548.656652
518.295313,-306.438199,-1110.308913,9844.739029
518.295628,-306.438199,-814.226536,9918.759623
518.295944,-229.828649,-814.226536,9918.759623
518.296260,76.609550,-518.144159,9474.636058
518.296575,76.609550,-592.164754,9548.656652
518.296891,229.828649,-444.123565,9326.594869
518.297206,689.485948,-444.123565,9030.512492
518.297522,612.876398,-518.144159,9030.512492
518.297838,842.705048,-296.082377,8956.491898
518.298153,766.095498,-370.102971,9030.512492
518.298469,689.485948,-370.102971,9104.533087
518.298784,459.657299,-444.123565,9252.574275
518.299100,306.438199,-370.102971,9326.594869
518.299416,383.047749,-888.247130,9622.677246
518.299731,153.219100,-370.102971,9548.656652
518.300047,229.828649,-518.144159,9474.636058
518.300362,76.609550,-444.123565,9474.636058
518.300678,153.219100,-444.123565,9474.636058
518.300993,153.219100,-444.123565,9622.677246
518.301309,383.047749,-518.144159,9326.594869
518.301625,459.657299,-296.082377,9326.594869
518.301940,383.047749,-296.082377,9030.512492
518.302256,536.266849,-296.082377,9104.533087
518.302571,153.219100,-0.000000,9252.574275
518.302887,306.438199,-74.020594,9400.615463
518.303203,229.828649,-296.082377,9178.553681
518.303518,76.609550,-518.144159,9326.594869
518.303834,153.219100,-666.185348,9326.594869
518.304149,0.000000,-296.082377,9696.697840
518.304465,0.000000,-888.247130,9696.697840
518.304781,0.000000,-296.082377,10066.800811
518.305096,0.000000,-444.123565,9844.739029
518.305412,383.047749,-592.164754,9770.718434
518.305727,76.609550,-148.041188,9696.697840
518.306043,306.438199,-0.000000,9474.636058
518.306359,766.095498,-0.000000,9104.533087
518.306674,766.095498,-0.000000,9104.533087
518.306990,689.485948,222.061783,9326.594869
518.307305,842.705048,148.041188,9400.615463
518.307621,689.485948,-0.000000,9326.594869
518.307937,612.876398,-148.041188,9548.656652
518.308252,306.438199,-222.061783,9548.656652
518.308568,76.609550,-74.020594,9548.656652
518.308883,306.438199,-148.041188,9844.739029
518.309199,229.828649,-222.061783,9770.718434
518.309514,76.609550,-74.020594,9918.759623
518.309830,459.657299,-0.000000,9844.739029
518.310146,306.438199,-74.020594,9696.697840
518.310461,459.657299,296.082377,9622.677246
518.310777,306.438199,-0.000000,9400.615463
518.311092,612.876398,-0.000000,9548.656652
518.311408,919.314598,296.082377,9474.636058
518.311724,995.924147,296.082377,9252.574275
518.312039,1302.362347,518.144159,9400.615463
518.312355,842.705048,296.082377,9178.553681
518.312670,995.924147,444.123565,9326.594869
518.312986,842.705048,148.041188,9474.636058
518.313302,459.657299,370.102971,9696.697840
518.313617,383.047749,296.082377,9696.697840
518.313933,689.485948,370.102971,9548.656652
518.314248,842.705048,296.082377,9770.718434
518.314564,689.485948,-0.000000,9548.656652
518.314880,612.876398,-0.000000,9696.697840
518.315195,459.657299,296.082377,9474.636058
518.315511,842.705048,370.102971,9474.636058
518.315826,1532.190996,148.041188,9400.615463
518.316142,766.095498,296.082377,9252.574275
518.316458,689.485948,666.185348,9178.553681
518.316773,689.485948,740.205942,9178.553681
518.317089,766.095498,296.082377,9178.553681
518.317404,76.609550,444.123565,9474.636058
518.317720,0.000000,-74.020594,9548.656652
518.318036,229.828649,-74.020594,9474.636058
518.318351,76.609550,-518.144159,9844.739029
518.318667,0.000000,-370.102971,9992.780217
518.318982,-459.657299,-370.102971,9622.677246
518.319298,76.609550,-222.061783,9844.739029
518.319613,306.438199,-222.061783,9622.677246
518.319929,229.828649,-148.041188,9474.636058
518.320245,536.266849,-222.061783,9178.553681
518.320560,306.438199,-222.061783,9178.553681
518.320876,842.705048,-74.020594,9178.553681
518.321191,612.876398,-222.061783,9104.533087
518.321507,766.095498,-296.082377,9178.553681
518.321823,383.047749,-296.082377,9400.615463
518.322138,842.705048,-814.226536,9548.656652
518.322454,153.219100,-666.185348,9474.636058
518.322769,0.000000,-666.185348,9400.615463
518.323085,-229.828649,-740.205942,9770.718434
518.323401,-306.438199,-518.144159,9844.739029
518.323716,0.000000,-888.247130,9992.780217
518.324032,-306.438199,-888.247130,9622.677246
518.324347,0.000000,-814.226536,9548.656652
518.324663,-153.219100,-888.247130,9696.697840
518.324979,306.438199,-518.144159,9696.697840
518.325294,229.828649,-518.144159,9326.594869
518.325610,459.657299,-370.102971,9178.553681
518.325925,536.266849,-148.041188,9104.533087
518.326241,689.485948,-296.082377,9178.553681
518.326557,842.705048,-148.041188,9178.553681
518.326872,995.924147,-444.123565,9252.574275
518.327188,689.485948,-222.061783,9030.512492
518.327503,76.609550,-148.041188,9178.553681
518.327819,229.828649,-444.123565,9474.636058
518.328134,229.828649,-518.144159,9548.656652
518.328450,0.000000,-222.061783,9548.656652
518.328766,0.000000,-444.123565,9548.656652
518.329081,306.438199,-592.164754,9696.697840
518.329397,306.438199,-370.102971,9548.656652
518.329712,536.266849,-444.123565,9474.636058
518.330028,459.657299,-74.020594,9474.636058
518.330344,76.609550,-296.082377,9252.574275
518.330659,383.047749,-0.000000,9030.512492
518.330975,306.438199,-148.041188,9178.553681
518.331290,229.828649,-148.041188,9252.574275
518.331606,76.609550,-296.082377,9400.615463
518.331922,459.657299,-370.102971,9622.677246
518.332237,0.000000,-518.144159,9548.656652
518.332553,76.609550,-592.164754,9696.697840
518.332868,-612.876398,-296.082377,9770.718434
518.333184,306.438199,-740.205942,9992.780217
518.333500,229.828649,-592.164754,9844.739029
518.333815,229.828649,-296.082377,9844.739029
518.334131,459.657299,-222.061783,9400.615463
518.334446,689.485948,-74.020594,9326.594869
518.334762,1072.533697,-0.000000,9400.615463
518.335078,995.924147,-74.020594,9178.553681
518.335393,766.095498,-0.000000,9400.615463
518.335709,689.485948,-444.123565,9178.553681
518.336024,919.314598,-444.123565,9474.636058
518.336340,383.047749,-74.020594,9474.636058
518.336656,459.657299,-296.082377,9548.656652
518.336971,383.047749,-222.061783,9474.636058
518.337287,306.438199,-222.061783,9622.677246
518.337602,0.000000,-296.082377,9622.677246
518.337918,0.000000,-666.185348,9622.677246
518.338233,306.438199,-148.041188,9548.656652
518.338549,229.828649,-222.061783,9474.636058
518.338865,689.485948,-0.000000,9622.677246
518.339180,536.266849,-0.000000,9696.697840
518.339496,383.047749,148.041188,9326.594869
518.339811,612.876398,74.020594,9104.533087
518.340127,1072.533697,370.102971,9178.553681
518.340443,919.314598,370.102971,9104.533087
518.340758,842.705048,148.041188,9178.553681
518.341074,919.314598,148.041188,9326.594869
518.341389,689.485948,296.082377,9400.615463
518.341705,766.095498,148.041188,9474.636058
518.342021,612.876398,222.061783,9474.636058
518.342336,459.657299,222.061783,9400.615463
518.342652,153.219100,-0.000000,9326.594869
518.342967,153.219100,296.082377,9696.697840
518.343283,459.657299,296.082377,9548.656652
518.343599,766.095498,370.102971,9474.636058
518.343914,842.705048,296.082377,9400.615463
518.344230,919.314598,518.144159,9696.697840
518.344545,919.314598,666.185348,9252.574275
518.344861,766.095498,666.185348,9178.553681
518.345177,612.876398,370.102971,9030.512492
518.345492,766.095498,296.082377,9400.615463
518.345808,383.047749,-0.000000,9474.636058
518.346123,76.609550,-0.000000,9548.656652
518.346439,229.828649,-74.020594,9844.739029
518.346754,0.000000,-370.102971,10066.800811
518.347070,0.000000,-222.061783,10066.800811
518.347386,-229.828649,-444.123565,9992.780217
518.347701,-229.828649,-74.020594,9770.718434
518.348017,229.828649,-74.020594,9696.697840
518.348332,536.266849,-222.061783,9548.656652
518.348648,612.876398,-0.000000,9326.594869
518.348964,612.876398,-0.000000,9548.656652
518.349279,689.485948,-222.061783,9178.553681
518.349595,612.876398,-0.000000,9400.615463
518.349910,995.924147,-148.041188,9326.594869
518.350226,536.266849,-370.102971,9400.615463
518.350542,383.047749,-444.123565,9622.677246
518.350857,229.828649,-518.144159,9548.656652
518.351173,76.609550,-518.144159,9770.718434
518.351488,0.000000,-814.226536,9844.739029
518.351804,0.000000,-962.267725,9696.697840
518.352120,-153.219100,-740.205942,9918.759623
518.352435,0.000000,-888.247130,9770.718434
518.352751,0.000000,-740.205942,9696.697840
518.353066,0.000000,-666.185348,9474.636058
518.353382,306.438199,-518.144159,9474.636058
518.353698,383.047749,-222.061783,9252.574275
518.354013,766.095498,-444.123565,9104.533087
518.354329,689.485948,-222.061783,9104.533087
518.354644,766.095498,-74.020594,8882.471304
518.354960,842.705048,-0.000000,9178.553681
518.355276,459.657299,-222.061783,9104.533087
518.355591,766.095498,-74.020594,9178.553681
518.355907,306.438199,-444.123565,9326.594869
518.356222,229.828649,-740.205942,9474.636058
518.356538,306.438199,-666.185348,9770.718434
518.356853,306.438199,-592.164754,9474.636058
518.357169,306.438199,-518.144159,9474.636058
518.357485,306.438199,-444.123565,9326.594869
518.357800,383.047749,-148.041188,9326.594869
518.358116,536.266849,-444.123565,9178.553681
518.358431,383.047749,-444.123565,9030.512492
518.358747,306.438199,-370.102971,8956.491898
518.359063,383.047749,-148.041188,8956.491898
518.359378,229.828649,-74.020594,9030.512492
518.359694,383.047749,-370.102971,9104.533087
518.360009,229.828649,-370.102971,9326.594869
518.360325,76.609550,-370.102971,9696.697840
518.360641,0.000000,-666.185348,9622.677246
518.360956,-306.438199,-740.205942,9770.718434
518.361272,-306.438199,-962.267725,9918.759623
518.361587,-383.047749,-740.205942,9844.739029
518.361903,153.219100,-592.164754,9918.759623
518.362219,383.047749,-370.102971,9548.656652
518.362534,536.266849,-222.061783,9474.636058
518.362850,536.266849,-296.082377,9252.574275
518.363165,689.485948,-148.041188,9178.553681
518.363481,919.314598,-0.000000,9178.553681
518.363797,766.095498,-148.041188,9326.594869
518.364112,919.314598,-74.020594,9326.594869
518.364428,306.438199,-74.020594,9548.656652
518.364743,383.047749,-296.082377,9696.697840
518.365059,383.047749,-222.061783,9548.656652
518.365374,536.266849,-222.061783,9918.759623
518.365690,306.438199,-296.082377,9844.739029
518.366006,76.609550,-148.041188,10066.800811
518.366321,229.828649,-74.020594,9770.718434
518.366637,612.876398,-148.041188,9622.677246
518.366952,612.876398,-74.020594,9696.697840
518.367268,766.095498,-0.000000,9992.780217
518.367584,995.924147,-0.000000,9178.553681
518.367899,1072.533697,296.082377,9326.594869
518.368215,995.924147,444.123565,9252.574275
518.368530,1149.143247,370.102971,9252.574275
518.368846,995.924147,740.205942,9326.594869
518.369162,842.705048,592.164754,9474.636058
518.369477,919.314598,370.102971,9474.636058
518.369793,612.876398,444.123565,9474.636058
518.370108,612.876398,444.123565,9548.656652
518.370424,1302.362347,444.123565,9622.677246
518.370740,306.438199,-0.000000,9548.656652
518.371055,536.266849,222.061783,9844.739029
518.371371,536.266849,444.123565,9696.697840
518.371686,766.095498,-0.000000,9548.656652
518.372002,842.705048,592.164754,9474.636058
518.372318,1072.533697,518.144159,9326.594869
518.372633,995.924147,666.185348,9252.574275
518.372949,842.705048,518.144159,9104.533087
518.373264,689.485948,518.144159,9178.553681
518.373580,612.876398,592.164754,9326.594869
518.373895,459.657299,222.061783,9548.656652
518.374211,536.266849,-0.000000,9548.656652
518.374527,229.828649,-74.020594,9770.718434
518.374842,0.000000,-296.082377,9918.759623
518.375158,0.000000,-0.000000,9918.759623
518.375473,0.000000,-296.082377,10066.800811
518.375789,0.000000,-222.061783,9918.759623
518.376105,153.219100,-370.102971,9696.697840
518.376420,459.657299,-296.082377,9548.656652
518.376736,229.828649,-222.061783,9548.656652
518.377051,536.266849,-74.020594,9770.718434
518.377367,919.314598,-0.000000,8956.491898
518.377683,612.876398,-74.020594,9252.574275
518.377998,1072.533697,-518.144159,9252.574275
518.378314,536.266849,-74.020594,9326.594869
518.378629,153.219100,-370.102971,9326.594869
518.378945,153.219100,-592.164754,9474.636058
518.379261,0.000000,-592.164754,9548.656652
