#time,accel_x,accel_y,accel_z
1055.399557,0.000000,296.082377,10288.862594
1055.399873,-766.095498,444.123565,10214.842000
1055.400189,-919.314598,962.267725,9918.759623
1055.400505,-383.047749,962.267725,9844.739029
1055.400821,229.828649,1258.350101,9770.718434
1055.401137,153.219100,1554.432478,9548.656652
1055.401453,306.438199,1332.370696,9252.574275
1055.401769,612.876398,1554.432478,9252.574275
1055.402086,919.314598,1628.453072,9400.615463
1055.402402,919.314598,1480.411884,9252.574275
1055.402718,383.047749,1406.391290,9252.574275
1055.403034,229.828649,1628.453072,9474.636058
1055.403350,383.047749,1554.432478,9622.677246
1055.403666,-153.219100,1480.411884,9474.636058
1055.403982,-153.219100,1628.453072,9400.615463
1055.404298,-306.438199,1554.432478,9474.636058
1055.404614,-919.314598,1258.350101,9252.574275
1055.404930,-919.314598,1184.329507,9696.697840
1055.405246,-1455.581446,1332.370696,9696.697840
1055.405562,-1838.629195,1258.350101,9770.718434
1055.405878,-1915.238745,1258.350101,9622.677246
1055.406195,-2145.067394,1110.308913,9474.636058
1055.406511,-2451.505594,1406.391290,9548.656652
1055.406827,-2681.334243,1554.432478,9474.636058
1055.407143,-2757.943793,1480.411884,9474.636058
1055.407459,-2681.334243,1850.514855,9030.512492
1055.407775,-2911.162892,2072.576638,8956.491898
1055.408091,-2987.772442,2146.597232,9252.574275
1055.408407,-3140.991542,1850.514855,9178.553681
1055.408723,-2911.162892,1702.473667,9252.574275
1055.409039,-3294.210641,1702.473667,9252.574275
1055.409355,-3524.039291,1924.535449,9252.574275
1055.409671,-3524.039291,1776.494261,9400.615463
1055.409987,-3370.820191,1776.494261,9252.574275
1055.410303,-3217.601092,1776.494261,9326.594869
1055.410620,-3370.820191,1924.535449,9252.574275
1055.410936,-3677.258390,2368.659014,9030.512492
1055.411252,-3370.820191,2442.679609,9178.553681
1055.411568,-3447.429741,2368.659014,9104.533087
1055.411884,-2834.553343,2738.761985,9548.656652
1055.412200,-2757.943793,2886.803174,9030.512492
1055.412516,-2911.162892,3182.885551,8660.409521
1055.412832,-2834.553343,3256.906145,9104.533087
1055.413148,-2604.724693,3404.947333,8956.491898
1055.413464,-2604.724693,3627.009116,8956.491898
1055.413780,-2681.334243,3627.009116,9252.574275
1055.414096,-2987.772442,3478.967927,9400.615463
1055.414412,-3064.381992,3108.864956,9474.636058
1055.414729,-2987.772442,2516.700203,9844.739029
1055.415045,-2834.553343,2738.761985,10066.800811
1055.415361,-2298.286494,2442.679609,10214.842000
1055.415677,-1991.848295,2442.679609,10214.842000
1055.415993,-1838.629195,3108.864956,10066.800811
1055.416309,-1532.190996,2738.761985,9696.697840
1055.416625,-1225.752797,3330.926739,9622.677246
1055.416941,-612.876398,3330.926739,9770.718434
1055.417257,-383.047749,3775.050304,9178.553681
1055.417573,76.609550,3849.070898,9178.553681
1055.417889,-459.657299,3923.091493,9326.594869
1055.418205,-229.828649,3256.906145,9622.677246
1055.418521,-459.657299,3034.844362,9178.553681
1055.418838,-1072.533697,3330.926739,9548.656652
1055.419154,-1608.800546,3034.844362,9622.677246
1055.419470,-2221.676944,2664.741391,10066.800811
1055.419786,-2451.505594,2442.679609,10288.862594
1055.420102,-2757.943793,2072.576638,10288.862594
1055.420418,-3140.991542,1332.370696,10881.027347
1055.420734,-2834.553343,370.102971,11547.212695
1055.421050,-2528.115143,-148.041188,11547.212695
1055.421366,-2145.067394,-296.082377,11547.212695
1055.421682,-995.924147,-296.082377,11251.130318
1055.421998,-536.266849,148.041188,10362.883188
1055.422314,689.485948,444.123565,9844.739029
1055.422630,1532.190996,1184.329507,9178.553681
1055.422946,1991.848295,1924.535449,8882.471304
1055.423263,2528.115143,2590.720797,8438.347739
1055.423579,2681.334243,3182.885551,7920.203579
1055.423895,2145.067394,3627.009116,7476.080014
1055.424211,1378.971896,3256.906145,7254.018232
1055.424527,842.705048,2812.782580,7402.059420
1055.424843,-383.047749,1850.514855,8438.347739
1055.425159,-1532.190996,888.247130,9178.553681
1055.425475,-2681.334243,-666.185348,10510.924376
1055.425791,-3600.648841,-1776.494261,11177.109724
1055.426107,-4213.525239,-2590.720797,11769.274478
1055.426423,-3830.477490,-3108.864956,11917.315666
1055.426739,-3600.648841,-2960.823768,11621.233289
1055.427054,-3217.601092,-2072.576638,10807.006753
1055.427370,-1378.971896,-888.247130,9770.718434
1055.427686,-612.876398,370.102971,8512.368333
1055.428002,306.438199,1924.535449,7254.018232
1055.428318,919.314598,2812.782580,6143.709319
1055.428634,1072.533697,3404.947333,5477.523971
1055.428950,689.485948,3404.947333,5773.606348
1055.429266,0.000000,3108.864956,6217.729913
1055.429582,-995.924147,2146.597232,7402.059420
1055.429898,-2528.115143,222.061783,8808.450710
1055.430214,-3830.477490,-1332.370696,9474.636058
1055.430530,-5362.668486,-2664.741391,11177.109724
1055.430846,-5898.935335,-3478.967927,12139.377449
1055.431162,-5362.668486,-3404.947333,12139.377449
1055.431477,-5286.058936,-2442.679609,11769.274478
1055.431793,-4826.401637,-1702.473667,11029.068536
1055.432109,-3983.696590,-370.102971,9918.759623
1055.432425,-2681.334243,444.123565,8956.491898
1055.432741,-1302.362347,2072.576638,7698.141797
1055.433057,153.219100,2738.761985,7476.080014
1055.433373,612.876398,2664.741391,7254.018232
1055.433689,995.924147,2294.638420,7254.018232
1055.434005,689.485948,1406.391290,7846.182985
1055.434321,919.314598,148.041188,9252.574275
1055.434637,612.876398,-0.000000,9622.677246
1055.434953,0.000000,518.144159,9548.656652
1055.435269,-842.705048,962.267725,9918.759623
1055.435585,-1072.533697,888.247130,10214.842000
1055.435900,-1302.362347,1258.350101,10288.862594
1055.436216,-1149.143247,1184.329507,9844.739029
1055.436532,-1532.190996,962.267725,9696.697840
1055.436848,-1072.533697,518.144159,10214.842000
1055.437164,-766.095498,-148.041188,10288.862594
1055.437480,153.219100,-0.000000,10881.027347
1055.437796,842.705048,814.226536,10510.924376
1055.438112,919.314598,1480.411884,9622.677246
1055.438428,1225.752797,2072.576638,9400.615463
1055.438744,1685.410096,1924.535449,9918.759623
1055.439060,2068.457845,2664.741391,9400.615463
1055.439376,2528.115143,3478.967927,9474.636058
1055.439692,1991.848295,3478.967927,8734.430116
1055.440008,1685.410096,2368.659014,9400.615463
1055.440323,2068.457845,1480.411884,9622.677246
1055.440639,2298.286494,666.185348,9992.780217
1055.440955,1915.238745,370.102971,10436.903782
1055.441271,842.705048,222.061783,9918.759623
1055.441587,766.095498,444.123565,9622.677246
1055.441903,689.485948,740.205942,10066.800811
1055.442219,1072.533697,1258.350101,10510.924376
1055.442535,995.924147,1998.556043,9918.759623
1055.442851,153.219100,1702.473667,9844.739029
1055.443167,76.609550,814.226536,9992.780217
1055.443483,689.485948,-222.061783,9918.759623
1055.443799,919.314598,-74.020594,10140.821405
1055.444115,612.876398,-74.020594,9696.697840
1055.444431,536.266849,-296.082377,9770.718434
1055.444747,1072.533697,-814.226536,9918.759623
1055.445062,766.095498,-888.247130,9474.636058
1055.445378,612.876398,-0.000000,9770.718434
1055.445694,689.485948,370.102971,9770.718434
1055.446010,842.705048,-0.000000,9326.594869
1055.446326,1378.971896,-370.102971,8956.491898
1055.446642,2068.457845,-0.000000,8512.368333
1055.446958,2374.896044,222.061783,7994.224174
1055.447274,2145.067394,-74.020594,7920.203579
1055.447590,1532.190996,-444.123565,7920.203579
1055.447906,1532.190996,-888.247130,9104.533087
1055.448222,459.657299,-666.185348,9104.533087
1055.448538,-689.485948,-444.123565,9548.656652
1055.448854,-1532.190996,-740.205942,9770.718434
1055.449170,-1149.143247,-1628.453072,10288.862594
1055.449485,-1072.533697,-1480.411884,9844.739029
1055.449801,-995.924147,-1184.329507,9326.594869
1055.450117,-1149.143247,-1258.350101,9030.512492
1055.450433,-383.047749,-1850.514855,8734.430116
1055.450749,-229.828649,-1850.514855,8956.491898
1055.451065,-383.047749,-1554.432478,9030.512492
1055.451381,-459.657299,-814.226536,9030.512492
1055.451697,-689.485948,-148.041188,8512.368333
1055.452013,-306.438199,-518.144159,8438.347739
1055.452329,383.047749,-0.000000,8586.388927
1055.452645,0.000000,444.123565,8216.285956
1055.452961,-459.657299,814.226536,7550.100608
1055.453277,-229.828649,-0.000000,7994.224174
1055.453593,-229.828649,-814.226536,8882.471304
1055.453908,-766.095498,-1480.411884,9474.636058
1055.454224,-1378.971896,-1332.370696,10362.883188
1055.454540,-1762.019645,-2072.576638,10732.986159
1055.454856,-1608.800546,-2590.720797,11029.068536
1055.455172,-536.266849,-2368.659014,10658.965565
1055.455488,-995.924147,-1480.411884,10066.800811
1055.455804,0.000000,-222.061783,9178.553681
1055.456120,459.657299,-0.000000,8882.471304
1055.456436,1302.362347,-222.061783,8882.471304
1055.456752,306.438199,370.102971,9104.533087
1055.457068,919.314598,444.123565,9252.574275
1055.457384,919.314598,-222.061783,9474.636058
1055.457700,995.924147,-592.164754,9548.656652
1055.458016,1072.533697,-592.164754,10066.800811
1055.458331,1149.143247,-666.185348,9696.697840
1055.458647,1225.752797,148.041188,9474.636058
1055.458963,1532.190996,-74.020594,9918.759623
1055.459279,1608.800546,-370.102971,9918.759623
1055.459595,1455.581446,-148.041188,9992.780217
1055.459911,1838.629195,-444.123565,10510.924376
1055.460227,1302.362347,-444.123565,10288.862594
1055.460543,1762.019645,-592.164754,10436.903782
1055.460859,2068.457845,-370.102971,9696.697840
1055.461175,2068.457845,740.205942,9400.615463
1055.461491,2298.286494,1406.391290,9104.533087
1055.461807,1991.848295,1406.391290,8734.430116
1055.462123,1915.238745,1258.350101,8808.450710
1055.462439,1608.800546,1628.453072,8808.450710
1055.462754,842.705048,1332.370696,9548.656652
1055.463070,689.485948,592.164754,9844.739029
1055.463386,842.705048,-222.061783,10362.883188
1055.463702,689.485948,-0.000000,10066.800811
1055.464018,689.485948,-0.000000,9548.656652
1055.464334,842.705048,-74.020594,9474.636058
1055.464650,612.876398,-0.000000,9622.677246
1055.464966,612.876398,-0.000000,9326.594869
1055.465282,383.047749,-74.020594,9400.615463
1055.465598,0.000000,444.123565,9844.739029
1055.465914,612.876398,-0.000000,9918.759623
1055.466230,612.876398,-74.020594,9918.759623
1055.466546,689.485948,370.102971,9030.512492
1055.466862,842.705048,962.267725,8438.347739
1055.467178,766.095498,1258.350101,8068.244768
1055.467493,919.314598,814.226536,8216.285956
1055.467809,536.266849,666.185348,8290.306550
1055.468125,-459.657299,-0.000000,8660.409521
1055.468441,-1378.971896,-370.102971,9918.759623
1055.468757,-1762.019645,-1406.391290,10288.862594
1055.469073,-1685.410096,-1554.432478,10510.924376
1055.469389,-1532.190996,-1258.350101,9992.780217
1055.469705,-1225.752797,-740.205942,9622.677246
1055.470021,-1072.533697,-222.061783,9252.574275
1055.470337,-689.485948,-296.082377,8882.471304
1055.470653,229.828649,-666.185348,8734.430116
1055.470969,-153.219100,-0.000000,8660.409521
1055.471285,-612.876398,296.082377,9178.553681
1055.471601,-612.876398,-370.102971,9696.697840
1055.471916,-459.657299,-0.000000,9548.656652
1055.472232,0.000000,148.041188,8808.450710
1055.472548,153.219100,370.102971,8734.430116
1055.472864,459.657299,814.226536,8586.388927
1055.473180,919.314598,370.102971,8660.409521
1055.473496,1149.143247,370.102971,8808.450710
1055.473812,459.657299,-0.000000,9104.533087
1055.474128,-76.609550,-74.020594,9548.656652
1055.474444,-689.485948,-518.144159,9770.718434
1055.474760,-689.485948,-1110.308913,10658.965565
1055.475076,-459.657299,-814.226536,10288.862594
1055.475392,0.000000,-0.000000,9622.677246
1055.475708,0.000000,370.102971,9030.512492
1055.476024,612.876398,-0.000000,9696.697840
1055.476339,1072.533697,-222.061783,9178.553681
1055.476655,1149.143247,-148.041188,9844.739029
1055.476971,612.876398,-148.041188,10288.862594
1055.477287,536.266849,-592.164754,10510.924376
1055.477603,1072.533697,-740.205942,10510.924376
1055.477919,1455.581446,-592.164754,9918.759623
1055.478235,1532.190996,518.144159,9548.656652
1055.478551,1455.581446,370.102971,8956.491898
1055.478867,1838.629195,-148.041188,9400.615463
1055.479183,2145.067394,-0.000000,9326.594869
1055.479499,1532.190996,-148.041188,9474.636058
1055.479815,1072.533697,-444.123565,9918.759623
1055.480131,612.876398,-962.267725,9992.780217
1055.480447,1072.533697,-888.247130,10584.944971
1055.480762,766.095498,-1036.288319,9992.780217
1055.481078,689.485948,-592.164754,9548.656652
1055.481394,536.266849,-296.082377,9474.636058
1055.481710,689.485948,-296.082377,9474.636058
1055.482026,536.266849,-296.082377,9252.574275
1055.482342,383.047749,-296.082377,9474.636058
1055.482658,229.828649,-370.102971,9770.718434
1055.482974,229.828649,-1184.329507,10140.821405
1055.483290,919.314598,-1406.391290,10584.944971
1055.483606,1149.143247,-962.267725,9326.594869
1055.483922,1685.410096,-296.082377,8882.471304
1055.484238,1149.143247,-0.000000,8808.450710
1055.484554,1608.800546,444.123565,8290.306550
1055.484870,1685.410096,888.247130,8142.265362
1055.485185,995.924147,962.267725,8216.285956
1055.485501,306.438199,222.061783,9326.594869
1055.485817,0.000000,-296.082377,9696.697840
1055.486133,76.609550,-888.247130,9918.759623
1055.486449,0.000000,-592.164754,9548.656652
1055.486765,0.000000,-592.164754,9400.615463
1055.487081,0.000000,-888.247130,9030.512492
1055.487397,0.000000,-592.164754,9400.615463
1055.487713,0.000000,-0.000000,9326.594869
1055.488029,-689.485948,-296.082377,9474.636058
1055.488345,-306.438199,-296.082377,9474.636058
1055.488661,-536.266849,-1110.308913,10584.944971
1055.488977,0.000000,-1184.329507,10140.821405
1055.489293,459.657299,-518.144159,9474.636058
1055.489609,919.314598,-74.020594,8660.409521
1055.489924,995.924147,296.082377,8586.388927
1055.490240,2068.457845,-0.000000,8808.450710
1055.490556,1149.143247,148.041188,8808.450710
1055.490872,689.485948,296.082377,8882.471304
1055.491188,0.000000,-74.020594,9474.636058
1055.491504,-306.438199,-592.164754,10140.821405
1055.491820,0.000000,-1184.329507,10732.986159
1055.492136,-306.438199,-1036.288319,9770.718434
1055.492452,-766.095498,-444.123565,9622.677246
1055.492768,-306.438199,-666.185348,9622.677246
1055.493084,-306.438199,-1036.288319,9992.780217
1055.493400,459.657299,-888.247130,9622.677246
1055.493716,-689.485948,-518.144159,9770.718434
1055.494032,-306.438199,-296.082377,9844.739029
1055.494347,0.000000,-740.205942,10214.842000
1055.494663,612.876398,-592.164754,10214.842000
1055.494979,306.438199,-74.020594,9178.553681
1055.495295,995.924147,666.185348,9104.533087
1055.495611,1532.190996,1036.288319,8586.388927
1055.495927,1838.629195,962.267725,8512.368333
1055.496243,1838.629195,1036.288319,8512.368333
1055.496559,995.924147,740.205942,8660.409521
1055.496875,153.219100,148.041188,9622.677246
1055.497191,383.047749,-518.144159,10510.924376
1055.497507,76.609550,-962.267725,10288.862594
1055.497823,0.000000,-518.144159,10288.862594
1055.498139,153.219100,-0.000000,9918.759623
1055.498455,536.266849,296.082377,9622.677246
1055.498770,842.705048,518.144159,9548.656652
1055.499086,766.095498,666.185348,9252.574275
1055.499402,612.876398,592.164754,9474.636058
1055.499718,766.095498,518.144159,9992.780217
1055.500034,612.876398,-222.061783,9844.739029
1055.500350,1072.533697,-0.000000,10288.862594
1055.500666,1225.752797,-0.000000,9474.636058
1055.500982,995.924147,222.061783,9104.533087
1055.501298,1532.190996,962.267725,8956.491898
1055.501614,1838.629195,740.205942,9030.512492
1055.501930,1225.752797,592.164754,9030.512492
1055.502246,766.095498,518.144159,9400.615463
1055.502562,153.219100,-74.020594,9548.656652
1055.502878,383.047749,-962.267725,9992.780217
1055.503193,383.047749,-888.247130,10214.842000
1055.503509,229.828649,-740.205942,9548.656652
1055.503825,0.000000,-666.185348,9474.636058
1055.504141,306.438199,-962.267725,9326.594869
1055.504457,306.438199,-148.041188,9622.677246
1055.504773,229.828649,-0.000000,9400.615463
1055.505089,0.000000,370.102971,9474.636058
1055.505405,-76.609550,-0.000000,9326.594869
1055.505721,153.219100,-444.123565,10436.903782
1055.506037,536.266849,-518.144159,9548.656652
1055.506353,842.705048,-148.041188,9252.574275
1055.506669,842.705048,-0.000000,8808.450710
1055.506985,842.705048,-0.000000,8734.430116
1055.507301,842.705048,-222.061783,8660.409521
1055.507616,689.485948,-444.123565,9030.512492
1055.507932,-306.438199,-0.000000,9400.615463
1055.508248,-383.047749,-444.123565,9622.677246
1055.508564,0.000000,-1332.370696,10362.883188
1055.508880,-153.219100,-592.164754,9992.780217
1055.509196,-612.876398,-592.164754,8956.491898
1055.509512,-306.438199,-370.102971,9178.553681
1055.509828,0.000000,-296.082377,9030.512492
1055.510144,0.000000,-0.000000,8586.388927
1055.510460,0.000000,-74.020594,9326.594869
1055.510776,-689.485948,-370.102971,9326.594869
1055.511092,-612.876398,-814.226536,10288.862594
1055.511408,-306.438199,-814.226536,10288.862594
1055.511724,153.219100,-666.185348,9696.697840
1055.512040,536.266849,296.082377,8956.491898
1055.512355,383.047749,-74.020594,9252.574275
1055.512671,1149.143247,222.061783,8956.491898
1055.512987,1072.533697,222.061783,8956.491898
1055.513303,995.924147,740.205942,8290.306550
1055.513619,383.047749,222.061783,9030.512492
1055.513935,76.609550,-222.061783,9622.677246
1055.514251,0.000000,-666.185348,9844.739029
1055.514567,0.000000,-888.247130,9474.636058
1055.514883,536.266849,-962.267725,9992.780217
1055.515199,0.000000,-1110.308913,9474.636058
1055.515515,0.000000,-666.185348,9696.697840
1055.515831,459.657299,-370.102971,9548.656652
1055.516147,383.047749,-296.082377,9474.636058
1055.516463,153.219100,-222.061783,9770.718434
1055.516778,153.219100,-74.020594,9622.677246
1055.517094,306.438199,-962.267725,10214.842000
1055.517410,842.705048,-1036.288319,10066.800811
1055.517726,919.314598,-518.144159,9400.615463
1055.518042,995.924147,-370.102971,8956.491898
1055.518358,1225.752797,-148.041188,8956.491898
1055.518674,1608.800546,222.061783,9104.533087
1055.518990,1608.800546,666.185348,8808.450710
1055.519306,1225.752797,296.082377,9252.574275
1055.519622,1378.971896,-0.000000,9844.739029
1055.519938,1225.752797,-888.247130,9918.759623
1055.520254,919.314598,-592.164754,9992.780217
1055.520570,536.266849,-444.123565,9474.636058
1055.520886,459.657299,-0.000000,9770.718434
1055.521201,689.485948,-0.000000,9474.636058
1055.521517,383.047749,-0.000000,9400.615463
1055.521833,153.219100,-222.061783,9400.615463
1055.522149,0.000000,-518.144159,9992.780217
1055.522465,0.000000,-666.185348,10436.903782
1055.522781,76.609550,-1184.329507,10510.924376
1055.523097,689.485948,-1258.350101,9992.780217
1055.523413,919.314598,-148.041188,9178.553681
1055.523729,1072.533697,370.102971,8586.388927
1055.524045,1149.143247,222.061783,8438.347739
1055.524361,1302.362347,666.185348,9178.553681
1055.524677,1149.143247,888.247130,8586.388927
1055.524993,383.047749,740.205942,9030.512492
1055.525309,76.609550,296.082377,9400.615463
1055.525624,76.609550,-888.247130,10140.821405
1055.525940,0.000000,-888.247130,9918.759623
1055.526256,-229.828649,-370.102971,9696.697840
1055.526572,-153.219100,222.061783,9474.636058
1055.526888,0.000000,148.041188,9400.615463
1055.527204,-459.657299,-0.000000,9400.615463
1055.527520,-229.828649,222.061783,9474.636058
1055.527835,-766.095498,-0.000000,9474.636058
1055.528151,-536.266849,-296.082377,10066.800811
1055.528467,76.609550,-296.082377,10288.862594
1055.528783,0.000000,-444.123565,9622.677246
1055.529099,76.609550,-148.041188,9474.636058
1055.529414,229.828649,222.061783,8882.471304
1055.529730,229.828649,370.102971,8660.409521
1055.530046,689.485948,370.102971,9178.553681
1055.530362,383.047749,370.102971,9326.594869
1055.530678,229.828649,-0.000000,9548.656652
1055.530994,0.000000,-222.061783,9770.718434
1055.531309,306.438199,-592.164754,9622.677246
1055.531625,383.047749,-962.267725,9622.677246
1055.531941,229.828649,-370.102971,9326.594869
1055.532257,153.219100,-0.000000,9252.574275
1055.532573,383.047749,-148.041188,9178.553681
1055.532889,689.485948,-0.000000,9178.553681
1055.533204,306.438199,-0.000000,8734.430116
1055.533520,0.000000,-148.041188,9326.594869
1055.533836,0.000000,-592.164754,10140.821405
1055.534152,306.438199,-740.205942,10214.842000
1055.534468,459.657299,-592.164754,9918.759623
1055.534783,306.438199,222.061783,9474.636058
1055.535099,842.705048,518.144159,9474.636058
1055.535415,995.924147,296.082377,8808.450710
1055.535731,919.314598,-0.000000,8734.430116
1055.536047,919.314598,148.041188,9104.533087
1055.536363,689.485948,222.061783,9548.656652
1055.536678,536.266849,-222.061783,9474.636058
1055.536994,689.485948,-518.144159,9992.780217
1055.537310,689.485948,-444.123565,9696.697840
1055.537626,229.828649,-0.000000,9104.533087
1055.537942,459.657299,222.061783,8660.409521
1055.538258,612.876398,-74.020594,9252.574275
1055.538573,536.266849,-74.020594,9474.636058
1055.538889,153.219100,148.041188,9548.656652
1055.539205,-459.657299,-74.020594,9844.739029
1055.539521,0.000000,-444.123565,9844.739029
1055.539837,0.000000,-740.205942,10288.862594
1055.540152,229.828649,-666.185348,9696.697840
1055.540468,689.485948,-296.082377,9474.636058
1055.540784,459.657299,-0.000000,8882.471304
1055.541100,689.485948,-0.000000,9178.553681
1055.541416,919.314598,148.041188,9104.533087
1055.541732,689.485948,222.061783,9104.533087
1055.542047,383.047749,222.061783,9548.656652
1055.542363,76.609550,-370.102971,10066.800811
1055.542679,689.485948,-740.205942,9918.759623
1055.542995,459.657299,-444.123565,9918.759623
1055.543311,536.266849,-0.000000,9178.553681
1055.543626,919.314598,-0.000000,9104.533087
1055.543942,1302.362347,-592.164754,9030.512492
1055.544258,612.876398,-518.144159,9474.636058
1055.544574,229.828649,-444.123565,9918.759623
1055.544890,0.000000,-370.102971,9696.697840
1055.545206,0.000000,-962.267725,10288.862594
1055.545521,229.828649,-1702.473667,10584.944971
1055.545837,842.705048,-888.247130,9918.759623
1055.546153,1072.533697,-370.102971,9326.594869
1055.546469,919.314598,-74.020594,8808.450710
1055.546785,1149.143247,-0.000000,8586.388927
1055.547101,1302.362347,-0.000000,8512.368333
1055.547416,766.095498,-148.041188,9104.533087
1055.547732,459.657299,-222.061783,9474.636058
1055.548048,76.609550,-370.102971,9844.739029
1055.548364,76.609550,-1258.350101,10214.842000
1055.548680,0.000000,-1628.453072,9992.780217
1055.548995,383.047749,-148.041188,9548.656652
1055.549311,153.219100,-0.000000,9104.533087
1055.549627,459.657299,-0.000000,9178.553681
1055.549943,383.047749,-222.061783,9474.636058
1055.550259,-306.438199,-222.061783,9474.636058
1055.550575,0.000000,-296.082377,9844.739029
1055.550890,-153.219100,-592.164754,10066.800811
1055.551206,306.438199,-296.082377,9992.780217
1055.551522,612.876398,-444.123565,9474.636058
1055.551838,612.876398,-296.082377,9326.594869
1055.552154,919.314598,370.102971,8808.450710
1055.552470,1072.533697,370.102971,8734.430116
1055.552785,1302.362347,148.041188,8734.430116
1055.553101,1149.143247,-74.020594,8882.471304
1055.553417,383.047749,296.082377,9474.636058
1055.553733,0.000000,-0.000000,9548.656652
1055.554049,76.609550,-370.102971,10584.944971
1055.554364,0.000000,-222.061783,9548.656652
1055.554680,76.609550,-0.000000,9178.553681
1055.554996,612.876398,296.082377,9622.677246
1055.555312,612.876398,222.061783,9252.574275
1055.555628,459.657299,-0.000000,9474.636058
1055.555944,306.438199,-74.020594,9400.615463
1055.556259,0.000000,-0.000000,9400.615463
1055.556575,-536.266849,-370.102971,9770.718434
1055.556891,76.609550,-666.185348,10140.821405
1055.557207,689.485948,-0.000000,9548.656652
1055.557523,383.047749,222.061783,9474.636058
1055.557839,689.485948,740.205942,8882.471304
1055.558154,459.657299,518.144159,9030.512492
1055.558470,842.705048,-74.020594,9030.512492
1055.558786,383.047749,296.082377,9252.574275
1055.559102,0.000000,296.082377,9770.718434
1055.559418,0.000000,-444.123565,10066.800811
1055.559733,383.047749,-814.226536,9992.780217
1055.560049,76.609550,-0.000000,9474.636058
1055.560365,306.438199,370.102971,9474.636058
1055.560681,0.000000,222.061783,9474.636058
1055.560997,383.047749,-0.000000,9696.697840
1055.561313,383.047749,-0.000000,9104.533087
1055.561628,76.609550,148.041188,9548.656652
1055.561944,0.000000,-0.000000,9622.677246
1055.562260,153.219100,-592.164754,9992.780217
1055.562576,536.266849,-444.123565,10362.883188
1055.562892,689.485948,-296.082377,9326.594869
1055.563208,919.314598,666.185348,8956.491898
1055.563523,612.876398,370.102971,8660.409521
1055.563839,1072.533697,-0.000000,9326.594869
1055.564155,689.485948,592.164754,8808.450710
1055.564471,306.438199,888.247130,9178.553681
1055.564787,0.000000,-0.000000,9622.677246
1055.565102,0.000000,-740.205942,10362.883188
1055.565418,0.000000,-1036.288319,10214.842000
1055.565734,153.219100,-518.144159,9548.656652
1055.566050,229.828649,-518.144159,9696.697840
1055.566366,0.000000,-370.102971,9400.615463
1055.566682,689.485948,-222.061783,9548.656652
1055.566997,153.219100,-0.000000,9474.636058
1055.567313,76.609550,-0.000000,9474.636058
1055.567629,0.000000,-148.041188,9474.636058
1055.567945,229.828649,-814.226536,10436.903782
1055.568261,689.485948,-962.267725,9696.697840
1055.568577,995.924147,-666.185348,9252.574275
1055.568892,612.876398,-370.102971,9030.512492
1055.569208,689.485948,-296.082377,9326.594869
1055.569524,1149.143247,-296.082377,9030.512492
1055.569840,842.705048,-0.000000,8882.471304
1055.570156,229.828649,-370.102971,9104.533087
1055.570471,0.000000,-518.144159,9474.636058
1055.570787,76.609550,-1258.350101,10140.821405
1055.571103,536.266849,-1406.391290,10214.842000
1055.571419,306.438199,-1258.350101,9474.636058
1055.571735,229.828649,-740.205942,9400.615463
1055.572051,612.876398,-740.205942,9030.512492
1055.572366,459.657299,-592.164754,9474.636058
1055.572682,689.485948,-740.205942,9400.615463
1055.572998,536.266849,148.041188,9326.594869
1055.573314,0.000000,-222.061783,9474.636058
1055.573630,536.266849,-740.205942,9992.780217
1055.573946,995.924147,-666.185348,9548.656652
1055.574261,1072.533697,-444.123565,9178.553681
1055.574577,1302.362347,-74.020594,8956.491898
1055.574893,1225.752797,370.102971,8956.491898
1055.575209,1991.848295,296.082377,9030.512492
1055.575525,689.485948,-222.061783,9030.512492
1055.575840,612.876398,-0.000000,9474.636058
1055.576156,0.000000,-444.123565,9474.636058
1055.576472,383.047749,-1110.308913,10362.883188
1055.576788,76.609550,-814.226536,9992.780217
1055.577104,229.828649,-222.061783,9622.677246
1055.577420,842.705048,-666.185348,9326.594869
1055.577735,919.314598,518.144159,8956.491898
1055.578051,689.485948,222.061783,8586.388927
1055.578367,766.095498,-74.020594,9326.594869
1055.578683,229.828649,-518.144159,9696.697840
1055.578999,76.609550,-592.164754,9696.697840
1055.579315,459.657299,-592.164754,10214.842000
1055.579630,842.705048,-518.144159,9770.718434
1055.579946,306.438199,-74.020594,9104.533087
1055.580262,306.438199,-0.000000,9178.553681
1055.580578,766.095498,222.061783,8808.450710
1055.580894,919.314598,-0.000000,8882.471304
1055.581209,459.657299,-0.000000,8808.450710
1055.581525,0.000000,-444.123565,9548.656652
1055.581841,-536.266849,-370.102971,9992.780217
1055.582157,-536.266849,-1036.288319,9992.780217
1055.582473,-383.047749,-444.123565,10214.842000
1055.582789,0.000000,-0.000000,9474.636058
1055.583104,0.000000,370.102971,9030.512492
1055.583420,0.000000,518.144159,8956.491898
1055.583736,306.438199,666.185348,9548.656652
1055.584052,459.657299,296.082377,9178.553681
1055.584368,-76.609550,444.123565,9474.636058
1055.584684,-306.438199,-0.000000,10066.800811
1055.584999,0.000000,-888.247130,10584.944971
1055.585315,76.609550,-370.102971,10066.800811
1055.585631,153.219100,518.144159,9622.677246
1055.585947,536.266849,888.247130,8956.491898
1055.586263,459.657299,1480.411884,9104.533087
1055.586578,689.485948,814.226536,9104.533087
1055.586894,689.485948,814.226536,9252.574275
1055.587210,76.609550,888.247130,9474.636058
1055.587526,0.000000,-0.000000,9696.697840
1055.587842,383.047749,-296.082377,10584.944971
1055.588158,0.000000,-814.226536,10214.842000
1055.588473,383.047749,-222.061783,9844.739029
1055.588789,383.047749,518.144159,9326.594869
1055.589105,612.876398,296.082377,9696.697840
1055.589421,1149.143247,-0.000000,9400.615463
1055.589737,919.314598,370.102971,9104.533087
1055.590052,459.657299,222.061783,9548.656652
1055.590368,229.828649,-148.041188,10214.842000
1055.590684,842.705048,-962.267725,10436.903782
1055.591000,1225.752797,-814.226536,9770.718434
1055.591316,1225.752797,-74.020594,9030.512492
1055.591632,995.924147,370.102971,8512.368333
1055.591947,1225.752797,-0.000000,8808.450710
1055.592263,1302.362347,-0.000000,8956.491898
1055.592579,842.705048,-296.082377,9474.636058
1055.592895,459.657299,-0.000000,9326.594869
1055.593211,76.609550,-740.205942,9696.697840
1055.593527,76.609550,-1332.370696,10288.862594
1055.593842,459.657299,-1480.411884,10066.800811
1055.594158,0.000000,-1184.329507,9104.533087
1055.594474,0.000000,-296.082377,9474.636058
1055.594790,306.438199,-370.102971,8956.491898
1055.595106,842.705048,-370.102971,9178.553681
1055.595421,153.219100,-0.000000,9400.615463
1055.595737,153.219100,-518.144159,9622.677246
1055.596053,0.000000,-666.185348,9622.677246
1055.596369,0.000000,-1258.350101,9622.677246
1055.596685,0.000000,-740.205942,9548.656652
1055.597001,383.047749,-222.061783,9104.533087
1055.597316,612.876398,666.185348,8290.306550
1055.597632,919.314598,370.102971,8882.471304
1055.597948,689.485948,296.082377,8808.450710
1055.598264,459.657299,296.082377,8808.450710
1055.598580,0.000000,-370.102971,9696.697840
1055.598896,-459.657299,-1110.308913,9992.780217
1055.599211,0.000000,-1332.370696,10288.862594
1055.599527,0.000000,-888.247130,9992.780217
1055.599843,76.609550,-518.144159,9252.574275
1055.600159,76.609550,-148.041188,9400.615463
1055.600475,919.314598,-592.164754,9104.533087
1055.600790,842.705048,-296.082377,9474.636058
1055.601106,919.314598,-0.000000,9178.553681
1055.601422,383.047749,-0.000000,9622.677246
1055.601738,459.657299,-814.226536,9992.780217
1055.602054,842.705048,-1036.288319,10362.883188
1055.602370,1072.533697,-740.205942,9548.656652
1055.602685,1225.752797,-0.000000,9178.553681
1055.603001,1455.581446,-0.000000,8586.388927
1055.603317,1685.410096,148.041188,9030.512492
1055.603633,1762.019645,-0.000000,9178.553681
1055.603949,995.924147,-444.123565,9178.553681
1055.604265,612.876398,-296.082377,9918.759623
1055.604580,0.000000,-1110.308913,10362.883188
1055.604896,459.657299,-962.267725,10510.924376
1055.605212,459.657299,-1036.288319,9844.739029
1055.605528,383.047749,-222.061783,9548.656652
1055.605844,76.609550,-296.082377,9474.636058
1055.606159,306.438199,-518.144159,9474.636058
1055.606475,459.657299,222.061783,9992.780217
1055.606791,306.438199,-148.041188,9844.739029
1055.607107,0.000000,-148.041188,9696.697840
1055.607423,459.657299,-296.082377,9844.739029
1055.607739,536.266849,-814.226536,10066.800811
1055.608054,842.705048,-74.020594,9548.656652
1055.608370,536.266849,666.185348,9104.533087
1055.608686,612.876398,740.205942,8734.430116
1055.609002,842.705048,1184.329507,8882.471304
1055.609318,1072.533697,1184.329507,8956.491898
1055.609634,612.876398,814.226536,9030.512492
1055.609949,-229.828649,296.082377,9696.697840
1055.610265,-306.438199,-296.082377,9992.780217
1055.610581,-612.876398,-518.144159,10288.862594
1055.610897,-612.876398,-370.102971,10140.821405
1055.611213,-383.047749,148.041188,9622.677246
1055.611528,-459.657299,666.185348,9104.533087
1055.611844,0.000000,222.061783,9400.615463
1055.612160,229.828649,-0.000000,9400.615463
1055.612476,383.047749,-0.000000,9474.636058
1055.612792,-306.438199,370.102971,9696.697840
1055.613108,153.219100,-74.020594,9622.677246
1055.613423,612.876398,-444.123565,9844.739029
1055.613739,1072.533697,-0.000000,8956.491898
1055.614055,612.876398,592.164754,9104.533087
1055.614371,1072.533697,740.205942,8512.368333
1055.614687,1072.533697,666.185348,8808.450710
1055.615003,1072.533697,370.102971,8882.471304
1055.615318,459.657299,148.041188,9104.533087
1055.615634,-229.828649,-74.020594,9622.677246
1055.615950,-76.609550,-296.082377,9770.718434
1055.616266,76.609550,-740.205942,10362.883188
1055.616582,-153.219100,-592.164754,9770.718434
1055.616897,-153.219100,-222.061783,9474.636058
1055.617213,689.485948,296.082377,9474.636058
1055.617529,536.266849,-148.041188,9474.636058
1055.617845,383.047749,-74.020594,9252.574275
1055.618161,229.828649,-0.000000,9400.615463
1055.618477,76.609550,-74.020594,9844.739029
1055.618792,153.219100,-296.082377,9918.759623
1055.619108,459.657299,-0.000000,9622.677246
1055.619424,766.095498,-0.000000,9252.574275
1055.619740,842.705048,518.144159,9400.615463
1055.620056,842.705048,592.164754,8660.409521
1055.620372,1149.143247,666.185348,8734.430116
1055.620687,842.705048,222.061783,9252.574275
1055.621003,229.828649,370.102971,9178.553681
1055.621319,-459.657299,-74.020594,9918.759623
1055.621635,-995.924147,-740.205942,10584.944971
1055.621951,-229.828649,-814.226536,10214.842000
1055.622266,0.000000,-740.205942,10140.821405
1055.622582,-383.047749,-518.144159,9770.718434
1055.622898,0.000000,-444.123565,9548.656652
1055.623214,383.047749,-222.061783,9474.636058
1055.623530,383.047749,-222.061783,9622.677246
1055.623846,459.657299,-0.000000,9622.677246
1055.624161,229.828649,296.082377,9696.697840
1055.624477,612.876398,-444.123565,10140.821405
1055.624793,919.314598,-1110.308913,10436.903782
1055.625109,1378.971896,-666.185348,9474.636058
1055.625425,1225.752797,-74.020594,8438.347739
1055.625741,1455.581446,296.082377,8956.491898
1055.626056,2451.505594,-74.020594,8808.450710
1055.626372,1608.800546,592.164754,8512.368333
1055.626688,842.705048,222.061783,8512.368333
1055.627004,0.000000,-444.123565,9622.677246
1055.627320,0.000000,-1110.308913,10214.842000
1055.627636,306.438199,-1924.535449,10510.924376
1055.627951,229.828649,-1776.494261,10288.862594
1055.628267,76.609550,-1184.329507,9622.677246
1055.628583,229.828649,-888.247130,9104.533087
1055.628898,536.266849,-1258.350101,9474.636058
1055.629214,842.705048,-814.226536,9326.594869
1055.629529,842.705048,-148.041188,9104.533087
1055.629845,536.266849,-222.061783,9548.656652
1055.630161,306.438199,-1110.308913,9326.594869
1055.630476,842.705048,-1036.288319,9770.718434
1055.630792,1225.752797,-962.267725,8734.430116
1055.631108,1225.752797,-370.102971,8586.388927
1055.631423,1072.533697,-0.000000,8364.327145
1055.631739,1072.533697,-74.020594,8586.388927
1055.632055,1072.533697,148.041188,9178.553681
1055.632370,383.047749,-74.020594,9104.533087
1055.632686,76.609550,-592.164754,9770.718434
1055.633002,0.000000,-1036.288319,10140.821405
1055.633317,0.000000,-1776.494261,10510.924376
1055.633633,0.000000,-1184.329507,9770.718434
1055.633949,0.000000,-370.102971,9696.697840
1055.634264,153.219100,-74.020594,9326.594869
1055.634580,766.095498,-0.000000,8882.471304
1055.634896,919.314598,296.082377,9030.512492
1055.635211,459.657299,-74.020594,9030.512492
1055.635527,459.657299,-518.144159,9918.759623
1055.635843,536.266849,-370.102971,9992.780217
1055.636158,995.924147,-296.082377,9770.718434
1055.636474,1225.752797,296.082377,8808.450710
1055.636790,995.924147,592.164754,8660.409521
1055.637105,1455.581446,888.247130,8438.347739
1055.637421,1225.752797,592.164754,8956.491898
1055.637737,842.705048,518.144159,8882.471304
1055.638052,0.000000,-0.000000,9030.512492
1055.638368,-153.219100,-740.205942,10140.821405
1055.638684,-153.219100,-1110.308913,11103.089130
1055.638999,-459.657299,-814.226536,10288.862594
1055.639315,-612.876398,-222.061783,9918.759623
1055.639631,0.000000,222.061783,9548.656652
1055.639946,-459.657299,444.123565,9030.512492
1055.640262,459.657299,296.082377,9622.677246
1055.640577,153.219100,518.144159,9696.697840
1055.640893,0.000000,370.102971,9548.656652
1055.641209,0.000000,370.102971,9622.677246
1055.641524,229.828649,-0.000000,9844.739029
1055.641840,612.876398,222.061783,9844.739029
1055.642156,306.438199,296.082377,9104.533087
1055.642471,689.485948,666.185348,9030.512492
1055.642787,919.314598,888.247130,9104.533087
1055.643103,1072.533697,518.144159,8956.491898
1055.643418,842.705048,666.185348,9178.553681
1055.643734,153.219100,1036.288319,9400.615463
1055.644050,0.000000,444.123565,9622.677246
1055.644365,-229.828649,-296.082377,10510.924376
1055.644681,0.000000,-296.082377,10362.883188
1055.644997,-229.828649,-74.020594,10214.842000
1055.645312,76.609550,-0.000000,9770.718434
1055.645628,229.828649,222.061783,9548.656652
1055.645944,306.438199,-0.000000,9326.594869
1055.646259,612.876398,-296.082377,9696.697840
1055.646575,76.609550,296.082377,9770.718434
1055.646891,0.000000,-0.000000,9622.677246
1055.647206,459.657299,-444.123565,10140.821405
1055.647522,459.657299,-444.123565,9918.759623
1055.647838,995.924147,370.102971,9252.574275
1055.648153,919.314598,592.164754,8808.450710
1055.648469,1225.752797,962.267725,8512.368333
1055.648785,1532.190996,222.061783,9104.533087
1055.649100,1149.143247,-0.000000,9030.512492
1055.649416,459.657299,-0.000000,9104.533087
1055.649732,0.000000,-592.164754,9770.718434
1055.650047,153.219100,-962.267725,9918.759623
1055.650363,229.828649,-962.267725,9918.759623
1055.650678,229.828649,-1036.288319,9992.780217
1055.650994,76.609550,-814.226536,8956.491898
1055.651310,536.266849,-222.061783,9178.553681
1055.651625,689.485948,-370.102971,8882.471304
1055.651941,612.876398,-444.123565,8882.471304
1055.652257,459.657299,-592.164754,9474.636058
1055.652572,383.047749,-1258.350101,9992.780217
1055.652888,383.047749,-1332.370696,10140.821405
1055.653204,766.095498,-1184.329507,9474.636058
1055.653519,995.924147,-740.205942,9030.512492
1055.653835,995.924147,-0.000000,8512.368333
1055.654151,1302.362347,-0.000000,8290.306550
1055.654466,1378.971896,222.061783,8216.285956
1055.654782,1225.752797,-0.000000,8660.409521
1055.655098,153.219100,-296.082377,9326.594869
1055.655413,-536.266849,-666.185348,10140.821405
1055.655729,-306.438199,-1628.453072,10140.821405
1055.656045,-383.047749,-1924.535449,10510.924376
1055.656360,-383.047749,-1480.411884,10140.821405
1055.656676,0.000000,-1480.411884,9622.677246
1055.656992,0.000000,-1480.411884,9474.636058
1055.657307,1225.752797,-666.185348,9474.636058
1055.657623,919.314598,-0.000000,8956.491898
1055.657939,459.657299,-74.020594,9474.636058
1055.658254,306.438199,-518.144159,9474.636058
1055.658570,766.095498,-1184.329507,9918.759623
1055.658886,766.095498,-814.226536,9622.677246
1055.659201,919.314598,-74.020594,8956.491898
1055.659517,1225.752797,-0.000000,8882.471304
1055.659833,1149.143247,-222.061783,8956.491898
1055.660148,995.924147,222.061783,8882.471304
1055.660464,1378.971896,-0.000000,9252.574275
1055.660780,689.485948,-0.000000,9400.615463
1055.661095,-153.219100,-296.082377,10066.800811
1055.661411,306.438199,-814.226536,10436.903782
1055.661726,0.000000,-962.267725,10140.821405
1055.662042,0.000000,-444.123565,9770.718434
1055.662358,76.609550,-222.061783,9622.677246
1055.662673,383.047749,-444.123565,9178.553681
1055.662989,536.266849,-74.020594,9474.636058
1055.663305,383.047749,-592.164754,9178.553681
1055.663620,0.000000,-0.000000,9918.759623
1055.663936,306.438199,-518.144159,10066.800811
1055.664252,229.828649,-518.144159,10362.883188
1055.664567,536.266849,-518.144159,10066.800811
1055.664883,995.924147,592.164754,8956.491898
1055.665199,689.485948,1258.350101,8438.347739
1055.665514,1225.752797,814.226536,8808.450710
1055.665830,1149.143247,888.247130,8586.388927
1055.666146,459.657299,444.123565,9030.512492
1055.666461,153.219100,518.144159,9400.615463
1055.666777,-536.266849,-518.144159,10140.821405
1055.667093,-536.266849,-666.185348,10510.924376
1055.667408,-612.876398,-444.123565,10584.944971
1055.667724,-229.828649,-222.061783,9992.780217
1055.668040,-536.266849,518.144159,9474.636058
1055.668355,0.000000,814.226536,9030.512492
1055.668671,459.657299,444.123565,9252.574275
1055.668987,459.657299,518.144159,9622.677246
1055.669302,0.000000,222.061783,9474.636058
1055.669618,0.000000,-0.000000,9844.739029
1055.669934,536.266849,-370.102971,10362.883188
1055.670249,919.314598,-148.041188,9548.656652
1055.670565,919.314598,666.185348,8808.450710
1055.670881,1225.752797,1258.350101,8142.265362
1055.671196,1302.362347,1184.329507,8512.368333
1055.671512,1149.143247,1332.370696,8660.409521
1055.671827,919.314598,740.205942,9104.533087
1055.672143,76.609550,296.082377,9696.697840
1055.672459,-229.828649,-444.123565,10214.842000
1055.672774,0.000000,-1184.329507,10658.965565
1055.673090,0.000000,-1184.329507,10288.862594
1055.673406,-306.438199,-962.267725,10288.862594
1055.673721,153.219100,-0.000000,9326.594869
1055.674037,306.438199,-0.000000,9474.636058
1055.674353,689.485948,444.123565,9400.615463
1055.674668,612.876398,666.185348,9178.553681
1055.674984,612.876398,592.164754,9622.677246
1055.675300,536.266849,-74.020594,9770.718434
1055.675615,842.705048,-814.226536,10140.821405
1055.675931,995.924147,-518.144159,9622.677246
1055.676247,1302.362347,-148.041188,9104.533087
1055.676562,1455.581446,-74.020594,9030.512492
1055.676878,1225.752797,148.041188,9400.615463
1055.677194,612.876398,370.102971,9030.512492
1055.677509,459.657299,592.164754,9030.512492
1055.677825,0.000000,-222.061783,9696.697840
1055.678141,0.000000,-888.247130,10214.842000
1055.678456,-229.828649,-962.267725,10584.944971
1055.678772,0.000000,-1332.370696,9918.759623
1055.679088,0.000000,-740.205942,9696.697840
1055.679403,306.438199,-814.226536,9622.677246
1055.679719,459.657299,-888.247130,9622.677246
1055.680035,383.047749,-592.164754,9400.615463
1055.680350,76.609550,-444.123565,9178.553681
1055.680666,76.609550,-518.144159,9770.718434
1055.680982,459.657299,-888.247130,9844.739029
1055.681297,842.705048,-1036.288319,9918.759623
1055.681613,919.314598,-444.123565,9178.553681
1055.681929,1072.533697,-222.061783,8660.409521
1055.682244,1072.533697,-74.020594,8438.347739
1055.682560,1149.143247,-444.123565,8882.471304
1055.682875,689.485948,-666.185348,8586.388927
1055.683191,919.314598,-74.020594,8660.409521
1055.683507,-459.657299,-592.164754,9548.656652
1055.683822,-229.828649,-1110.308913,10066.800811
1055.684138,0.000000,-1406.391290,10066.800811
1055.684454,76.609550,-2072.576638,9918.759623
1055.684769,76.609550,-888.247130,9474.636058
1055.685085,383.047749,-888.247130,9178.553681
1055.685401,842.705048,-740.205942,9326.594869
1055.685716,689.485948,-666.185348,9178.553681
1055.686032,1072.533697,-444.123565,9252.574275
1055.686348,-76.609550,-148.041188,9400.615463
1055.686663,306.438199,-740.205942,9992.780217
1055.686979,919.314598,-888.247130,9918.759623
1055.687295,1149.143247,-74.020594,9252.574275
1055.687610,1532.190996,222.061783,8808.450710
1055.687926,1378.971896,518.144159,8290.306550
1055.688242,1915.238745,444.123565,8660.409521
1055.688557,1455.581446,592.164754,8364.327145
1055.688873,766.095498,222.061783,9104.533087
1055.689189,153.219100,-296.082377,9474.636058
1055.689504,0.000000,-888.247130,9918.759623
1055.689820,0.000000,-1406.391290,10510.924376
1055.690136,0.000000,-740.205942,10140.821405
1055.690451,0.000000,-148.041188,9400.615463
1055.690767,153.219100,-0.000000,9474.636058
1055.691083,459.657299,74.020594,9474.636058
1055.691398,536.266849,296.082377,9474.636058
1055.691714,459.657299,592.164754,9326.594869
1055.692030,306.438199,-0.000000,9622.677246
1055.692345,919.314598,-666.185348,9918.759623
1055.692661,842.705048,-444.123565,10362.883188
1055.692976,1149.143247,222.061783,9030.512492
1055.693292,1149.143247,814.226536,8956.491898
1055.693608,1378.971896,1332.370696,8734.430116
1055.693923,1225.752797,1850.514855,9030.512492
1055.694239,842.705048,1258.350101,8956.491898
1055.694555,76.609550,1110.308913,9104.533087
1055.694870,-536.266849,592.164754,9918.759623
1055.695186,-766.095498,-370.102971,10732.986159
1055.695502,-383.047749,-740.205942,10658.965565
1055.695817,-766.095498,-444.123565,10214.842000
1055.696133,-459.657299,-0.000000,9770.718434
1055.696449,-306.438199,-0.000000,9474.636058
1055.696764,0.000000,370.102971,9992.780217
1055.697080,153.219100,444.123565,9918.759623
1055.697396,0.000000,592.164754,9696.697840
1055.697711,-306.438199,222.061783,9548.656652
1055.698027,0.000000,-0.000000,10066.800811
1055.698343,536.266849,-74.020594,9844.739029
1055.698658,919.314598,444.123565,9326.594869
1055.698974,842.705048,370.102971,9252.574275
1055.699290,1225.752797,592.164754,9104.533087
1055.699605,1378.971896,814.226536,9178.553681
1055.699921,1225.752797,1258.350101,8808.450710
1055.700237,306.438199,888.247130,9326.594869
1055.700552,76.609550,222.061783,9622.677246
1055.700868,-306.438199,-666.185348,10066.800811
1055.701184,0.000000,-1110.308913,10658.965565
1055.701499,-459.657299,-1332.370696,9770.718434
1055.701815,229.828649,-740.205942,9400.615463
1055.702131,153.219100,-444.123565,9474.636058
1055.702446,459.657299,-444.123565,9770.718434
1055.702762,459.657299,-592.164754,9474.636058
1055.703078,0.000000,-222.061783,9474.636058
1055.703393,229.828649,-888.247130,9992.780217
1055.703709,536.266849,-1480.411884,10214.842000
1055.704024,842.705048,-740.205942,9622.677246
1055.704340,1072.533697,-370.102971,8808.450710
1055.704656,1378.971896,-0.000000,8586.388927
1055.704971,2145.067394,444.123565,8438.347739
1055.705287,1838.629195,518.144159,8290.306550
1055.705603,1378.971896,370.102971,8216.285956
1055.705918,536.266849,296.082377,8660.409521
1055.706234,229.828649,-444.123565,9474.636058
1055.706550,0.000000,-1406.391290,10140.821405
1055.706865,-383.047749,-1776.494261,10214.842000
1055.707181,-536.266849,-1702.473667,10288.862594
1055.707497,-536.266849,-1258.350101,9548.656652
1055.707812,-383.047749,-1110.308913,9400.615463
1055.708128,0.000000,-1184.329507,9474.636058
1055.708444,383.047749,-666.185348,9178.553681
1055.708759,153.219100,-592.164754,9104.533087
1055.709075,229.828649,-1036.288319,9400.615463
1055.709391,459.657299,-1184.329507,9918.759623
1055.709706,842.705048,-1184.329507,9326.594869
1055.710022,1072.533697,-740.205942,8586.388927
1055.710338,1072.533697,-148.041188,8364.327145
1055.710653,1608.800546,-0.000000,8512.368333
1055.710969,1685.410096,-222.061783,8660.409521
1055.711285,1378.971896,-0.000000,8660.409521
1055.711600,459.657299,-148.041188,9252.574275
1055.711916,0.000000,-370.102971,9548.656652
1055.712232,76.609550,-1258.350101,10362.883188
1055.712547,-229.828649,-1406.391290,10214.842000
1055.712863,-306.438199,-1110.308913,9770.718434
1055.713179,-383.047749,-518.144159,9844.739029
1055.713494,-153.219100,-518.144159,10140.821405
1055.713810,383.047749,-0.000000,9326.594869
1055.714126,153.219100,-370.102971,9030.512492
1055.714441,229.828649,-74.020594,9696.697840
1055.714757,0.000000,-1110.308913,10288.862594
1055.715072,459.657299,-1036.288319,10066.800811
1055.715388,612.876398,-666.185348,9696.697840
1055.715704,1608.800546,-444.123565,9474.636058
1055.716019,1455.581446,740.205942,8438.347739
1055.716335,1532.190996,962.267725,8586.388927
1055.716651,1302.362347,518.144159,8734.430116
1055.716966,995.924147,296.082377,9030.512492
1055.717282,306.438199,-148.041188,9474.636058
1055.717598,229.828649,-74.020594,9622.677246
1055.717913,0.000000,-666.185348,10362.883188
1055.718229,76.609550,-740.205942,10510.924376
1055.718545,229.828649,-148.041188,10066.800811
1055.718860,0.000000,-74.020594,9770.718434
1055.719176,383.047749,370.102971,9548.656652
1055.719492,689.485948,222.061783,9326.594869
1055.719807,459.657299,740.205942,9474.636058
1055.720123,0.000000,370.102971,9696.697840
1055.720439,153.219100,370.102971,9844.739029
1055.720754,153.219100,-74.020594,10288.862594
1055.721070,612.876398,-296.082377,9696.697840
1055.721386,842.705048,296.082377,9104.533087
1055.721701,919.314598,444.123565,8734.430116
1055.722017,919.314598,814.226536,8586.388927
1055.722333,842.705048,740.205942,8882.471304
1055.722648,842.705048,592.164754,8808.450710
1055.722964,76.609550,740.205942,8956.491898
1055.723280,-383.047749,-0.000000,9696.697840
1055.723595,-536.266849,-592.164754,10066.800811
1055.723911,-76.609550,-888.247130,9622.677246
1055.724227,-306.438199,-592.164754,9844.739029
1055.724542,-153.219100,-0.000000,9622.677246
1055.724858,153.219100,296.082377,9474.636058
1055.725173,459.657299,222.061783,9326.594869
1055.725489,306.438199,148.041188,9474.636058
1055.725805,76.609550,-74.020594,9696.697840
1055.726120,0.000000,-0.000000,9770.718434
1055.726436,306.438199,-592.164754,10362.883188
1055.726752,612.876398,-74.020594,9548.656652
1055.727067,459.657299,-0.000000,8882.471304
1055.727383,766.095498,962.267725,8808.450710
1055.727699,1149.143247,1036.288319,8660.409521
1055.728014,1072.533697,666.185348,8956.491898
1055.728330,536.266849,518.144159,8882.471304
1055.728646,0.000000,296.082377,9252.574275
1055.728962,0.000000,-74.020594,10066.800811
1055.729277,-76.609550,-1406.391290,10807.006753
1055.729593,0.000000,-1258.350101,10436.903782
1055.729909,76.609550,-962.267725,10436.903782
1055.730224,-306.438199,-444.123565,9622.677246
1055.730540,536.266849,-0.000000,9326.594869
1055.730856,689.485948,-222.061783,9548.656652
1055.731172,536.266849,148.041188,9252.574275
1055.731487,0.000000,-296.082377,9770.718434
1055.731803,76.609550,-888.247130,9770.718434
1055.732119,689.485948,-962.267725,10140.821405
1055.732434,842.705048,-518.144159,9474.636058
1055.732750,995.924147,-74.020594,8882.471304
1055.733066,1072.533697,-0.000000,8808.450710
1055.733382,1149.143247,-0.000000,9178.553681
1055.733697,1072.533697,-0.000000,9104.533087
1055.734013,383.047749,-0.000000,8808.450710
1055.734329,0.000000,-0.000000,9178.553681
1055.734645,0.000000,-518.144159,9918.759623
1055.734960,153.219100,-1036.288319,10658.965565
1055.735276,0.000000,-962.267725,10140.821405
1055.735592,0.000000,-370.102971,9622.677246
1055.735907,76.609550,-222.061783,9104.533087
1055.736223,229.828649,-740.205942,9400.615463
1055.736539,612.876398,-296.082377,9696.697840
1055.736855,459.657299,-296.082377,9474.636058
1055.737170,76.609550,-222.061783,9770.718434
1055.737486,0.000000,-814.226536,9992.780217
1055.737802,612.876398,-888.247130,10066.800811
1055.738117,919.314598,-1110.308913,9548.656652
1055.738433,919.314598,-222.061783,8808.450710
1055.738749,1149.143247,222.061783,8808.450710
1055.739065,1762.019645,370.102971,8808.450710
1055.739380,1838.629195,370.102971,8290.306550
1055.739696,1225.752797,222.061783,8586.388927
1055.740012,612.876398,-0.000000,9104.533087
1055.740327,306.438199,-814.226536,10066.800811
1055.740643,383.047749,-1184.329507,10732.986159
1055.740959,536.266849,-1036.288319,9474.636058
1055.741275,76.609550,-222.061783,8882.471304
1055.741590,229.828649,-222.061783,9474.636058
1055.741906,612.876398,-592.164754,9696.697840
1055.742222,766.095498,-444.123565,9548.656652
1055.742537,306.438199,-296.082377,9326.594869
1055.742853,0.000000,-444.123565,9770.718434
1055.743169,-229.828649,-1554.432478,10288.862594
1055.743485,612.876398,-1406.391290,10214.842000
1055.743800,536.266849,-1110.308913,9400.615463
1055.744116,1072.533697,-370.102971,9104.533087
1055.744432,1532.190996,148.041188,8882.471304
1055.744748,1455.581446,296.082377,8660.409521
1055.745063,1608.800546,740.205942,8364.327145
1055.745379,1455.581446,666.185348,8290.306550
1055.745695,842.705048,148.041188,8882.471304
1055.746010,459.657299,-814.226536,9696.697840
1055.746326,229.828649,-1480.411884,10288.862594
1055.746642,76.609550,-1332.370696,9770.718434
1055.746958,0.000000,-518.144159,9326.594869
1055.747273,-153.219100,-148.041188,9548.656652
1055.747589,153.219100,-148.041188,9548.656652
1055.747905,229.828649,-74.020594,9474.636058
1055.748220,-306.438199,-148.041188,9474.636058
1055.748536,-689.485948,-370.102971,10214.842000
1055.748852,-383.047749,-1184.329507,10510.924376
1055.749168,76.609550,-888.247130,10214.842000
1055.749483,459.657299,-370.102971,9474.636058
1055.749799,689.485948,666.185348,8956.491898
1055.750115,995.924147,592.164754,8660.409521
1055.750430,1225.752797,1110.308913,8290.306550
1055.750746,919.314598,1332.370696,8364.327145
1055.751062,689.485948,666.185348,9104.533087
1055.751378,-153.219100,296.082377,9474.636058
1055.751693,-459.657299,-222.061783,10510.924376
1055.752009,-229.828649,-1110.308913,10584.944971
1055.752325,0.000000,-444.123565,9770.718434
1055.752641,-536.266849,148.041188,9474.636058
1055.752956,-383.047749,222.061783,9400.615463
1055.753272,0.000000,-222.061783,9992.780217
1055.753588,229.828649,148.041188,9474.636058
1055.753903,0.000000,-0.000000,9474.636058
1055.754219,-383.047749,-0.000000,9770.718434
1055.754535,-459.657299,-592.164754,10436.903782
1055.754851,0.000000,-888.247130,9918.759623
1055.755166,459.657299,-74.020594,9548.656652
1055.755482,689.485948,740.205942,8956.491898
1055.755798,995.924147,962.267725,8512.368333
1055.756113,1225.752797,1110.308913,8808.450710
1055.756429,919.314598,518.144159,8956.491898
1055.756745,612.876398,592.164754,9030.512492
1055.757061,0.000000,370.102971,9474.636058
1055.757376,-229.828649,-296.082377,10362.883188
1055.757692,0.000000,-370.102971,10362.883188
1055.758008,229.828649,-444.123565,9844.739029
1055.758323,-76.609550,370.102971,9548.656652
1055.758639,306.438199,-0.000000,9252.574275
1055.758955,612.876398,-0.000000,9104.533087
1055.759271,612.876398,-222.061783,9326.594869
1055.759586,0.000000,-74.020594,9622.677246
1055.759902,0.000000,-444.123565,9918.759623
1055.760218,0.000000,-592.164754,9992.780217
1055.760534,153.219100,-740.205942,10066.800811
1055.760849,459.657299,-518.144159,9474.636058
1055.761165,689.485948,222.061783,9178.553681
1055.761481,1149.143247,592.164754,8734.430116
1055.761796,1455.581446,296.082377,8956.491898
1055.762112,1378.971896,518.144159,8808.450710
1055.762428,689.485948,592.164754,8438.347739
1055.762744,306.438199,-0.000000,9178.553681
1055.763059,306.438199,-888.247130,9696.697840
1055.763375,383.047749,-1184.329507,10288.862594
1055.763691,-153.219100,-814.226536,9770.718434
1055.764006,0.000000,-370.102971,9474.636058
1055.764322,383.047749,-0.000000,9252.574275
1055.764638,153.219100,-148.041188,9252.574275
1055.764954,383.047749,-444.123565,9030.512492
1055.765269,76.609550,-666.185348,9622.677246
1055.765585,-536.266849,-962.267725,10140.821405
1055.765901,-76.609550,-1628.453072,10658.965565
1055.766216,229.828649,-1258.350101,10140.821405
1055.766532,306.438199,-740.205942,9474.636058
1055.766848,689.485948,-296.082377,9326.594869
1055.767164,1149.143247,-0.000000,8734.430116
1055.767479,1302.362347,444.123565,8956.491898
1055.767795,1225.752797,518.144159,8438.347739
1055.768111,689.485948,-148.041188,8882.471304
1055.768426,229.828649,-444.123565,9918.759623
1055.768742,0.000000,-1036.288319,9992.780217
1055.769058,306.438199,-1332.370696,9770.718434
1055.769374,536.266849,-1110.308913,9622.677246
1055.769689,306.438199,-740.205942,10362.883188
1055.770005,536.266849,-518.144159,9326.594869
1055.770321,459.657299,-148.041188,9178.553681
1055.770637,459.657299,-222.061783,9104.533087
1055.770952,0.000000,-370.102971,9696.697840
1055.771268,0.000000,-1110.308913,9992.780217
1055.771584,0.000000,-1258.350101,10288.862594
1055.771899,536.266849,-1036.288319,9770.718434
1055.772215,459.657299,-666.185348,9252.574275
1055.772531,689.485948,-370.102971,9474.636058
1055.772847,1072.533697,-222.061783,8586.388927
1055.773162,1302.362347,-0.000000,9104.533087
1055.773478,1072.533697,-0.000000,8586.388927
1055.773794,689.485948,-0.000000,8956.491898
1055.774109,76.609550,-74.020594,9548.656652
1055.774425,0.000000,-518.144159,10436.903782
1055.774741,0.000000,-740.205942,9918.759623
1055.775057,229.828649,-370.102971,9548.656652
1055.775372,0.000000,-296.082377,9104.533087
1055.775688,459.657299,-296.082377,9252.574275
1055.776004,153.219100,-592.164754,9696.697840
1055.776319,689.485948,-148.041188,9474.636058
1055.776635,0.000000,222.061783,9622.677246
1055.776951,76.609550,-0.000000,9770.718434
1055.777267,0.000000,-666.185348,10214.842000
1055.777582,919.314598,-814.226536,9918.759623
1055.777898,612.876398,-0.000000,9474.636058
1055.778214,612.876398,666.185348,8734.430116
1055.778530,995.924147,814.226536,8808.450710
1055.778845,1225.752797,222.061783,8808.450710
1055.779161,1072.533697,370.102971,8956.491898
1055.779477,229.828649,888.247130,9104.533087
1055.779792,-229.828649,592.164754,9622.677246
1055.780108,-229.828649,-296.082377,9918.759623
1055.780424,306.438199,-518.144159,10066.800811
1055.780740,153.219100,-592.164754,9696.697840
1055.781055,0.000000,296.082377,9030.512492
1055.781371,306.438199,296.082377,9548.656652
1055.781687,536.266849,222.061783,9252.574275
1055.782002,153.219100,666.185348,9030.512492
1055.782318,383.047749,296.082377,9474.636058
1055.782634,-306.438199,-0.000000,10140.821405
1055.782950,0.000000,-222.061783,10436.903782
1055.783265,76.609550,-444.123565,10066.800811
1055.783581,229.828649,296.082377,9474.636058
1055.783897,689.485948,370.102971,9252.574275
1055.784212,842.705048,444.123565,9178.553681
1055.784528,1149.143247,888.247130,9178.553681
1055.784844,689.485948,888.247130,8882.471304
1055.785160,306.438199,888.247130,9326.594869
1055.785475,383.047749,-74.020594,9770.718434
1055.785791,229.828649,-74.020594,10140.821405
1055.786107,459.657299,-370.102971,10140.821405
1055.786422,306.438199,-148.041188,9844.739029
1055.786738,383.047749,-74.020594,9252.574275
1055.787054,229.828649,-222.061783,9252.574275
1055.787370,229.828649,-74.020594,9548.656652
1055.787685,536.266849,222.061783,9548.656652
1055.788001,0.000000,-296.082377,9918.759623
1055.788317,-306.438199,-0.000000,10362.883188
1055.788633,-536.266849,-814.226536,10436.903782
1055.788948,536.266849,-814.226536,10214.842000
1055.789264,459.657299,-148.041188,9548.656652
1055.789580,612.876398,-0.000000,9104.533087
1055.789895,1225.752797,74.020594,8808.450710
1055.790211,1532.190996,-0.000000,8734.430116
1055.790527,306.438199,-0.000000,8956.491898
1055.790843,536.266849,-222.061783,9474.636058
1055.791158,-153.219100,-814.226536,9992.780217
1055.791474,76.609550,-962.267725,10362.883188
1055.791790,153.219100,-962.267725,9696.697840
1055.792105,153.219100,-370.102971,9252.574275
1055.792421,536.266849,-0.000000,9030.512492
1055.792737,919.314598,296.082377,8808.450710
1055.793053,766.095498,-0.000000,8882.471304
1055.793368,229.828649,-0.000000,9178.553681
1055.793684,0.000000,-370.102971,9622.677246
1055.794000,0.000000,-814.226536,10214.842000
1055.794315,-76.609550,-1258.350101,9770.718434
1055.794631,229.828649,-1258.350101,9622.677246
1055.794947,229.828649,-666.185348,9400.615463
1055.795263,153.219100,-814.226536,9474.636058
1055.795578,383.047749,-370.102971,9326.594869
1055.795894,689.485948,148.041188,8586.388927
1055.796210,766.095498,-222.061783,8660.409521
1055.796526,306.438199,-0.000000,9326.594869
1055.796841,-459.657299,-962.267725,9548.656652
1055.797157,153.219100,-1628.453072,9696.697840
1055.797473,229.828649,-1258.350101,9918.759623
1055.797788,459.657299,-888.247130,9104.533087
1055.798104,536.266849,-740.205942,9178.553681
1055.798420,536.266849,-444.123565,9104.533087
1055.798736,1225.752797,-592.164754,9104.533087
1055.799051,995.924147,-296.082377,9104.533087
1055.799367,383.047749,-666.185348,9474.636058
1055.799683,76.609550,-888.247130,9992.780217
1055.799998,842.705048,-1258.350101,10288.862594
1055.800314,919.314598,-1184.329507,9622.677246
1055.800630,995.924147,-370.102971,9400.615463
1055.800946,1608.800546,-518.144159,9104.533087
1055.801261,1915.238745,-222.061783,8956.491898
1055.801577,1608.800546,-0.000000,8882.471304
1055.801893,1149.143247,-0.000000,9030.512492
1055.802208,689.485948,148.041188,9770.718434
1055.802524,612.876398,-666.185348,9770.718434
1055.802840,459.657299,-888.247130,10288.862594
1055.803156,536.266849,-518.144159,9770.718434
1055.803471,383.047749,-148.041188,9548.656652
1055.803787,612.876398,-0.000000,9252.574275
1055.804103,612.876398,-74.020594,9474.636058
1055.804418,536.266849,-148.041188,9252.574275
1055.804734,306.438199,-148.041188,9696.697840
1055.805050,0.000000,148.041188,9696.697840
1055.805366,229.828649,-518.144159,9844.739029
1055.805681,229.828649,-666.185348,10140.821405
1055.805997,383.047749,-444.123565,10066.800811
1055.806313,383.047749,148.041188,9326.594869
1055.806629,383.047749,740.205942,9030.512492
1055.806944,689.485948,370.102971,8882.471304
1055.807260,689.485948,814.226536,8882.471304
1055.807576,536.266849,666.185348,9178.553681
1055.807891,306.438199,666.185348,9104.533087
1055.808207,-153.219100,370.102971,9992.780217
1055.808523,229.828649,-148.041188,9992.780217
1055.808839,306.438199,-0.000000,9548.656652
1055.809154,306.438199,-0.000000,9474.636058
1055.809470,229.828649,592.164754,9104.533087
1055.809786,459.657299,444.123565,9178.553681
1055.810101,459.657299,74.020594,9474.636058
1055.810417,0.000000,518.144159,9474.636058
1055.810733,-229.828649,-0.000000,9474.636058
1055.811049,-459.657299,-148.041188,10140.821405
1055.811364,0.000000,-74.020594,10214.842000
1055.811680,383.047749,-0.000000,9918.759623
1055.811996,459.657299,666.185348,9178.553681
1055.812311,229.828649,592.164754,8808.450710
1055.812627,766.095498,370.102971,9178.553681
1055.812943,766.095498,740.205942,9104.533087
1055.813259,153.219100,444.123565,9104.533087
1055.813574,76.609550,-0.000000,9918.759623
1055.813890,0.000000,-370.102971,10140.821405
1055.814206,0.000000,-370.102971,9992.780217
1055.814522,229.828649,-222.061783,9844.739029
1055.814837,459.657299,-370.102971,9474.636058
1055.815153,612.876398,-74.020594,9104.533087
1055.815469,689.485948,-74.020594,9400.615463
1055.815784,1072.533697,222.061783,9178.553681
1055.816100,1225.752797,-222.061783,9178.553681
1055.816416,153.219100,296.082377,9474.636058
1055.816732,153.219100,-370.102971,9918.759623
1055.817047,229.828649,-740.205942,10362.883188
1055.817363,536.266849,-592.164754,9844.739029
1055.817679,612.876398,-592.164754,9104.533087
1055.817994,536.266849,-222.061783,8956.491898
1055.818310,689.485948,-296.082377,9548.656652
1055.818626,842.705048,-222.061783,9104.533087
1055.818942,536.266849,-0.000000,9474.636058
1055.819257,229.828649,-444.123565,9474.636058
1055.819573,-229.828649,-666.185348,9992.780217
1055.819889,76.609550,-1184.329507,10140.821405
1055.820204,153.219100,-1110.308913,9696.697840
1055.820520,306.438199,-518.144159,9400.615463
1055.820836,1149.143247,-592.164754,9252.574275
1055.821152,919.314598,-962.267725,9030.512492
1055.821467,766.095498,-740.205942,9400.615463
1055.821783,306.438199,-518.144159,9104.533087
1055.822099,689.485948,-666.185348,9252.574275
1055.822415,229.828649,-1184.329507,10066.800811
1055.822730,306.438199,-1332.370696,9918.759623
1055.823046,766.095498,-740.205942,9474.636058
1055.823362,766.095498,-444.123565,8512.368333
1055.823677,919.314598,-296.082377,8734.430116
1055.823993,1225.752797,-0.000000,8956.491898
1055.824309,1608.800546,-0.000000,8882.471304
1055.824625,766.095498,-0.000000,8882.471304
1055.824940,536.266849,-666.185348,9474.636058
1055.825256,0.000000,-1406.391290,10066.800811
1055.825572,459.657299,-1406.391290,9696.697840
1055.825887,229.828649,-1184.329507,9622.677246
1055.826203,153.219100,-370.102971,9696.697840
1055.826519,536.266849,-444.123565,9178.553681
1055.826835,766.095498,-370.102971,8956.491898
1055.827150,766.095498,-444.123565,9252.574275
1055.827466,536.266849,-592.164754,9252.574275
1055.827782,306.438199,-666.185348,9400.615463
1055.828097,842.705048,-666.185348,10288.862594
1055.828413,1072.533697,-888.247130,9770.718434
1055.828729,766.095498,-592.164754,9474.636058
1055.829045,689.485948,222.061783,8882.471304
1055.829360,1072.533697,370.102971,8586.388927
1055.829676,1225.752797,148.041188,9030.512492
1055.829992,919.314598,148.041188,9252.574275
1055.830308,842.705048,444.123565,9326.594869
1055.830623,306.438199,-148.041188,9918.759623
1055.830939,76.609550,-222.061783,10140.821405
1055.831255,612.876398,-296.082377,10214.842000
1055.831571,0.000000,-370.102971,9622.677246
1055.831886,0.000000,-0.000000,10140.821405
1055.832202,153.219100,-0.000000,9770.718434
1055.832518,76.609550,148.041188,9548.656652
1055.832834,229.828649,-0.000000,9548.656652
1055.833149,0.000000,-0.000000,9844.739029
1055.833465,0.000000,-0.000000,9992.780217
1055.833781,0.000000,-222.061783,9992.780217
1055.834097,536.266849,-296.082377,10140.821405
1055.834412,459.657299,-0.000000,9696.697840
1055.834728,842.705048,518.144159,9030.512492
1055.835044,995.924147,962.267725,9030.512492
1055.835360,842.705048,888.247130,8882.471304
1055.835676,459.657299,814.226536,8882.471304
1055.835991,153.219100,814.226536,9474.636058
1055.836307,-536.266849,666.185348,9622.677246
1055.836623,-306.438199,148.041188,9918.759623
1055.836939,0.000000,-370.102971,10214.842000
1055.837254,0.000000,-148.041188,9474.636058
1055.837570,76.609550,148.041188,9622.677246
1055.837886,0.000000,222.061783,9474.636058
1055.838202,153.219100,-0.000000,9770.718434
1055.838517,76.609550,370.102971,9622.677246
1055.838833,0.000000,666.185348,9474.636058
1055.839149,-153.219100,518.144159,9548.656652
1055.839465,0.000000,-74.020594,10140.821405
1055.839780,612.876398,-222.061783,9992.780217
1055.840096,689.485948,222.061783,9252.574275
1055.840412,842.705048,666.185348,8882.471304
1055.840728,1225.752797,962.267725,8956.491898
1055.841043,1225.752797,666.185348,8956.491898
1055.841359,1302.362347,888.247130,8734.430116
1055.841675,842.705048,962.267725,9178.553681
1055.841991,1072.533697,370.102971,9844.739029
1055.842306,76.609550,-666.185348,10362.883188
1055.842622,153.219100,-592.164754,9918.759623
1055.842938,153.219100,-296.082377,9400.615463
1055.843254,153.219100,-0.000000,9474.636058
1055.843569,153.219100,-444.123565,9548.656652
1055.843885,612.876398,-222.061783,9252.574275
1055.844201,153.219100,-370.102971,9326.594869
1055.844517,0.000000,-444.123565,9696.697840
1055.844832,-383.047749,-1036.288319,10140.821405
1055.845148,536.266849,-740.205942,10436.903782
1055.845464,306.438199,-888.247130,10140.821405
1055.845780,689.485948,-296.082377,9474.636058
1055.846096,919.314598,444.123565,8734.430116
1055.846411,1378.971896,296.082377,8438.347739
1055.846727,1608.800546,-0.000000,8660.409521
1055.847043,1378.971896,-0.000000,8660.409521
1055.847359,459.657299,-0.000000,9326.594869
1055.847674,459.657299,-740.205942,9918.759623
1055.847990,306.438199,-888.247130,10066.800811
1055.848306,536.266849,-740.205942,10140.821405
1055.848622,76.609550,-444.123565,9252.574275
1055.848937,0.000000,-370.102971,9252.574275
1055.849253,229.828649,-222.061783,9696.697840
1055.849569,0.000000,-1036.288319,9622.677246
1055.849885,383.047749,-888.247130,9696.697840
1055.850200,-306.438199,-1110.308913,9548.656652
1055.850516,0.000000,-1110.308913,9992.780217
1055.850832,153.219100,-962.267725,9918.759623
1055.851148,536.266849,-592.164754,9474.636058
1055.851463,536.266849,-518.144159,9178.553681
1055.851779,612.876398,-148.041188,8808.450710
1055.852095,919.314598,-148.041188,8808.450710
1055.852411,995.924147,-148.041188,8956.491898
1055.852726,1225.752797,-0.000000,9474.636058
1055.853042,459.657299,-666.185348,9400.615463
1055.853358,536.266849,-592.164754,9770.718434
1055.853674,383.047749,-1110.308913,10214.842000
1055.853989,612.876398,-1184.329507,9918.759623
1055.854305,689.485948,-518.144159,9400.615463
1055.854621,612.876398,-444.123565,9104.533087
1055.854937,612.876398,-370.102971,9178.553681
1055.855252,842.705048,-370.102971,9252.574275
1055.855568,766.095498,-518.144159,9696.697840
1055.855884,229.828649,-592.164754,9992.780217
1055.856200,306.438199,-740.205942,9918.759623
1055.856516,383.047749,-1406.391290,9844.739029
1055.856831,459.657299,-1406.391290,9918.759623
1055.857147,766.095498,-592.164754,9696.697840
1055.857463,1378.971896,-0.000000,9104.533087
1055.857779,1302.362347,-0.000000,8808.450710
1055.858094,1302.362347,-0.000000,8660.409521
1055.858410,919.314598,-0.000000,8956.491898
1055.858726,612.876398,-0.000000,9326.594869
1055.859042,383.047749,-444.123565,9844.739029
1055.859357,0.000000,-814.226536,10140.821405
1055.859673,459.657299,-518.144159,9770.718434
1055.859989,383.047749,-296.082377,9400.615463
1055.860305,383.047749,-74.020594,9326.594869
1055.860620,536.266849,-74.020594,9622.677246
1055.860936,919.314598,-74.020594,9326.594869
1055.861252,383.047749,-0.000000,9474.636058
1055.861568,229.828649,-0.000000,9696.697840
1055.861883,0.000000,-444.123565,9844.739029
1055.862199,153.219100,-370.102971,9918.759623
1055.862515,229.828649,-0.000000,9474.636058
1055.862831,612.876398,518.144159,8586.388927
1055.863146,536.266849,740.205942,8364.327145
1055.863462,1455.581446,518.144159,8734.430116
1055.863778,842.705048,740.205942,8808.450710
1055.864094,536.266849,222.061783,8956.491898
1055.864409,76.609550,296.082377,9252.574275
1055.864725,0.000000,-370.102971,9770.718434
1055.865041,-306.438199,-296.082377,10584.944971
1055.865357,-229.828649,-148.041188,9992.780217
1055.865672,-153.219100,370.102971,9400.615463
1055.865988,0.000000,592.164754,9326.594869
1055.866304,153.219100,740.205942,8882.471304
1055.866620,229.828649,296.082377,9178.553681
1055.866936,0.000000,148.041188,9548.656652
1055.867251,-153.219100,-0.000000,9918.759623
1055.867567,-383.047749,-296.082377,10362.883188
1055.867883,0.000000,-148.041188,10362.883188
1055.868199,0.000000,-148.041188,9622.677246
1055.868514,536.266849,592.164754,9474.636058
1055.868830,459.657299,1036.288319,9104.533087
1055.869146,612.876398,888.247130,9030.512492
1055.869462,766.095498,666.185348,9252.574275
1055.869777,766.095498,296.082377,9104.533087
1055.870093,153.219100,666.185348,9918.759623
1055.870409,0.000000,-222.061783,10140.821405
1055.870725,306.438199,-888.247130,10584.944971
1055.871040,383.047749,-962.267725,10658.965565
1055.871356,-153.219100,-74.020594,9696.697840
1055.871672,76.609550,-222.061783,9474.636058
1055.871988,459.657299,-444.123565,9474.636058
1055.872303,612.876398,-0.000000,9474.636058
1055.872619,306.438199,-0.000000,9326.594869
1055.872935,153.219100,-148.041188,9770.718434
1055.873251,153.219100,-592.164754,10288.862594
1055.873566,536.266849,-666.185348,10140.821405
1055.873882,919.314598,-518.144159,9548.656652
1055.874198,919.314598,518.144159,8734.430116
1055.874514,995.924147,518.144159,8882.471304
1055.874829,1455.581446,148.041188,9030.512492
1055.875145,1149.143247,-0.000000,8808.450710
1055.875461,689.485948,-296.082377,9178.553681
1055.875777,0.000000,-666.185348,9400.615463
1055.876092,229.828649,-814.226536,10362.883188
1055.876408,-153.219100,-1480.411884,10362.883188
1055.876724,0.000000,-888.247130,9696.697840
1055.877040,153.219100,-148.041188,9474.636058
1055.877356,76.609550,-222.061783,8808.450710
1055.877671,459.657299,-296.082377,9178.553681
1055.877987,919.314598,-370.102971,9104.533087
1055.878303,766.095498,-666.185348,9030.512492
1055.878619,229.828649,-1036.288319,9474.636058
1055.878934,229.828649,-1406.391290,9770.718434
1055.879250,612.876398,-1776.494261,9844.739029
1055.879566,689.485948,-888.247130,9252.574275
1055.879882,766.095498,-296.082377,8808.450710
1055.880197,1532.190996,-222.061783,8586.388927
1055.880513,1532.190996,-74.020594,8512.368333
1055.880829,1225.752797,-74.020594,8142.265362
1055.881145,1149.143247,-444.123565,8882.471304
1055.881460,459.657299,-888.247130,9474.636058
1055.881776,76.609550,-1406.391290,10066.800811
1055.882092,229.828649,-1184.329507,9696.697840
1055.882408,306.438199,-1036.288319,9622.677246
1055.882723,229.828649,-666.185348,9030.512492
1055.883039,383.047749,-518.144159,9178.553681
1055.883355,1072.533697,-370.102971,9400.615463
1055.883671,459.657299,-296.082377,9326.594869
1055.883986,153.219100,-370.102971,9474.636058
1055.884302,0.000000,-814.226536,9696.697840
1055.884618,0.000000,-1036.288319,9918.759623
1055.884934,842.705048,-888.247130,10214.842000
1055.885249,612.876398,-518.144159,9474.636058
1055.885565,536.266849,-0.000000,9178.553681
1055.885881,995.924147,444.123565,8660.409521
1055.886197,1225.752797,888.247130,8808.450710
1055.886512,1149.143247,296.082377,8808.450710
1055.886828,842.705048,222.061783,8882.471304
1055.887144,0.000000,148.041188,9622.677246
1055.887460,0.000000,-444.123565,10288.862594
1055.887776,459.657299,-666.185348,10436.903782
1055.888091,76.609550,-592.164754,10288.862594
1055.888407,0.000000,370.102971,9548.656652
1055.888723,0.000000,148.041188,9326.594869
1055.889039,153.219100,-222.061783,9770.718434
1055.889354,153.219100,296.082377,9622.677246
1055.889670,0.000000,222.061783,9696.697840
1055.889986,-229.828649,-0.000000,10140.821405
1055.890302,0.000000,-0.000000,10140.821405
1055.890617,76.609550,-222.061783,10066.800811
1055.890933,689.485948,-0.000000,9622.677246
1055.891249,1072.533697,148.041188,9622.677246
1055.891565,1302.362347,740.205942,8808.450710
1055.891880,689.485948,814.226536,8808.450710
1055.892196,689.485948,1110.308913,8882.471304
1055.892512,459.657299,592.164754,9252.574275
1055.892828,306.438199,-0.000000,9474.636058
1055.893143,-459.657299,-296.082377,10288.862594
1055.893459,-612.876398,-296.082377,10436.903782
1055.893775,229.828649,-370.102971,9622.677246
1055.894091,153.219100,296.082377,9178.553681
1055.894406,536.266849,296.082377,8734.430116
1055.894722,536.266849,222.061783,9030.512492
1055.895038,766.095498,592.164754,9104.533087
1055.895354,459.657299,296.082377,9326.594869
1055.895669,76.609550,-74.020594,9844.739029
1055.895985,0.000000,-592.164754,10288.862594
1055.896301,383.047749,-666.185348,9696.697840
1055.896617,536.266849,-0.000000,9178.553681
1055.896932,612.876398,592.164754,9252.574275
1055.897248,919.314598,518.144159,8586.388927
1055.897564,1838.629195,-0.000000,8660.409521
1055.897880,1455.581446,666.185348,8808.450710
1055.898196,229.828649,518.144159,8956.491898
1055.898511,306.438199,-0.000000,9696.697840
1055.898827,76.609550,-444.123565,9918.759623
1055.899143,459.657299,-1036.288319,10288.862594
1055.899459,536.266849,-518.144159,9770.718434
1055.899774,459.657299,-370.102971,8956.491898
1055.900090,229.828649,-148.041188,9326.594869
1055.900406,995.924147,-592.164754,9548.656652
1055.900722,842.705048,-370.102971,9474.636058
1055.901037,76.609550,-370.102971,9622.677246
1055.901353,76.609550,-444.123565,10066.800811
1055.901669,383.047749,-1036.288319,10214.842000
1055.901985,383.047749,-1036.288319,9696.697840
1055.902300,919.314598,-148.041188,9178.553681
1055.902616,842.705048,-0.000000,9030.512492
1055.902932,1302.362347,296.082377,8068.244768
1055.903248,1532.190996,370.102971,8734.430116
1055.903563,1532.190996,-222.061783,8808.450710
1055.903879,842.705048,-0.000000,9104.533087
1055.904195,0.000000,-444.123565,9992.780217
1055.904511,-229.828649,-888.247130,10214.842000
1055.904826,0.000000,-1110.308913,10362.883188
1055.905142,-459.657299,-740.205942,9400.615463
1055.905458,-459.657299,-296.082377,9474.636058
1055.905774,0.000000,-444.123565,9400.615463
1055.906089,153.219100,-888.247130,9548.656652
1055.906405,383.047749,-518.144159,9770.718434
1055.906721,-229.828649,-592.164754,9844.739029
1055.907037,0.000000,-1554.432478,9770.718434
1055.907352,0.000000,-888.247130,9918.759623
1055.907668,689.485948,-740.205942,9696.697840
1055.907984,995.924147,-148.041188,9030.512492
1055.908300,1149.143247,222.061783,8586.388927
1055.908616,1455.581446,814.226536,8512.368333
1055.908931,1685.410096,370.102971,8438.347739
1055.909247,1378.971896,296.082377,8586.388927
1055.909563,612.876398,-0.000000,9178.553681
1055.909879,306.438199,-518.144159,9992.780217
1055.910194,0.000000,-1184.329507,9844.739029
1055.910510,-306.438199,-1036.288319,10066.800811
1055.910826,76.609550,-962.267725,9696.697840
1055.911142,0.000000,-592.164754,9770.718434
1055.911457,-153.219100,-666.185348,9474.636058
1055.911773,76.609550,-370.102971,9400.615463
1055.912089,0.000000,-666.185348,9548.656652
1055.912405,153.219100,-814.226536,9918.759623
1055.912720,0.000000,-666.185348,9992.780217
1055.913036,536.266849,-888.247130,10066.800811
1055.913352,1225.752797,-444.123565,9844.739029
1055.913668,1532.190996,370.102971,8956.491898
1055.913983,1532.190996,1258.350101,8290.306550
1055.914299,1915.238745,1332.370696,8438.347739
1055.914615,1991.848295,888.247130,8660.409521
1055.914931,1685.410096,592.164754,8512.368333
1055.915246,919.314598,518.144159,9104.533087
1055.915562,459.657299,-74.020594,9918.759623
1055.915878,306.438199,-1036.288319,10510.924376
1055.916194,306.438199,-1332.370696,10214.842000
1055.916509,0.000000,-1258.350101,10214.842000
1055.916825,-76.609550,-370.102971,9918.759623
1055.917141,76.609550,-148.041188,9696.697840
1055.917457,383.047749,222.061783,9474.636058
1055.917772,76.609550,-0.000000,9400.615463
1055.918088,0.000000,-0.000000,9400.615463
1055.918404,-153.219100,-296.082377,9918.759623
1055.918720,306.438199,-518.144159,10436.903782
1055.919036,766.095498,-518.144159,9326.594869
1055.919351,995.924147,-0.000000,9030.512492
1055.919667,536.266849,222.061783,8586.388927
1055.919983,1225.752797,740.205942,8882.471304
1055.920299,1302.362347,888.247130,8364.327145
1055.920614,842.705048,1258.350101,8364.327145
1055.920930,306.438199,666.185348,9548.656652
1055.921246,-306.438199,-0.000000,9918.759623
1055.921562,-306.438199,-518.144159,10362.883188
1055.921877,-229.828649,-666.185348,9918.759623
1055.922193,-383.047749,-148.041188,9252.574275
1055.922509,0.000000,-222.061783,9474.636058
1055.922825,-229.828649,-0.000000,9326.594869
1055.923140,-153.219100,296.082377,9326.594869
1055.923456,-612.876398,-0.000000,9474.636058
1055.923772,-766.095498,370.102971,9770.718434
1055.924088,-383.047749,-296.082377,9992.780217
1055.924403,0.000000,-444.123565,10066.800811
1055.924719,76.609550,-222.061783,9622.677246
1055.925035,383.047749,-74.020594,9252.574275
1055.925351,919.314598,814.226536,8660.409521
1055.925666,612.876398,666.185348,8512.368333
1055.925982,1225.752797,444.123565,8956.491898
1055.926298,766.095498,518.144159,8808.450710
1055.926614,229.828649,296.082377,9548.656652
1055.926929,306.438199,-296.082377,10214.842000
1055.927245,76.609550,-148.041188,10584.944971
1055.927561,459.657299,-370.102971,9696.697840
1055.927877,612.876398,-74.020594,9474.636058
1055.928192,306.438199,-148.041188,9548.656652
1055.928508,1149.143247,-222.061783,9770.718434
1055.928824,766.095498,-444.123565,9474.636058
1055.929139,153.219100,-148.041188,9844.739029
1055.929455,229.828649,-370.102971,10066.800811
1055.929771,229.828649,-666.185348,10288.862594
1055.930087,306.438199,-888.247130,10214.842000
1055.930402,689.485948,-370.102971,10510.924376
1055.930718,919.314598,-0.000000,9474.636058
1055.931034,1455.581446,592.164754,8808.450710
1055.931349,1608.800546,370.102971,8956.491898
1055.931665,1532.190996,-222.061783,8438.347739
1055.931981,1532.190996,-0.000000,9696.697840
1055.932297,1149.143247,-370.102971,9770.718434
1055.932612,229.828649,-666.185348,9992.780217
1055.932928,306.438199,-962.267725,10510.924376
1055.933244,689.485948,-962.267725,9992.780217
1055.933559,459.657299,-148.041188,9548.656652
1055.933875,229.828649,-74.020594,9252.574275
1055.934191,612.876398,-74.020594,9474.636058
1055.934507,536.266849,-222.061783,9326.594869
1055.934822,536.266849,-592.164754,9104.533087
1055.935138,0.000000,-814.226536,9474.636058
1055.935454,-383.047749,-1554.432478,10584.944971
1055.935769,306.438199,-1258.350101,10140.821405
1055.936085,612.876398,-888.247130,9326.594869
1055.936401,995.924147,-592.164754,9178.553681
1055.936717,1225.752797,-74.020594,8068.244768
1055.937032,1532.190996,148.041188,8142.265362
1055.937348,1685.410096,-0.000000,8290.306550
1055.937664,842.705048,148.041188,8216.285956
1055.937979,766.095498,-740.205942,9178.553681
1055.938295,459.657299,-962.267725,9770.718434
1055.938611,153.219100,-1110.308913,9844.739029
1055.938927,76.609550,-1110.308913,9622.677246
1055.939242,0.000000,-962.267725,9400.615463
1055.939558,76.609550,-666.185348,9030.512492
1055.939874,459.657299,-666.185348,9548.656652
1055.940189,306.438199,-444.123565,9474.636058
1055.940505,0.000000,-370.102971,9326.594869
1055.940821,0.000000,-296.082377,9622.677246
1055.941137,306.438199,-1036.288319,9918.759623
1055.941452,76.609550,-888.247130,9992.780217
1055.941768,1072.533697,-296.082377,9474.636058
1055.942084,1072.533697,-444.123565,8808.450710
1055.942399,1149.143247,-0.000000,8586.388927
1055.942715,1072.533697,370.102971,8808.450710
1055.943031,1149.143247,-0.000000,8734.430116
1055.943347,612.876398,296.082377,9326.594869
1055.943662,76.609550,-0.000000,9770.718434
1055.943978,-536.266849,-296.082377,9992.780217
1055.944294,0.000000,-962.267725,10362.883188
1055.944609,0.000000,-1184.329507,10140.821405
1055.944925,76.609550,-592.164754,9474.636058
1055.945241,0.000000,-370.102971,9474.636058
1055.945557,842.705048,-740.205942,9918.759623
1055.945872,536.266849,-370.102971,9622.677246
1055.946188,229.828649,-222.061783,9696.697840
1055.946504,0.000000,-0.000000,10140.821405
1055.946819,76.609550,-296.082377,10140.821405
1055.947135,459.657299,-148.041188,10066.800811
1055.947451,919.314598,444.123565,9178.553681
1055.947767,995.924147,666.185348,9104.533087
1055.948082,1455.581446,1036.288319,8660.409521
1055.948398,1378.971896,888.247130,8660.409521
1055.948714,1072.533697,592.164754,8882.471304
1055.949029,306.438199,444.123565,9474.636058
1055.949345,0.000000,370.102971,9770.718434
1055.949661,-306.438199,-74.020594,10362.883188
1055.949977,-229.828649,-666.185348,10881.027347
1055.950292,-383.047749,-222.061783,10140.821405
1055.950608,0.000000,-148.041188,9696.697840
1055.950924,0.000000,222.061783,9178.553681
1055.951239,383.047749,148.041188,9474.636058
1055.951555,612.876398,296.082377,9400.615463
1055.951871,306.438199,444.123565,9252.574275
1055.952187,76.609550,370.102971,9548.656652
1055.952502,0.000000,-0.000000,10066.800811
1055.952818,689.485948,-148.041188,10066.800811
1055.953134,766.095498,148.041188,9104.533087
1055.953449,1072.533697,888.247130,8956.491898
1055.953765,1225.752797,888.247130,8734.430116
1055.954081,1225.752797,814.226536,8734.430116
1055.954397,1302.362347,370.102971,8882.471304
1055.954712,383.047749,666.185348,9178.553681
1055.955028,0.000000,-0.000000,9474.636058
1055.955344,-153.219100,-962.267725,10140.821405
1055.955659,-229.828649,-1036.288319,10510.924376
1055.955975,0.000000,-962.267725,10140.821405
1055.956291,0.000000,-296.082377,9548.656652
1055.956607,76.609550,-74.020594,9104.533087
1055.956922,459.657299,-0.000000,9252.574275
1055.957238,995.924147,-148.041188,9030.512492
1055.957554,0.000000,-0.000000,9326.594869
1055.957869,76.609550,-74.020594,9844.739029
1055.958185,383.047749,-814.226536,9918.759623
1055.958501,536.266849,-592.164754,9696.697840
1055.958817,689.485948,-222.061783,9104.533087
1055.959132,919.314598,-74.020594,8956.491898
1055.959448,995.924147,370.102971,8512.368333
1055.959764,1149.143247,370.102971,8808.450710
1055.960079,919.314598,444.123565,8216.285956
1055.960395,536.266849,-0.000000,8956.491898
1055.960711,-383.047749,-666.185348,10140.821405
1055.961027,-306.438199,-1776.494261,10288.862594
1055.961342,-383.047749,-1776.494261,10436.903782
1055.961658,-229.828649,-1110.308913,9992.780217
1055.961974,-383.047749,-444.123565,9252.574275
1055.962289,306.438199,-518.144159,9252.574275
1055.962605,459.657299,-370.102971,9400.615463
1055.962921,229.828649,-222.061783,9178.553681
1055.963237,306.438199,-0.000000,9326.594869
1055.963552,0.000000,-148.041188,9474.636058
1055.963868,0.000000,-1036.288319,9474.636058
1055.964184,995.924147,-888.247130,9844.739029
1055.964499,995.924147,-740.205942,9104.533087
1055.964815,536.266849,-592.164754,8956.491898
1055.965131,919.314598,-518.144159,8808.450710
1055.965447,1378.971896,-444.123565,9030.512492
1055.965762,995.924147,-148.041188,8734.430116
1055.966078,459.657299,-0.000000,9400.615463
1055.966394,76.609550,-74.020594,9548.656652
1055.966710,383.047749,-518.144159,9992.780217
1055.967025,76.609550,-1184.329507,10510.924376
1055.967341,383.047749,-1110.308913,9770.718434
1055.967657,459.657299,-962.267725,9326.594869
1055.967972,536.266849,-518.144159,9474.636058
1055.968288,842.705048,-518.144159,9474.636058
1055.968604,919.314598,-296.082377,9622.677246
1055.968920,383.047749,-296.082377,9622.677246
1055.969235,383.047749,-518.144159,9992.780217
1055.969551,383.047749,-1036.288319,9992.780217
1055.969867,1149.143247,-888.247130,9622.677246
1055.970182,1685.410096,-370.102971,9696.697840
1055.970498,1532.190996,518.144159,9178.553681
1055.970814,1915.238745,592.164754,8512.368333
1055.971130,1762.019645,666.185348,8290.306550
1055.971445,1838.629195,592.164754,8586.388927
1055.971761,1072.533697,-0.000000,9030.512492
1055.972077,153.219100,-592.164754,10140.821405
1055.972392,0.000000,-1258.350101,10955.047942
1055.972708,153.219100,-1332.370696,10362.883188
1055.973024,76.609550,-592.164754,9844.739029
1055.973340,0.000000,-0.000000,9252.574275
1055.973655,153.219100,-0.000000,9178.553681
1055.973971,919.314598,-0.000000,9400.615463
1055.974287,536.266849,148.041188,8882.471304
1055.974602,306.438199,-0.000000,9252.574275
1055.974918,0.000000,-370.102971,9622.677246
1055.975234,153.219100,-814.226536,10140.821405
1055.975550,459.657299,-592.164754,9918.759623
1055.975865,612.876398,-370.102971,9474.636058
1055.976181,766.095498,592.164754,8512.368333
1055.976497,1072.533697,1036.288319,8216.285956
1055.976812,1149.143247,888.247130,8734.430116
1055.977128,766.095498,962.267725,8734.430116
1055.977444,0.000000,592.164754,8808.450710
1055.977760,-612.876398,-518.144159,9844.739029
1055.978075,-536.266849,-814.226536,10288.862594
1055.978391,-766.095498,-740.205942,10140.821405
1055.978707,-766.095498,-518.144159,9474.636058
1055.979022,-766.095498,-370.102971,9696.697840
1055.979338,-76.609550,-148.041188,9252.574275
1055.979654,0.000000,148.041188,9548.656652
1055.979970,0.000000,296.082377,8882.471304
1055.980285,0.000000,296.082377,9252.574275
1055.980601,-306.438199,-148.041188,9770.718434
1055.980917,76.609550,-518.144159,10214.842000
1055.981232,536.266849,-222.061783,9696.697840
1055.981548,842.705048,370.102971,9178.553681
1055.981864,842.705048,888.247130,8512.368333
1055.982180,1225.752797,888.247130,8512.368333
1055.982495,1455.581446,666.185348,8734.430116
1055.982811,689.485948,740.205942,8956.491898
1055.983127,76.609550,296.082377,9474.636058
1055.983442,-153.219100,222.061783,9918.759623
1055.983758,0.000000,-444.123565,10658.965565
1055.984074,0.000000,-518.144159,10436.903782
1055.984390,0.000000,-0.000000,9844.739029
1055.984705,0.000000,-148.041188,9696.697840
1055.985021,383.047749,-222.061783,9474.636058
1055.985337,612.876398,-74.020594,9548.656652
1055.985652,153.219100,-74.020594,9770.718434
1055.985968,0.000000,-518.144159,10288.862594
1055.986284,229.828649,-592.164754,10658.965565
1055.986600,459.657299,-814.226536,10510.924376
1055.986915,842.705048,-444.123565,10288.862594
1055.987231,1302.362347,-0.000000,9548.656652
1055.987547,1608.800546,370.102971,8660.409521
1055.987862,1991.848295,666.185348,8808.450710
1055.988178,1915.238745,814.226536,8734.430116
1055.988494,1838.629195,444.123565,8438.347739
1055.988810,842.705048,148.041188,9326.594869
1055.989125,229.828649,-370.102971,10214.842000
1055.989441,383.047749,-1036.288319,10214.842000
1055.989757,153.219100,-1110.308913,9918.759623
1055.990072,0.000000,-1036.288319,9770.718434
1055.990388,0.000000,-962.267725,9696.697840
1055.990704,306.438199,-592.164754,9770.718434
1055.991020,0.000000,-666.185348,9474.636058
1055.991335,0.000000,-666.185348,9400.615463
1055.991651,-536.266849,-814.226536,9622.677246
1055.991967,0.000000,-1036.288319,9992.780217
1055.992282,153.219100,-1332.370696,10066.800811
1055.992598,383.047749,-1110.308913,9400.615463
1055.992914,689.485948,-518.144159,8882.471304
1055.993230,1149.143247,-592.164754,8512.368333
1055.993545,1072.533697,-222.061783,8290.306550
1055.993861,1378.971896,-0.000000,8290.306550
1055.994177,919.314598,-0.000000,8512.368333
1055.994492,306.438199,-222.061783,8956.491898
1055.994808,0.000000,-1184.329507,9918.759623
1055.995124,0.000000,-962.267725,9844.739029
1055.995440,-153.219100,-1406.391290,9696.697840
1055.995755,0.000000,-962.267725,9548.656652
1055.996071,0.000000,-814.226536,9326.594869
1055.996387,459.657299,-814.226536,9400.615463
1055.996702,536.266849,-740.205942,9104.533087
1055.997018,689.485948,-444.123565,9252.574275
1055.997334,153.219100,-888.247130,9622.677246
1055.997650,0.000000,-962.267725,10066.800811
1055.997965,766.095498,-888.247130,10584.944971
1055.998281,995.924147,-814.226536,9548.656652
1055.998597,1455.581446,-0.000000,8808.450710
1055.998912,1302.362347,222.061783,8808.450710
1055.999228,1915.238745,296.082377,8586.388927
1055.999544,1608.800546,444.123565,8586.388927
1055.999860,1072.533697,518.144159,8808.450710
1056.000175,229.828649,370.102971,9400.615463
1056.000491,229.828649,-296.082377,9844.739029
1056.000807,153.219100,-814.226536,10510.924376
1056.001122,0.000000,-1184.329507,9992.780217
1056.001438,0.000000,-518.144159,10066.800811
1056.001754,76.609550,-296.082377,9844.739029
1056.002070,536.266849,-148.041188,9474.636058
1056.002385,536.266849,-814.226536,9696.697840
1056.002701,383.047749,-148.041188,9474.636058
1056.003017,0.000000,-148.041188,9844.739029
1056.003332,0.000000,-222.061783,10362.883188
1056.003648,536.266849,-370.102971,10362.883188
1056.003964,536.266849,-296.082377,9844.739029
1056.004280,689.485948,222.061783,9030.512492
1056.004595,919.314598,888.247130,8808.450710
1056.004911,1608.800546,814.226536,8660.409521
1056.005227,1455.581446,740.205942,8882.471304
1056.005542,919.314598,962.267725,9104.533087
1056.005858,0.000000,888.247130,9326.594869
1056.006174,-153.219100,222.061783,10140.821405
1056.006490,-306.438199,-222.061783,10362.883188
1056.006805,0.000000,-296.082377,9918.759623
1056.007121,-153.219100,-74.020594,9622.677246
1056.007437,-306.438199,-296.082377,9548.656652
1056.007752,0.000000,-74.020594,9770.718434
1056.008068,153.219100,296.082377,9400.615463
1056.008384,0.000000,592.164754,9400.615463
1056.008700,-306.438199,148.041188,9622.677246
1056.009015,0.000000,-0.000000,10362.883188
1056.009331,459.657299,-444.123565,10140.821405
1056.009647,612.876398,-74.020594,9696.697840
1056.009962,1072.533697,370.102971,9104.533087
1056.010278,1072.533697,740.205942,8216.285956
1056.010594,1455.581446,1036.288319,8586.388927
1056.010910,1302.362347,962.267725,8512.368333
1056.011225,306.438199,1036.288319,9178.553681
1056.011541,-229.828649,592.164754,9400.615463
1056.011857,-383.047749,-444.123565,9844.739029
1056.012172,-229.828649,-888.247130,10214.842000
1056.012488,-306.438199,-1184.329507,10288.862594
1056.012804,-229.828649,-1110.308913,9844.739029
1056.013120,-229.828649,-518.144159,9474.636058
1056.013435,229.828649,-222.061783,9548.656652
1056.013751,536.266849,222.061783,9326.594869
1056.014067,229.828649,-0.000000,9030.512492
1056.014382,-153.219100,-74.020594,9696.697840
1056.014698,-383.047749,-518.144159,10288.862594
1056.015014,383.047749,-814.226536,10288.862594
1056.015330,689.485948,-222.061783,9474.636058
1056.015645,612.876398,-370.102971,8734.430116
1056.015961,1225.752797,-0.000000,8438.347739
1056.016277,1455.581446,222.061783,8586.388927
1056.016592,1225.752797,592.164754,8586.388927
1056.016908,306.438199,518.144159,8808.450710
1056.017224,76.609550,-0.000000,9548.656652
1056.017540,0.000000,-666.185348,9992.780217
1056.017855,76.609550,-1184.329507,10140.821405
1056.018171,-612.876398,-1184.329507,9992.780217
1056.018487,-229.828649,-666.185348,9178.553681
1056.018802,-459.657299,-370.102971,9400.615463
1056.019118,306.438199,-814.226536,9622.677246
1056.019434,229.828649,-518.144159,9474.636058
1056.019750,0.000000,-370.102971,9252.574275
1056.020065,-153.219100,-740.205942,9844.739029
1056.020381,0.000000,-962.267725,10362.883188
1056.020697,536.266849,-1554.432478,9622.677246
1056.021012,1149.143247,-296.082377,9474.636058
1056.021328,1225.752797,-0.000000,8734.430116
1056.021644,1608.800546,518.144159,8586.388927
1056.021960,2068.457845,518.144159,8290.306550
1056.022275,1532.190996,666.185348,8438.347739
1056.022591,995.924147,740.205942,8660.409521
1056.022907,689.485948,-222.061783,9178.553681
1056.023222,383.047749,-962.267725,10066.800811
1056.023538,76.609550,-1332.370696,10510.924376
1056.023854,306.438199,-1332.370696,9992.780217
1056.024170,-229.828649,-888.247130,9622.677246
1056.024485,229.828649,-814.226536,9844.739029
1056.024801,459.657299,-592.164754,9696.697840
1056.025117,306.438199,-222.061783,9622.677246
1056.025432,76.609550,-592.164754,9622.677246
1056.025748,229.828649,-814.226536,10066.800811
1056.026064,383.047749,-888.247130,10140.821405
1056.026380,919.314598,-1258.350101,10140.821405
1056.026695,1455.581446,-296.082377,9474.636058
1056.027011,1685.410096,222.061783,9178.553681
1056.027327,1685.410096,370.102971,8512.368333
1056.027642,2145.067394,518.144159,8512.368333
1056.027958,2145.067394,370.102971,8438.347739
1056.028274,1608.800546,518.144159,9104.533087
1056.028590,919.314598,148.041188,9400.615463
1056.028906,766.095498,-592.164754,10288.862594
1056.029221,612.876398,-740.205942,10288.862594
1056.029537,306.438199,-518.144159,9548.656652
1056.029853,229.828649,296.082377,9548.656652
1056.030169,0.000000,-0.000000,9104.533087
1056.030485,229.828649,-444.123565,9696.697840
1056.030800,0.000000,-148.041188,9844.739029
1056.031116,-459.657299,-222.061783,9696.697840
1056.031432,-689.485948,-1036.288319,10214.842000
1056.031748,-612.876398,-1036.288319,10436.903782
1056.032064,0.000000,-888.247130,10140.821405
1056.032379,306.438199,-0.000000,9474.636058
1056.032695,153.219100,740.205942,8808.450710
1056.033011,1149.143247,518.144159,8290.306550
1056.033327,1225.752797,814.226536,8068.244768
1056.033643,1149.143247,888.247130,8660.409521
1056.033958,459.657299,666.185348,8808.450710
1056.034274,0.000000,148.041188,9252.574275
1056.034590,0.000000,-148.041188,10066.800811
1056.034906,0.000000,-444.123565,9696.697840
1056.035222,76.609550,-296.082377,9474.636058
1056.035537,0.000000,296.082377,9104.533087
1056.035853,0.000000,592.164754,9326.594869
1056.036169,0.000000,-74.020594,9326.594869
1056.036485,0.000000,296.082377,9400.615463
1056.036801,-689.485948,-0.000000,9474.636058
1056.037116,-842.705048,-222.061783,10140.821405
1056.037432,-842.705048,-814.226536,10658.965565
1056.037748,-306.438199,-814.226536,10288.862594
1056.038064,0.000000,-74.020594,9548.656652
1056.038380,536.266849,740.205942,8956.491898
1056.038695,612.876398,814.226536,8512.368333
1056.039011,536.266849,814.226536,8882.471304
1056.039327,919.314598,444.123565,9104.533087
1056.039643,612.876398,740.205942,9474.636058
1056.039959,459.657299,814.226536,9474.636058
1056.040275,383.047749,-0.000000,9992.780217
1056.040590,229.828649,-740.205942,10066.800811
1056.040906,383.047749,-222.061783,9696.697840
1056.041222,306.438199,-0.000000,9326.594869
1056.041538,689.485948,222.061783,9548.656652
1056.041854,919.314598,-0.000000,9474.636058
1056.042169,459.657299,-0.000000,9400.615463
1056.042485,0.000000,-74.020594,9844.739029
1056.042801,-153.219100,-740.205942,10214.842000
1056.043117,0.000000,-1036.288319,10732.986159
1056.043433,306.438199,-814.226536,10362.883188
1056.043748,459.657299,-370.102971,9474.636058
1056.044064,536.266849,-0.000000,9474.636058
1056.044380,1149.143247,-0.000000,9178.553681
1056.044696,1455.581446,-0.000000,8808.450710
1056.045012,1149.143247,-0.000000,8956.491898
1056.045327,766.095498,296.082377,8734.430116
1056.045643,536.266849,-370.102971,9918.759623
1056.045959,383.047749,-962.267725,10066.800811
1056.046275,919.314598,-740.205942,9696.697840
1056.046591,612.876398,-148.041188,9548.656652
1056.046906,919.314598,-0.000000,8956.491898
1056.047222,1225.752797,-0.000000,9252.574275
1056.047538,1225.752797,-74.020594,9178.553681
1056.047854,766.095498,-296.082377,9252.574275
1056.048170,306.438199,-518.144159,9548.656652
1056.048485,76.609550,-1036.288319,9918.759623
1056.048801,459.657299,-1036.288319,10214.842000
1056.049117,459.657299,-1184.329507,9992.780217
1056.049433,383.047749,-740.205942,9104.533087
1056.049749,383.047749,-444.123565,8882.471304
1056.050064,995.924147,-0.000000,8660.409521
1056.050380,1149.143247,148.041188,8438.347739
1056.050696,919.314598,-148.041188,8512.368333
1056.051012,459.657299,-740.205942,8956.491898
1056.051328,0.000000,-1332.370696,9548.656652
1056.051643,76.609550,-1480.411884,10436.903782
1056.051959,383.047749,-1480.411884,9770.718434
1056.052275,153.219100,-888.247130,9252.574275
1056.052591,459.657299,-444.123565,9030.512492
1056.052907,459.657299,-222.061783,9030.512492
1056.053223,689.485948,-296.082377,8734.430116
1056.053538,306.438199,-148.041188,8956.491898
1056.053854,306.438199,-296.082377,9104.533087
1056.054170,-153.219100,-1184.329507,9770.718434
1056.054486,383.047749,-1702.473667,10436.903782
1056.054802,536.266849,-1258.350101,9548.656652
1056.055117,459.657299,-518.144159,9400.615463
1056.055433,1072.533697,148.041188,9030.512492
1056.055749,919.314598,222.061783,9030.512492
1056.056065,1072.533697,148.041188,8660.409521
1056.056381,842.705048,444.123565,8956.491898
1056.056696,306.438199,370.102971,9252.574275
1056.057012,0.000000,-592.164754,9844.739029
1056.057328,459.657299,-962.267725,9918.759623
1056.057644,229.828649,-592.164754,9992.780217
1056.057960,306.438199,-518.144159,9696.697840
1056.058275,383.047749,-0.000000,9400.615463
1056.058591,459.657299,-0.000000,9548.656652
1056.058907,383.047749,-0.000000,9474.636058
1056.059223,0.000000,-0.000000,9548.656652
1056.059539,-306.438199,-0.000000,10140.821405
1056.059854,-229.828649,-148.041188,10732.986159
1056.060170,76.609550,-370.102971,10807.006753
1056.060486,459.657299,-666.185348,10066.800811
1056.060802,306.438199,222.061783,9252.574275
1056.061118,919.314598,740.205942,9104.533087
1056.061433,1072.533697,666.185348,9104.533087
1056.061749,1378.971896,740.205942,9326.594869
1056.062065,842.705048,962.267725,9104.533087
1056.062381,306.438199,740.205942,9252.574275
1056.062697,153.219100,222.061783,9992.780217
1056.063012,459.657299,-0.000000,10140.821405
1056.063328,459.657299,-0.000000,9548.656652
1056.063644,229.828649,444.123565,9252.574275
1056.063960,229.828649,444.123565,9326.594869
1056.064276,536.266849,518.144159,9400.615463
1056.064591,459.657299,296.082377,9178.553681
1056.064907,-153.219100,222.061783,9474.636058
1056.065223,-536.266849,-0.000000,10066.800811
1056.065539,-229.828649,-444.123565,10658.965565
1056.065855,-459.657299,-370.102971,10362.883188
1056.066171,153.219100,-444.123565,9992.780217
1056.066486,536.266849,222.061783,9400.615463
1056.066802,919.314598,814.226536,8512.368333
1056.067118,1072.533697,1110.308913,8512.368333
1056.067434,1532.190996,1036.288319,8364.327145
1056.067750,1302.362347,1258.350101,9030.512492
1056.068065,229.828649,666.185348,9104.533087
1056.068381,0.000000,-148.041188,9770.718434
1056.068697,153.219100,-740.205942,10288.862594
1056.069013,383.047749,-740.205942,9548.656652
1056.069329,383.047749,-370.102971,9326.594869
1056.069644,153.219100,296.082377,9252.574275
1056.069960,612.876398,296.082377,9326.594869
1056.070276,612.876398,370.102971,9104.533087
1056.070592,153.219100,370.102971,9474.636058
1056.070908,-306.438199,-814.226536,10140.821405
1056.071223,-153.219100,-1036.288319,10140.821405
1056.071539,0.000000,-888.247130,10140.821405
1056.071855,383.047749,-814.226536,9770.718434
1056.072171,766.095498,-592.164754,9696.697840
1056.072487,536.266849,-0.000000,9326.594869
1056.072802,1378.971896,-0.000000,8808.450710
1056.073118,1149.143247,444.123565,8438.347739
1056.073434,842.705048,592.164754,8660.409521
1056.073750,766.095498,-296.082377,9474.636058
1056.074066,229.828649,-518.144159,10658.965565
1056.074381,0.000000,-1480.411884,10510.924376
1056.074697,0.000000,-1184.329507,9622.677246
1056.075013,76.609550,-518.144159,9030.512492
1056.075329,0.000000,-444.123565,9252.574275
1056.075645,383.047749,-518.144159,9178.553681
1056.075960,229.828649,-444.123565,9400.615463
1056.076276,-383.047749,-740.205942,9474.636058
1056.076592,-612.876398,-1258.350101,10140.821405
1056.076908,-536.266849,-1554.432478,10658.965565
1056.077224,306.438199,-1554.432478,10362.883188
1056.077539,153.219100,-1110.308913,9622.677246
1056.077855,459.657299,-666.185348,9178.553681
1056.078171,995.924147,-0.000000,8808.450710
1056.078487,1072.533697,370.102971,8734.430116
1056.078803,1378.971896,222.061783,8586.388927
1056.079119,995.924147,148.041188,8734.430116
1056.079434,383.047749,-0.000000,9252.574275
1056.079750,306.438199,-962.267725,10214.842000
1056.080066,306.438199,-1258.350101,10362.883188
1056.080382,766.095498,-1110.308913,9918.759623
1056.080698,459.657299,-666.185348,9326.594869
1056.081013,612.876398,-0.000000,8882.471304
1056.081329,536.266849,296.082377,9030.512492
1056.081645,612.876398,-0.000000,9474.636058
1056.081961,229.828649,-222.061783,9696.697840
1056.082277,-229.828649,-740.205942,9844.739029
1056.082592,0.000000,-1258.350101,10066.800811
1056.082908,153.219100,-1924.535449,10807.006753
1056.083224,995.924147,-1332.370696,9992.780217
1056.083540,1149.143247,-296.082377,9104.533087
1056.083856,1608.800546,296.082377,8660.409521
1056.084171,1685.410096,666.185348,8734.430116
1056.084487,1838.629195,666.185348,8734.430116
1056.084803,1072.533697,592.164754,8808.450710
1056.085119,766.095498,148.041188,9474.636058
1056.085435,612.876398,-370.102971,9622.677246
1056.085750,612.876398,-518.144159,9918.759623
1056.086066,383.047749,-814.226536,9622.677246
1056.086382,459.657299,-518.144159,9696.697840
1056.086698,536.266849,222.061783,9474.636058
1056.087014,919.314598,148.041188,8808.450710
1056.087329,383.047749,74.020594,9178.553681
1056.087645,0.000000,-0.000000,9400.615463
1056.087961,-383.047749,-296.082377,10140.821405
1056.088277,-229.828649,-518.144159,10362.883188
1056.088593,0.000000,-814.226536,10066.800811
1056.088908,0.000000,-222.061783,9696.697840
1056.089224,383.047749,148.041188,9548.656652
1056.089540,306.438199,444.123565,8734.430116
1056.089856,919.314598,1184.329507,9030.512492
1056.090172,1149.143247,740.205942,8586.388927
1056.090487,383.047749,1110.308913,8660.409521
1056.090803,-383.047749,518.144159,9474.636058
1056.091119,0.000000,-222.061783,10214.842000
1056.091435,0.000000,-592.164754,10288.862594
1056.091751,0.000000,-296.082377,9770.718434
1056.092067,0.000000,370.102971,9548.656652
1056.092382,153.219100,518.144159,9326.594869
1056.092698,536.266849,592.164754,9252.574275
1056.093014,689.485948,666.185348,9104.533087
1056.093330,-153.219100,518.144159,9696.697840
1056.093646,-306.438199,148.041188,9918.759623
1056.093961,-153.219100,-518.144159,10066.800811
1056.094277,306.438199,-592.164754,10362.883188
1056.094593,842.705048,-0.000000,9548.656652
1056.094909,919.314598,444.123565,8808.450710
1056.095225,766.095498,740.205942,9030.512492
1056.095540,1302.362347,740.205942,9326.594869
1056.095856,919.314598,888.247130,8882.471304
1056.096172,536.266849,740.205942,9252.574275
1056.096488,0.000000,-370.102971,10066.800811
1056.096804,0.000000,-592.164754,10066.800811
1056.097119,229.828649,-740.205942,10214.842000
1056.097435,0.000000,-740.205942,9696.697840
1056.097751,76.609550,-296.082377,9844.739029
1056.098067,766.095498,-74.020594,9548.656652
1056.098383,689.485948,-0.000000,9178.553681
1056.098698,536.266849,-0.000000,9474.636058
1056.099014,459.657299,-0.000000,9770.718434
1056.099330,76.609550,-518.144159,9992.780217
1056.099646,-459.657299,-1036.288319,10510.924376
1056.099962,689.485948,-1110.308913,9844.739029
1056.100277,612.876398,-444.123565,9326.594869
1056.100593,919.314598,-0.000000,9104.533087
1056.100909,1149.143247,592.164754,8512.368333
1056.101225,1072.533697,222.061783,8956.491898
1056.101541,919.314598,-0.000000,8808.450710
1056.101856,459.657299,-222.061783,9326.594869
1056.102172,153.219100,-1110.308913,9696.697840
1056.102488,0.000000,-1406.391290,9992.780217
1056.102804,153.219100,-1628.453072,10214.842000
1056.103120,229.828649,-1110.308913,9474.636058
1056.103435,0.000000,-370.102971,8808.450710
1056.103751,76.609550,148.041188,8882.471304
1056.104067,459.657299,-148.041188,8660.409521
1056.104383,229.828649,-370.102971,8956.491898
1056.104699,-383.047749,-444.123565,9326.594869
1056.105015,-383.047749,-962.267725,9918.759623
1056.105330,0.000000,-1110.308913,9918.759623
1056.105646,229.828649,-888.247130,9696.697840
1056.105962,76.609550,-370.102971,9400.615463
1056.106278,995.924147,-74.020594,8808.450710
1056.106594,842.705048,-0.000000,8734.430116
1056.106909,1149.143247,296.082377,8660.409521
1056.107225,995.924147,370.102971,8364.327145
1056.107541,383.047749,222.061783,9548.656652
1056.107857,76.609550,-296.082377,9622.677246
1056.108173,383.047749,-888.247130,10214.842000
1056.108488,459.657299,-1036.288319,9622.677246
1056.108804,536.266849,-518.144159,8956.491898
1056.109120,919.314598,-444.123565,9400.615463
1056.109436,536.266849,-0.000000,9326.594869
1056.109752,689.485948,-0.000000,9622.677246
1056.110067,459.657299,-148.041188,9326.594869
1056.110383,229.828649,-222.061783,9474.636058
1056.110699,306.438199,-1184.329507,10436.903782
1056.111015,459.657299,-1258.350101,10584.944971
1056.111331,766.095498,-1258.350101,9844.739029
1056.111646,995.924147,-592.164754,9696.697840
1056.111962,689.485948,222.061783,9104.533087
1056.112278,1915.238745,-0.000000,9326.594869
1056.112594,1991.848295,370.102971,9326.594869
1056.112910,1455.581446,222.061783,8956.491898
1056.113225,919.314598,592.164754,9178.553681
1056.113541,689.485948,-222.061783,9548.656652
1056.113857,536.266849,-740.205942,10510.924376
1056.114173,689.485948,-962.267725,10362.883188
1056.114489,842.705048,-148.041188,9400.615463
1056.114804,306.438199,222.061783,9548.656652
1056.115120,689.485948,222.061783,9696.697840
1056.115436,459.657299,-222.061783,9474.636058
1056.115752,383.047749,296.082377,9474.636058
1056.116068,0.000000,-74.020594,9696.697840
1056.116383,-383.047749,-370.102971,10288.862594
1056.116699,0.000000,-814.226536,10214.842000
1056.117015,536.266849,-592.164754,9696.697840
1056.117331,689.485948,-0.000000,9474.636058
1056.117647,383.047749,296.082377,9178.553681
1056.117963,995.924147,518.144159,8956.491898
1056.118278,1302.362347,666.185348,9030.512492
1056.118594,842.705048,444.123565,8882.471304
1056.118910,0.000000,444.123565,9252.574275
1056.119226,0.000000,-222.061783,9770.718434
1056.119542,76.609550,-666.185348,10288.862594
1056.119857,383.047749,-740.205942,9696.697840
1056.120173,0.000000,-222.061783,9770.718434
1056.120489,0.000000,222.061783,9104.533087
1056.120805,306.438199,-0.000000,9326.594869
1056.121121,459.657299,-0.000000,9104.533087
1056.121436,0.000000,222.061783,8882.471304
1056.121752,-76.609550,-0.000000,9474.636058
1056.122068,-306.438199,-148.041188,9918.759623
1056.122384,0.000000,-814.226536,9770.718434
1056.122700,0.000000,-370.102971,9770.718434
1056.123015,229.828649,-0.000000,9178.553681
1056.123331,306.438199,444.123565,8586.388927
1056.123647,919.314598,666.185348,8956.491898
1056.123963,766.095498,296.082377,8808.450710
1056.124279,766.095498,592.164754,8956.491898
1056.124594,153.219100,592.164754,9252.574275
1056.124910,-612.876398,-370.102971,9844.739029
1056.125226,0.000000,-888.247130,10584.944971
1056.125542,306.438199,-370.102971,9770.718434
1056.125858,0.000000,-0.000000,9252.574275
1056.126173,0.000000,-148.041188,9622.677246
1056.126489,612.876398,-370.102971,9400.615463
1056.126805,306.438199,-74.020594,9252.574275
1056.127121,383.047749,-0.000000,9400.615463
1056.127437,153.219100,-222.061783,9548.656652
1056.127752,-153.219100,-518.144159,9918.759623
1056.128068,383.047749,-370.102971,10362.883188
1056.128384,766.095498,-740.205942,9696.697840
1056.128700,842.705048,-222.061783,9474.636058
1056.129016,536.266849,-0.000000,9104.533087
1056.129332,919.314598,222.061783,9178.553681
1056.129647,1302.362347,148.041188,8734.430116
1056.129963,689.485948,148.041188,9104.533087
1056.130279,306.438199,-148.041188,9992.780217
1056.130595,0.000000,-296.082377,10288.862594
1056.130911,0.000000,-518.144159,10362.883188
1056.131226,459.657299,-444.123565,10066.800811
1056.131542,229.828649,-296.082377,9548.656652
1056.131858,459.657299,-74.020594,9252.574275
1056.132174,612.876398,-0.000000,9252.574275
1056.132490,689.485948,-444.123565,9104.533087
1056.132806,766.095498,-148.041188,9104.533087
1056.133121,153.219100,-74.020594,9548.656652
1056.133437,0.000000,-1036.288319,10214.842000
1056.133753,306.438199,-1628.453072,10584.944971
1056.134069,536.266849,-962.267725,9770.718434
1056.134385,612.876398,-740.205942,9178.553681
1056.134701,1225.752797,-0.000000,8660.409521
1056.135016,1072.533697,444.123565,8290.306550
1056.135332,1455.581446,296.082377,8512.368333
1056.135648,766.095498,518.144159,8438.347739
1056.135964,306.438199,-296.082377,9548.656652
1056.136280,-153.219100,-1258.350101,10436.903782
1056.136596,76.609550,-1702.473667,10288.862594
1056.136911,0.000000,-1406.391290,9696.697840
1056.137227,153.219100,-1036.288319,9474.636058
1056.137543,383.047749,-888.247130,9474.636058
1056.137859,689.485948,-0.000000,9104.533087
1056.138175,919.314598,-0.000000,8956.491898
1056.138491,766.095498,-74.020594,8882.471304
1056.138806,0.000000,-370.102971,9474.636058
1056.139122,766.095498,-814.226536,10436.903782
1056.139438,536.266849,-740.205942,9992.780217
1056.139754,1072.533697,-296.082377,9252.574275
1056.140070,1072.533697,-0.000000,8512.368333
1056.140386,1072.533697,444.123565,8660.409521
1056.140701,1838.629195,-0.000000,8882.471304
1056.141017,1378.971896,370.102971,8512.368333
1056.141333,919.314598,-0.000000,9104.533087
1056.141649,0.000000,222.061783,9622.677246
1056.141965,76.609550,-296.082377,10288.862594
1056.142280,689.485948,-1036.288319,10214.842000
1056.142596,153.219100,-888.247130,9918.759623
1056.142912,-76.609550,-592.164754,9548.656652
1056.143228,153.219100,-444.123565,9622.677246
1056.143544,612.876398,-296.082377,9622.677246
1056.143860,612.876398,-74.020594,9400.615463
1056.144175,229.828649,444.123565,9696.697840
1056.144491,0.000000,148.041188,9696.697840
1056.144807,153.219100,-518.144159,9844.739029
1056.145123,689.485948,-740.205942,10362.883188
1056.145439,612.876398,-740.205942,9400.615463
1056.145755,995.924147,-74.020594,9178.553681
1056.146070,1072.533697,740.205942,8808.450710
1056.146386,1685.410096,814.226536,8364.327145
1056.146702,1532.190996,814.226536,8438.347739
1056.147018,995.924147,666.185348,9326.594869
1056.147334,-306.438199,222.061783,9844.739029
1056.147650,-689.485948,-518.144159,10214.842000
1056.147965,-383.047749,-666.185348,10288.862594
1056.148281,-383.047749,-444.123565,9992.780217
1056.148597,-383.047749,-296.082377,9992.780217
1056.148913,-536.266849,222.061783,9178.553681
1056.149229,0.000000,-0.000000,9400.615463
1056.149545,0.000000,370.102971,9326.594869
1056.149860,0.000000,370.102971,9400.615463
1056.150176,-689.485948,-74.020594,9844.739029
1056.150492,-383.047749,-370.102971,10214.842000
1056.150808,76.609550,-148.041188,10362.883188
1056.151124,536.266849,-0.000000,9178.553681
1056.151440,612.876398,444.123565,8808.450710
1056.151755,1455.581446,740.205942,8956.491898
1056.152071,1455.581446,740.205942,8512.368333
1056.152387,1378.971896,814.226536,8586.388927
1056.152703,689.485948,518.144159,9400.615463
1056.153019,306.438199,148.041188,9696.697840
1056.153334,383.047749,-518.144159,9992.780217
1056.153650,0.000000,-740.205942,10214.842000
1056.153966,459.657299,-296.082377,10362.883188
1056.154282,229.828649,-296.082377,9474.636058
1056.154598,153.219100,-0.000000,9326.594869
1056.154914,766.095498,370.102971,9696.697840
1056.155229,612.876398,-296.082377,9622.677246
1056.155545,76.609550,-0.000000,9918.759623
1056.155861,-459.657299,-740.205942,10510.924376
1056.156177,612.876398,-962.267725,10140.821405
1056.156493,919.314598,-148.041188,10214.842000
1056.156809,536.266849,-148.041188,9252.574275
1056.157124,1225.752797,296.082377,9326.594869
1056.157440,1608.800546,370.102971,8586.388927
1056.157756,1762.019645,444.123565,8512.368333
1056.158072,1455.581446,444.123565,9252.574275
1056.158388,689.485948,-74.020594,9030.512492
1056.158704,229.828649,-148.041188,9474.636058
1056.159019,0.000000,-1036.288319,10140.821405
1056.159335,153.219100,-1554.432478,10288.862594
1056.159651,76.609550,-592.164754,9992.780217
1056.159967,0.000000,-222.061783,9104.533087
1056.160283,459.657299,-0.000000,9178.553681
1056.160599,383.047749,-370.102971,8882.471304
1056.160914,153.219100,-0.000000,9326.594869
1056.161230,-383.047749,-296.082377,9622.677246
1056.161546,-459.657299,-1184.329507,9918.759623
1056.161862,0.000000,-1406.391290,10288.862594
1056.162178,229.828649,-1406.391290,9770.718434
1056.162494,459.657299,-814.226536,9104.533087
1056.162809,842.705048,-296.082377,8660.409521
1056.163125,766.095498,-74.020594,8882.471304
1056.163441,1378.971896,-0.000000,8808.450710
1056.163757,919.314598,222.061783,8364.327145
1056.164073,1225.752797,518.144159,8734.430116
1056.164388,0.000000,-666.185348,9474.636058
1056.164704,306.438199,-1036.288319,10362.883188
1056.165020,383.047749,-962.267725,9844.739029
1056.165336,229.828649,-592.164754,9252.574275
1056.165652,612.876398,-592.164754,9770.718434
1056.165968,536.266849,-518.144159,9326.594869
1056.166283,919.314598,-296.082377,8734.430116
1056.166599,919.314598,-0.000000,9104.533087
1056.166915,459.657299,-148.041188,9918.759623
1056.167231,536.266849,-444.123565,9844.739029
1056.167547,612.876398,-888.247130,9696.697840
1056.167863,842.705048,-888.247130,9844.739029
1056.168178,689.485948,-592.164754,9548.656652
1056.168494,919.314598,-0.000000,9030.512492
1056.168810,1685.410096,444.123565,8956.491898
1056.169126,1532.190996,296.082377,8956.491898
1056.169442,1532.190996,370.102971,8882.471304
1056.169758,536.266849,-0.000000,9104.533087
1056.170073,0.000000,-592.164754,10066.800811
1056.170389,76.609550,-888.247130,10658.965565
1056.170705,459.657299,-962.267725,10140.821405
1056.171021,612.876398,-518.144159,10066.800811
1056.171337,306.438199,222.061783,9474.636058
1056.171653,459.657299,-0.000000,9030.512492
1056.171968,1072.533697,-0.000000,8808.450710
1056.172284,995.924147,-0.000000,9104.533087
1056.172600,689.485948,-0.000000,9622.677246
1056.172916,153.219100,-0.000000,9844.739029
1056.173232,306.438199,-666.185348,10362.883188
1056.173548,689.485948,-592.164754,10214.842000
1056.173863,383.047749,-0.000000,9326.594869
1056.174179,383.047749,444.123565,8882.471304
1056.174495,612.876398,592.164754,9326.594869
1056.174811,1225.752797,592.164754,9400.615463
1056.175127,536.266849,740.205942,8808.450710
1056.175443,-229.828649,666.185348,9622.677246
1056.175758,-383.047749,-148.041188,9918.759623
1056.176074,0.000000,-518.144159,10510.924376
1056.176390,0.000000,-222.061783,9696.697840
1056.176706,-459.657299,-0.000000,9770.718434
1056.177022,-306.438199,370.102971,9474.636058
1056.177337,76.609550,518.144159,9252.574275
1056.177653,383.047749,444.123565,9178.553681
1056.177969,383.047749,592.164754,9474.636058
1056.178285,0.000000,-0.000000,9326.594869
1056.178601,-306.438199,-296.082377,9770.718434
1056.178917,306.438199,-222.061783,10288.862594
1056.179232,306.438199,-222.061783,9696.697840
1056.179548,612.876398,666.185348,9696.697840
1056.179864,536.266849,740.205942,8512.368333
1056.180180,842.705048,444.123565,8808.450710
1056.180496,842.705048,518.144159,8956.491898
1056.180812,842.705048,-0.000000,9178.553681
1056.181127,153.219100,-296.082377,9252.574275
1056.181443,-229.828649,-370.102971,9548.656652
1056.181759,0.000000,-740.205942,10214.842000
1056.182075,0.000000,-1110.308913,10140.821405
1056.182391,153.219100,-592.164754,9400.615463
1056.182707,0.000000,-74.020594,9252.574275
1056.183022,153.219100,-148.041188,9252.574275
1056.183338,612.876398,-444.123565,9696.697840
1056.183654,459.657299,-74.020594,8956.491898
1056.183970,-153.219100,-0.000000,9622.677246
1056.184286,-153.219100,-888.247130,10214.842000
1056.184602,536.266849,-740.205942,10066.800811
1056.184917,612.876398,-592.164754,9770.718434
1056.185233,459.657299,-0.000000,9326.594869
1056.185549,766.095498,-74.020594,8512.368333
1056.185865,919.314598,148.041188,9030.512492
1056.186181,919.314598,222.061783,8734.430116
1056.186497,536.266849,-0.000000,8734.430116
1056.186812,76.609550,-0.000000,9326.594869
1056.187128,-459.657299,-370.102971,10362.883188
1056.187444,-306.438199,-962.267725,10658.965565
1056.187760,-306.438199,-1332.370696,9918.759623
1056.188076,0.000000,-814.226536,9622.677246
1056.188391,306.438199,-444.123565,9474.636058
1056.188707,306.438199,-74.020594,9326.594869
1056.189023,842.705048,-0.000000,9548.656652
1056.189339,689.485948,-0.000000,8882.471304
1056.189655,459.657299,222.061783,9178.553681
1056.189971,229.828649,-370.102971,10288.862594
1056.190286,536.266849,-1184.329507,10140.821405
1056.190602,842.705048,-370.102971,9622.677246
1056.190918,1225.752797,-0.000000,9400.615463
1056.191234,1532.190996,444.123565,8808.450710
1056.191550,1762.019645,814.226536,8586.388927
1056.191866,1455.581446,888.247130,8216.285956
1056.192181,1149.143247,296.082377,8660.409521
1056.192497,689.485948,-296.082377,9474.636058
1056.192813,-536.266849,-666.185348,10214.842000
1056.193129,76.609550,-1332.370696,10584.944971
1056.193445,153.219100,-1702.473667,10214.842000
1056.193761,0.000000,-888.247130,9622.677246
1056.194076,0.000000,-518.144159,9844.739029
1056.194392,306.438199,-740.205942,9770.718434
1056.194708,612.876398,-148.041188,9326.594869
1056.195024,612.876398,296.082377,9252.574275
1056.195340,383.047749,-0.000000,9548.656652
1056.195656,229.828649,-666.185348,9844.739029
1056.195971,612.876398,-814.226536,9992.780217
1056.196287,766.095498,-888.247130,9548.656652
1056.196603,995.924147,-370.102971,9252.574275
1056.196919,689.485948,-0.000000,8734.430116
1056.197235,1302.362347,296.082377,8882.471304
1056.197551,1608.800546,370.102971,9252.574275
1056.197866,689.485948,518.144159,9178.553681
1056.198182,459.657299,-0.000000,9104.533087
1056.198498,-153.219100,-592.164754,10436.903782
1056.198814,76.609550,-1258.350101,10436.903782
1056.199130,0.000000,-1036.288319,10140.821405
1056.199445,0.000000,-296.082377,9770.718434
1056.199761,153.219100,-370.102971,9474.636058
1056.200077,459.657299,-0.000000,9104.533087
1056.200393,689.485948,148.041188,9400.615463
1056.200709,153.219100,-296.082377,9474.636058
1056.201025,-153.219100,-740.205942,9474.636058
1056.201340,0.000000,-740.205942,10288.862594
1056.201656,459.657299,-740.205942,9918.759623
1056.201972,842.705048,-296.082377,9400.615463
1056.202288,842.705048,518.144159,9030.512492
1056.202604,1149.143247,592.164754,8734.430116
1056.202920,1072.533697,666.185348,8808.450710
1056.203235,919.314598,370.102971,8512.368333
1056.203551,306.438199,296.082377,8586.388927
1056.203867,0.000000,-74.020594,9696.697840
1056.204183,-306.438199,-518.144159,9918.759623
1056.204499,153.219100,-814.226536,10436.903782
1056.204815,76.609550,-518.144159,9844.739029
1056.205130,76.609550,-148.041188,9252.574275
1056.205446,76.609550,148.041188,9104.533087
1056.205762,383.047749,296.082377,8956.491898
1056.206078,689.485948,-0.000000,9252.574275
1056.206394,306.438199,222.061783,9178.553681
1056.206710,-153.219100,-148.041188,9844.739029
1056.207025,0.000000,-222.061783,9548.656652
1056.207341,689.485948,-222.061783,9844.739029
1056.207657,612.876398,-0.000000,9178.553681
1056.207973,612.876398,370.102971,9030.512492
1056.208289,1378.971896,444.123565,8882.471304
1056.208605,1149.143247,814.226536,8660.409521
1056.208920,1072.533697,740.205942,8808.450710
1056.209236,536.266849,518.144159,8882.471304
1056.209552,76.609550,-0.000000,9844.739029
1056.209868,153.219100,-888.247130,10955.047942
