#time,accel_x,accel_y,accel_z
785.047596,306.438199,-222.061783,9474.636058
785.047912,536.266849,-74.020594,9548.656652
785.048228,383.047749,-222.061783,9474.636058
785.048544,229.828649,-370.102971,9474.636058
785.048859,459.657299,-296.082377,9474.636058
785.049175,306.438199,-0.000000,9400.615463
785.049491,459.657299,-0.000000,9474.636058
785.049806,612.876398,-370.102971,9474.636058
785.050122,383.047749,-296.082377,9622.677246
785.050438,306.438199,-0.000000,9474.636058
785.050753,306.438199,-148.041188,9622.677246
785.051069,536.266849,-148.041188,9474.636058
785.051385,306.438199,-74.020594,9548.656652
785.051701,306.438199,-74.020594,9474.636058
785.052016,383.047749,-370.102971,9400.615463
785.052332,842.705048,-370.102971,9326.594869
785.052648,536.266849,-148.041188,9622.677246
785.052963,536.266849,-0.000000,9326.594869
785.053279,229.828649,-0.000000,9474.636058
785.053595,459.657299,296.082377,9474.636058
785.053910,306.438199,296.082377,9252.574275
785.054226,76.609550,222.061783,9030.512492
785.054542,153.219100,148.041188,9178.553681
785.054858,0.000000,-0.000000,9474.636058
785.055173,229.828649,222.061783,9474.636058
785.055489,76.609550,-296.082377,9548.656652
785.055805,0.000000,-222.061783,9844.739029
785.056120,229.828649,-296.082377,9548.656652
785.056436,76.609550,-222.061783,9696.697840
785.056752,306.438199,-0.000000,9474.636058
785.057067,459.657299,740.205942,9252.574275
785.057383,383.047749,962.267725,9252.574275
785.057699,689.485948,814.226536,9326.594869
785.058015,766.095498,592.164754,9326.594869
785.058330,536.266849,814.226536,8956.491898
785.058646,689.485948,666.185348,9252.574275
785.058962,536.266849,444.123565,9474.636058
785.059277,689.485948,296.082377,9696.697840
785.059593,842.705048,-0.000000,9696.697840
785.059909,919.314598,740.205942,9622.677246
785.060224,919.314598,740.205942,9622.677246
785.060540,919.314598,740.205942,9622.677246
785.060856,1225.752797,740.205942,9548.656652
785.061172,1685.410096,1258.350101,9474.636058
785.061487,1608.800546,1554.432478,9252.574275
785.061803,1915.238745,1406.391290,9252.574275
785.062119,1915.238745,1332.370696,9104.533087
785.062434,2145.067394,1406.391290,8882.471304
785.062750,2374.896044,1702.473667,9400.615463
785.063066,2374.896044,1628.453072,9326.594869
785.063381,2451.505594,1628.453072,9326.594869
785.063697,2451.505594,1924.535449,9326.594869
785.064013,2757.943793,1850.514855,9770.718434
785.064329,2604.724693,2072.576638,9474.636058
785.064644,2528.115143,2146.597232,9548.656652
785.064960,2987.772442,2368.659014,9622.677246
785.065276,3064.381992,2368.659014,9326.594869
785.065591,2451.505594,2442.679609,9474.636058
785.065907,3064.381992,2516.700203,9548.656652
785.066223,3524.039291,2442.679609,9326.594869
785.066538,3217.601092,2516.700203,9326.594869
785.066854,3370.820191,2220.617826,9400.615463
785.067170,3677.258390,2368.659014,9178.553681
785.067486,3294.210641,2368.659014,9474.636058
785.067801,3064.381992,2664.741391,9622.677246
785.068117,2987.772442,2368.659014,9548.656652
785.068433,3064.381992,2368.659014,9696.697840
785.068748,3217.601092,2812.782580,9918.759623
785.069064,2911.162892,2516.700203,9844.739029
785.069380,2757.943793,2220.617826,9844.739029
785.069695,2681.334243,2146.597232,9770.718434
785.070011,2604.724693,1998.556043,10066.800811
785.070327,2681.334243,2368.659014,10140.821405
785.070643,2604.724693,2516.700203,9918.759623
785.070958,2604.724693,2516.700203,9918.759623
785.071274,2911.162892,2294.638420,10066.800811
785.071590,3064.381992,2220.617826,9918.759623
785.071905,2681.334243,2072.576638,9696.697840
785.072221,2911.162892,2146.597232,9252.574275
785.072537,2528.115143,2146.597232,9252.574275
785.072852,2604.724693,2072.576638,9326.594869
785.073168,1608.800546,1776.494261,9474.636058
785.073484,1685.410096,1406.391290,9844.739029
785.073800,1072.533697,1184.329507,9992.780217
785.074115,766.095498,518.144159,10140.821405
785.074431,306.438199,148.041188,10436.903782
785.074747,536.266849,-444.123565,10658.965565
785.075062,995.924147,-592.164754,10732.986159
785.075378,766.095498,-666.185348,10807.006753
785.075694,1225.752797,-0.000000,10510.924376
785.076009,1915.238745,592.164754,9770.718434
785.076325,2911.162892,962.267725,9252.574275
785.076641,3600.648841,2368.659014,8364.327145
785.076957,3907.087040,2738.761985,7402.059420
785.077272,4290.134789,3034.844362,7179.997637
785.077588,4443.353888,2812.782580,7105.977043
785.077904,4903.011187,2072.576638,7402.059420
785.078219,3753.867940,1554.432478,8068.244768
785.078535,2911.162892,1036.288319,8290.306550
785.078851,1915.238745,592.164754,9104.533087
785.079166,766.095498,296.082377,9770.718434
785.079482,153.219100,-0.000000,9992.780217
785.079798,-766.095498,-0.000000,10584.944971
785.080114,-1302.362347,-296.082377,10732.986159
785.080429,-1072.533697,-814.226536,10955.047942
785.080745,-306.438199,-1036.288319,11103.089130
785.081061,-229.828649,-444.123565,11177.109724
785.081376,689.485948,148.041188,10510.924376
785.081692,1608.800546,814.226536,9992.780217
785.082008,2987.772442,1924.535449,9178.553681
785.082323,4673.182538,3034.844362,8142.265362
785.082639,5439.278036,3701.029710,7772.162391
785.082955,6358.592633,3997.112087,7105.977043
785.083270,6818.249932,4367.215058,6587.832884
785.083586,6818.249932,4515.256246,6809.894666
785.083902,6281.983084,4293.194464,6735.874072
785.084218,5515.887586,3775.050304,7402.059420
785.084533,4366.744339,2812.782580,8586.388927
785.084849,2681.334243,1628.453072,9918.759623
785.085165,1225.752797,-0.000000,10955.047942
785.085480,76.609550,-592.164754,12287.418637
785.085796,-842.705048,-1184.329507,13397.727550
785.086112,-1302.362347,-888.247130,13693.809927
785.086427,-919.314598,-0.000000,13027.624579
785.086743,0.000000,1036.288319,11843.295072
785.087059,919.314598,2220.617826,10807.006753
785.087375,1915.238745,3552.988522,9474.636058
785.087690,3524.039291,4367.215058,7846.182985
785.088006,5056.230287,4663.297435,7105.977043
785.088322,6818.249932,4145.153275,7179.997637
785.088637,6588.421283,3923.091493,7031.956449
785.088953,6588.421283,3330.926739,7550.100608
785.089269,5822.325785,2590.720797,8068.244768
785.089584,4826.401637,2368.659014,9770.718434
785.089900,3753.867940,2294.638420,10658.965565
785.090216,2757.943793,2072.576638,11547.212695
785.090532,1532.190996,1702.473667,11695.253884
785.090847,842.705048,2442.679609,11325.150913
785.091163,995.924147,2738.761985,11029.068536
785.091479,1072.533697,2664.741391,10732.986159
785.091794,1455.581446,2590.720797,9770.718434
785.092110,1225.752797,2220.617826,9252.574275
785.092426,1608.800546,1924.535449,9326.594869
785.092741,1762.019645,1332.370696,9474.636058
785.093057,2681.334243,1554.432478,9030.512492
785.093373,2681.334243,2220.617826,9030.512492
785.093689,2221.676944,2738.761985,9400.615463
785.094004,1608.800546,2442.679609,9252.574275
785.094320,1455.581446,2294.638420,9326.594869
785.094636,2221.676944,1998.556043,9400.615463
785.094951,2221.676944,1110.308913,10436.903782
785.095267,1762.019645,1110.308913,10510.924376
785.095583,1762.019645,1184.329507,10732.986159
785.095898,2068.457845,1554.432478,10732.986159
785.096214,2528.115143,2072.576638,10140.821405
785.096530,2604.724693,3404.947333,9030.512492
785.096846,3064.381992,4589.276840,7550.100608
785.097161,3677.258390,3404.947333,7550.100608
785.097477,4596.572988,2664.741391,6661.853478
785.097793,4136.915689,2886.803174,7031.956449
785.098108,3370.820191,1776.494261,7772.162391
785.098424,2681.334243,296.082377,8956.491898
785.098740,2374.896044,-888.247130,9622.677246
785.099055,766.095498,-0.000000,10955.047942
785.099371,-383.047749,444.123565,11325.150913
785.099687,-536.266849,962.267725,11325.150913
785.100003,229.828649,814.226536,11103.089130
785.100318,689.485948,666.185348,9992.780217
785.100634,1302.362347,1702.473667,10214.842000
785.100950,2451.505594,1554.432478,9622.677246
785.101265,3140.991542,1406.391290,8956.491898
785.101581,3983.696590,2072.576638,8364.327145
785.101897,4749.792088,2886.803174,7254.018232
785.102212,5286.058936,2886.803174,7550.100608
785.102528,5132.839837,2590.720797,7624.121203
785.102844,4749.792088,2368.659014,7994.224174
785.103160,5286.058936,2146.597232,7994.224174
785.103475,4596.572988,2294.638420,8882.471304
785.103791,2451.505594,2368.659014,9104.533087
785.104107,1915.238745,2294.638420,9252.574275
785.104422,1455.581446,1850.514855,9992.780217
785.104738,459.657299,962.267725,10955.047942
785.105054,-919.314598,444.123565,11695.253884
785.105370,-842.705048,-740.205942,11695.253884
785.105685,-689.485948,-1184.329507,12065.356855
785.106001,-536.266849,-444.123565,11547.212695
785.106317,1149.143247,296.082377,11103.089130
785.106633,2987.772442,962.267725,10658.965565
785.106948,3217.601092,2146.597232,9252.574275
785.107264,3753.867940,3182.885551,7920.203579
785.107580,5056.230287,2960.823768,7476.080014
785.107896,5515.887586,3627.009116,7476.080014
785.108212,4979.620737,4145.153275,7328.038826
785.108527,5056.230287,3256.906145,7698.141797
785.108843,4213.525239,1924.535449,8216.285956
785.109159,2987.772442,1628.453072,9252.574275
785.109475,1838.629195,666.185348,10362.883188
785.109790,1072.533697,-518.144159,11399.171507
785.110106,153.219100,296.082377,11769.274478
785.110422,-229.828649,888.247130,11695.253884
785.110738,459.657299,-0.000000,11769.274478
785.111053,153.219100,518.144159,11621.233289
785.111369,383.047749,444.123565,10881.027347
785.111685,1762.019645,-0.000000,10362.883188
785.112001,2374.896044,1406.391290,9326.594869
785.112317,2681.334243,1628.453072,8660.409521
785.112632,4290.134789,1554.432478,8438.347739
785.112948,3600.648841,2294.638420,7550.100608
785.113264,3447.429741,2812.782580,7624.121203
785.113580,3600.648841,1998.556043,8068.244768
785.113895,2911.162892,2072.576638,8512.368333
785.114211,2834.553343,2146.597232,9844.739029
785.114527,2757.943793,814.226536,9548.656652
785.114843,2374.896044,-0.000000,9918.759623
785.115159,1455.581446,296.082377,10214.842000
785.115474,766.095498,-0.000000,9992.780217
785.115790,1302.362347,962.267725,9696.697840
785.116106,2145.067394,1332.370696,9622.677246
785.116422,1838.629195,1110.308913,9474.636058
785.116737,1302.362347,1480.411884,8216.285956
785.117053,1378.971896,1110.308913,9326.594869
785.117369,766.095498,1036.288319,7772.162391
785.117685,1149.143247,814.226536,8216.285956
785.118000,1608.800546,370.102971,10140.821405
785.118316,459.657299,518.144159,8586.388927
785.118632,-842.705048,666.185348,9252.574275
785.118948,-842.705048,-370.102971,10362.883188
785.119264,229.828649,444.123565,9770.718434
785.119579,-229.828649,-0.000000,10955.047942
785.119895,-459.657299,518.144159,11103.089130
785.120211,0.000000,148.041188,9326.594869
785.120527,689.485948,592.164754,9918.759623
785.120842,1302.362347,1406.391290,8660.409521
785.121158,1838.629195,2220.617826,8068.244768
785.121474,3600.648841,1776.494261,9178.553681
785.121790,2068.457845,1480.411884,7846.182985
785.122106,1455.581446,814.226536,8956.491898
785.122421,1608.800546,444.123565,8882.471304
785.122737,229.828649,666.185348,8586.388927
785.123053,306.438199,-592.164754,10510.924376
785.123369,0.000000,-962.267725,11177.109724
785.123684,-1072.533697,-1110.308913,10807.006753
785.124000,-1302.362347,-1036.288319,11843.295072
785.124316,-689.485948,-592.164754,11029.068536
785.124632,76.609550,-296.082377,10362.883188
785.124947,612.876398,222.061783,10658.965565
785.125263,766.095498,888.247130,9622.677246
785.125579,1072.533697,444.123565,8660.409521
785.125895,1685.410096,666.185348,8882.471304
785.126211,2298.286494,1406.391290,7179.997637
785.126526,2604.724693,1036.288319,7550.100608
785.126842,2834.553343,740.205942,8882.471304
785.127158,1532.190996,-0.000000,8956.491898
785.127474,842.705048,-1184.329507,9844.739029
785.127789,536.266849,-74.020594,9770.718434
785.128105,-459.657299,-814.226536,9696.697840
785.128421,-153.219100,-740.205942,11399.171507
785.128737,-919.314598,-1184.329507,10140.821405
785.129053,-2451.505594,-1258.350101,10288.862594
785.129368,-2298.286494,-518.144159,10066.800811
785.129684,-1838.629195,-740.205942,9770.718434
785.130000,-842.705048,-1184.329507,10214.842000
785.130316,-153.219100,-1184.329507,9548.656652
785.130631,-689.485948,-1184.329507,8660.409521
785.130947,-229.828649,-666.185348,9622.677246
785.131263,2068.457845,-1332.370696,9252.574275
785.131579,2451.505594,-0.000000,7920.203579
785.131894,1302.362347,2368.659014,7402.059420
785.132210,1532.190996,-0.000000,8438.347739
785.132526,1378.971896,-148.041188,8512.368333
785.132842,612.876398,1184.329507,8290.306550
785.133158,612.876398,148.041188,8808.450710
785.133473,919.314598,-1554.432478,9770.718434
785.133789,-459.657299,-1480.411884,10066.800811
785.134105,-919.314598,-1998.556043,10732.986159
785.134421,-919.314598,-1406.391290,10510.924376
785.134736,306.438199,-444.123565,10140.821405
785.135052,1149.143247,-0.000000,9474.636058
785.135368,689.485948,-370.102971,9400.615463
785.135684,842.705048,-740.205942,9326.594869
785.136000,995.924147,-518.144159,9030.512492
785.136315,1302.362347,740.205942,7846.182985
785.136631,2068.457845,222.061783,8808.450710
785.136947,2298.286494,518.144159,8438.347739
785.137263,1532.190996,592.164754,7994.224174
785.137578,536.266849,-370.102971,9400.615463
785.137894,766.095498,-222.061783,9548.656652
785.138210,689.485948,-74.020594,9696.697840
785.138526,1378.971896,592.164754,10066.800811
785.138841,0.000000,444.123565,8660.409521
785.139157,-689.485948,-222.061783,10288.862594
785.139473,-536.266849,370.102971,10288.862594
785.139789,0.000000,-0.000000,9400.615463
785.140105,76.609550,518.144159,9696.697840
785.140420,76.609550,-0.000000,9918.759623
785.140736,-689.485948,-1110.308913,9992.780217
785.141052,-306.438199,-740.205942,10881.027347
785.141368,0.000000,-148.041188,9474.636058
785.141683,536.266849,-296.082377,9992.780217
785.141999,229.828649,1036.288319,9548.656652
785.142315,0.000000,-74.020594,10066.800811
785.142631,-306.438199,-0.000000,10362.883188
785.142947,76.609550,888.247130,8808.450710
785.143262,995.924147,814.226536,9400.615463
785.143578,2221.676944,296.082377,10066.800811
785.143894,1149.143247,-0.000000,9104.533087
785.144210,459.657299,-370.102971,9696.697840
785.144525,842.705048,-0.000000,9770.718434
785.144841,1762.019645,-814.226536,9474.636058
785.145157,1838.629195,666.185348,9400.615463
785.145473,1225.752797,962.267725,9474.636058
785.145788,612.876398,-0.000000,8364.327145
785.146104,-536.266849,518.144159,9548.656652
785.146420,229.828649,-222.061783,9474.636058
785.146736,612.876398,-888.247130,10214.842000
785.147052,0.000000,-222.061783,9844.739029
785.147367,-919.314598,-1480.411884,9400.615463
785.147683,-1685.410096,-1332.370696,10510.924376
785.147999,-229.828649,-814.226536,10732.986159
785.148315,459.657299,-592.164754,9622.677246
785.148630,689.485948,1184.329507,9622.677246
785.148946,229.828649,-0.000000,8068.244768
785.149262,0.000000,370.102971,8364.327145
785.149578,842.705048,444.123565,8364.327145
785.149894,1608.800546,-0.000000,8364.327145
785.150209,2068.457845,-0.000000,8364.327145
785.150525,995.924147,-222.061783,8438.347739
785.150841,229.828649,-1258.350101,9400.615463
785.151157,-153.219100,-518.144159,9252.574275
785.151472,536.266849,-592.164754,9178.553681
785.151788,383.047749,148.041188,9474.636058
785.152104,-306.438199,-0.000000,9474.636058
785.152420,-1225.752797,-666.185348,9474.636058
785.152735,-1532.190996,148.041188,9696.697840
785.153051,-229.828649,-74.020594,9548.656652
785.153367,536.266849,-148.041188,9474.636058
785.153683,0.000000,74.020594,9474.636058
785.153999,0.000000,-814.226536,10288.862594
785.154314,0.000000,-888.247130,9474.636058
785.154630,689.485948,-0.000000,9474.636058
785.154946,1225.752797,-592.164754,9918.759623
785.155262,1685.410096,592.164754,9030.512492
785.155577,1072.533697,592.164754,8586.388927
785.155893,383.047749,370.102971,9030.512492
785.156209,1072.533697,666.185348,9104.533087
785.156525,1378.971896,222.061783,8586.388927
785.156840,1225.752797,222.061783,9696.697840
785.157156,536.266849,-74.020594,9474.636058
785.157472,-306.438199,-1850.514855,10584.944971
785.157788,-229.828649,-1554.432478,10658.965565
785.158104,229.828649,-1110.308913,10288.862594
785.158419,995.924147,-592.164754,10881.027347
785.158735,459.657299,296.082377,9622.677246
785.159051,0.000000,-74.020594,9474.636058
785.159367,153.219100,-222.061783,9400.615463
785.159682,919.314598,592.164754,8882.471304
785.159998,1685.410096,-370.102971,9474.636058
785.160314,1915.238745,-444.123565,9844.739029
785.160630,153.219100,-1332.370696,9622.677246
785.160946,383.047749,-1110.308913,10510.924376
785.161261,612.876398,-222.061783,9474.636058
785.161577,1762.019645,-222.061783,10066.800811
785.161893,1608.800546,1332.370696,9696.697840
785.162209,1149.143247,1332.370696,8586.388927
785.162524,153.219100,-0.000000,9178.553681
785.162840,76.609550,-0.000000,9400.615463
785.163156,1302.362347,-74.020594,9844.739029
785.163472,1225.752797,-370.102971,9400.615463
785.163787,306.438199,814.226536,8808.450710
785.164103,-995.924147,-1702.473667,9474.636058
785.164419,-459.657299,-1184.329507,10436.903782
785.164735,-306.438199,-962.267725,9548.656652
785.165051,-383.047749,-1332.370696,10510.924376
785.165366,-229.828649,-814.226536,10436.903782
785.165682,-1532.190996,-888.247130,9104.533087
785.165998,-1072.533697,296.082377,9474.636058
785.166314,76.609550,-0.000000,8956.491898
785.166629,612.876398,-222.061783,8586.388927
785.166945,919.314598,370.102971,9030.512492
785.167261,0.000000,-1258.350101,8216.285956
785.167577,0.000000,-1850.514855,8586.388927
785.167893,76.609550,-1110.308913,9400.615463
785.168208,1225.752797,-962.267725,9622.677246
785.168524,1455.581446,814.226536,9326.594869
785.168840,383.047749,1110.308913,7698.141797
785.169156,-459.657299,222.061783,8290.306550
785.169471,536.266849,370.102971,9178.553681
785.169787,995.924147,-0.000000,9178.553681
785.170103,919.314598,-0.000000,9178.553681
785.170419,229.828649,-518.144159,9474.636058
785.170734,-306.438199,-2368.659014,10658.965565
785.171050,-612.876398,-592.164754,9770.718434
785.171366,229.828649,-148.041188,9992.780217
785.171682,689.485948,-0.000000,10214.842000
785.171998,459.657299,1406.391290,9696.697840
785.172313,76.609550,518.144159,8586.388927
785.172629,536.266849,296.082377,8734.430116
785.172945,766.095498,962.267725,9548.656652
785.173261,2145.067394,-370.102971,9104.533087
785.173576,1991.848295,740.205942,8956.491898
785.173892,1225.752797,-444.123565,9252.574275
785.174208,612.876398,-740.205942,10214.842000
785.174524,1072.533697,666.185348,9252.574275
785.174840,1302.362347,-592.164754,9622.677246
785.175155,2145.067394,-148.041188,10658.965565
785.175471,689.485948,-0.000000,9696.697840
785.175787,229.828649,-444.123565,9918.759623
785.176103,842.705048,-0.000000,9622.677246
785.176418,1532.190996,-0.000000,9252.574275
785.176734,2451.505594,444.123565,9474.636058
785.177050,1225.752797,-0.000000,9326.594869
785.177366,306.438199,-1036.288319,10362.883188
785.177681,383.047749,-1332.370696,10807.006753
785.177997,1072.533697,-814.226536,9844.739029
785.178313,2145.067394,-296.082377,10288.862594
785.178629,1149.143247,1258.350101,9696.697840
785.178945,766.095498,148.041188,9178.553681
785.179260,153.219100,444.123565,9252.574275
785.179576,1225.752797,1110.308913,9474.636058
785.179892,1378.971896,370.102971,8808.450710
785.180208,1225.752797,-222.061783,9548.656652
785.180523,-306.438199,-666.185348,9844.739029
785.180839,-689.485948,-2294.638420,11103.089130
785.181155,-536.266849,-666.185348,10214.842000
785.181471,0.000000,-666.185348,10140.821405
785.181787,-306.438199,222.061783,9400.615463
785.182102,-612.876398,1110.308913,8882.471304
785.182418,-536.266849,-814.226536,9474.636058
785.182734,-459.657299,-370.102971,10066.800811
785.183050,229.828649,592.164754,9474.636058
785.183365,612.876398,-888.247130,8660.409521
785.183681,306.438199,-814.226536,9252.574275
785.183997,-459.657299,-1628.453072,9844.739029
785.184313,-612.876398,-666.185348,9474.636058
785.184628,229.828649,592.164754,8660.409521
785.184944,612.876398,-0.000000,9326.594869
785.185260,1378.971896,518.144159,9030.512492
785.185576,306.438199,-222.061783,8956.491898
785.185892,0.000000,-0.000000,8808.450710
785.186207,536.266849,-0.000000,8438.347739
785.186523,1302.362347,-814.226536,8660.409521
785.186839,995.924147,-296.082377,9252.574275
785.187155,-689.485948,-740.205942,9104.533087
785.187470,-842.705048,-1406.391290,9770.718434
785.187786,-766.095498,-444.123565,9548.656652
785.188102,-306.438199,-370.102971,9622.677246
785.188418,-306.438199,222.061783,9622.677246
785.188734,0.000000,-0.000000,8808.450710
785.189049,-536.266849,-370.102971,9400.615463
785.189365,-689.485948,-148.041188,9474.636058
785.189681,229.828649,-296.082377,9178.553681
785.189997,1378.971896,-370.102971,9178.553681
785.190312,153.219100,-74.020594,8734.430116
785.190628,-306.438199,-1332.370696,10288.862594
785.190944,0.000000,-814.226536,10288.862594
785.191260,459.657299,370.102971,9400.615463
785.191575,1378.971896,370.102971,9474.636058
785.191891,842.705048,1036.288319,8882.471304
785.192207,689.485948,-0.000000,9474.636058
785.192523,766.095498,296.082377,9992.780217
785.192839,842.705048,740.205942,9104.533087
785.193154,2298.286494,222.061783,9474.636058
785.193470,1762.019645,592.164754,9178.553681
785.193786,995.924147,-296.082377,9252.574275
785.194102,0.000000,-1258.350101,10214.842000
785.194417,306.438199,-296.082377,10288.862594
785.194733,995.924147,-148.041188,10510.924376
785.195049,1378.971896,-0.000000,9992.780217
785.195365,766.095498,370.102971,9696.697840
785.195681,153.219100,-444.123565,9622.677246
785.195996,536.266849,444.123565,9474.636058
785.196312,1225.752797,296.082377,9474.636058
785.196628,1532.190996,-444.123565,9548.656652
785.196944,1302.362347,-0.000000,9326.594869
785.197259,306.438199,-1258.350101,10140.821405
785.197575,-229.828649,-1258.350101,10362.883188
785.197891,612.876398,-518.144159,9696.697840
785.198207,919.314598,-666.185348,9918.759623
785.198522,842.705048,518.144159,9474.636058
785.198838,0.000000,-74.020594,9178.553681
785.199154,-689.485948,-888.247130,9326.594869
785.199470,0.000000,-0.000000,8882.471304
785.199786,766.095498,-1184.329507,9770.718434
785.200101,383.047749,-962.267725,9548.656652
785.200417,-306.438199,-962.267725,9474.636058
785.200733,-995.924147,-1554.432478,9770.718434
785.201049,-536.266849,-1036.288319,10066.800811
785.201364,0.000000,-518.144159,9178.553681
785.201680,689.485948,148.041188,9696.697840
785.201996,459.657299,666.185348,8364.327145
785.202312,0.000000,-888.247130,8438.347739
785.202627,0.000000,666.185348,8142.265362
785.202943,1532.190996,-296.082377,8734.430116
785.203259,1225.752797,-370.102971,8364.327145
785.203575,919.314598,518.144159,8734.430116
785.203891,383.047749,-370.102971,8734.430116
785.204206,-459.657299,-222.061783,9178.553681
785.204522,229.828649,-0.000000,8956.491898
785.204838,919.314598,-370.102971,9918.759623
785.205154,612.876398,740.205942,9474.636058
785.205469,-306.438199,222.061783,8808.450710
785.205785,-689.485948,-0.000000,9178.553681
785.206101,-153.219100,814.226536,9030.512492
785.206417,842.705048,-222.061783,9326.594869
785.206733,919.314598,592.164754,9844.739029
785.207048,-383.047749,-814.226536,9326.594869
785.207364,-689.485948,-1702.473667,10436.903782
785.207680,-459.657299,370.102971,9548.656652
785.207996,459.657299,-370.102971,9696.697840
785.208311,1072.533697,-370.102971,11251.130318
785.208627,536.266849,592.164754,9918.759623
785.208943,153.219100,518.144159,9400.615463
785.209259,689.485948,1036.288319,8882.471304
785.209574,1455.581446,592.164754,9400.615463
785.209890,2374.896044,-74.020594,8956.491898
785.210206,1302.362347,-148.041188,9326.594869
785.210522,306.438199,-1628.453072,10584.944971
785.210837,306.438199,-1184.329507,10881.027347
785.211153,459.657299,814.226536,9770.718434
785.211469,1532.190996,-0.000000,9622.677246
785.211785,1149.143247,740.205942,10584.944971
785.212100,1149.143247,-0.000000,9326.594869
785.212416,0.000000,-592.164754,9252.574275
785.212732,76.609550,370.102971,10066.800811
785.213048,1302.362347,-1184.329507,10066.800811
785.213363,1302.362347,-296.082377,9622.677246
785.213679,153.219100,296.082377,9474.636058
785.213995,-612.876398,-1406.391290,9622.677246
785.214311,0.000000,-740.205942,10584.944971
785.214627,-153.219100,-370.102971,9992.780217
785.214942,383.047749,-296.082377,9474.636058
785.215258,383.047749,-148.041188,9326.594869
785.215574,-459.657299,-1184.329507,9622.677246
785.215890,229.828649,-740.205942,10066.800811
785.216205,229.828649,222.061783,8660.409521
785.216521,1225.752797,-666.185348,9104.533087
785.216837,612.876398,-222.061783,9844.739029
785.217153,0.000000,-888.247130,9770.718434
785.217468,-306.438199,-1184.329507,9474.636058
785.217784,-153.219100,-148.041188,9030.512492
785.218100,689.485948,-370.102971,9400.615463
785.218416,1378.971896,-74.020594,9252.574275
785.218731,306.438199,148.041188,8586.388927
785.219047,-306.438199,-518.144159,8734.430116
785.219363,153.219100,-370.102971,9400.615463
785.219679,536.266849,-1036.288319,9104.533087
785.219994,229.828649,-0.000000,9178.553681
785.220310,1072.533697,-74.020594,9326.594869
785.220626,0.000000,-888.247130,9326.594869
785.220942,-459.657299,-814.226536,9770.718434
785.221257,612.876398,-296.082377,9844.739029
785.221573,1225.752797,148.041188,8882.471304
785.221889,612.876398,1332.370696,8216.285956
785.222205,459.657299,592.164754,9030.512492
785.222520,0.000000,-0.000000,8808.450710
785.222836,536.266849,592.164754,9030.512492
785.223152,1149.143247,-74.020594,8808.450710
785.223468,995.924147,74.020594,9104.533087
785.223783,0.000000,-74.020594,9400.615463
785.224099,-689.485948,-814.226536,9622.677246
785.224415,-229.828649,-74.020594,9770.718434
785.224731,536.266849,-296.082377,10807.006753
785.225046,306.438199,296.082377,10214.842000
785.225362,0.000000,888.247130,9030.512492
785.225678,-229.828649,-222.061783,8956.491898
785.225994,-229.828649,-0.000000,9622.677246
785.226309,1225.752797,-0.000000,10362.883188
785.226625,1455.581446,222.061783,8956.491898
785.226941,1455.581446,1036.288319,9326.594869
785.227257,229.828649,-592.164754,9844.739029
785.227572,383.047749,-370.102971,10066.800811
785.227888,1072.533697,148.041188,10362.883188
785.228204,1532.190996,148.041188,10288.862594
785.228520,1838.629195,1258.350101,9844.739029
785.228835,689.485948,222.061783,9030.512492
785.229151,459.657299,148.041188,9992.780217
785.229467,1225.752797,666.185348,10140.821405
785.229783,1685.410096,444.123565,9252.574275
785.230098,1225.752797,666.185348,9474.636058
785.230414,229.828649,-518.144159,10658.965565
785.230730,-536.266849,-1332.370696,10436.903782
785.231046,-306.438199,222.061783,10881.027347
785.231361,229.828649,296.082377,9696.697840
785.231677,612.876398,296.082377,9844.739029
785.231993,0.000000,518.144159,9400.615463
785.232309,-612.876398,-888.247130,9844.739029
785.232624,-383.047749,-518.144159,9844.739029
785.232940,229.828649,-1332.370696,9770.718434
785.233256,612.876398,-1184.329507,9252.574275
785.233572,0.000000,-814.226536,9844.739029
785.233887,-306.438199,-962.267725,9030.512492
785.234203,-612.876398,-666.185348,9104.533087
785.234519,76.609550,-0.000000,9992.780217
785.234835,612.876398,-962.267725,9474.636058
785.235151,536.266849,-0.000000,8660.409521
785.235466,0.000000,-518.144159,8512.368333
785.235782,0.000000,-1036.288319,8882.471304
785.236098,689.485948,-0.000000,8660.409521
785.236414,459.657299,-0.000000,9252.574275
785.236729,612.876398,-222.061783,8512.368333
785.237045,0.000000,-592.164754,8364.327145
785.237361,-536.266849,-1406.391290,9104.533087
785.237677,-229.828649,-1184.329507,9992.780217
785.237992,689.485948,-814.226536,9548.656652
785.238308,766.095498,-888.247130,9178.553681
785.238624,0.000000,370.102971,8216.285956
785.238940,-153.219100,-444.123565,9104.533087
785.239255,229.828649,-74.020594,8364.327145
785.239571,612.876398,666.185348,8882.471304
785.239887,766.095498,-592.164754,9104.533087
785.240203,383.047749,-74.020594,8734.430116
785.240518,-383.047749,-1258.350101,9104.533087
785.240834,-459.657299,-1776.494261,9992.780217
785.241150,76.609550,-666.185348,9770.718434
785.241466,459.657299,-592.164754,9770.718434
785.241781,459.657299,444.123565,9104.533087
785.242097,0.000000,-666.185348,9622.677246
785.242413,76.609550,-888.247130,9918.759623
785.242729,306.438199,888.247130,8660.409521
785.243044,1149.143247,-74.020594,9400.615463
785.243360,1378.971896,-0.000000,9844.739029
785.243676,459.657299,-518.144159,9770.718434
785.243992,0.000000,-1258.350101,10584.944971
785.244307,0.000000,-444.123565,9844.739029
785.244623,1378.971896,-740.205942,10288.862594
785.244939,1685.410096,-370.102971,10140.821405
785.245255,612.876398,-0.000000,9844.739029
785.245570,459.657299,-1036.288319,10584.944971
785.245886,919.314598,-0.000000,9474.636058
785.246202,1225.752797,444.123565,9252.574275
785.246518,1608.800546,666.185348,9400.615463
785.246833,1072.533697,370.102971,9474.636058
785.247149,153.219100,-1258.350101,9844.739029
785.247465,-229.828649,-1480.411884,10066.800811
785.247781,0.000000,-1258.350101,10881.027347
785.248096,612.876398,-1258.350101,10584.944971
785.248412,995.924147,-518.144159,9696.697840
785.248728,76.609550,-148.041188,9400.615463
785.249044,-383.047749,-518.144159,9474.636058
785.249359,76.609550,148.041188,9252.574275
785.249675,842.705048,-222.061783,9400.615463
785.249991,1149.143247,-518.144159,9252.574275
785.250307,0.000000,-814.226536,9326.594869
785.250622,-383.047749,-2294.638420,9992.780217
785.250938,0.000000,-888.247130,9252.574275
785.251254,766.095498,222.061783,9400.615463
785.251570,1072.533697,-74.020594,8808.450710
785.251885,612.876398,962.267725,8216.285956
785.252201,0.000000,-0.000000,9178.553681
785.252517,-153.219100,-0.000000,9400.615463
785.252833,612.876398,814.226536,9178.553681
785.253148,842.705048,-370.102971,9104.533087
785.253464,383.047749,222.061783,9104.533087
785.253780,-306.438199,-1184.329507,10510.924376
785.254096,-689.485948,-740.205942,9400.615463
785.254411,0.000000,740.205942,9178.553681
785.254727,995.924147,-148.041188,9548.656652
785.255043,995.924147,1110.308913,8512.368333
785.255359,0.000000,370.102971,8734.430116
785.255675,-229.828649,-370.102971,9622.677246
785.255990,459.657299,962.267725,9030.512492
785.256306,1072.533697,740.205942,8512.368333
785.256622,1225.752797,740.205942,8290.306550
785.256938,229.828649,814.226536,9474.636058
785.257253,0.000000,-592.164754,9844.739029
785.257569,0.000000,592.164754,9178.553681
785.257885,76.609550,-296.082377,10362.883188
785.258201,766.095498,-370.102971,10288.862594
785.258516,383.047749,592.164754,9252.574275
785.258832,0.000000,-370.102971,9844.739029
785.259148,229.828649,-370.102971,9770.718434
785.259464,306.438199,444.123565,9622.677246
785.259779,1072.533697,-0.000000,9252.574275
785.260095,995.924147,592.164754,8734.430116
785.260411,383.047749,-666.185348,10288.862594
785.260727,0.000000,-740.205942,9696.697840
785.261042,536.266849,-148.041188,9696.697840
785.261358,1225.752797,-518.144159,10066.800811
785.261674,1378.971896,148.041188,9474.636058
785.261990,689.485948,444.123565,9696.697840
785.262305,383.047749,-222.061783,9696.697840
785.262621,919.314598,518.144159,9474.636058
785.262937,1302.362347,592.164754,9474.636058
785.263253,1302.362347,222.061783,9474.636058
785.263568,842.705048,-0.000000,9992.780217
785.263884,0.000000,-1110.308913,9696.697840
785.264200,-383.047749,-444.123565,9918.759623
785.264516,-306.438199,-962.267725,10807.006753
785.264831,689.485948,-740.205942,10214.842000
785.265147,0.000000,-0.000000,9474.636058
785.265463,-229.828649,-814.226536,10288.862594
785.265779,-306.438199,-888.247130,9844.739029
785.266094,229.828649,-0.000000,8882.471304
785.266410,536.266849,-592.164754,9326.594869
785.266726,919.314598,-962.267725,9030.512492
785.267042,0.000000,-1184.329507,9918.759623
785.267357,-306.438199,-1184.329507,9474.636058
785.267673,229.828649,-666.185348,9178.553681
785.267989,919.314598,-1110.308913,9400.615463
785.268305,612.876398,-148.041188,9178.553681
785.268620,842.705048,-0.000000,8734.430116
785.268936,153.219100,-222.061783,7846.182985
785.269252,459.657299,-0.000000,9104.533087
785.269568,1685.410096,-0.000000,8882.471304
785.269883,2145.067394,-148.041188,8956.491898
785.270199,689.485948,148.041188,8808.450710
785.270515,0.000000,-1332.370696,9400.615463
785.270831,306.438199,-592.164754,9326.594869
785.271146,536.266849,-370.102971,9696.697840
785.271462,766.095498,-0.000000,9770.718434
785.271778,1149.143247,888.247130,8660.409521
785.272094,76.609550,-0.000000,8660.409521
785.272409,-153.219100,148.041188,9252.574275
785.272725,1225.752797,666.185348,9178.553681
785.273041,1072.533697,-148.041188,8808.450710
785.273357,689.485948,888.247130,9178.553681
785.273672,-153.219100,-518.144159,9400.615463
785.273988,-383.047749,-1480.411884,9770.718434
785.274304,-306.438199,148.041188,9696.697840
785.274620,306.438199,-0.000000,9326.594869
785.274935,842.705048,444.123565,10066.800811
785.275251,229.828649,296.082377,9104.533087
785.275567,-306.438199,-0.000000,9326.594869
785.275883,-459.657299,148.041188,9474.636058
785.276198,536.266849,-74.020594,10066.800811
785.276514,842.705048,-0.000000,9030.512492
785.276830,459.657299,-0.000000,9474.636058
785.277146,-536.266849,-1332.370696,10436.903782
785.277462,76.609550,-444.123565,10436.903782
785.277777,459.657299,296.082377,10066.800811
785.278093,1685.410096,-148.041188,10214.842000
785.278409,689.485948,814.226536,9622.677246
785.278725,842.705048,-0.000000,9696.697840
785.279040,153.219100,-222.061783,9400.615463
785.279356,842.705048,888.247130,10066.800811
785.279672,1378.971896,222.061783,9474.636058
785.279988,1532.190996,666.185348,8734.430116
785.280303,459.657299,-74.020594,10066.800811
785.280619,-306.438199,-1554.432478,10584.944971
785.280935,-383.047749,-592.164754,9992.780217
785.281251,612.876398,-666.185348,10362.883188
785.281566,612.876398,-592.164754,9992.780217
785.281882,383.047749,-148.041188,10214.842000
785.282198,-306.438199,-518.144159,8956.491898
785.282514,-229.828649,518.144159,8956.491898
785.282829,842.705048,-296.082377,9696.697840
785.283145,1149.143247,-814.226536,8882.471304
785.283461,1072.533697,-370.102971,9326.594869
785.283777,153.219100,-1776.494261,9622.677246
785.284092,-306.438199,-1554.432478,9400.615463
785.284408,612.876398,-1036.288319,9918.759623
785.284724,842.705048,-814.226536,9252.574275
785.285040,919.314598,-444.123565,8734.430116
785.285355,153.219100,-222.061783,8660.409521
785.285671,0.000000,-0.000000,8512.368333
785.285987,306.438199,370.102971,9104.533087
785.286303,1302.362347,-296.082377,8882.471304
785.286618,919.314598,-296.082377,8586.388927
785.286934,0.000000,-1110.308913,9104.533087
785.287250,-536.266849,-1702.473667,10510.924376
785.287566,0.000000,-518.144159,9326.594869
785.287881,229.828649,-74.020594,10066.800811
785.288197,766.095498,962.267725,9178.553681
785.288513,229.828649,1110.308913,8882.471304
785.288829,76.609550,-0.000000,9104.533087
785.289144,-383.047749,-0.000000,9178.553681
785.289460,536.266849,-0.000000,10066.800811
785.289776,1685.410096,-74.020594,9474.636058
785.290092,842.705048,-0.000000,8660.409521
785.290407,76.609550,-888.247130,9326.594869
785.290723,-153.219100,-1258.350101,10362.883188
785.291039,536.266849,-296.082377,10362.883188
785.291355,1225.752797,-296.082377,9622.677246
785.291670,1072.533697,888.247130,8586.388927
785.291986,0.000000,296.082377,8956.491898
785.292302,0.000000,-518.144159,9474.636058
785.292618,995.924147,-592.164754,9252.574275
785.292933,1072.533697,-1036.288319,9474.636058
785.293249,1149.143247,-296.082377,9178.553681
785.293565,0.000000,-740.205942,9696.697840
785.293881,0.000000,-1924.535449,9992.780217
785.294196,-459.657299,-740.205942,9844.739029
785.294512,766.095498,-444.123565,9696.697840
785.294828,1149.143247,148.041188,9844.739029
785.295144,612.876398,666.185348,9326.594869
785.295459,0.000000,-740.205942,9178.553681
785.295775,383.047749,-444.123565,9178.553681
785.296091,612.876398,222.061783,9844.739029
785.296407,1532.190996,-518.144159,9030.512492
785.296722,842.705048,296.082377,8734.430116
785.297038,0.000000,-1258.350101,10362.883188
785.297354,-459.657299,-1406.391290,10288.862594
785.297670,0.000000,222.061783,10140.821405
785.297986,383.047749,370.102971,10066.800811
785.298301,689.485948,444.123565,8882.471304
785.298617,-306.438199,-0.000000,9622.677246
785.298933,-459.657299,-740.205942,9326.594869
785.299249,-459.657299,222.061783,9992.780217
785.299564,612.876398,222.061783,9252.574275
785.299880,459.657299,370.102971,8882.471304
785.300196,383.047749,-740.205942,10066.800811
785.300512,-459.657299,-1628.453072,9770.718434
785.300827,0.000000,-296.082377,10066.800811
785.301143,536.266849,-0.000000,9326.594869
785.301459,1302.362347,222.061783,9696.697840
785.301775,1149.143247,1036.288319,8882.471304
785.302090,536.266849,444.123565,9030.512492
785.302406,536.266849,592.164754,8512.368333
785.302722,1455.581446,814.226536,9474.636058
785.303038,1991.848295,666.185348,8586.388927
785.303353,1915.238745,370.102971,8660.409521
785.303669,612.876398,-222.061783,9474.636058
785.303985,76.609550,-666.185348,9400.615463
785.304301,153.219100,296.082377,10140.821405
785.304616,842.705048,444.123565,9918.759623
785.304932,153.219100,740.205942,9474.636058
785.305248,306.438199,370.102971,8734.430116
785.305564,-459.657299,148.041188,9030.512492
785.305879,229.828649,518.144159,9770.718434
785.306195,1072.533697,-518.144159,9474.636058
785.306511,1072.533697,-222.061783,8808.450710
785.306827,459.657299,222.061783,9104.533087
785.307142,0.000000,-814.226536,9252.574275
785.307458,0.000000,-148.041188,9696.697840
785.307774,459.657299,444.123565,10214.842000
785.308090,1149.143247,-0.000000,9252.574275
785.308405,459.657299,740.205942,8808.450710
785.308721,459.657299,-74.020594,9400.615463
785.309037,536.266849,-0.000000,8956.491898
785.309353,1302.362347,518.144159,9548.656652
785.309668,919.314598,-444.123565,9400.615463
785.309984,612.876398,296.082377,9326.594869
785.310300,76.609550,-370.102971,9696.697840
785.310616,-383.047749,-740.205942,9992.780217
785.310932,0.000000,370.102971,10436.903782
785.311247,995.924147,-74.020594,9918.759623
785.311563,1149.143247,444.123565,9400.615463
785.311879,536.266849,-74.020594,9770.718434
785.312195,459.657299,-814.226536,9326.594869
785.312511,459.657299,222.061783,9770.718434
785.312827,1072.533697,-74.020594,9548.656652
785.313143,1378.971896,-0.000000,9252.574275
785.313458,536.266849,-148.041188,9622.677246
785.313774,-306.438199,-1554.432478,9992.780217
785.314090,-306.438199,-888.247130,10214.842000
785.314406,153.219100,-444.123565,9844.739029
785.314722,612.876398,-444.123565,9474.636058
785.315038,383.047749,-296.082377,9696.697840
785.315353,-229.828649,-1258.350101,9918.759623
785.315669,-459.657299,-1110.308913,9252.574275
785.315985,153.219100,-222.061783,9400.615463
785.316301,536.266849,-1258.350101,9252.574275
785.316617,306.438199,-1480.411884,9252.574275
785.316933,-842.705048,-2590.720797,10214.842000
785.317248,-689.485948,-2516.700203,10140.821405
785.317564,-306.438199,-1184.329507,10066.800811
785.317880,383.047749,-814.226536,9622.677246
785.318196,459.657299,-296.082377,8882.471304
785.318512,76.609550,-518.144159,9178.553681
785.318828,-536.266849,-1110.308913,9178.553681
785.319143,-76.609550,-222.061783,8808.450710
785.319459,766.095498,-148.041188,8216.285956
785.319775,1149.143247,-888.247130,8586.388927
785.320091,766.095498,-740.205942,9844.739029
785.320407,0.000000,-1406.391290,9178.553681
785.320723,-306.438199,-370.102971,9326.594869
785.321038,306.438199,-0.000000,9696.697840
785.321354,842.705048,-370.102971,8882.471304
785.321670,1149.143247,666.185348,8586.388927
785.321986,0.000000,-0.000000,9548.656652
785.322302,229.828649,-0.000000,8586.388927
785.322618,459.657299,740.205942,9030.512492
785.322933,995.924147,-0.000000,9622.677246
785.323249,536.266849,370.102971,9104.533087
785.323565,306.438199,-370.102971,9548.656652
785.323881,-459.657299,-814.226536,10214.842000
785.324197,229.828649,370.102971,9548.656652
785.324513,612.876398,-0.000000,10066.800811
785.324828,1685.410096,666.185348,9178.553681
785.325144,536.266849,740.205942,9474.636058
785.325460,689.485948,-222.061783,9696.697840
785.325776,689.485948,666.185348,9548.656652
785.326092,1225.752797,814.226536,9474.636058
785.326408,2068.457845,740.205942,8734.430116
785.326723,1762.019645,370.102971,8734.430116
785.327039,612.876398,-296.082377,9474.636058
785.327355,459.657299,-74.020594,9992.780217
785.327671,766.095498,-0.000000,10584.944971
785.327987,1762.019645,296.082377,10436.903782
785.328303,1302.362347,1184.329507,9326.594869
785.328618,689.485948,-222.061783,9844.739029
785.328934,459.657299,370.102971,9474.636058
785.329250,1225.752797,1184.329507,9696.697840
785.329566,1762.019645,370.102971,8734.430116
785.329882,1225.752797,592.164754,8882.471304
785.330198,306.438199,-666.185348,9918.759623
785.330513,-153.219100,-1332.370696,10436.903782
785.330829,-459.657299,-148.041188,10436.903782
785.331145,536.266849,-296.082377,10732.986159
785.331461,919.314598,814.226536,9622.677246
785.331777,229.828649,1480.411884,9030.512492
785.332093,76.609550,-0.000000,9918.759623
785.332408,76.609550,-0.000000,8512.368333
785.332724,919.314598,592.164754,9474.636058
785.333040,1378.971896,-0.000000,9622.677246
785.333356,689.485948,222.061783,8882.471304
785.333672,76.609550,-1110.308913,9992.780217
785.333988,-536.266849,-814.226536,9918.759623
785.334303,153.219100,444.123565,9770.718434
785.334619,612.876398,74.020594,9104.533087
785.334935,153.219100,444.123565,9252.574275
785.335251,-306.438199,-370.102971,10140.821405
785.335567,306.438199,-888.247130,9474.636058
785.335883,306.438199,666.185348,8808.450710
785.336198,229.828649,-74.020594,9326.594869
785.336514,766.095498,-222.061783,9548.656652
785.336830,459.657299,-0.000000,9474.636058
785.337146,-766.095498,-592.164754,9104.533087
785.337462,0.000000,-0.000000,9252.574275
785.337778,536.266849,222.061783,9622.677246
785.338094,1302.362347,-148.041188,9030.512492
785.338409,1072.533697,-0.000000,9030.512492
785.338725,306.438199,-518.144159,9400.615463
785.339041,76.609550,-148.041188,9178.553681
785.339357,766.095498,296.082377,8660.409521
785.339673,1302.362347,-74.020594,8882.471304
785.339989,153.219100,-518.144159,9178.553681
785.340304,-766.095498,-1406.391290,10066.800811
785.340620,-766.095498,-1184.329507,9992.780217
785.340936,-306.438199,-740.205942,9252.574275
785.341252,459.657299,-1110.308913,9770.718434
785.341568,383.047749,-814.226536,9030.512492
785.341884,76.609550,-1110.308913,9844.739029
785.342199,-306.438199,-888.247130,9326.594869
785.342515,76.609550,-444.123565,9104.533087
785.342831,919.314598,-222.061783,9178.553681
785.343147,995.924147,-592.164754,9030.512492
785.343463,842.705048,-814.226536,9252.574275
785.343779,383.047749,-1702.473667,9548.656652
785.344094,306.438199,-370.102971,9030.512492
785.344410,842.705048,-370.102971,9474.636058
785.344726,1608.800546,-1184.329507,9548.656652
785.345042,995.924147,148.041188,9030.512492
785.345358,459.657299,-74.020594,9474.636058
785.345674,689.485948,-0.000000,8290.306550
785.345989,306.438199,-0.000000,9622.677246
785.346305,1302.362347,-814.226536,10288.862594
785.346621,766.095498,-222.061783,9548.656652
785.346937,383.047749,-296.082377,9622.677246
785.347253,-919.314598,-888.247130,10140.821405
785.347569,306.438199,-296.082377,10436.903782
785.347884,689.485948,-148.041188,9400.615463
785.348200,842.705048,296.082377,9770.718434
785.348516,612.876398,-518.144159,9696.697840
785.348832,0.000000,-296.082377,9104.533087
785.349148,459.657299,444.123565,9030.512492
785.349464,1072.533697,-222.061783,9548.656652
785.349779,1302.362347,-0.000000,9844.739029
785.350095,995.924147,-0.000000,9030.512492
785.350411,-306.438199,-740.205942,9400.615463
785.350727,612.876398,-888.247130,9548.656652
785.351043,153.219100,-666.185348,9178.553681
785.351359,1225.752797,-296.082377,9474.636058
785.351674,1225.752797,666.185348,9474.636058
785.351990,153.219100,-370.102971,9178.553681
785.352306,153.219100,-0.000000,9104.533087
785.352622,689.485948,296.082377,9918.759623
785.352938,1072.533697,-74.020594,9104.533087
785.353254,842.705048,814.226536,8734.430116
785.353569,0.000000,-222.061783,9104.533087
785.353885,-153.219100,-1184.329507,9474.636058
785.354201,0.000000,-0.000000,10066.800811
785.354517,383.047749,-74.020594,9622.677246
785.354833,306.438199,666.185348,9400.615463
785.355149,612.876398,888.247130,9474.636058
785.355464,-689.485948,148.041188,9252.574275
785.355780,-536.266849,1406.391290,9696.697840
785.356096,459.657299,370.102971,10140.821405
785.356412,689.485948,666.185348,9104.533087
785.356728,229.828649,518.144159,9104.533087
785.357044,-306.438199,-1036.288319,10436.903782
785.357359,0.000000,-370.102971,10214.842000
785.357675,459.657299,370.102971,9622.677246
785.357991,766.095498,444.123565,9622.677246
785.358307,689.485948,1184.329507,9770.718434
785.358623,229.828649,148.041188,8734.430116
785.358939,-153.219100,148.041188,8882.471304
785.359254,689.485948,222.061783,10658.965565
785.359570,1225.752797,-592.164754,9696.697840
785.359886,1378.971896,-0.000000,9104.533087
785.360202,0.000000,-888.247130,9770.718434
785.360518,0.000000,-1184.329507,10436.903782
785.360834,0.000000,-74.020594,9844.739029
785.361149,459.657299,-592.164754,9918.759623
785.361465,1149.143247,-148.041188,9548.656652
785.361781,842.705048,-296.082377,9474.636058
785.362097,76.609550,-1110.308913,9104.533087
785.362413,153.219100,-814.226536,9326.594869
785.362729,1225.752797,-1036.288319,9622.677246
785.363045,1608.800546,-0.000000,8660.409521
785.363360,689.485948,-370.102971,8586.388927
785.363676,0.000000,-1998.556043,9474.636058
785.363992,-153.219100,-1628.453072,9992.780217
785.364308,0.000000,-962.267725,9030.512492
785.364624,153.219100,-1554.432478,9400.615463
785.364940,76.609550,-1332.370696,9696.697840
785.365255,-612.876398,-1924.535449,9918.759623
785.365571,-766.095498,-1480.411884,9474.636058
785.365887,-689.485948,-0.000000,8882.471304
785.366203,0.000000,-1110.308913,8512.368333
785.366519,536.266849,-1184.329507,8808.450710
785.366835,-153.219100,-1850.514855,9622.677246
785.367150,-689.485948,-2220.617826,9548.656652
785.367466,0.000000,-962.267725,9104.533087
785.367782,689.485948,-444.123565,9326.594869
785.368098,1149.143247,-370.102971,9030.512492
785.368414,766.095498,592.164754,8808.450710
785.368730,766.095498,518.144159,8364.327145
785.369045,766.095498,592.164754,8290.306550
785.369361,1532.190996,518.144159,9252.574275
785.369677,1532.190996,-222.061783,8808.450710
785.369993,842.705048,-148.041188,9474.636058
785.370309,0.000000,-148.041188,9844.739029
785.370625,-229.828649,-0.000000,9400.615463
785.370940,995.924147,1628.453072,9326.594869
785.371256,766.095498,1036.288319,9178.553681
785.371572,689.485948,888.247130,9400.615463
785.371888,459.657299,814.226536,9030.512492
785.372204,-612.876398,444.123565,9326.594869
785.372520,536.266849,1776.494261,9326.594869
785.372835,1378.971896,592.164754,9252.574275
785.373151,919.314598,962.267725,8512.368333
785.373467,0.000000,-518.144159,10288.862594
785.373783,-229.828649,-1258.350101,11177.109724
785.374099,-153.219100,444.123565,9474.636058
785.374415,0.000000,518.144159,10288.862594
785.374730,766.095498,-148.041188,10140.821405
785.375046,766.095498,888.247130,10436.903782
785.375362,153.219100,962.267725,9696.697840
785.375678,0.000000,962.267725,9400.615463
785.375994,842.705048,592.164754,9696.697840
785.376310,1455.581446,-222.061783,9844.739029
785.376625,1225.752797,814.226536,9770.718434
785.376941,689.485948,-222.061783,9844.739029
785.377257,306.438199,-74.020594,9622.677246
785.377573,536.266849,370.102971,9918.759623
785.377889,1225.752797,-518.144159,10362.883188
785.378205,1685.410096,444.123565,9696.697840
785.378520,0.000000,370.102971,10140.821405
785.378836,0.000000,-74.020594,9548.656652
785.379152,766.095498,1110.308913,9696.697840
785.379468,995.924147,814.226536,9622.677246
785.379784,1072.533697,74.020594,9178.553681
785.380100,459.657299,-0.000000,10510.924376
785.380415,-459.657299,-814.226536,10288.862594
785.380731,-306.438199,222.061783,9918.759623
785.381047,612.876398,-0.000000,9622.677246
785.381363,1302.362347,-518.144159,9696.697840
785.381679,612.876398,1110.308913,9474.636058
785.381995,76.609550,-370.102971,9474.636058
785.382310,0.000000,-222.061783,8734.430116
785.382626,76.609550,296.082377,9178.553681
785.382942,842.705048,-962.267725,8660.409521
785.383258,766.095498,-518.144159,9030.512492
785.383574,-153.219100,-740.205942,9252.574275
785.383890,-612.876398,-1554.432478,9030.512492
785.384205,0.000000,-1036.288319,9622.677246
785.384521,459.657299,-1554.432478,9696.697840
785.384837,306.438199,-148.041188,8808.450710
785.385153,383.047749,-518.144159,8586.388927
785.385469,-306.438199,-1554.432478,8956.491898
785.385785,0.000000,-148.041188,9030.512492
785.386101,842.705048,-1332.370696,9104.533087
785.386416,1072.533697,-1184.329507,9030.512492
785.386732,229.828649,-444.123565,8882.471304
785.387048,-153.219100,-1850.514855,8364.327145
785.387364,-306.438199,-1332.370696,9474.636058
785.387680,153.219100,-666.185348,10066.800811
785.387996,919.314598,-666.185348,8734.430116
785.388311,306.438199,-0.000000,8512.368333
785.388627,0.000000,-444.123565,9400.615463
785.388943,0.000000,-296.082377,8290.306550
785.389259,459.657299,-222.061783,9104.533087
785.389575,919.314598,-1258.350101,9252.574275
785.389891,842.705048,-814.226536,9252.574275
785.390206,-76.609550,-1258.350101,9548.656652
785.390522,-459.657299,-1628.453072,10140.821405
785.390838,0.000000,-592.164754,10214.842000
785.391154,842.705048,-592.164754,9918.759623
785.391470,842.705048,148.041188,9474.636058
785.391786,919.314598,-222.061783,9696.697840
785.392101,229.828649,-740.205942,9696.697840
785.392417,153.219100,296.082377,9326.594869
785.392733,842.705048,-0.000000,9770.718434
785.393049,1532.190996,370.102971,9474.636058
785.393365,919.314598,370.102971,9474.636058
785.393681,229.828649,-666.185348,9770.718434
785.393996,306.438199,-74.020594,9844.739029
785.394312,459.657299,-518.144159,10066.800811
785.394628,1532.190996,-296.082377,10288.862594
785.394944,1685.410096,888.247130,9622.677246
785.395260,459.657299,222.061783,9548.656652
785.395576,689.485948,814.226536,9474.636058
785.395891,995.924147,740.205942,9474.636058
785.396207,1608.800546,592.164754,9474.636058
785.396523,1149.143247,-0.000000,9252.574275
785.396839,-229.828649,-740.205942,9992.780217
785.397155,-383.047749,-888.247130,10658.965565
785.397471,-459.657299,-444.123565,10510.924376
785.397786,0.000000,-148.041188,9918.759623
785.398102,229.828649,-0.000000,10066.800811
785.398418,0.000000,444.123565,10214.842000
785.398734,-766.095498,-296.082377,9326.594869
785.399050,-383.047749,222.061783,9326.594869
785.399366,919.314598,-296.082377,9696.697840
785.399681,919.314598,-370.102971,9104.533087
785.399997,459.657299,-666.185348,9400.615463
785.400313,-229.828649,-2146.597232,10066.800811
785.400629,-153.219100,-1702.473667,10362.883188
785.400945,229.828649,-666.185348,9548.656652
785.401261,383.047749,-74.020594,8808.450710
785.401576,536.266849,370.102971,8734.430116
785.401892,383.047749,-222.061783,9548.656652
785.402208,0.000000,-0.000000,8364.327145
785.402524,536.266849,444.123565,9104.533087
785.402840,1225.752797,-814.226536,8734.430116
785.403156,995.924147,-222.061783,9104.533087
785.403471,0.000000,-1110.308913,9400.615463
785.403787,-459.657299,-1258.350101,9696.697840
785.404103,0.000000,296.082377,9252.574275
785.404419,383.047749,148.041188,8882.471304
785.404735,766.095498,592.164754,9474.636058
785.405051,383.047749,666.185348,9474.636058
785.405366,76.609550,-0.000000,8882.471304
785.405682,536.266849,1258.350101,9252.574275
785.405998,689.485948,1184.329507,9474.636058
785.406314,1455.581446,1406.391290,8142.265362
785.406630,1225.752797,1258.350101,8660.409521
785.406946,153.219100,-0.000000,9252.574275
785.407261,-383.047749,-148.041188,10140.821405
785.407577,229.828649,296.082377,10140.821405
785.407893,995.924147,-0.000000,9622.677246
785.408213,689.485948,592.164754,9696.697840
785.408529,536.266849,-0.000000,9696.697840
785.408845,0.000000,370.102971,9252.574275
785.409161,612.876398,1850.514855,9252.574275
785.409476,1302.362347,1110.308913,9548.656652
785.409792,1302.362347,296.082377,9474.636058
785.410108,766.095498,-0.000000,9548.656652
785.410424,0.000000,-888.247130,9844.739029
785.410740,229.828649,-444.123565,10214.842000
785.411056,919.314598,-518.144159,10288.862594
785.411371,1072.533697,-0.000000,9770.718434
785.411687,1608.800546,-0.000000,9770.718434
785.412003,229.828649,-592.164754,9696.697840
785.412319,383.047749,-222.061783,9326.594869
785.412635,919.314598,222.061783,9474.636058
785.412951,1455.581446,-740.205942,9548.656652
785.413267,842.705048,-518.144159,9770.718434
785.413582,153.219100,-1480.411884,9622.677246
785.413898,-919.314598,-1554.432478,10584.944971
785.414214,-383.047749,-1406.391290,11251.130318
785.414530,-306.438199,-1332.370696,10584.944971
785.414846,0.000000,-222.061783,9844.739029
785.415162,-383.047749,-592.164754,9918.759623
785.415477,-459.657299,-1554.432478,9770.718434
785.415793,306.438199,-666.185348,9474.636058
785.416109,842.705048,-1184.329507,9326.594869
785.416425,842.705048,-1036.288319,9252.574275
785.416741,842.705048,-1110.308913,9474.636058
785.417057,0.000000,-1998.556043,9030.512492
785.417372,76.609550,-962.267725,8882.471304
785.417688,919.314598,-1406.391290,10288.862594
785.418004,1378.971896,-814.226536,9104.533087
785.418320,766.095498,-0.000000,8438.347739
785.418636,229.828649,-444.123565,8216.285956
785.418952,306.438199,-74.020594,8438.347739
785.419267,459.657299,-370.102971,8586.388927
785.419583,689.485948,-1332.370696,10066.800811
785.419899,306.438199,-740.205942,9696.697840
785.420215,0.000000,-888.247130,8882.471304
785.420531,-536.266849,-814.226536,9104.533087
785.420847,0.000000,-666.185348,9622.677246
785.421163,689.485948,-444.123565,9770.718434
785.421478,383.047749,518.144159,9252.574275
785.421794,76.609550,296.082377,8956.491898
785.422110,0.000000,222.061783,8364.327145
785.422426,842.705048,592.164754,8882.471304
785.422742,766.095498,-0.000000,9104.533087
785.423058,1072.533697,222.061783,8956.491898
785.423373,995.924147,666.185348,9326.594869
785.423689,-459.657299,-222.061783,9178.553681
785.424005,0.000000,-148.041188,9696.697840
785.424321,995.924147,-0.000000,10214.842000
785.424637,536.266849,666.185348,8882.471304
785.424953,383.047749,222.061783,9474.636058
785.425268,0.000000,-1036.288319,10362.883188
785.425584,-306.438199,370.102971,8882.471304
785.425900,842.705048,296.082377,9252.574275
785.426216,842.705048,-296.082377,9770.718434
785.426532,383.047749,-74.020594,9548.656652
785.426848,0.000000,-740.205942,10362.883188
785.427163,0.000000,-1184.329507,9770.718434
785.427479,0.000000,-296.082377,10584.944971
785.427795,1302.362347,-296.082377,11029.068536
785.428111,1149.143247,592.164754,8734.430116
785.428427,919.314598,370.102971,9918.759623
785.428743,995.924147,444.123565,9326.594869
785.429059,1455.581446,814.226536,9252.574275
785.429374,1378.971896,148.041188,9844.739029
785.429690,1302.362347,444.123565,9400.615463
785.430006,995.924147,-0.000000,9992.780217
785.430322,229.828649,-666.185348,10510.924376
785.430638,-459.657299,-0.000000,9030.512492
785.430954,689.485948,222.061783,10436.903782
785.431269,1378.971896,-0.000000,10881.027347
785.431585,306.438199,740.205942,8956.491898
785.431901,-612.876398,-148.041188,9992.780217
785.432217,0.000000,-1110.308913,9992.780217
785.432533,0.000000,-148.041188,10214.842000
785.432849,689.485948,-370.102971,10362.883188
785.433164,459.657299,-370.102971,9770.718434
785.433480,-229.828649,-222.061783,9400.615463
785.433796,-383.047749,-666.185348,8956.491898
785.434112,459.657299,-814.226536,10288.862594
785.434428,842.705048,-592.164754,10288.862594
785.434744,1455.581446,-0.000000,9030.512492
785.435059,1302.362347,518.144159,7920.203579
785.435375,536.266849,-74.020594,8956.491898
785.435691,1225.752797,518.144159,8956.491898
785.436007,1455.581446,888.247130,7698.141797
785.436323,1455.581446,-0.000000,8438.347739
785.436639,919.314598,-888.247130,9252.574275
785.436955,0.000000,-1480.411884,9030.512492
785.437270,-383.047749,-1184.329507,9992.780217
785.437586,229.828649,-740.205942,10066.800811
785.437902,459.657299,-222.061783,9178.553681
785.438218,383.047749,518.144159,8364.327145
785.438534,-536.266849,444.123565,8882.471304
785.438850,-459.657299,222.061783,8956.491898
785.439165,0.000000,296.082377,9030.512492
785.439481,612.876398,-888.247130,9474.636058
785.439797,306.438199,-814.226536,9400.615463
785.440113,0.000000,222.061783,9178.553681
785.440429,-689.485948,-0.000000,8438.347739
785.440745,-383.047749,296.082377,9770.718434
785.441060,536.266849,-0.000000,10288.862594
785.441376,689.485948,296.082377,9326.594869
785.441692,153.219100,666.185348,8660.409521
785.442008,-229.828649,-444.123565,9548.656652
785.442324,76.609550,296.082377,9474.636058
785.442640,1149.143247,296.082377,9104.533087
785.442955,1685.410096,444.123565,9474.636058
785.443271,1149.143247,1036.288319,9104.533087
785.443587,459.657299,-222.061783,9622.677246
785.443903,-229.828649,222.061783,9548.656652
785.444219,536.266849,-0.000000,10288.862594
785.444535,1455.581446,-222.061783,10362.883188
785.444851,1532.190996,1036.288319,9622.677246
785.445166,306.438199,222.061783,9770.718434
785.445482,306.438199,518.144159,9400.615463
785.445798,842.705048,222.061783,9696.697840
785.446114,1455.581446,444.123565,9770.718434
785.446430,995.924147,1110.308913,9474.636058
785.446746,153.219100,-0.000000,10140.821405
785.447061,153.219100,-1036.288319,10584.944971
785.447377,689.485948,-74.020594,10214.842000
785.447693,766.095498,-74.020594,10584.944971
785.448009,1685.410096,592.164754,10140.821405
785.448325,919.314598,-0.000000,9030.512492
785.448641,229.828649,-370.102971,9400.615463
785.448956,229.828649,-370.102971,9992.780217
785.449272,1072.533697,-222.061783,10214.842000
785.449588,1608.800546,-592.164754,8882.471304
785.449904,459.657299,-962.267725,9252.574275
785.450220,-153.219100,-1850.514855,10807.006753
785.450536,-383.047749,-1702.473667,9992.780217
785.450851,306.438199,-962.267725,10066.800811
785.451167,536.266849,-888.247130,10066.800811
785.451483,842.705048,-296.082377,8586.388927
785.451799,383.047749,-740.205942,9030.512492
785.452115,0.000000,-1110.308913,9030.512492
785.452431,536.266849,-666.185348,9400.615463
785.452747,1302.362347,-814.226536,9252.574275
785.453062,766.095498,-370.102971,8660.409521
785.453378,612.876398,-666.185348,8956.491898
785.453694,-153.219100,-1406.391290,9104.533087
785.454010,229.828649,-666.185348,9178.553681
785.454326,766.095498,-296.082377,9178.553681
785.454642,842.705048,-296.082377,9326.594869
785.454957,766.095498,148.041188,8512.368333
785.455273,-459.657299,-666.185348,8882.471304
785.455589,-459.657299,-222.061783,9252.574275
785.455905,76.609550,-0.000000,9326.594869
785.456221,229.828649,222.061783,9104.533087
785.456537,76.609550,-370.102971,9104.533087
785.456852,-766.095498,-1258.350101,9696.697840
785.457168,-766.095498,-666.185348,9622.677246
785.457484,0.000000,-0.000000,9178.553681
785.457800,459.657299,-222.061783,9474.636058
785.458116,842.705048,-0.000000,9992.780217
785.458432,153.219100,-222.061783,8734.430116
785.458747,-229.828649,-370.102971,8956.491898
785.459063,842.705048,-0.000000,9696.697840
785.459379,1455.581446,-74.020594,9474.636058
785.459695,1532.190996,370.102971,8882.471304
785.460011,919.314598,370.102971,9326.594869
785.460327,229.828649,-888.247130,8882.471304
785.460643,612.876398,-592.164754,9844.739029
785.460958,919.314598,-296.082377,9696.697840
785.461274,842.705048,222.061783,9030.512492
785.461590,459.657299,-0.000000,9474.636058
785.461906,0.000000,-1036.288319,10140.821405
785.462222,0.000000,-592.164754,9696.697840
785.462538,306.438199,-444.123565,9918.759623
785.462853,76.609550,-888.247130,9844.739029
785.463169,0.000000,-666.185348,9918.759623
785.463485,-459.657299,-962.267725,10881.027347
785.463801,-689.485948,-592.164754,9400.615463
785.464117,-229.828649,148.041188,10214.842000
785.464433,229.828649,-518.144159,10881.027347
785.464748,76.609550,592.164754,9400.615463
785.465064,76.609550,-74.020594,9178.553681
785.465380,0.000000,-814.226536,9326.594869
785.465696,76.609550,-74.020594,9622.677246
785.466012,1072.533697,-518.144159,9474.636058
785.466328,995.924147,-0.000000,9400.615463
785.466643,842.705048,-888.247130,9696.697840
785.466959,0.000000,-1480.411884,9770.718434
785.467275,0.000000,-222.061783,9696.697840
785.467591,612.876398,518.144159,9474.636058
785.467907,1149.143247,814.226536,9474.636058
785.468223,842.705048,1480.411884,9104.533087
785.468539,842.705048,222.061783,9326.594869
785.468854,536.266849,740.205942,8808.450710
785.469170,536.266849,888.247130,8956.491898
785.469486,1302.362347,-444.123565,9696.697840
785.469802,1302.362347,-0.000000,9400.615463
785.470118,229.828649,-666.185348,9844.739029
785.470434,459.657299,814.226536,9104.533087
785.470749,995.924147,814.226536,9622.677246
785.471065,1378.971896,1110.308913,9992.780217
785.471381,1685.410096,1998.556043,8882.471304
785.471697,1762.019645,888.247130,8956.491898
785.472013,612.876398,518.144159,8956.491898
785.472329,842.705048,1554.432478,9326.594869
785.472644,1532.190996,592.164754,9178.553681
785.472960,1685.410096,740.205942,8586.388927
785.473276,306.438199,-148.041188,9918.759623
785.473592,0.000000,-1036.288319,9770.718434
785.473908,229.828649,-0.000000,9770.718434
785.474224,229.828649,-74.020594,10066.800811
785.474539,766.095498,-74.020594,9918.759623
785.474855,1455.581446,370.102971,9474.636058
785.475171,0.000000,-370.102971,9622.677246
785.475487,153.219100,-0.000000,9252.574275
785.475803,995.924147,-0.000000,9178.553681
785.476119,1302.362347,-370.102971,8956.491898
785.476434,766.095498,148.041188,8882.471304
785.476750,383.047749,-1110.308913,9474.636058
785.477066,0.000000,-1332.370696,9844.739029
785.477382,229.828649,-222.061783,10066.800811
785.477698,459.657299,-0.000000,9844.739029
785.478014,536.266849,-0.000000,9474.636058
785.478330,0.000000,222.061783,9030.512492
785.478645,-153.219100,-222.061783,9252.574275
785.478961,0.000000,296.082377,9178.553681
785.479277,766.095498,-370.102971,9696.697840
785.479593,383.047749,-814.226536,9474.636058
785.479909,76.609550,-666.185348,9844.739029
785.480225,-1225.752797,-1554.432478,9622.677246
785.480540,-842.705048,-1184.329507,10140.821405
785.480856,-153.219100,-370.102971,10436.903782
785.481172,0.000000,-518.144159,10066.800811
785.481488,76.609550,296.082377,9474.636058
785.481804,-229.828649,-666.185348,9400.615463
785.482120,-536.266849,-666.185348,9178.553681
785.482435,995.924147,-740.205942,9770.718434
785.482751,689.485948,-740.205942,9400.615463
785.483067,842.705048,-518.144159,9252.574275
785.483383,-153.219100,-1628.453072,9474.636058
785.483699,-383.047749,-1628.453072,9474.636058
785.484015,0.000000,-370.102971,9622.677246
785.484330,153.219100,-1110.308913,10140.821405
785.484646,536.266849,-444.123565,9918.759623
785.484962,536.266849,-296.082377,8956.491898
785.485278,0.000000,-518.144159,8882.471304
785.485594,0.000000,-370.102971,8660.409521
785.485910,995.924147,-814.226536,9030.512492
785.486226,842.705048,-962.267725,9252.574275
785.486541,229.828649,-814.226536,9104.533087
785.486857,0.000000,-1776.494261,9918.759623
785.487173,0.000000,-518.144159,9252.574275
785.487489,0.000000,-666.185348,9474.636058
785.487805,536.266849,-814.226536,9992.780217
785.488121,612.876398,666.185348,8734.430116
785.488436,0.000000,-0.000000,8956.491898
785.488752,0.000000,-0.000000,9474.636058
785.489068,842.705048,296.082377,7920.203579
785.489384,689.485948,74.020594,8956.491898
785.489700,689.485948,-592.164754,9474.636058
785.490016,76.609550,-1184.329507,9622.677246
785.490331,0.000000,-1184.329507,10066.800811
785.490647,-306.438199,-296.082377,9326.594869
785.490963,383.047749,-296.082377,10066.800811
785.491279,1149.143247,-0.000000,9548.656652
785.491595,689.485948,518.144159,9030.512492
785.491911,306.438199,-370.102971,9474.636058
785.492226,1072.533697,222.061783,9252.574275
785.492542,1225.752797,222.061783,9326.594869
785.492858,1532.190996,-0.000000,9474.636058
785.493174,1072.533697,592.164754,9178.553681
785.493490,536.266849,-666.185348,9548.656652
785.493806,1072.533697,-444.123565,9992.780217
785.494122,1225.752797,370.102971,9844.739029
785.494437,1378.971896,296.082377,9992.780217
785.494753,1608.800546,1036.288319,9696.697840
785.495069,612.876398,814.226536,9622.677246
785.495385,306.438199,888.247130,10140.821405
785.495701,1455.581446,1776.494261,8882.471304
785.496017,1838.629195,1258.350101,8956.491898
785.496332,1378.971896,666.185348,9400.615463
785.496648,383.047749,-444.123565,9992.780217
785.496964,0.000000,-1480.411884,10732.986159
785.497280,76.609550,-0.000000,10362.883188
785.497596,0.000000,296.082377,10288.862594
785.497912,229.828649,296.082377,10881.027347
785.498227,383.047749,962.267725,10140.821405
785.498543,-229.828649,444.123565,9474.636058
785.498859,-306.438199,-0.000000,9696.697840
785.499175,612.876398,-444.123565,9474.636058
785.499491,689.485948,-814.226536,9326.594869
785.499807,689.485948,-888.247130,9548.656652
785.500122,-229.828649,-1480.411884,9844.739029
785.500438,-459.657299,-740.205942,9844.739029
785.500754,-306.438199,-148.041188,9474.636058
785.501070,536.266849,-0.000000,9326.594869
785.501386,306.438199,370.102971,9104.533087
785.501702,0.000000,222.061783,8438.347739
785.502018,-459.657299,-518.144159,9252.574275
785.502333,536.266849,-0.000000,9030.512492
785.502649,995.924147,-222.061783,8290.306550
785.502965,229.828649,-296.082377,9474.636058
785.503281,0.000000,-1036.288319,9400.615463
785.503597,-612.876398,-1184.329507,9400.615463
785.503913,-919.314598,-518.144159,10066.800811
785.504228,-383.047749,222.061783,9548.656652
785.504544,459.657299,74.020594,9400.615463
785.504860,76.609550,592.164754,9178.553681
785.505176,-383.047749,-0.000000,8956.491898
785.505492,-383.047749,-74.020594,8882.471304
785.505808,306.438199,296.082377,9252.574275
785.506123,229.828649,-370.102971,9252.574275
785.506439,306.438199,-296.082377,9770.718434
785.506755,0.000000,-962.267725,9252.574275
785.507071,-383.047749,-888.247130,9400.615463
785.507387,229.828649,-222.061783,11029.068536
785.507703,689.485948,-444.123565,9770.718434
785.508018,1302.362347,888.247130,8438.347739
785.508334,842.705048,370.102971,9474.636058
785.508650,1378.971896,222.061783,8512.368333
785.508966,1838.629195,666.185348,8438.347739
785.509282,1991.848295,-296.082377,9474.636058
785.509598,2145.067394,-814.226536,9326.594869
785.509914,1685.410096,-1036.288319,9474.636058
785.510229,1072.533697,-888.247130,9326.594869
785.510545,1225.752797,-296.082377,9622.677246
785.510861,1149.143247,-592.164754,9992.780217
785.511177,1685.410096,-370.102971,9696.697840
785.511493,1302.362347,370.102971,9474.636058
785.511808,689.485948,-74.020594,9326.594869
785.512124,306.438199,-592.164754,9696.697840
785.512440,842.705048,-444.123565,9622.677246
785.512756,1762.019645,-370.102971,9326.594869
785.513072,1149.143247,-222.061783,8956.491898
785.513388,306.438199,-962.267725,10288.862594
785.513703,-229.828649,-1776.494261,10658.965565
785.514019,229.828649,-74.020594,9918.759623
785.514335,459.657299,-148.041188,9844.739029
785.514651,842.705048,740.205942,9326.594869
785.514967,459.657299,-0.000000,9696.697840
785.515283,0.000000,-444.123565,9474.636058
785.515598,612.876398,296.082377,9622.677246
785.515914,842.705048,-222.061783,9326.594869
785.516230,383.047749,-296.082377,9548.656652
785.516546,229.828649,-0.000000,9696.697840
785.516862,-995.924147,-666.185348,9696.697840
785.517178,-995.924147,-370.102971,10214.842000
785.517493,-459.657299,-814.226536,10140.821405
785.517809,0.000000,-666.185348,10584.944971
785.518125,306.438199,444.123565,9400.615463
785.518441,0.000000,-0.000000,8734.430116
785.518757,76.609550,666.185348,8290.306550
785.519073,995.924147,444.123565,9030.512492
785.519388,1302.362347,444.123565,8660.409521
785.519704,995.924147,518.144159,8734.430116
785.520020,-76.609550,-1406.391290,9104.533087
785.520336,-459.657299,-1258.350101,9992.780217
785.520652,0.000000,-0.000000,9844.739029
785.520968,306.438199,-148.041188,9696.697840
785.521283,306.438199,296.082377,9696.697840
785.521599,0.000000,222.061783,8734.430116
785.521915,0.000000,444.123565,9548.656652
785.522231,0.000000,444.123565,9474.636058
785.522547,766.095498,370.102971,9474.636058
785.522863,1149.143247,222.061783,8882.471304
785.523178,612.876398,-0.000000,9030.512492
785.523494,0.000000,-518.144159,9844.739029
785.523810,306.438199,-74.020594,9326.594869
785.524126,459.657299,370.102971,9252.574275
785.524442,919.314598,444.123565,9178.553681
785.524758,689.485948,962.267725,9400.615463
785.525073,459.657299,740.205942,8586.388927
785.525389,0.000000,148.041188,9400.615463
785.525705,459.657299,222.061783,9252.574275
785.526021,995.924147,-370.102971,10214.842000
785.526337,842.705048,370.102971,9770.718434
785.526653,0.000000,-740.205942,9696.697840
785.526968,-995.924147,-592.164754,9770.718434
785.527284,0.000000,148.041188,9992.780217
785.527600,383.047749,-0.000000,9400.615463
785.527916,459.657299,592.164754,10140.821405
785.528232,76.609550,222.061783,10066.800811
785.528548,-536.266849,-296.082377,8808.450710
785.528863,383.047749,814.226536,9696.697840
785.529179,1455.581446,-0.000000,9696.697840
785.529495,995.924147,296.082377,9030.512492
785.529811,306.438199,-0.000000,9326.594869
785.530127,-612.876398,-1998.556043,9918.759623
785.530443,0.000000,-1110.308913,11103.089130
785.530758,0.000000,-444.123565,9770.718434
785.531074,-306.438199,-592.164754,9992.780217
785.531390,229.828649,-518.144159,10214.842000
785.531706,229.828649,-1184.329507,10066.800811
785.532022,-153.219100,-1554.432478,9696.697840
785.532338,612.876398,-814.226536,9770.718434
785.532653,1225.752797,-1406.391290,9474.636058
785.532969,1302.362347,-74.020594,8956.491898
785.533285,842.705048,-888.247130,9474.636058
785.533601,229.828649,-1776.494261,9918.759623
785.533917,842.705048,-592.164754,9400.615463
785.534233,995.924147,-444.123565,9474.636058
785.534548,1991.848295,-0.000000,9104.533087
785.534864,1455.581446,-222.061783,8660.409521
785.535180,766.095498,-814.226536,8734.430116
785.535496,1149.143247,-0.000000,9474.636058
785.535812,1608.800546,-444.123565,8882.471304
785.536128,1532.190996,-296.082377,8660.409521
785.536443,766.095498,-370.102971,9104.533087
785.536759,0.000000,-1628.453072,9696.697840
785.537075,153.219100,-1332.370696,10140.821405
785.537391,76.609550,-0.000000,9252.574275
785.537707,229.828649,-814.226536,9548.656652
785.538023,229.828649,-444.123565,9474.636058
785.538338,76.609550,-740.205942,9474.636058
785.538654,76.609550,-74.020594,8808.450710
785.538970,153.219100,1036.288319,8660.409521
785.539286,306.438199,-518.144159,9400.615463
785.539602,0.000000,-444.123565,9178.553681
785.539917,0.000000,-370.102971,9918.759623
785.540233,-919.314598,-1332.370696,10140.821405
785.540549,-229.828649,222.061783,9696.697840
785.540865,229.828649,-0.000000,9474.636058
785.541181,459.657299,-0.000000,9252.574275
785.541497,459.657299,148.041188,9474.636058
785.541812,-229.828649,-444.123565,9104.533087
785.542128,229.828649,296.082377,9548.656652
785.542444,1149.143247,148.041188,8956.491898
785.542760,1072.533697,-370.102971,9622.677246
785.543076,536.266849,592.164754,9030.512492
785.543392,0.000000,-740.205942,9252.574275
785.543707,0.000000,-962.267725,9770.718434
785.544023,306.438199,-370.102971,9992.780217
785.544339,612.876398,-370.102971,9770.718434
785.544655,766.095498,370.102971,9992.780217
785.544971,153.219100,518.144159,8956.491898
785.545287,76.609550,444.123565,8956.491898
785.545602,536.266849,592.164754,9178.553681
785.545918,766.095498,-0.000000,10066.800811
785.546234,919.314598,-0.000000,9178.553681
785.546550,229.828649,-592.164754,9548.656652
785.546866,-229.828649,-1480.411884,10214.842000
785.547182,76.609550,-370.102971,10214.842000
785.547497,536.266849,-0.000000,10066.800811
785.547813,76.609550,592.164754,9696.697840
785.548129,76.609550,370.102971,9622.677246
785.548445,-459.657299,-444.123565,10140.821405
785.548761,-229.828649,-222.061783,10214.842000
785.549077,383.047749,296.082377,9252.574275
785.549392,306.438199,-0.000000,9696.697840
785.549708,689.485948,-0.000000,9474.636058
785.550024,76.609550,-740.205942,9918.759623
785.550340,-229.828649,-0.000000,10510.924376
785.550656,0.000000,740.205942,9696.697840
785.550972,459.657299,296.082377,9696.697840
785.551287,1072.533697,518.144159,9326.594869
785.551603,919.314598,148.041188,9178.553681
785.551919,536.266849,-0.000000,8882.471304
785.552235,919.314598,962.267725,9622.677246
785.552551,1532.190996,222.061783,8734.430116
785.552867,1455.581446,592.164754,8290.306550
785.553182,536.266849,518.144159,9178.553681
785.553498,306.438199,-1480.411884,9918.759623
785.553814,-153.219100,-0.000000,9844.739029
785.554130,306.438199,-0.000000,9548.656652
785.554446,536.266849,-74.020594,9326.594869
785.554762,459.657299,296.082377,9992.780217
785.555077,-153.219100,-444.123565,8808.450710
785.555393,153.219100,370.102971,9252.574275
785.555709,766.095498,592.164754,9178.553681
785.556025,536.266849,-0.000000,9400.615463
785.556341,1072.533697,296.082377,9474.636058
785.556657,-383.047749,-888.247130,9104.533087
785.556972,-306.438199,-962.267725,9844.739029
785.557288,612.876398,222.061783,10288.862594
785.557604,1149.143247,-296.082377,9326.594869
785.557920,1302.362347,740.205942,9104.533087
785.558236,842.705048,-74.020594,9844.739029
785.558552,1532.190996,-0.000000,8586.388927
785.558867,919.314598,888.247130,9622.677246
785.559183,1455.581446,-222.061783,9178.553681
785.559499,1991.848295,222.061783,8660.409521
785.559815,842.705048,-518.144159,9474.636058
785.560131,0.000000,-1184.329507,9622.677246
785.560447,229.828649,-148.041188,9844.739029
785.560762,842.705048,-666.185348,9696.697840
785.561078,229.828649,148.041188,8956.491898
785.561394,383.047749,888.247130,9548.656652
785.561710,-229.828649,-888.247130,9622.677246
785.562026,0.000000,-592.164754,9474.636058
785.562342,0.000000,-666.185348,10214.842000
785.562657,536.266849,-962.267725,9696.697840
785.562973,0.000000,-888.247130,9326.594869
785.563289,-536.266849,-1258.350101,9622.677246
785.563605,-612.876398,-1332.370696,10362.883188
785.563921,-689.485948,-296.082377,10066.800811
785.564237,-383.047749,-222.061783,9918.759623
785.564552,306.438199,-148.041188,9252.574275
785.564868,-229.828649,-370.102971,9696.697840
785.565184,-383.047749,-1110.308913,9548.656652
785.565500,0.000000,-148.041188,9326.594869
785.565816,0.000000,-518.144159,9474.636058
785.566132,153.219100,-740.205942,9474.636058
785.566447,229.828649,-444.123565,9178.553681
785.566763,-842.705048,-1406.391290,9548.656652
785.567079,-689.485948,-1036.288319,10140.821405
785.567395,229.828649,-444.123565,9474.636058
785.567711,0.000000,-370.102971,8956.491898
785.568027,229.828649,-518.144159,9400.615463
785.568342,-383.047749,-1332.370696,9548.656652
785.568658,0.000000,-518.144159,9400.615463
785.568974,689.485948,-74.020594,8808.450710
785.569290,766.095498,-444.123565,8438.347739
785.569606,919.314598,148.041188,8882.471304
785.569921,383.047749,-1184.329507,9326.594869
785.570237,0.000000,-1406.391290,9696.697840
785.570553,459.657299,-0.000000,10436.903782
785.570869,919.314598,-0.000000,9252.574275
785.571185,1378.971896,592.164754,7920.203579
785.571501,1225.752797,296.082377,9030.512492
785.571816,995.924147,-0.000000,9474.636058
785.572132,842.705048,962.267725,8512.368333
785.572448,689.485948,-74.020594,9252.574275
785.572764,1149.143247,-0.000000,9326.594869
785.573080,919.314598,148.041188,9030.512492
785.573396,76.609550,-592.164754,9918.759623
785.573711,-76.609550,-222.061783,10510.924376
785.574027,536.266849,-148.041188,10362.883188
785.574343,766.095498,592.164754,9918.759623
785.574659,459.657299,1110.308913,9400.615463
785.574975,-689.485948,-0.000000,9844.739029
785.575291,689.485948,518.144159,9474.636058
785.575606,919.314598,1258.350101,9474.636058
785.575922,1378.971896,222.061783,9844.739029
785.576238,1608.800546,444.123565,8956.491898
785.576554,1378.971896,-444.123565,9622.677246
785.576870,459.657299,-518.144159,10214.842000
785.577186,842.705048,148.041188,9992.780217
785.577501,1455.581446,444.123565,8956.491898
785.577817,1378.971896,1036.288319,9992.780217
785.578133,1072.533697,666.185348,9622.677246
785.578449,689.485948,518.144159,8586.388927
785.578765,995.924147,1258.350101,9104.533087
785.579081,919.314598,-0.000000,9474.636058
785.579396,689.485948,-592.164754,9474.636058
785.579712,229.828649,-518.144159,9770.718434
785.580028,-1072.533697,-1554.432478,10288.862594
785.580344,-689.485948,-518.144159,11029.068536
785.580660,-306.438199,-222.061783,9696.697840
785.580976,0.000000,-74.020594,9622.677246
785.581291,76.609550,-0.000000,10140.821405
785.581607,-306.438199,-592.164754,9548.656652
785.581923,-306.438199,-518.144159,9548.656652
785.582239,229.828649,-0.000000,9622.677246
785.582555,1225.752797,-0.000000,9178.553681
785.582871,995.924147,444.123565,8882.471304
785.583186,459.657299,-296.082377,9030.512492
785.583502,229.828649,-1258.350101,9918.759623
785.583818,383.047749,-148.041188,9770.718434
785.584134,919.314598,-740.205942,8956.491898
785.584450,995.924147,-592.164754,9770.718434
785.584766,612.876398,-444.123565,9548.656652
785.585081,153.219100,-740.205942,8290.306550
785.585397,0.000000,-74.020594,9474.636058
785.585713,229.828649,-0.000000,9400.615463
785.586029,153.219100,-296.082377,9030.512492
785.586345,383.047749,-444.123565,9474.636058
785.586661,-459.657299,-1184.329507,8882.471304
785.586976,-383.047749,-1258.350101,9474.636058
785.587292,-153.219100,-1406.391290,9696.697840
785.587608,153.219100,-1554.432478,9548.656652
785.587924,612.876398,-222.061783,9474.636058
785.588240,306.438199,-666.185348,8512.368333
785.588556,0.000000,-444.123565,8956.491898
785.588871,612.876398,222.061783,9104.533087
785.589187,995.924147,-0.000000,7994.224174
785.589503,1149.143247,-0.000000,9252.574275
785.589819,306.438199,-1184.329507,9622.677246
785.590135,0.000000,-1554.432478,9548.656652
785.590451,76.609550,-370.102971,10510.924376
785.590766,689.485948,-444.123565,9474.636058
785.591082,919.314598,444.123565,9400.615463
785.591398,766.095498,518.144159,9770.718434
785.591714,383.047749,-0.000000,9326.594869
785.592030,612.876398,518.144159,9548.656652
785.592346,1225.752797,444.123565,9474.636058
785.592661,1455.581446,296.082377,8882.471304
785.592977,2298.286494,666.185348,8882.471304
785.593293,1685.410096,-370.102971,8956.491898
785.593609,229.828649,-740.205942,9548.656652
785.593925,612.876398,-370.102971,10584.944971
785.594241,1455.581446,-0.000000,9548.656652
785.594556,1149.143247,592.164754,9474.636058
785.594872,153.219100,-0.000000,9844.739029
785.595188,536.266849,-666.185348,9622.677246
785.595504,766.095498,148.041188,9696.697840
785.595820,995.924147,-148.041188,9474.636058
785.596136,1302.362347,-222.061783,9474.636058
785.596451,229.828649,-148.041188,9622.677246
785.596767,-459.657299,-888.247130,9696.697840
785.597083,-842.705048,444.123565,9400.615463
785.597399,229.828649,-0.000000,10658.965565
785.597715,306.438199,148.041188,9622.677246
785.598031,76.609550,592.164754,9918.759623
785.598346,-383.047749,-740.205942,9918.759623
785.598662,-76.609550,-518.144159,10288.862594
785.598978,383.047749,222.061783,9844.739029
785.599294,1072.533697,-296.082377,8956.491898
785.599610,919.314598,222.061783,9104.533087
785.599925,0.000000,-518.144159,9770.718434
785.600241,-76.609550,-444.123565,10288.862594
785.600557,0.000000,592.164754,9474.636058
785.600873,306.438199,518.144159,9696.697840
785.601189,842.705048,518.144159,9252.574275
785.601505,306.438199,-0.000000,9030.512492
785.601820,0.000000,-370.102971,9252.574275
785.602136,459.657299,444.123565,9474.636058
785.602452,766.095498,-296.082377,8734.430116
785.602768,459.657299,-444.123565,8512.368333
785.603084,229.828649,-592.164754,9178.553681
785.603400,-306.438199,-1406.391290,10288.862594
785.603715,-306.438199,370.102971,10362.883188
785.604031,229.828649,814.226536,9548.656652
785.604347,766.095498,814.226536,9400.615463
785.604663,459.657299,1184.329507,9104.533087
785.604979,383.047749,-74.020594,9030.512492
785.605295,459.657299,148.041188,8882.471304
785.605610,383.047749,-444.123565,10066.800811
785.605926,306.438199,-740.205942,9326.594869
785.606242,689.485948,-0.000000,9696.697840
785.606558,306.438199,-148.041188,9474.636058
785.606874,-459.657299,-296.082377,9622.677246
785.607190,459.657299,296.082377,9918.759623
785.607505,0.000000,-148.041188,9918.759623
785.607821,612.876398,-0.000000,9252.574275
785.608137,383.047749,-888.247130,9474.636058
785.608453,-689.485948,-1258.350101,9992.780217
785.608769,383.047749,-74.020594,10140.821405
785.609085,1225.752797,-518.144159,8216.285956
785.609400,842.705048,-0.000000,8290.306550
785.609716,383.047749,-814.226536,10140.821405
785.610032,995.924147,-1850.514855,9770.718434
785.610348,1149.143247,-0.000000,7920.203579
785.610663,1072.533697,-814.226536,9252.574275
785.610979,1915.238745,-740.205942,9844.739029
785.611295,2145.067394,-0.000000,8364.327145
785.611610,1072.533697,148.041188,8512.368333
785.611926,0.000000,-296.082377,8660.409521
785.612242,1302.362347,-518.144159,9326.594869
785.612557,689.485948,-888.247130,8734.430116
785.612873,229.828649,-740.205942,10214.842000
785.613189,-383.047749,-1554.432478,10510.924376
785.613504,-1302.362347,-1184.329507,9622.677246
785.613820,-1762.019645,-518.144159,10584.944971
785.614136,-459.657299,-592.164754,10140.821405
785.614451,76.609550,296.082377,9474.636058
785.614767,-229.828649,-296.082377,9474.636058
785.615083,-383.047749,-1110.308913,9918.759623
785.615398,0.000000,-962.267725,9918.759623
785.615714,842.705048,-592.164754,9030.512492
785.616030,1072.533697,-518.144159,9474.636058
785.616345,536.266849,-296.082377,9992.780217
785.616661,0.000000,-888.247130,9992.780217
785.616977,459.657299,-0.000000,9252.574275
785.617292,459.657299,-148.041188,9622.677246
785.617608,1149.143247,-518.144159,10066.800811
785.617924,842.705048,-0.000000,8808.450710
785.618239,766.095498,-592.164754,8956.491898
785.618555,689.485948,-148.041188,10140.821405
785.618871,612.876398,-0.000000,9104.533087
785.619186,842.705048,-148.041188,9030.512492
785.619502,383.047749,-148.041188,8956.491898
785.619818,0.000000,-592.164754,9770.718434
785.620133,-689.485948,-1332.370696,9844.739029
785.620449,0.000000,-518.144159,10140.821405
785.620765,0.000000,-592.164754,10288.862594
785.621080,383.047749,-0.000000,9400.615463
785.621396,383.047749,-518.144159,9622.677246
785.621712,-383.047749,-740.205942,9030.512492
785.622028,229.828649,740.205942,9770.718434
785.622343,919.314598,444.123565,9178.553681
785.622659,1455.581446,740.205942,8512.368333
785.622975,1302.362347,444.123565,9326.594869
785.623290,306.438199,-148.041188,9474.636058
785.623606,383.047749,296.082377,8808.450710
785.623922,536.266849,962.267725,9474.636058
785.624237,1532.190996,666.185348,9474.636058
785.624553,1685.410096,1406.391290,8808.450710
785.624869,536.266849,296.082377,9104.533087
785.625184,459.657299,-74.020594,9548.656652
785.625500,536.266849,-74.020594,9696.697840
785.625816,689.485948,-0.000000,9696.697840
785.626131,612.876398,518.144159,9030.512492
785.626447,-229.828649,-370.102971,10362.883188
785.626763,-612.876398,-1406.391290,10732.986159
785.627078,-306.438199,370.102971,9992.780217
785.627394,536.266849,444.123565,9770.718434
785.627710,919.314598,444.123565,9104.533087
785.628025,1608.800546,296.082377,9918.759623
785.628341,536.266849,-370.102971,9400.615463
785.628657,919.314598,-0.000000,8586.388927
785.628972,1302.362347,-0.000000,9400.615463
785.629288,1838.629195,-222.061783,9474.636058
785.629604,1225.752797,444.123565,8882.471304
785.629919,536.266849,-0.000000,9474.636058
785.630235,0.000000,-0.000000,9548.656652
785.630551,842.705048,-0.000000,9548.656652
785.630866,383.047749,-296.082377,9696.697840
785.631182,536.266849,-0.000000,9918.759623
785.631498,0.000000,-370.102971,9622.677246
785.631813,-306.438199,-444.123565,9696.697840
785.632129,-383.047749,-0.000000,9770.718434
785.632445,153.219100,-814.226536,9992.780217
785.632760,153.219100,-518.144159,9770.718434
785.633076,-383.047749,-888.247130,9918.759623
785.633392,-766.095498,-1924.535449,10584.944971
785.633707,-306.438199,-222.061783,10066.800811
785.634023,229.828649,222.061783,9400.615463
785.634339,229.828649,-0.000000,8882.471304
785.634654,459.657299,-74.020594,9770.718434
785.634970,76.609550,-814.226536,9326.594869
785.635286,153.219100,666.185348,8734.430116
785.635601,536.266849,-0.000000,9104.533087
785.635917,842.705048,-666.185348,8364.327145
785.636233,689.485948,-74.020594,9696.697840
785.636548,0.000000,-1184.329507,9844.739029
785.636864,306.438199,-592.164754,9326.594869
785.637180,76.609550,296.082377,9474.636058
785.637495,76.609550,-0.000000,9474.636058
785.637811,689.485948,666.185348,8660.409521
785.638127,229.828649,-222.061783,9104.533087
785.638442,-383.047749,-814.226536,9474.636058
785.638758,0.000000,-888.247130,9770.718434
785.639074,229.828649,-296.082377,9548.656652
785.639389,306.438199,296.082377,8660.409521
785.639705,-306.438199,-370.102971,9400.615463
785.640021,-306.438199,-1110.308913,9696.697840
785.640336,0.000000,-592.164754,9474.636058
785.640652,0.000000,-740.205942,9770.718434
785.640968,536.266849,-1184.329507,9992.780217
785.641283,536.266849,-666.185348,9548.656652
785.641599,229.828649,-740.205942,9474.636058
785.641915,766.095498,-592.164754,9178.553681
785.642230,1072.533697,-666.185348,9178.553681
785.642546,1532.190996,-1406.391290,9918.759623
785.642862,1532.190996,-1258.350101,9548.656652
785.643177,1762.019645,-2146.597232,9474.636058
785.643493,1149.143247,-2220.617826,9696.697840
785.643809,1532.190996,-1628.453072,9770.718434
785.644124,2068.457845,-1184.329507,9548.656652
785.644440,2604.724693,444.123565,8956.491898
785.644756,2145.067394,518.144159,8512.368333
785.645071,1378.971896,-370.102971,8512.368333
785.645387,1072.533697,-296.082377,8660.409521
785.645703,1302.362347,-962.267725,9326.594869
785.646018,1608.800546,-1702.473667,9400.615463
785.646334,536.266849,-1702.473667,9474.636058
785.646650,-1762.019645,-2886.803174,10732.986159
785.646965,-1225.752797,-2738.761985,10881.027347
785.647281,-1072.533697,-1998.556043,10732.986159
785.647597,-1302.362347,-1332.370696,9918.759623
785.647912,-2068.457845,-370.102971,9104.533087
785.648228,-766.095498,-1776.494261,9474.636058
785.648544,-1302.362347,-3182.885551,10362.883188
785.648859,-1225.752797,-370.102971,9252.574275
785.649175,-1302.362347,-1702.473667,8142.265362
785.649491,-842.705048,-1628.453072,9030.512492
785.649806,-1302.362347,-962.267725,8956.491898
785.650122,-1532.190996,-1998.556043,9326.594869
785.650438,-1915.238745,-1110.308913,9548.656652
785.650753,-2451.505594,-1924.535449,9918.759623
785.651069,-1608.800546,-1776.494261,9844.739029
785.651385,-766.095498,-814.226536,9548.656652
785.651700,-2221.676944,-1628.453072,8808.450710
785.652016,-2068.457845,-1036.288319,9548.656652
785.652332,-1608.800546,-888.247130,8882.471304
785.652647,-1991.848295,-740.205942,8290.306550
785.652963,-1838.629195,-518.144159,9178.553681
785.653279,-2068.457845,-2812.782580,9918.759623
785.653594,-2911.162892,-3256.906145,10436.903782
785.653910,-2757.943793,-2368.659014,9770.718434
785.654226,-2757.943793,-1554.432478,9326.594869
785.654541,-2374.896044,-1628.453072,10140.821405
785.654857,-1455.581446,-1924.535449,9548.656652
785.655173,-1838.629195,-1850.514855,9178.553681
785.655488,-2528.115143,-2072.576638,9918.759623
785.655804,-1915.238745,-2442.679609,9992.780217
785.656120,-1685.410096,-1554.432478,8956.491898
785.656435,-1378.971896,-74.020594,8808.450710
785.656751,-1149.143247,-1110.308913,8512.368333
785.657067,-919.314598,-1850.514855,8808.450710
785.657382,-1378.971896,-2368.659014,9992.780217
785.657698,-1455.581446,-2442.679609,8956.491898
785.658014,-1072.533697,-1998.556043,8586.388927
785.658329,-995.924147,-2072.576638,9844.739029
785.658645,-1762.019645,-1924.535449,10584.944971
785.658961,-689.485948,-2516.700203,9770.718434
785.659276,-1762.019645,-1924.535449,10510.924376
785.659592,-2374.896044,-1776.494261,9104.533087
785.659908,-1838.629195,-1406.391290,8364.327145
785.660223,-2298.286494,-1110.308913,9104.533087
785.660539,-2604.724693,-1998.556043,9400.615463
785.660855,-1225.752797,-3108.864956,9844.739029
785.661170,-1608.800546,-3034.844362,9770.718434
785.661486,-2451.505594,-2886.803174,9030.512492
785.661802,-1685.410096,-3256.906145,10214.842000
785.662117,-1915.238745,-3330.926739,10066.800811
785.662433,-2221.676944,-1628.453072,9844.739029
785.662749,-1225.752797,-2294.638420,10436.903782
785.663064,-766.095498,-2368.659014,9770.718434
785.663380,-842.705048,-1184.329507,8586.388927
785.663696,-1149.143247,-1406.391290,9252.574275
785.664011,-383.047749,-1998.556043,9178.553681
785.664327,-612.876398,-296.082377,8216.285956
785.664643,-842.705048,-444.123565,8438.347739
785.664958,0.000000,-1776.494261,8660.409521
785.665274,0.000000,-2368.659014,8734.430116
785.665590,-995.924147,-3108.864956,9548.656652
785.665905,-1302.362347,-3923.091493,10066.800811
785.666221,-995.924147,-3404.947333,10732.986159
785.666537,-1532.190996,-2738.761985,10288.862594
785.666852,-2068.457845,-1702.473667,9844.739029
785.667168,-1762.019645,-1480.411884,9400.615463
785.667484,-1915.238745,-1480.411884,9252.574275
785.667799,-1685.410096,-2294.638420,9548.656652
785.668115,-1685.410096,-2442.679609,9474.636058
785.668431,-1608.800546,-2442.679609,9104.533087
785.668746,-1455.581446,-2516.700203,8734.430116
785.669062,-2068.457845,-2886.803174,8734.430116
785.669378,-1838.629195,-2368.659014,8734.430116
785.669693,-2374.896044,-2368.659014,8734.430116
785.670009,-2374.896044,-3034.844362,9400.615463
785.670325,-2068.457845,-3849.070898,10066.800811
785.670640,-2834.553343,-4071.132681,9770.718434
785.670956,-2451.505594,-3330.926739,10214.842000
785.671272,-2451.505594,-3849.070898,9918.759623
785.671587,-2298.286494,-3182.885551,10140.821405
785.671903,-2681.334243,-1924.535449,9918.759623
785.672219,-2451.505594,-1184.329507,8808.450710
785.672534,-2068.457845,-666.185348,8956.491898
785.672850,-1302.362347,-1480.411884,9178.553681
785.673166,-1225.752797,-1554.432478,8142.265362
785.673481,-1225.752797,-1554.432478,8142.265362
785.673797,-842.705048,-2220.617826,8956.491898
785.674113,-919.314598,-2368.659014,9178.553681
785.674428,-1225.752797,-2146.597232,9326.594869
785.674744,-1991.848295,-740.205942,9326.594869
785.675060,-2068.457845,-962.267725,9474.636058
785.675375,-2451.505594,-2368.659014,9622.677246
785.675691,-2834.553343,-2664.741391,9696.697840
785.676007,-3217.601092,-2812.782580,10658.965565
785.676322,-3140.991542,-3404.947333,11473.192101
785.676638,-2681.334243,-3627.009116,11473.192101
785.676954,-2834.553343,-2664.741391,11325.150913
785.677269,-1838.629195,-1702.473667,10510.924376
785.677585,-1378.971896,-592.164754,9474.636058
785.677901,-689.485948,-0.000000,8364.327145
785.678216,76.609550,-74.020594,7994.224174
785.678532,1838.629195,-222.061783,7402.059420
785.678848,1991.848295,-0.000000,6809.894666
785.679164,2221.676944,-740.205942,7105.977043
785.679479,1302.362347,-2072.576638,7994.224174
785.679795,0.000000,-2738.761985,9178.553681
785.680111,-995.924147,-2738.761985,9770.718434
785.680426,-1685.410096,-2442.679609,11177.109724
785.680742,-2681.334243,-2664.741391,11547.212695
785.681058,-3294.210641,-3034.844362,11399.171507
785.681373,-3447.429741,-3108.864956,10955.047942
785.681689,-3140.991542,-2442.679609,10658.965565
785.682005,-2681.334243,-1776.494261,9474.636058
785.682320,-1915.238745,-2072.576638,9030.512492
785.682636,-1838.629195,-2220.617826,8882.471304
785.682952,-1991.848295,-3034.844362,9104.533087
785.683267,-1991.848295,-3552.988522,9622.677246
785.683583,-1991.848295,-3552.988522,9696.697840
785.683899,-1991.848295,-3552.988522,9992.780217
785.684214,-1378.971896,-3478.967927,10362.883188
785.684530,-766.095498,-2442.679609,10214.842000
785.684846,-919.314598,-1998.556043,9252.574275
785.685161,-306.438199,-1110.308913,8956.491898
785.685477,0.000000,-444.123565,8216.285956
785.685793,0.000000,-0.000000,7550.100608
785.686108,0.000000,-518.144159,7328.038826
785.686424,-842.705048,-1036.288319,7772.162391
785.686740,-1225.752797,-2220.617826,8512.368333
785.687055,-1915.238745,-3552.988522,8882.471304
785.687371,-2604.724693,-4441.235652,8956.491898
785.687687,-3217.601092,-4885.359217,10214.842000
785.688002,-3907.087040,-4885.359217,10807.006753
785.688318,-4290.134789,-4737.318029,11399.171507
785.688634,-4596.572988,-4589.276840,11695.253884
785.688949,-4519.963438,-4367.215058,11621.233289
785.689265,-3907.087040,-2886.803174,10881.027347
785.689581,-3064.381992,-2146.597232,10214.842000
785.689896,-2221.676944,-1480.411884,9178.553681
785.690212,-919.314598,-740.205942,8216.285956
785.690528,536.266849,-74.020594,7254.018232
785.690843,1302.362347,222.061783,6217.729913
785.691159,1608.800546,-0.000000,5921.647536
785.691475,1532.190996,-518.144159,6143.709319
785.691790,1072.533697,-1332.370696,6735.874072
785.692106,0.000000,-2368.659014,8068.244768
785.692422,-1455.581446,-3404.947333,9252.574275
785.692737,-3217.601092,-4663.297435,11029.068536
785.693053,-4826.401637,-5773.606348,12287.418637
785.693369,-6052.154434,-6143.709319,13619.789333
785.693684,-5745.716235,-5625.565159,13471.748144
785.694000,-5745.716235,-4515.256246,13619.789333
785.694316,-4826.401637,-3034.844362,12435.459826
785.694631,-3600.648841,-1406.391290,10807.006753
785.694947,-1915.238745,-518.144159,9252.574275
785.695263,229.828649,-0.000000,7846.182985
785.695578,1762.019645,222.061783,6661.853478
785.695894,3140.991542,-0.000000,5551.544565
785.696210,4136.915689,222.061783,5255.462188
785.696525,4136.915689,-0.000000,5329.482782
785.696841,3447.429741,-592.164754,6513.812290
785.697157,2221.676944,-1850.514855,7624.121203
785.697472,919.314598,-2664.741391,9326.594869
785.697788,-1149.143247,-3108.864956,10584.944971
785.698104,-2757.943793,-3478.967927,11843.295072
785.698419,-4060.306139,-2886.803174,12287.418637
785.698735,-4596.572988,-2738.761985,12731.542202
785.699051,-4979.620737,-2294.638420,12287.418637
785.699366,-4903.011187,-2220.617826,11769.274478
785.699682,-5056.230287,-2590.720797,11177.109724
785.699998,-4060.306139,-2664.741391,9992.780217
785.700313,-3064.381992,-2812.782580,9474.636058
785.700629,-1991.848295,-2516.700203,8882.471304
785.700945,-1378.971896,-1702.473667,8216.285956
785.701260,-842.705048,-1480.411884,7920.203579
785.701576,-153.219100,-1554.432478,8364.327145
785.701892,-153.219100,-1850.514855,8586.388927
785.702207,-459.657299,-2146.597232,9104.533087
785.702523,-459.657299,-1850.514855,9770.718434
785.702839,-612.876398,-1184.329507,9622.677246
785.703154,-766.095498,-592.164754,9844.739029
785.703470,-995.924147,-962.267725,9992.780217
785.703786,-1532.190996,-592.164754,10288.862594
785.704101,-1608.800546,-1628.453072,9696.697840
785.704417,-1685.410096,-1924.535449,9696.697840
785.704733,-1685.410096,-2516.700203,9474.636058
785.705048,-1532.190996,-3182.885551,9548.656652
785.705364,-1149.143247,-3552.988522,9548.656652
785.705680,-1685.410096,-2960.823768,9178.553681
785.705995,-1455.581446,-3108.864956,9474.636058
785.706311,-1608.800546,-3701.029710,9474.636058
785.706627,-1532.190996,-3404.947333,10066.800811
785.706942,-1762.019645,-3034.844362,9918.759623
785.707258,-1225.752797,-1850.514855,9844.739029
785.707574,-995.924147,-1480.411884,9474.636058
785.707889,-536.266849,-592.164754,9030.512492
785.708205,153.219100,-148.041188,8808.450710
785.708521,689.485948,-148.041188,8512.368333
785.708836,1378.971896,-444.123565,7994.224174
785.709152,1302.362347,-814.226536,7624.121203
785.709468,1072.533697,-1258.350101,7772.162391
785.709783,459.657299,-1554.432478,8290.306550
785.710099,76.609550,-2294.638420,8882.471304
785.710415,-1149.143247,-2590.720797,9622.677246
785.710730,-2298.286494,-2886.803174,10362.883188
785.711046,-3294.210641,-2590.720797,10510.924376
785.711362,-3677.258390,-2368.659014,11029.068536
785.711678,-3907.087040,-1480.411884,11177.109724
785.711993,-3677.258390,-962.267725,10732.986159
785.712309,-3140.991542,-370.102971,9992.780217
785.712625,-2451.505594,-518.144159,9474.636058
785.712941,-1532.190996,-1184.329507,9030.512492
785.713256,-689.485948,-1628.453072,9252.574275
785.713572,-76.609550,-1332.370696,8364.327145
785.713888,153.219100,-1184.329507,8364.327145
785.714204,0.000000,-1480.411884,8364.327145
785.714519,0.000000,-1702.473667,8438.347739
785.714835,-536.266849,-1628.453072,9326.594869
785.715151,-1225.752797,-2294.638420,9474.636058
785.715467,-2145.067394,-2664.741391,9696.697840
785.715782,-2528.115143,-2812.782580,10214.842000
785.716098,-2987.772442,-3034.844362,10732.986159
785.716414,-3907.087040,-2812.782580,10807.006753
785.716730,-4290.134789,-2812.782580,10881.027347
785.717045,-4596.572988,-3034.844362,10881.027347
785.717361,-4213.525239,-3701.029710,10732.986159
785.717677,-4136.915689,-4589.276840,10510.924376
785.717993,-3447.429741,-4219.173869,10214.842000
785.718309,-2834.553343,-4219.173869,9622.677246
785.718624,-1991.848295,-4071.132681,9178.553681
785.718940,-1915.238745,-4145.153275,8882.471304
785.719256,-1072.533697,-3923.091493,9252.574275
785.719572,-1378.971896,-4071.132681,9030.512492
785.719887,-1608.800546,-4071.132681,9252.574275
785.720203,-1762.019645,-3627.009116,9622.677246
785.720519,-1608.800546,-3701.029710,9548.656652
785.720835,-1915.238745,-3701.029710,10066.800811
785.721150,-1991.848295,-3256.906145,10066.800811
785.721466,-1915.238745,-2886.803174,9696.697840
785.721782,-1685.410096,-3108.864956,9474.636058
785.722098,-1532.190996,-2738.761985,9252.574275
785.722413,-842.705048,-2960.823768,8956.491898
785.722729,-689.485948,-2442.679609,8364.327145
785.723045,-383.047749,-2146.597232,7550.100608
785.723361,-612.876398,-2146.597232,7550.100608
785.723676,-612.876398,-2886.803174,7105.977043
785.723992,-995.924147,-2442.679609,7772.162391
785.724308,-1532.190996,-3182.885551,8290.306550
785.724624,-2374.896044,-3404.947333,9030.512492
785.724939,-3140.991542,-3701.029710,9548.656652
785.725255,-3140.991542,-3849.070898,10214.842000
785.725571,-3677.258390,-3478.967927,10214.842000
785.725887,-3677.258390,-3330.926739,10732.986159
785.726203,-3140.991542,-3330.926739,10732.986159
785.726518,-2451.505594,-3108.864956,10288.862594
785.726834,-1991.848295,-2664.741391,9992.780217
785.727150,-766.095498,-1998.556043,9252.574275
785.727466,153.219100,-962.267725,8512.368333
785.727781,995.924147,-222.061783,7698.141797
785.728097,689.485948,518.144159,7179.997637
785.728413,1685.410096,666.185348,7031.956449
785.728729,1838.629195,666.185348,6735.874072
785.729044,1302.362347,-74.020594,7105.977043
785.729360,842.705048,-888.247130,7772.162391
785.729676,-459.657299,-1776.494261,8882.471304
785.729992,-1762.019645,-2738.761985,10214.842000
785.730307,-2451.505594,-3849.070898,11621.233289
785.730623,-3677.258390,-4589.276840,12953.603985
785.730939,-3907.087040,-4811.338623,13397.727550
785.731255,-4673.182538,-4219.173869,13545.768739
785.731570,-3753.867940,-3034.844362,12953.603985
785.731886,-2834.553343,-1258.350101,11399.171507
785.732202,-1685.410096,-0.000000,9992.780217
785.732518,-153.219100,962.267725,8142.265362
785.732833,1072.533697,1406.391290,7105.977043
785.733149,1455.581446,1480.411884,6069.688724
785.733465,1685.410096,1184.329507,5995.668130
785.733781,1225.752797,222.061783,6439.791695
785.734097,842.705048,-1184.329507,7698.141797
785.734412,-536.266849,-2146.597232,9548.656652
785.734728,-1608.800546,-3330.926739,11103.089130
785.735044,-3600.648841,-4219.173869,12657.521608
785.735360,-4749.792088,-4071.132681,13101.645173
785.735675,-4903.011187,-3330.926739,13471.748144
785.735991,-4519.963438,-2368.659014,12657.521608
785.736307,-4443.353888,-1332.370696,11621.233289
785.736623,-4136.915689,-666.185348,10140.821405
785.736938,-3447.429741,-592.164754,9252.574275
785.737254,-2298.286494,-1110.308913,8586.388927
785.737570,-1302.362347,-1406.391290,8216.285956
785.737886,-995.924147,-1776.494261,7624.121203
785.738201,-766.095498,-1776.494261,7550.100608
785.738517,-459.657299,-1628.453072,7994.224174
785.738833,-766.095498,-1850.514855,8438.347739
785.739149,-995.924147,-1850.514855,9030.512492
785.739464,-1762.019645,-1998.556043,9252.574275
785.739780,-2451.505594,-2516.700203,9474.636058
785.740096,-2681.334243,-3256.906145,10288.862594
785.740412,-2528.115143,-3849.070898,10881.027347
785.740727,-3064.381992,-3775.050304,10807.006753
785.741043,-3600.648841,-3034.844362,10807.006753
785.741359,-3677.258390,-3256.906145,10436.903782
785.741675,-2834.553343,-3256.906145,10214.842000
785.741991,-1455.581446,-2812.782580,9030.512492
785.742306,-1225.752797,-2368.659014,7920.203579
785.742622,-536.266849,-2812.782580,7254.018232
785.742938,459.657299,-3775.050304,7179.997637
785.743254,383.047749,-3997.112087,7550.100608
785.743569,-459.657299,-3701.029710,8734.430116
785.743885,-1225.752797,-4071.132681,9326.594869
785.744201,-1225.752797,-4071.132681,9622.677246
785.744517,-1608.800546,-3552.988522,9844.739029
785.744832,-2221.676944,-2368.659014,9992.780217
785.745148,-1608.800546,-1924.535449,9770.718434
785.745464,-1072.533697,-2146.597232,9252.574275
785.745780,-306.438199,-2294.638420,8808.450710
785.746095,0.000000,-1998.556043,8512.368333
785.746411,229.828649,-1850.514855,8216.285956
785.746727,306.438199,-2072.576638,8438.347739
785.747043,0.000000,-2368.659014,7846.182985
785.747358,-459.657299,-2664.741391,8364.327145
785.747674,-689.485948,-3552.988522,8956.491898
785.747990,-1532.190996,-3923.091493,9770.718434
785.748306,-2374.896044,-3923.091493,10214.842000
785.748621,-2911.162892,-3330.926739,10436.903782
785.748937,-2757.943793,-2886.803174,10510.924376
785.749253,-3064.381992,-1776.494261,10510.924376
785.749569,-2528.115143,-592.164754,9918.759623
785.749885,-1991.848295,-592.164754,9400.615463
785.750200,-1302.362347,-1554.432478,9474.636058
785.750516,-1149.143247,-1406.391290,9474.636058
785.750832,-229.828649,-1406.391290,8660.409521
785.751148,229.828649,-1184.329507,8290.306550
785.751463,0.000000,-1184.329507,7772.162391
785.751779,-306.438199,-2220.617826,8216.285956
785.752095,-153.219100,-2960.823768,9474.636058
785.752411,-1072.533697,-2886.803174,10066.800811
785.752726,-2757.943793,-2886.803174,10362.883188
785.753042,-2987.772442,-2960.823768,11399.171507
785.753358,-3217.601092,-2368.659014,11473.192101
785.753674,-3524.039291,-1258.350101,11473.192101
785.753989,-2451.505594,-962.267725,11473.192101
785.754305,-2757.943793,-1184.329507,10584.944971
785.754621,-2451.505594,-444.123565,9696.697840
785.754937,-1991.848295,148.041188,8808.450710
785.755252,0.000000,370.102971,8438.347739
785.755568,306.438199,-0.000000,8068.244768
785.755884,229.828649,-148.041188,7698.141797
785.756200,153.219100,-962.267725,7402.059420
785.756515,-459.657299,-1850.514855,8586.388927
785.756831,-1685.410096,-2294.638420,9696.697840
785.757147,-2221.676944,-3108.864956,10881.027347
785.757463,-2528.115143,-2812.782580,11621.233289
785.757779,-3524.039291,-2590.720797,11695.253884
785.758094,-4060.306139,-2590.720797,12287.418637
785.758410,-3753.867940,-1332.370696,11621.233289
785.758726,-3983.696590,-444.123565,10881.027347
785.759042,-2911.162892,592.164754,9622.677246
785.759357,-1455.581446,888.247130,8142.265362
785.759673,-536.266849,148.041188,7846.182985
785.759989,229.828649,-1184.329507,8068.244768
785.760305,459.657299,-814.226536,7179.997637
785.760620,536.266849,-0.000000,7179.997637
785.760936,306.438199,-148.041188,7402.059420
785.761252,459.657299,-1554.432478,8586.388927
785.761568,0.000000,-2072.576638,9844.739029
785.761883,-1378.971896,-2664.741391,10510.924376
785.762199,-2068.457845,-2590.720797,11251.130318
785.762515,-1915.238745,-2146.597232,11325.150913
785.762831,-1072.533697,-1110.308913,10510.924376
785.763146,-919.314598,-962.267725,11399.171507
785.763462,-536.266849,148.041188,10658.965565
785.763778,0.000000,444.123565,9030.512492
785.764094,306.438199,-814.226536,8808.450710
785.764409,1608.800546,-1036.288319,9030.512492
785.764725,2221.676944,-0.000000,7624.121203
785.765041,2681.334243,-444.123565,7402.059420
785.765357,2528.115143,-592.164754,7772.162391
785.765673,2221.676944,-888.247130,8068.244768
785.765988,1608.800546,-1332.370696,8808.450710
785.766304,1378.971896,-1554.432478,8586.388927
785.766620,383.047749,-2146.597232,9770.718434
785.766936,153.219100,-2664.741391,10955.047942
785.767251,-919.314598,-1406.391290,10510.924376
785.767567,-1378.971896,-1258.350101,11473.192101
785.767883,-766.095498,-814.226536,10881.027347
785.768199,-306.438199,-0.000000,9992.780217
785.768514,0.000000,-518.144159,9696.697840
785.768830,459.657299,-148.041188,9918.759623
785.769146,229.828649,-222.061783,8068.244768
785.769462,842.705048,-370.102971,8512.368333
785.769777,1532.190996,592.164754,7846.182985
785.770093,2221.676944,666.185348,7179.997637
785.770409,919.314598,-444.123565,8660.409521
785.770725,306.438199,-1332.370696,9474.636058
785.771040,-1072.533697,-1406.391290,9770.718434
785.771356,-842.705048,-1036.288319,11251.130318
785.771672,-995.924147,-1110.308913,11103.089130
785.771988,-842.705048,-740.205942,11029.068536
785.772303,-689.485948,-148.041188,11695.253884
785.772619,-995.924147,-666.185348,10140.821405
785.772935,0.000000,-74.020594,10288.862594
785.773251,1302.362347,518.144159,9992.780217
785.773567,1225.752797,-74.020594,7846.182985
785.773882,1838.629195,370.102971,9030.512492
785.774198,2145.067394,222.061783,8364.327145
785.774514,1915.238745,-222.061783,7105.977043
785.774830,2451.505594,-0.000000,8734.430116
785.775145,1991.848295,-740.205942,7920.203579
785.775461,995.924147,-962.267725,8512.368333
785.775777,-153.219100,-814.226536,10288.862594
785.776093,-1225.752797,-1184.329507,9844.739029
785.776408,-1225.752797,-740.205942,10510.924376
785.776724,-689.485948,-1258.350101,11103.089130
785.777040,-1762.019645,-2368.659014,11251.130318
785.777356,-1915.238745,-2294.638420,11695.253884
785.777671,-1532.190996,-2886.803174,11177.109724
785.777987,-383.047749,-2368.659014,10584.944971
785.778303,1378.971896,-74.020594,10066.800811
785.778619,1455.581446,-74.020594,8290.306550
785.778934,1762.019645,1110.308913,7476.080014
785.779250,1608.800546,814.226536,7846.182985
785.779566,2221.676944,444.123565,6883.915261
785.779882,2221.676944,1998.556043,7624.121203
785.780197,2221.676944,296.082377,8068.244768
785.780513,842.705048,-222.061783,9104.533087
785.780829,-536.266849,-962.267725,10288.862594
785.781145,-842.705048,-2072.576638,10881.027347
785.781461,-1149.143247,-148.041188,11029.068536
785.781776,-995.924147,-1480.411884,11547.212695
785.782092,-612.876398,-1110.308913,10955.047942
785.782408,-689.485948,518.144159,11177.109724
785.782724,-766.095498,444.123565,9622.677246
785.783039,995.924147,1036.288319,8364.327145
785.783355,1532.190996,1554.432478,8882.471304
785.783671,2681.334243,814.226536,8068.244768
785.783987,2451.505594,1258.350101,7254.018232
785.784302,1378.971896,-0.000000,7698.141797
785.784618,1302.362347,-666.185348,9104.533087
785.784934,1685.410096,-296.082377,9696.697840
785.785250,842.705048,-444.123565,9474.636058
785.785565,383.047749,592.164754,10140.821405
785.785881,-459.657299,592.164754,9918.759623
785.786197,-919.314598,666.185348,10288.862594
785.786513,-306.438199,1332.370696,9770.718434
785.786828,153.219100,592.164754,9400.615463
785.787144,229.828649,-592.164754,9918.759623
785.787460,-612.876398,-74.020594,9770.718434
785.787776,-306.438199,-444.123565,9696.697840
785.788091,1149.143247,148.041188,9622.677246
785.788407,1532.190996,444.123565,9104.533087
785.788723,1302.362347,592.164754,8882.471304
785.789039,919.314598,888.247130,8734.430116
785.789355,536.266849,-0.000000,8734.430116
785.789670,536.266849,-0.000000,9474.636058
785.789986,1378.971896,370.102971,10066.800811
785.790302,842.705048,-666.185348,9918.759623
785.790618,-306.438199,148.041188,9844.739029
785.790933,-995.924147,-74.020594,10436.903782
785.791249,-459.657299,-962.267725,10658.965565
785.791565,306.438199,-0.000000,10214.842000
785.791881,306.438199,-296.082377,10362.883188
785.792196,536.266849,-888.247130,10288.862594
785.792512,459.657299,-148.041188,9178.553681
785.792828,229.828649,-740.205942,8956.491898
785.793144,1225.752797,-814.226536,9178.553681
785.793459,1608.800546,-592.164754,9104.533087
785.793775,689.485948,-814.226536,8290.306550
785.794091,229.828649,-962.267725,9178.553681
785.794407,-612.876398,-2072.576638,9918.759623
785.794722,-459.657299,-1702.473667,10436.903782
785.795038,76.609550,-1480.411884,10140.821405
785.795354,-76.609550,-1628.453072,10658.965565
785.795670,-995.924147,-444.123565,10214.842000
785.795985,-842.705048,-370.102971,9178.553681
785.796301,-842.705048,-666.185348,10362.883188
785.796617,842.705048,518.144159,10066.800811
785.796933,1608.800546,-0.000000,7920.203579
785.797249,1685.410096,-148.041188,7994.224174
785.797564,1225.752797,-370.102971,8586.388927
785.797880,1608.800546,-1702.473667,9252.574275
785.798196,2298.286494,-74.020594,8660.409521
785.798512,1915.238745,-962.267725,8734.430116
785.798827,1455.581446,-740.205942,8956.491898
785.799143,689.485948,-0.000000,9030.512492
785.799459,0.000000,-592.164754,9474.636058
785.799775,153.219100,-444.123565,9770.718434
785.800090,536.266849,-296.082377,9548.656652
785.800406,612.876398,-888.247130,9474.636058
785.800722,-536.266849,-444.123565,9400.615463
785.801038,0.000000,-1628.453072,8956.491898
785.801353,306.438199,-1258.350101,9252.574275
785.801669,842.705048,-222.061783,9770.718434
785.801985,842.705048,-148.041188,8956.491898
785.802301,383.047749,518.144159,8734.430116
785.802616,76.609550,148.041188,8586.388927
785.802932,0.000000,-666.185348,8882.471304
785.803248,766.095498,296.082377,8956.491898
785.803564,229.828649,-74.020594,8808.450710
785.803879,459.657299,-1628.453072,9326.594869
785.804195,-536.266849,-666.185348,10362.883188
785.804511,-1225.752797,-518.144159,10436.903782
785.804827,-612.876398,-592.164754,9918.759623
785.805143,0.000000,222.061783,11251.130318
785.805458,0.000000,370.102971,9326.594869
785.805774,-689.485948,1480.411884,8956.491898
785.806090,-383.047749,148.041188,9548.656652
785.806406,153.219100,370.102971,9622.677246
785.806721,1302.362347,1332.370696,9030.512492
785.807037,1378.971896,296.082377,8660.409521
785.807353,383.047749,148.041188,9474.636058
785.807669,0.000000,-518.144159,9622.677246
785.807984,76.609550,-148.041188,9474.636058
785.808300,536.266849,888.247130,10362.883188
785.808616,459.657299,-444.123565,9918.759623
785.808932,0.000000,74.020594,9400.615463
785.809247,-612.876398,-222.061783,10658.965565
785.809563,-689.485948,-296.082377,9992.780217
785.809879,1302.362347,370.102971,10140.821405
785.810195,459.657299,370.102971,9474.636058
785.810511,459.657299,-0.000000,9844.739029
785.810827,689.485948,-74.020594,9548.656652
785.811142,0.000000,-148.041188,8808.450710
785.811458,689.485948,-222.061783,10066.800811
785.811774,766.095498,-74.020594,9992.780217
785.812090,1378.971896,-0.000000,9548.656652
785.812406,229.828649,666.185348,9178.553681
785.812721,153.219100,-370.102971,10584.944971
785.813037,1149.143247,222.061783,10288.862594
785.813353,1302.362347,1184.329507,8660.409521
785.813669,919.314598,444.123565,9548.656652
785.813985,995.924147,-222.061783,9918.759623
785.814300,842.705048,-370.102971,9770.718434
785.814616,306.438199,-222.061783,9474.636058
785.814932,612.876398,-0.000000,10658.965565
785.815248,1302.362347,-814.226536,10214.842000
785.815564,1072.533697,-0.000000,8808.450710
785.815879,612.876398,-74.020594,9326.594869
785.816195,842.705048,-962.267725,9474.636058
785.816511,1838.629195,666.185348,8734.430116
785.816827,1608.800546,518.144159,8734.430116
785.817143,766.095498,-0.000000,8734.430116
785.817459,919.314598,-962.267725,9326.594869
785.817774,-383.047749,-1776.494261,8586.388927
785.818090,383.047749,-1702.473667,10362.883188
785.818406,306.438199,-1998.556043,10066.800811
785.818722,-383.047749,-1036.288319,9400.615463
785.819038,-612.876398,-592.164754,9400.615463
785.819353,-459.657299,-814.226536,9252.574275
785.819669,0.000000,370.102971,8586.388927
785.819985,689.485948,592.164754,8290.306550
785.820301,383.047749,-370.102971,8586.388927
785.820617,612.876398,-666.185348,9030.512492
785.820932,229.828649,-74.020594,8586.388927
785.821248,383.047749,-296.082377,9178.553681
785.821564,689.485948,296.082377,9474.636058
785.821880,689.485948,444.123565,9178.553681
785.822196,306.438199,296.082377,8290.306550
785.822511,-536.266849,518.144159,9548.656652
785.822827,-612.876398,222.061783,9622.677246
785.823143,0.000000,592.164754,9326.594869
785.823459,153.219100,-0.000000,9622.677246
785.823775,0.000000,-0.000000,9252.574275
785.824091,-306.438199,-296.082377,10362.883188
785.824406,-459.657299,-296.082377,9474.636058
785.824722,0.000000,296.082377,9474.636058
785.825038,766.095498,666.185348,9474.636058
785.825354,919.314598,-0.000000,8956.491898
785.825670,306.438199,296.082377,8660.409521
785.825985,0.000000,-444.123565,9548.656652
785.826301,306.438199,-370.102971,9400.615463
785.826617,1378.971896,-148.041188,9474.636058
785.826933,1072.533697,-666.185348,9252.574275
785.827249,459.657299,-518.144159,9326.594869
785.827564,-306.438199,-1258.350101,9696.697840
785.827880,-153.219100,-1184.329507,10436.903782
785.828196,0.000000,-814.226536,10510.924376
785.828512,383.047749,-1184.329507,10436.903782
785.828828,76.609550,-666.185348,10436.903782
785.829143,-229.828649,-296.082377,9770.718434
785.829459,229.828649,-592.164754,9918.759623
785.829775,995.924147,370.102971,9844.739029
785.830091,1378.971896,370.102971,9326.594869
785.830407,1762.019645,444.123565,8956.491898
785.830723,1149.143247,-148.041188,9400.615463
785.831038,689.485948,-1258.350101,10362.883188
785.831354,1378.971896,-148.041188,10362.883188
785.831670,1532.190996,-0.000000,9844.739029
785.831986,1225.752797,-0.000000,9696.697840
785.832302,689.485948,518.144159,9400.615463
785.832617,229.828649,-0.000000,9622.677246
785.832933,536.266849,444.123565,9770.718434
785.833249,1608.800546,1110.308913,8956.491898
785.833565,1532.190996,-74.020594,8956.491898
785.833881,766.095498,-518.144159,9178.553681
785.834196,0.000000,-888.247130,9252.574275
785.834512,229.828649,-1480.411884,10140.821405
785.834828,536.266849,-222.061783,9770.718434
785.835144,459.657299,-444.123565,9844.739029
785.835460,229.828649,-0.000000,8956.491898
785.835775,-229.828649,-0.000000,8882.471304
785.836091,0.000000,-666.185348,9326.594869
785.836407,766.095498,444.123565,9326.594869
785.836723,995.924147,518.144159,8586.388927
785.837039,766.095498,296.082377,8586.388927
785.837355,229.828649,-74.020594,8882.471304
785.837670,0.000000,-1110.308913,9696.697840
785.837986,76.609550,-444.123565,9474.636058
785.838302,689.485948,74.020594,9474.636058
785.838618,842.705048,-74.020594,9178.553681
785.838934,76.609550,444.123565,8734.430116
785.839249,-383.047749,-0.000000,9474.636058
785.839565,0.000000,-740.205942,8882.471304
785.839881,612.876398,444.123565,8882.471304
785.840197,0.000000,-222.061783,9474.636058
785.840513,0.000000,-666.185348,9178.553681
785.840828,-459.657299,-1110.308913,9548.656652
785.841144,-919.314598,-1998.556043,10362.883188
785.841460,-229.828649,-1184.329507,10362.883188
785.841776,0.000000,-888.247130,9474.636058
785.842092,153.219100,-1184.329507,9178.553681
785.842407,-229.828649,-148.041188,9548.656652
785.842723,0.000000,-296.082377,9548.656652
785.843039,766.095498,518.144159,8364.327145
785.843355,995.924147,518.144159,8660.409521
785.843671,1072.533697,-74.020594,8142.265362
785.843987,612.876398,-1332.370696,9844.739029
785.844302,-229.828649,-1776.494261,10362.883188
785.844618,76.609550,-1332.370696,10436.903782
785.844934,1072.533697,-0.000000,10362.883188
785.845250,612.876398,444.123565,9178.553681
785.845566,0.000000,888.247130,9548.656652
785.845881,-229.828649,296.082377,10436.903782
785.846197,229.828649,-0.000000,10362.883188
785.846513,919.314598,888.247130,10066.800811
785.846829,1149.143247,1036.288319,9474.636058
785.847145,995.924147,-740.205942,9326.594869
785.847460,612.876398,-814.226536,10362.883188
785.847776,229.828649,-1406.391290,10214.842000
785.848092,766.095498,148.041188,10436.903782
785.848408,1378.971896,518.144159,9844.739029
785.848724,766.095498,-0.000000,9844.739029
785.849039,1072.533697,888.247130,9696.697840
785.849355,919.314598,444.123565,9030.512492
785.849671,1149.143247,222.061783,9326.594869
785.849987,2221.676944,370.102971,9548.656652
785.850303,2068.457845,-1110.308913,8808.450710
785.850619,1149.143247,-74.020594,8660.409521
785.850934,383.047749,-1184.329507,9474.636058
785.851250,612.876398,-1480.411884,9474.636058
785.851566,1149.143247,-666.185348,9696.697840
785.851882,-153.219100,-740.205942,9030.512492
785.852198,0.000000,-666.185348,9622.677246
785.852513,-842.705048,-1110.308913,9918.759623
785.852829,-612.876398,-74.020594,9178.553681
785.853145,229.828649,518.144159,8586.388927
785.853461,842.705048,-222.061783,9252.574275
785.853777,306.438199,-518.144159,8660.409521
785.854092,-766.095498,-1036.288319,9178.553681
785.854408,-766.095498,-1776.494261,10066.800811
785.854724,-383.047749,-370.102971,10214.842000
785.855040,-229.828649,-148.041188,9548.656652
785.855356,-76.609550,222.061783,9622.677246
785.855671,-612.876398,1036.288319,9178.553681
785.855987,0.000000,1036.288319,7994.224174
785.856303,0.000000,1258.350101,8364.327145
785.856619,842.705048,592.164754,9548.656652
785.856935,1302.362347,-296.082377,9104.533087
785.857251,919.314598,444.123565,7624.121203
785.857566,0.000000,-296.082377,9400.615463
785.857882,306.438199,-740.205942,10288.862594
785.858198,689.485948,296.082377,9548.656652
785.858514,536.266849,296.082377,9548.656652
785.858830,0.000000,370.102971,9474.636058
785.859145,-459.657299,296.082377,9178.553681
785.859461,-153.219100,148.041188,9474.636058
785.859777,612.876398,592.164754,9474.636058
785.860093,1072.533697,-444.123565,9326.594869
785.860409,383.047749,-962.267725,9548.656652
785.860724,-306.438199,-666.185348,9844.739029
785.861040,-459.657299,-1702.473667,10658.965565
785.861356,0.000000,-296.082377,9992.780217
785.861672,536.266849,222.061783,9844.739029
785.861988,306.438199,-148.041188,9548.656652
785.862303,383.047749,444.123565,10288.862594
785.862619,536.266849,74.020594,9104.533087
785.862935,1302.362347,740.205942,8882.471304
785.863251,1608.800546,962.267725,9326.594869
785.863567,1378.971896,-592.164754,9622.677246
785.863883,995.924147,-814.226536,10214.842000
785.864198,306.438199,-1110.308913,10584.944971
785.864514,0.000000,-740.205942,9918.759623
785.864830,459.657299,-0.000000,10807.006753
785.865146,612.876398,-148.041188,9992.780217
