#time,accel_x,accel_y,accel_z
635.719713,842.705048,1184.329507,9326.594869
635.720029,1378.971896,1554.432478,9104.533087
635.720344,1608.800546,1554.432478,8734.430116
635.720660,1378.971896,1628.453072,8660.409521
635.720975,1608.800546,962.267725,9178.553681
635.721291,1378.971896,592.164754,9548.656652
635.721607,1072.533697,296.082377,9992.780217
635.721922,842.705048,296.082377,9844.739029
635.722238,689.485948,740.205942,9918.759623
635.722554,383.047749,740.205942,9844.739029
635.722869,689.485948,962.267725,9622.677246
635.723185,766.095498,888.247130,9770.718434
635.723501,842.705048,222.061783,9770.718434
635.723816,1225.752797,296.082377,9474.636058
635.724132,1455.581446,-148.041188,9548.656652
635.724448,1838.629195,-296.082377,9400.615463
635.724763,2374.896044,-444.123565,10066.800811
635.725079,2221.676944,-0.000000,9844.739029
635.725395,2298.286494,370.102971,9474.636058
635.725710,2528.115143,1258.350101,9326.594869
635.726026,3140.991542,1850.514855,9030.512492
635.726341,3217.601092,2368.659014,8734.430116
635.726657,3524.039291,2590.720797,8734.430116
635.726973,3753.867940,2960.823768,8438.347739
635.727288,3907.087040,2368.659014,8512.368333
635.727604,3983.696590,2220.617826,8882.471304
635.727920,3677.258390,1480.411884,9178.553681
635.728235,3753.867940,1258.350101,9252.574275
635.728551,3524.039291,1184.329507,9326.594869
635.728867,3294.210641,1480.411884,9326.594869
635.729182,3370.820191,1332.370696,9548.656652
635.729498,2834.553343,1998.556043,9696.697840
635.729814,2987.772442,2294.638420,9548.656652
635.730129,2987.772442,2738.761985,9474.636058
635.730445,3217.601092,3182.885551,9622.677246
635.730761,2911.162892,3404.947333,9474.636058
635.731076,3524.039291,3627.009116,9030.512492
635.731392,3524.039291,3552.988522,9030.512492
635.731707,3983.696590,3404.947333,9178.553681
635.732023,4443.353888,3552.988522,9400.615463
635.732339,4213.525239,3404.947333,9474.636058
635.732654,4290.134789,4145.153275,9178.553681
635.732970,4443.353888,4293.194464,9252.574275
635.733286,4519.963438,4293.194464,9474.636058
635.733601,4443.353888,4737.318029,9548.656652
635.733917,3983.696590,4737.318029,9474.636058
635.734233,4136.915689,4515.256246,9474.636058
635.734548,3217.601092,3849.070898,9696.697840
635.734864,2374.896044,3627.009116,10066.800811
635.735180,1991.848295,3034.844362,10658.965565
635.735495,1455.581446,2812.782580,10881.027347
635.735811,1149.143247,2442.679609,11103.089130
635.736127,612.876398,2664.741391,11103.089130
635.736442,766.095498,2738.761985,10584.944971
635.736758,995.924147,2368.659014,10436.903782
635.737073,1225.752797,2442.679609,10140.821405
635.737389,1685.410096,2220.617826,10214.842000
635.737705,1991.848295,1480.411884,10288.862594
635.738020,2145.067394,1036.288319,10066.800811
635.738336,2604.724693,666.185348,10362.883188
635.738652,2681.334243,814.226536,10658.965565
635.738967,2298.286494,518.144159,10362.883188
635.739283,2604.724693,888.247130,10510.924376
635.739599,2987.772442,1702.473667,9844.739029
635.739914,2987.772442,2368.659014,9326.594869
635.740230,3294.210641,2812.782580,9030.512492
635.740546,3294.210641,2516.700203,8882.471304
635.740861,3524.039291,2072.576638,8438.347739
635.741177,3447.429741,1332.370696,8586.388927
635.741493,2834.553343,444.123565,8882.471304
635.741808,2298.286494,-0.000000,8956.491898
635.742124,1532.190996,-0.000000,9178.553681
635.742439,842.705048,-444.123565,9326.594869
635.742755,76.609550,-666.185348,9400.615463
635.743071,-1072.533697,-592.164754,9696.697840
635.743386,-1225.752797,-1554.432478,10066.800811
635.743702,-1685.410096,-2442.679609,10881.027347
635.744018,-1915.238745,-2590.720797,11029.068536
635.744333,-1762.019645,-2590.720797,11029.068536
635.744649,-1532.190996,-1850.514855,10807.006753
635.744965,-842.705048,-1258.350101,9992.780217
635.745280,76.609550,-592.164754,9030.512492
635.745596,1302.362347,-0.000000,8290.306550
635.745912,2068.457845,666.185348,7105.977043
635.746227,2911.162892,814.226536,6365.771101
635.746543,3064.381992,666.185348,5773.606348
635.746859,3064.381992,592.164754,5921.647536
635.747174,2757.943793,-74.020594,6513.812290
635.747490,1838.629195,-1554.432478,7624.121203
635.747806,76.609550,-2590.720797,8882.471304
635.748122,-1072.533697,-4219.173869,10288.862594
635.748438,-2298.286494,-4959.379811,11917.315666
635.748753,-2987.772442,-5255.462188,12953.603985
635.749069,-2911.162892,-4811.338623,13323.706956
635.749385,-2681.334243,-3330.926739,12805.562797
635.749701,-1072.533697,-1554.432478,11325.150913
635.750017,459.657299,-74.020594,10066.800811
635.750333,2068.457845,1036.288319,8216.285956
635.750649,3447.429741,2220.617826,6809.894666
635.750965,5209.449386,2590.720797,5033.400406
635.751281,6588.421283,2368.659014,4811.338623
635.751597,6894.859482,2368.659014,4737.318029
635.751913,6128.763984,1702.473667,5181.441594
635.752229,4443.353888,-0.000000,6661.853478
635.752545,2834.553343,-1110.308913,8512.368333
635.752860,536.266849,-2146.597232,10807.006753
635.753176,-1149.143247,-2812.782580,12731.542202
635.753492,-2834.553343,-2886.803174,13693.809927
635.753808,-3600.648841,-1850.514855,14211.954086
635.754124,-3524.039291,-370.102971,13545.768739
635.754440,-2681.334243,740.205942,12065.356855
635.754756,-2145.067394,2368.659014,11103.089130
635.755072,-766.095498,2886.803174,8882.471304
635.755388,612.876398,3108.864956,7179.997637
635.755704,1608.800546,2590.720797,7105.977043
635.756020,2604.724693,2664.741391,6883.915261
635.756336,2604.724693,2368.659014,6735.874072
635.756652,2681.334243,1702.473667,7476.080014
635.756967,1532.190996,1036.288319,9104.533087
635.757283,919.314598,-222.061783,10732.986159
635.757599,0.000000,-592.164754,11991.336260
635.757915,-1455.581446,-222.061783,12509.480420
635.758231,-1915.238745,666.185348,12583.501014
635.758547,-1378.971896,1924.535449,12287.418637
635.758863,-1225.752797,2812.782580,11621.233289
635.759179,-919.314598,5033.400406,10140.821405
635.759495,-383.047749,5033.400406,8586.388927
635.759811,612.876398,3701.029710,8068.244768
635.760127,1532.190996,2294.638420,8142.265362
635.760443,1608.800546,888.247130,8216.285956
635.760759,1302.362347,518.144159,8068.244768
635.761074,1302.362347,-370.102971,8808.450710
635.761390,229.828649,-1184.329507,9918.759623
635.761706,-383.047749,-1850.514855,11547.212695
635.762022,-1225.752797,-1850.514855,11991.336260
635.762338,-1915.238745,-814.226536,12139.377449
635.762654,-2221.676944,-74.020594,11399.171507
635.762970,-1532.190996,1184.329507,11399.171507
635.763286,-612.876398,2960.823768,9992.780217
635.763602,153.219100,4293.194464,8882.471304
635.763918,1072.533697,4293.194464,7402.059420
635.764234,2451.505594,1776.494261,7328.038826
635.764550,3447.429741,-888.247130,7624.121203
635.764866,2987.772442,-1554.432478,7624.121203
635.765181,2221.676944,-1406.391290,7920.203579
635.765497,1225.752797,-1554.432478,8734.430116
635.765813,919.314598,-1924.535449,9770.718434
635.766129,-383.047749,-2220.617826,11103.089130
635.766445,-1608.800546,-2590.720797,11991.336260
635.766761,-2221.676944,-2664.741391,11547.212695
635.767077,-2221.676944,-1850.514855,11473.192101
635.767393,-1378.971896,-0.000000,10510.924376
635.767709,-306.438199,2146.597232,9252.574275
635.768025,229.828649,3478.967927,7994.224174
635.768341,1225.752797,1924.535449,7624.121203
635.768657,2528.115143,-888.247130,8068.244768
635.768973,2528.115143,-2590.720797,7994.224174
635.769288,2068.457845,-3034.844362,7994.224174
635.769604,2068.457845,-2442.679609,7550.100608
635.769920,2068.457845,-2294.638420,8364.327145
635.770236,1378.971896,-2442.679609,9400.615463
635.770552,766.095498,-2442.679609,10288.862594
635.770868,-459.657299,-3108.864956,10140.821405
635.771184,-1149.143247,-3182.885551,10140.821405
635.771500,-1685.410096,-2146.597232,10140.821405
635.771816,-1455.581446,-592.164754,9918.759623
635.772132,-766.095498,1258.350101,8808.450710
635.772448,-612.876398,1332.370696,8660.409521
635.772764,76.609550,-888.247130,8882.471304
635.773080,0.000000,-3478.967927,9178.553681
635.773395,612.876398,-3997.112087,9622.677246
635.773711,995.924147,-3478.967927,8882.471304
635.774027,1685.410096,-2590.720797,9104.533087
635.774343,2374.896044,-1554.432478,9104.533087
635.774659,2451.505594,-814.226536,9252.574275
635.774975,2451.505594,-962.267725,9030.512492
635.775291,1991.848295,-592.164754,8734.430116
635.775607,995.924147,-0.000000,8216.285956
635.775923,842.705048,1110.308913,8512.368333
635.776239,1072.533697,1924.535449,8660.409521
635.776555,1149.143247,1924.535449,8956.491898
635.776871,76.609550,592.164754,9030.512492
635.777187,-689.485948,-1332.370696,9770.718434
635.777502,-1225.752797,-2664.741391,10881.027347
635.777818,-1378.971896,-3108.864956,11177.109724
635.778134,-1149.143247,-2146.597232,10955.047942
635.778450,-1072.533697,-1406.391290,11177.109724
635.778766,-536.266849,-296.082377,10881.027347
635.779082,0.000000,-0.000000,10214.842000
635.779398,229.828649,444.123565,10362.883188
635.779714,383.047749,1406.391290,9178.553681
635.780030,689.485948,2072.576638,8660.409521
635.780346,1302.362347,2738.761985,8290.306550
635.780662,1762.019645,2442.679609,8290.306550
635.780978,1225.752797,2146.597232,8438.347739
635.781293,766.095498,814.226536,9030.512492
635.781609,153.219100,-0.000000,10140.821405
635.781925,-153.219100,-296.082377,10510.924376
635.782241,0.000000,-148.041188,10881.027347
635.782557,0.000000,222.061783,11029.068536
635.782873,-153.219100,888.247130,11029.068536
635.783189,-306.438199,1480.411884,10584.944971
635.783505,229.828649,1554.432478,9770.718434
635.783821,306.438199,1850.514855,9548.656652
635.784137,1072.533697,1998.556043,8734.430116
635.784453,919.314598,2442.679609,8216.285956
635.784769,1455.581446,2220.617826,8290.306550
635.785085,1072.533697,962.267725,8734.430116
635.785400,536.266849,-0.000000,9474.636058
635.785716,-153.219100,-148.041188,10140.821405
635.786032,-459.657299,-518.144159,10362.883188
635.786348,-383.047749,-444.123565,10955.047942
635.786664,-153.219100,-370.102971,11251.130318
635.786980,0.000000,-222.061783,11029.068536
635.787296,229.828649,296.082377,10436.903782
635.787612,306.438199,518.144159,9474.636058
635.787928,919.314598,1036.288319,8956.491898
635.788244,1838.629195,1776.494261,8216.285956
635.788560,2298.286494,1480.411884,7550.100608
635.788876,2374.896044,1258.350101,7624.121203
635.789192,1762.019645,-0.000000,8142.265362
635.789507,1378.971896,-740.205942,9252.574275
635.789823,76.609550,-1850.514855,9992.780217
635.790139,-229.828649,-1480.411884,10658.965565
635.790455,-459.657299,-1924.535449,11029.068536
635.790771,-612.876398,-1628.453072,11621.233289
635.791087,-612.876398,-1332.370696,11547.212695
635.791403,0.000000,-296.082377,10658.965565
635.791719,536.266849,740.205942,9770.718434
635.792035,1072.533697,1554.432478,8734.430116
635.792351,2145.067394,1776.494261,7698.141797
635.792667,2911.162892,1776.494261,6809.894666
635.792983,3217.601092,592.164754,7031.956449
635.793299,2757.943793,-370.102971,7254.018232
635.793614,1685.410096,-1554.432478,8512.368333
635.793930,995.924147,-2220.617826,9178.553681
635.794246,306.438199,-2368.659014,10066.800811
635.794562,-689.485948,-2146.597232,10955.047942
635.794878,-995.924147,-1776.494261,11251.130318
635.795194,-1302.362347,-1554.432478,11177.109724
635.795510,-1378.971896,-962.267725,10732.986159
635.795826,-1378.971896,-222.061783,10362.883188
635.796142,-536.266849,296.082377,9474.636058
635.796458,306.438199,296.082377,8660.409521
635.796774,1072.533697,-0.000000,7920.203579
635.797090,1455.581446,-814.226536,8068.244768
635.797406,1455.581446,-1554.432478,8438.347739
635.797721,1302.362347,-2072.576638,9178.553681
635.798037,1225.752797,-2072.576638,8956.491898
635.798353,1225.752797,-1702.473667,9474.636058
635.798669,766.095498,-1110.308913,9696.697840
635.798985,1072.533697,-1184.329507,10214.842000
635.799301,153.219100,-1036.288319,10288.862594
635.799617,-229.828649,-148.041188,9844.739029
635.799933,-229.828649,370.102971,9770.718434
635.800249,-306.438199,666.185348,9104.533087
635.800565,76.609550,740.205942,8882.471304
635.800881,536.266849,-74.020594,8586.388927
635.801197,153.219100,-888.247130,8660.409521
635.801513,0.000000,-1702.473667,9326.594869
635.801828,-459.657299,-2590.720797,9918.759623
635.802144,-612.876398,-2146.597232,9844.739029
635.802460,-766.095498,-1702.473667,10436.903782
635.802776,-612.876398,-1110.308913,10658.965565
635.803092,-383.047749,-888.247130,10584.944971
635.803408,-383.047749,-592.164754,10807.006753
635.803724,-536.266849,-0.000000,9622.677246
635.804040,0.000000,1184.329507,9400.615463
635.804356,306.438199,1184.329507,8734.430116
635.804672,919.314598,1628.453072,8142.265362
635.804988,1302.362347,962.267725,8438.347739
635.805304,1072.533697,666.185348,8586.388927
635.805620,842.705048,-74.020594,8734.430116
635.805935,612.876398,-740.205942,9474.636058
635.806251,229.828649,-962.267725,9844.739029
635.806567,0.000000,-1110.308913,10362.883188
635.806883,-229.828649,-666.185348,10658.965565
635.807199,76.609550,-518.144159,10881.027347
635.807515,-153.219100,-0.000000,10362.883188
635.807831,-153.219100,1332.370696,9770.718434
635.808147,383.047749,1702.473667,8808.450710
635.808463,612.876398,1776.494261,8438.347739
635.808779,1149.143247,1702.473667,8068.244768
635.809095,1225.752797,1184.329507,8364.327145
635.809411,1532.190996,-74.020594,8808.450710
635.809727,919.314598,-666.185348,9622.677246
635.810042,536.266849,-1110.308913,9548.656652
635.810358,306.438199,-740.205942,10288.862594
635.810674,306.438199,-0.000000,10436.903782
635.810990,383.047749,-0.000000,10214.842000
635.811306,536.266849,-0.000000,10436.903782
635.811622,229.828649,666.185348,9696.697840
635.811938,229.828649,1332.370696,9696.697840
635.812254,612.876398,1628.453072,9030.512492
635.812570,995.924147,1850.514855,8290.306550
635.812886,1685.410096,1332.370696,8364.327145
635.813202,1225.752797,370.102971,8660.409521
635.813518,995.924147,-0.000000,9252.574275
635.813834,612.876398,-888.247130,9696.697840
635.814149,0.000000,-1332.370696,10140.821405
635.814465,0.000000,-1554.432478,10881.027347
635.814781,-153.219100,-888.247130,11177.109724
635.815097,0.000000,-592.164754,10955.047942
635.815413,229.828649,-148.041188,10436.903782
635.815729,612.876398,666.185348,9696.697840
635.816045,919.314598,1480.411884,9104.533087
635.816361,1532.190996,2220.617826,8068.244768
635.816677,2221.676944,2368.659014,7624.121203
635.816993,2298.286494,1110.308913,7624.121203
635.817309,2451.505594,-148.041188,8068.244768
635.817625,1378.971896,-888.247130,8660.409521
635.817940,383.047749,-1776.494261,9770.718434
635.818256,-306.438199,-1850.514855,10066.800811
635.818572,-766.095498,-1924.535449,10881.027347
635.818888,-1225.752797,-1776.494261,11177.109724
635.819204,-1608.800546,-1924.535449,11325.150913
635.819520,-995.924147,-1554.432478,10955.047942
635.819836,-1225.752797,-444.123565,10436.903782
635.820152,-919.314598,222.061783,9548.656652
635.820468,0.000000,1258.350101,8586.388927
635.820784,536.266849,1184.329507,7698.141797
635.821100,1225.752797,444.123565,7846.182985
635.821416,1532.190996,-740.205942,8068.244768
635.821732,1149.143247,-1332.370696,8364.327145
635.822047,1225.752797,-1702.473667,9474.636058
635.822363,612.876398,-2220.617826,9474.636058
635.822679,383.047749,-1628.453072,9992.780217
635.822995,0.000000,-1406.391290,10510.924376
635.823311,0.000000,-1036.288319,10732.986159
635.823627,459.657299,-888.247130,9918.759623
635.823943,-306.438199,148.041188,9622.677246
635.824259,-306.438199,814.226536,9178.553681
635.824575,459.657299,1036.288319,8142.265362
635.824891,1149.143247,888.247130,7698.141797
635.825207,76.609550,-0.000000,7920.203579
635.825523,842.705048,-1628.453072,8512.368333
635.825839,76.609550,-1998.556043,9696.697840
635.826154,0.000000,-2590.720797,9696.697840
635.826470,-229.828649,-2590.720797,10214.842000
635.826786,0.000000,-1998.556043,10658.965565
635.827102,-536.266849,-1480.411884,10807.006753
635.827418,-153.219100,-1110.308913,10658.965565
635.827734,0.000000,-370.102971,9992.780217
635.828050,383.047749,370.102971,9548.656652
635.828366,689.485948,1110.308913,8734.430116
635.828682,1532.190996,2220.617826,7772.162391
635.828998,2145.067394,1406.391290,7402.059420
635.829314,2221.676944,814.226536,7846.182985
635.829630,2145.067394,-222.061783,8216.285956
635.829946,1532.190996,-1110.308913,9252.574275
635.830261,1149.143247,-1258.350101,9622.677246
635.830577,459.657299,-1184.329507,10140.821405
635.830893,153.219100,-888.247130,10732.986159
635.831209,0.000000,-888.247130,10881.027347
635.831525,0.000000,-814.226536,10881.027347
635.831841,0.000000,370.102971,10584.944971
635.832157,153.219100,1406.391290,9844.739029
635.832473,842.705048,2368.659014,9030.512492
635.832789,1455.581446,2664.741391,7624.121203
635.833105,1991.848295,2442.679609,7846.182985
635.833421,2068.457845,1406.391290,8068.244768
635.833737,1991.848295,444.123565,8512.368333
635.834053,1302.362347,-222.061783,9326.594869
635.834368,689.485948,-962.267725,9770.718434
635.834684,383.047749,-740.205942,10362.883188
635.835000,76.609550,-370.102971,10807.006753
635.835316,0.000000,-296.082377,11177.109724
635.835632,0.000000,-296.082377,11103.089130
635.835948,-383.047749,-0.000000,10510.924376
635.836264,153.219100,1036.288319,9918.759623
635.836580,229.828649,1850.514855,9400.615463
635.836896,842.705048,2368.659014,8882.471304
635.837212,1072.533697,1702.473667,8364.327145
635.837528,1072.533697,888.247130,8438.347739
635.837844,995.924147,222.061783,9178.553681
635.838160,919.314598,-740.205942,9474.636058
635.838475,383.047749,-1258.350101,9992.780217
635.838791,153.219100,-1036.288319,10732.986159
635.839107,76.609550,-814.226536,11103.089130
635.839423,76.609550,-592.164754,10955.047942
635.839739,383.047749,-0.000000,10732.986159
635.840055,306.438199,888.247130,10140.821405
635.840371,459.657299,1702.473667,9400.615463
635.840687,1072.533697,1998.556043,8586.388927
635.841003,1302.362347,2368.659014,7846.182985
635.841319,1532.190996,1776.494261,7772.162391
635.841635,1225.752797,-0.000000,8512.368333
635.841951,612.876398,-814.226536,8882.471304
635.842267,0.000000,-1554.432478,9770.718434
635.842582,-766.095498,-1924.535449,9770.718434
635.842898,-995.924147,-1924.535449,10732.986159
635.843214,-1072.533697,-1406.391290,10881.027347
635.843530,-842.705048,-1702.473667,10881.027347
635.843846,-1225.752797,-1036.288319,10732.986159
635.844162,-842.705048,-0.000000,9918.759623
635.844478,-842.705048,370.102971,9326.594869
635.844794,76.609550,740.205942,8660.409521
635.845110,842.705048,1036.288319,7624.121203
635.845426,1149.143247,592.164754,7550.100608
635.845742,1302.362347,-666.185348,8068.244768
635.846057,1225.752797,-1628.453072,8438.347739
635.846373,995.924147,-2146.597232,9400.615463
635.846689,612.876398,-2072.576638,9474.636058
635.847005,0.000000,-2146.597232,9992.780217
635.847320,0.000000,-1332.370696,10658.965565
635.847636,229.828649,-1850.514855,10362.883188
635.847952,0.000000,-740.205942,10214.842000
635.848268,229.828649,-0.000000,9474.636058
635.848583,383.047749,296.082377,8882.471304
635.848899,766.095498,814.226536,8364.327145
635.849215,1302.362347,370.102971,7846.182985
635.849531,1302.362347,-962.267725,8216.285956
635.849846,919.314598,-1480.411884,8660.409521
635.850162,459.657299,-2220.617826,9326.594869
635.850478,0.000000,-2516.700203,9770.718434
635.850794,-153.219100,-2294.638420,10288.862594
635.851110,-536.266849,-1850.514855,10362.883188
635.851425,-536.266849,-1850.514855,10732.986159
635.851741,-536.266849,-1480.411884,10436.903782
635.852057,-229.828649,-592.164754,10214.842000
635.852373,0.000000,-0.000000,10066.800811
635.852688,383.047749,444.123565,8882.471304
635.853004,919.314598,962.267725,8290.306550
635.853320,1455.581446,814.226536,7920.203579
635.853636,1838.629195,-296.082377,8290.306550
635.853951,1302.362347,-592.164754,8734.430116
635.854267,1149.143247,-1110.308913,9474.636058
635.854583,306.438199,-1702.473667,9622.677246
635.854899,76.609550,-1332.370696,10288.862594
635.855214,0.000000,-888.247130,10807.006753
635.855530,0.000000,-888.247130,11029.068536
635.855846,76.609550,-444.123565,10881.027347
635.856162,76.609550,296.082377,10288.862594
635.856478,229.828649,1258.350101,9548.656652
635.856793,1072.533697,1924.535449,9252.574275
635.857109,1685.410096,2294.638420,8142.265362
635.857425,1915.238745,1924.535449,7402.059420
635.857741,1532.190996,814.226536,7994.224174
635.858056,1455.581446,-0.000000,8364.327145
635.858372,612.876398,-592.164754,9474.636058
635.858688,229.828649,-1036.288319,9844.739029
635.859004,0.000000,-1184.329507,10658.965565
635.859319,-766.095498,-1036.288319,11177.109724
635.859635,-842.705048,-1036.288319,11251.130318
635.859951,-689.485948,-518.144159,10955.047942
635.860267,-995.924147,148.041188,10436.903782
635.860582,-689.485948,1702.473667,9918.759623
635.860898,229.828649,2368.659014,9030.512492
635.861214,383.047749,2146.597232,8216.285956
635.861530,1149.143247,1850.514855,7846.182985
635.861846,1149.143247,740.205942,8068.244768
635.862161,1225.752797,-444.123565,8882.471304
635.862477,766.095498,-666.185348,9474.636058
635.862793,306.438199,-962.267725,9918.759623
635.863109,306.438199,-592.164754,10510.924376
635.863424,153.219100,-740.205942,10510.924376
635.863740,0.000000,-296.082377,10955.047942
635.864056,229.828649,370.102971,10658.965565
635.864372,229.828649,1184.329507,9844.739029
635.864687,229.828649,2368.659014,9030.512492
635.865003,1225.752797,2368.659014,8438.347739
635.865319,1378.971896,2368.659014,7994.224174
635.865635,1072.533697,1554.432478,7994.224174
635.865950,919.314598,-0.000000,8290.306550
635.866266,612.876398,-814.226536,9474.636058
635.866582,76.609550,-962.267725,9844.739029
635.866898,-536.266849,-1258.350101,10362.883188
635.867214,0.000000,-1258.350101,10955.047942
635.867529,-919.314598,-1776.494261,10955.047942
635.867845,-766.095498,-1406.391290,11177.109724
635.868161,-536.266849,-962.267725,10658.965565
635.868477,-229.828649,-0.000000,10288.862594
635.868792,76.609550,1332.370696,9178.553681
635.869108,612.876398,1850.514855,8290.306550
635.869424,1378.971896,1480.411884,7846.182985
635.869740,1608.800546,-0.000000,8068.244768
635.870055,1608.800546,-148.041188,8438.347739
635.870371,1378.971896,-1332.370696,9030.512492
635.870687,995.924147,-2072.576638,9696.697840
635.871003,689.485948,-2294.638420,10362.883188
635.871319,536.266849,-1702.473667,10510.924376
635.871634,76.609550,-1480.411884,10658.965565
635.871950,0.000000,-1480.411884,10732.986159
635.872266,306.438199,-666.185348,10362.883188
635.872582,689.485948,222.061783,9400.615463
635.872897,689.485948,1110.308913,8734.430116
635.873213,1378.971896,1110.308913,8290.306550
635.873529,1608.800546,444.123565,7328.038826
635.873845,1685.410096,-444.123565,7994.224174
635.874160,1225.752797,-1628.453072,8512.368333
635.874476,766.095498,-2146.597232,9474.636058
635.874792,459.657299,-1924.535449,9326.594869
635.875108,0.000000,-1776.494261,9770.718434
635.875423,0.000000,-1702.473667,10584.944971
635.875739,-306.438199,-1850.514855,10658.965565
635.876055,-536.266849,-1702.473667,10732.986159
635.876371,-306.438199,-888.247130,10214.842000
635.876687,0.000000,222.061783,9178.553681
635.877002,76.609550,1258.350101,8512.368333
635.877318,1072.533697,1554.432478,7550.100608
635.877634,1685.410096,962.267725,7772.162391
635.877950,1378.971896,-0.000000,8068.244768
635.878265,995.924147,-518.144159,8512.368333
635.878581,536.266849,-1480.411884,9400.615463
635.878897,536.266849,-1332.370696,9844.739029
635.879213,383.047749,-1110.308913,10214.842000
635.879528,0.000000,-888.247130,10288.862594
635.879844,-76.609550,-518.144159,10881.027347
635.880160,-612.876398,-148.041188,10955.047942
635.880476,229.828649,518.144159,10140.821405
635.880791,153.219100,1406.391290,9474.636058
635.881107,612.876398,2146.597232,8660.409521
635.881423,1532.190996,1998.556043,7994.224174
635.881739,1991.848295,1258.350101,7772.162391
635.882055,1455.581446,370.102971,8068.244768
635.882370,1072.533697,-592.164754,8734.430116
635.882686,229.828649,-666.185348,9548.656652
635.883002,-153.219100,-1110.308913,10066.800811
635.883318,-383.047749,-1036.288319,10362.883188
635.883633,-766.095498,-1110.308913,11251.130318
635.883949,-1072.533697,-1184.329507,11251.130318
635.884265,-919.314598,-666.185348,11251.130318
635.884581,0.000000,-0.000000,10362.883188
635.884896,-153.219100,1184.329507,9844.739029
635.885212,229.828649,1702.473667,8956.491898
635.885528,842.705048,1628.453072,8142.265362
635.885844,995.924147,1036.288319,8216.285956
635.886159,1072.533697,-0.000000,8660.409521
635.886475,919.314598,-814.226536,9030.512492
635.886791,842.705048,-1036.288319,9770.718434
635.887107,842.705048,-1036.288319,10140.821405
635.887423,306.438199,-740.205942,10436.903782
635.887738,0.000000,-444.123565,10955.047942
635.888054,76.609550,-148.041188,10881.027347
635.888370,153.219100,222.061783,10436.903782
635.888686,383.047749,1332.370696,9918.759623
635.889001,536.266849,1850.514855,9030.512492
635.889317,766.095498,2072.576638,8734.430116
635.889633,1685.410096,1998.556043,7772.162391
635.889949,1762.019645,888.247130,8068.244768
635.890264,1072.533697,-370.102971,8512.368333
635.890580,766.095498,-1258.350101,9622.677246
635.890896,76.609550,-1554.432478,9918.759623
635.891212,0.000000,-1702.473667,10140.821405
635.891527,-306.438199,-1554.432478,10881.027347
635.891843,-536.266849,-1776.494261,10955.047942
635.892159,-842.705048,-1406.391290,10955.047942
635.892475,-459.657299,-740.205942,10584.944971
635.892791,0.000000,-0.000000,9696.697840
635.893106,383.047749,888.247130,9030.512492
635.893422,919.314598,1628.453072,7920.203579
635.893738,1685.410096,1184.329507,7550.100608
635.894054,2068.457845,-0.000000,7698.141797
635.894369,1915.238745,-740.205942,8142.265362
635.894685,1225.752797,-1406.391290,8882.471304
635.895001,1225.752797,-2368.659014,9104.533087
635.895317,536.266849,-1406.391290,10214.842000
635.895632,383.047749,-1406.391290,10288.862594
635.895948,229.828649,-1406.391290,10584.944971
635.896264,0.000000,-1184.329507,10584.944971
635.896580,76.609550,-370.102971,9844.739029
635.896895,459.657299,444.123565,9474.636058
635.897211,536.266849,1036.288319,9030.512492
635.897527,995.924147,1332.370696,7994.224174
635.897843,1225.752797,814.226536,7698.141797
635.898159,1455.581446,-444.123565,8216.285956
635.898474,995.924147,-962.267725,8438.347739
635.898790,536.266849,-1554.432478,9178.553681
635.899106,229.828649,-1924.535449,9474.636058
635.899422,0.000000,-1776.494261,10066.800811
635.899737,-612.876398,-1776.494261,10584.944971
635.900053,-459.657299,-1554.432478,10732.986159
635.900369,-459.657299,-1258.350101,10955.047942
635.900685,-612.876398,-370.102971,10066.800811
635.901000,-689.485948,592.164754,9474.636058
635.901316,0.000000,1998.556043,9474.636058
635.901632,383.047749,1184.329507,8068.244768
635.901948,689.485948,1036.288319,7920.203579
635.902264,842.705048,-74.020594,8290.306550
635.902579,612.876398,-1184.329507,9030.512492
635.902895,229.828649,-1628.453072,9400.615463
635.903211,0.000000,-1406.391290,9844.739029
635.903527,-229.828649,-1110.308913,10362.883188
635.903842,-153.219100,-814.226536,10732.986159
635.904158,-229.828649,-740.205942,10881.027347
635.904474,-459.657299,-296.082377,10510.924376
635.904790,-306.438199,592.164754,10066.800811
635.905105,153.219100,1628.453072,9400.615463
635.905421,995.924147,1776.494261,8586.388927
635.905737,1225.752797,1702.473667,8142.265362
635.906053,1225.752797,962.267725,8068.244768
635.906368,1072.533697,-0.000000,8364.327145
635.906684,689.485948,-814.226536,9252.574275
635.907000,229.828649,-1036.288319,9918.759623
635.907316,0.000000,-740.205942,10214.842000
635.907632,-229.828649,-1110.308913,10732.986159
635.907947,-919.314598,-1258.350101,11473.192101
635.908263,-1149.143247,-1258.350101,11325.150913
635.908579,-612.876398,-592.164754,10881.027347
635.908895,0.000000,-0.000000,10140.821405
635.909210,-612.876398,1110.308913,9474.636058
635.909526,766.095498,1258.350101,8586.388927
635.909842,1225.752797,1702.473667,7920.203579
635.910158,1302.362347,1110.308913,8142.265362
635.910473,1378.971896,-444.123565,8438.347739
635.910789,1378.971896,-1110.308913,9104.533087
635.911105,1225.752797,-666.185348,9400.615463
635.911421,995.924147,-1406.391290,10066.800811
635.911736,536.266849,-888.247130,10140.821405
635.912052,766.095498,-1036.288319,10732.986159
635.912368,459.657299,-370.102971,10658.965565
635.912684,612.876398,370.102971,9992.780217
635.913000,612.876398,1258.350101,9474.636058
635.913315,842.705048,2072.576638,8734.430116
635.913631,1302.362347,1850.514855,8142.265362
635.913947,2145.067394,1406.391290,7624.121203
635.914263,1532.190996,222.061783,8142.265362
635.914578,1072.533697,-370.102971,8660.409521
635.914894,689.485948,-1036.288319,9474.636058
635.915210,383.047749,-1332.370696,9992.780217
635.915526,-306.438199,-1332.370696,10362.883188
635.915841,-459.657299,-1110.308913,10807.006753
635.916157,-306.438199,-1036.288319,10881.027347
635.916473,-459.657299,-962.267725,10955.047942
635.916789,-229.828649,-0.000000,10288.862594
635.917104,459.657299,1110.308913,9400.615463
635.917420,612.876398,2220.617826,8660.409521
635.917736,1225.752797,2368.659014,7994.224174
635.918052,1991.848295,1554.432478,7402.059420
635.918368,2298.286494,814.226536,8290.306550
635.918683,1455.581446,-444.123565,8438.347739
635.918999,1302.362347,-1406.391290,9622.677246
635.919315,766.095498,-1554.432478,10140.821405
635.919631,383.047749,-1480.411884,10510.924376
635.919946,-76.609550,-1110.308913,10955.047942
635.920262,0.000000,-740.205942,10881.027347
635.920578,-306.438199,-444.123565,10807.006753
635.920894,-229.828649,370.102971,9844.739029
635.921209,-153.219100,1036.288319,9474.636058
635.921525,459.657299,1258.350101,8956.491898
635.921841,919.314598,1258.350101,8216.285956
635.922157,919.314598,592.164754,8142.265362
635.922472,766.095498,-592.164754,8290.306550
635.922788,995.924147,-1702.473667,9252.574275
635.923104,76.609550,-1776.494261,9992.780217
635.923420,-383.047749,-1554.432478,10288.862594
635.923736,-383.047749,-1110.308913,9992.780217
635.924051,-842.705048,-1258.350101,10584.944971
635.924367,-766.095498,-1406.391290,10955.047942
635.924683,-1072.533697,-1184.329507,10362.883188
635.924999,-612.876398,-222.061783,9770.718434
635.925314,-689.485948,222.061783,9548.656652
635.925630,0.000000,814.226536,8364.327145
635.925946,919.314598,1110.308913,7772.162391
635.926262,919.314598,-0.000000,7920.203579
635.926577,766.095498,-740.205942,8734.430116
635.926893,459.657299,-1850.514855,9252.574275
635.927209,612.876398,-1702.473667,9696.697840
635.927525,383.047749,-1554.432478,10140.821405
635.927840,0.000000,-1110.308913,10066.800811
635.928156,0.000000,-962.267725,10362.883188
635.928472,76.609550,-962.267725,10584.944971
635.928788,383.047749,-592.164754,9844.739029
635.929104,306.438199,-0.000000,9622.677246
635.929419,383.047749,666.185348,9104.533087
635.929735,1072.533697,1480.411884,8734.430116
635.930051,1455.581446,1332.370696,7846.182985
635.930367,2145.067394,666.185348,7846.182985
635.930682,1378.971896,-592.164754,8068.244768
635.930998,1455.581446,-1110.308913,9030.512492
635.931314,766.095498,-1184.329507,9326.594869
635.931630,612.876398,-1554.432478,9992.780217
635.931945,306.438199,-1258.350101,10066.800811
635.932261,153.219100,-1554.432478,10362.883188
635.932577,-229.828649,-1258.350101,10807.006753
635.932893,0.000000,-740.205942,10214.842000
635.933209,0.000000,148.041188,9918.759623
635.933524,689.485948,888.247130,9474.636058
635.933840,1225.752797,1924.535449,8068.244768
635.934156,1378.971896,1702.473667,7846.182985
635.934472,1455.581446,444.123565,8216.285956
635.934787,1378.971896,-518.144159,8438.347739
635.935103,919.314598,-1184.329507,9548.656652
635.935419,1072.533697,-1332.370696,9770.718434
635.935735,383.047749,-1332.370696,10288.862594
635.936050,76.609550,-888.247130,10881.027347
635.936366,0.000000,-962.267725,10955.047942
635.936682,229.828649,-296.082377,10584.944971
635.936998,153.219100,740.205942,10288.862594
635.937313,306.438199,1480.411884,9474.636058
635.937629,766.095498,1998.556043,9030.512492
635.937945,1532.190996,1702.473667,7994.224174
635.938261,1608.800546,1776.494261,7846.182985
635.938577,1455.581446,814.226536,8512.368333
635.938892,1302.362347,-296.082377,9178.553681
635.939208,536.266849,-888.247130,9400.615463
635.939524,153.219100,-1036.288319,9696.697840
635.939840,-306.438199,-1258.350101,10510.924376
635.940155,-766.095498,-1110.308913,11029.068536
635.940471,-1072.533697,-1184.329507,11325.150913
635.940787,-995.924147,-888.247130,11029.068536
635.941103,-842.705048,-0.000000,10066.800811
635.941418,-689.485948,814.226536,9844.739029
635.941734,0.000000,1406.391290,9104.533087
635.942050,919.314598,1554.432478,8068.244768
635.942366,306.438199,962.267725,8660.409521
635.942681,612.876398,-222.061783,8512.368333
635.942997,612.876398,-1110.308913,9104.533087
635.943313,383.047749,-1406.391290,9622.677246
635.943629,153.219100,-1110.308913,9918.759623
635.943945,229.828649,-1184.329507,10066.800811
635.944260,0.000000,-1036.288319,10436.903782
635.944576,-153.219100,-666.185348,10362.883188
635.944892,0.000000,-222.061783,10288.862594
635.945208,0.000000,518.144159,9918.759623
635.945523,459.657299,1110.308913,8808.450710
635.945839,995.924147,1554.432478,8364.327145
635.946155,995.924147,1998.556043,7624.121203
635.946471,1225.752797,1036.288319,7846.182985
635.946787,842.705048,-74.020594,8216.285956
635.947102,536.266849,-1258.350101,8956.491898
635.947418,0.000000,-1702.473667,9844.739029
635.947734,-383.047749,-1776.494261,10066.800811
635.948050,-689.485948,-1776.494261,10510.924376
635.948366,-919.314598,-1776.494261,10807.006753
635.948682,-689.485948,-1850.514855,11325.150913
635.948998,-766.095498,-666.185348,10658.965565
635.949314,-306.438199,444.123565,9474.636058
635.949630,153.219100,1110.308913,8882.471304
635.949946,919.314598,1110.308913,8216.285956
635.950262,1608.800546,1332.370696,7772.162391
635.950578,1915.238745,666.185348,7698.141797
635.950894,1838.629195,-370.102971,8142.265362
635.951210,1455.581446,-1184.329507,9104.533087
635.951525,1685.410096,-1480.411884,9400.615463
635.951841,766.095498,-1332.370696,9770.718434
635.952157,536.266849,-1258.350101,10584.944971
635.952473,383.047749,-1480.411884,11177.109724
635.952789,229.828649,-1184.329507,10807.006753
635.953105,153.219100,-0.000000,10140.821405
635.953421,689.485948,518.144159,9474.636058
635.953737,842.705048,1480.411884,8956.491898
635.954053,1378.971896,1924.535449,8290.306550
635.954369,1685.410096,1628.453072,7550.100608
635.954685,2145.067394,370.102971,8142.265362
635.955001,1608.800546,-740.205942,9030.512492
635.955317,919.314598,-1258.350101,9622.677246
635.955632,766.095498,-1332.370696,10140.821405
635.955948,153.219100,-1332.370696,10362.883188
635.956264,0.000000,-1110.308913,10584.944971
635.956580,-306.438199,-1332.370696,11029.068536
635.956896,-536.266849,-1184.329507,10881.027347
635.957212,-306.438199,-518.144159,10510.924376
635.957528,0.000000,518.144159,9696.697840
635.957844,459.657299,1258.350101,9326.594869
635.958160,1225.752797,1332.370696,8142.265362
635.958476,1072.533697,1406.391290,8068.244768
635.958792,1455.581446,518.144159,8142.265362
635.959108,1072.533697,-444.123565,8956.491898
635.959424,689.485948,-1184.329507,9400.615463
635.959739,76.609550,-1258.350101,9770.718434
635.960055,76.609550,-1406.391290,10584.944971
635.960371,-306.438199,-1258.350101,10732.986159
635.960687,-612.876398,-1036.288319,10955.047942
635.961003,-689.485948,-74.020594,10881.027347
635.961319,-536.266849,444.123565,9992.780217
635.961635,-229.828649,1332.370696,9548.656652
635.961951,229.828649,2072.576638,8734.430116
635.962267,766.095498,1776.494261,7772.162391
635.962583,1072.533697,1110.308913,7920.203579
635.962899,842.705048,370.102971,8438.347739
635.963215,229.828649,-518.144159,8734.430116
635.963531,-153.219100,-1110.308913,9622.677246
635.963846,0.000000,-962.267725,9918.759623
635.964162,-536.266849,-962.267725,10140.821405
635.964478,-689.485948,-962.267725,10881.027347
635.964794,-612.876398,-1332.370696,11029.068536
635.965110,-842.705048,-888.247130,10658.965565
635.965426,-383.047749,518.144159,10066.800811
635.965742,306.438199,1258.350101,9474.636058
635.966058,766.095498,1480.411884,9252.574275
635.966374,766.095498,1850.514855,7698.141797
635.966690,1072.533697,1258.350101,7698.141797
635.967006,1378.971896,-74.020594,8512.368333
635.967322,1149.143247,-1184.329507,8882.471304
635.967638,689.485948,-1480.411884,9844.739029
635.967954,459.657299,-1850.514855,10214.842000
635.968269,612.876398,-1554.432478,10214.842000
635.968585,229.828649,-1406.391290,10807.006753
635.968901,306.438199,-1332.370696,10881.027347
635.969217,383.047749,-444.123565,10214.842000
635.969533,383.047749,814.226536,9474.636058
635.969849,766.095498,1110.308913,8808.450710
635.970165,1455.581446,962.267725,8586.388927
635.970481,1532.190996,444.123565,8142.265362
635.970797,1838.629195,222.061783,7698.141797
635.971113,1302.362347,-814.226536,8512.368333
635.971429,919.314598,-1628.453072,9474.636058
635.971745,612.876398,-1924.535449,9696.697840
635.972061,459.657299,-1776.494261,9992.780217
635.972376,0.000000,-1406.391290,10362.883188
635.972692,-153.219100,-1480.411884,10732.986159
635.973008,0.000000,-1480.411884,10881.027347
635.973324,0.000000,-1036.288319,10510.924376
635.973640,383.047749,148.041188,9770.718434
635.973956,459.657299,1110.308913,8808.450710
635.974272,1072.533697,1702.473667,7846.182985
635.974588,1608.800546,1332.370696,7624.121203
635.974904,1685.410096,296.082377,7846.182985
635.975220,1225.752797,-518.144159,8364.327145
635.975536,766.095498,-1406.391290,9474.636058
635.975852,612.876398,-1702.473667,9770.718434
635.976168,306.438199,-1258.350101,10288.862594
635.976483,76.609550,-814.226536,10362.883188
635.976799,383.047749,-1258.350101,11029.068536
635.977115,306.438199,-666.185348,11029.068536
635.977431,0.000000,-0.000000,10362.883188
635.977747,229.828649,1258.350101,9696.697840
635.978063,766.095498,1258.350101,9252.574275
635.978379,1378.971896,1776.494261,8216.285956
635.978695,1685.410096,1480.411884,7698.141797
635.979011,1685.410096,518.144159,7772.162391
635.979327,1149.143247,-370.102971,8586.388927
635.979643,459.657299,-1036.288319,9548.656652
635.979959,306.438199,-1406.391290,9474.636058
635.980275,-306.438199,-1406.391290,10288.862594
635.980590,-383.047749,-1332.370696,11103.089130
635.980906,-842.705048,-1850.514855,11473.192101
635.981222,-842.705048,-1332.370696,11251.130318
635.981538,-842.705048,-444.123565,10288.862594
635.981854,-459.657299,666.185348,9548.656652
635.982170,229.828649,1406.391290,9030.512492
635.982486,766.095498,1110.308913,7846.182985
635.982802,1072.533697,962.267725,7846.182985
635.983118,995.924147,-148.041188,8216.285956
635.983434,995.924147,-1036.288319,9104.533087
635.983750,459.657299,-1480.411884,9474.636058
635.984066,76.609550,-1776.494261,9696.697840
635.984382,0.000000,-1258.350101,10214.842000
635.984698,0.000000,-1036.288319,10584.944971
635.985013,-306.438199,-1036.288319,10955.047942
635.985329,-229.828649,-370.102971,10658.965565
635.985645,0.000000,1036.288319,9770.718434
635.985961,459.657299,1924.535449,9474.636058
635.986277,1072.533697,2368.659014,8586.388927
635.986593,995.924147,1924.535449,7624.121203
635.986909,1302.362347,1480.411884,7772.162391
635.987225,1072.533697,296.082377,8142.265362
635.987541,919.314598,-814.226536,9030.512492
635.987857,459.657299,-1332.370696,9770.718434
635.988173,0.000000,-1258.350101,10140.821405
635.988489,-153.219100,-1258.350101,10658.965565
635.988805,-766.095498,-1332.370696,11325.150913
635.989120,-919.314598,-1332.370696,10807.006753
635.989436,-612.876398,-518.144159,10658.965565
635.989752,0.000000,148.041188,10066.800811
635.990068,536.266849,1258.350101,8956.491898
635.990384,766.095498,1554.432478,8290.306550
635.990700,1302.362347,1184.329507,7328.038826
635.991016,1838.629195,444.123565,7920.203579
635.991332,1455.581446,-518.144159,8364.327145
635.991648,919.314598,-1332.370696,9622.677246
635.991964,919.314598,-1628.453072,9770.718434
635.992280,1149.143247,-1554.432478,9696.697840
635.992596,459.657299,-888.247130,10288.862594
635.992912,153.219100,-1110.308913,10807.006753
635.993227,306.438199,-592.164754,10881.027347
635.993543,229.828649,148.041188,9918.759623
635.993859,536.266849,1036.288319,9548.656652
635.994175,689.485948,1554.432478,9178.553681
635.994491,1455.581446,1924.535449,8438.347739
635.994807,2068.457845,1480.411884,8068.244768
635.995123,1991.848295,592.164754,8216.285956
635.995439,1455.581446,-370.102971,8734.430116
635.995755,919.314598,-666.185348,9474.636058
635.996071,842.705048,-1036.288319,9992.780217
635.996387,383.047749,-962.267725,10140.821405
635.996703,76.609550,-962.267725,10881.027347
635.997019,0.000000,-962.267725,11177.109724
635.997334,-229.828649,-1036.288319,10658.965565
635.997650,0.000000,-666.185348,10140.821405
635.997966,0.000000,962.267725,9548.656652
635.998282,76.609550,1258.350101,8882.471304
635.998598,766.095498,1776.494261,8290.306550
635.998914,536.266849,1110.308913,7994.224174
635.999230,1149.143247,-0.000000,8216.285956
635.999546,995.924147,-592.164754,8956.491898
635.999862,612.876398,-1110.308913,9548.656652
636.000178,459.657299,-1258.350101,9696.697840
636.000494,0.000000,-1184.329507,10288.862594
636.000810,0.000000,-814.226536,10288.862594
636.001126,-153.219100,-814.226536,11103.089130
636.001442,-153.219100,-0.000000,10807.006753
636.001757,-459.657299,296.082377,9770.718434
636.002073,-153.219100,1406.391290,9474.636058
636.002389,689.485948,1480.411884,8734.430116
636.002705,766.095498,1850.514855,7624.121203
636.003021,995.924147,1776.494261,7920.203579
636.003337,919.314598,-0.000000,8586.388927
636.003653,612.876398,-962.267725,9178.553681
636.003969,0.000000,-1110.308913,9770.718434
636.004285,306.438199,-1628.453072,9844.739029
636.004601,0.000000,-1258.350101,10362.883188
636.004917,-766.095498,-1184.329507,10881.027347
636.005233,-919.314598,-1258.350101,10881.027347
636.005549,-459.657299,-444.123565,10807.006753
636.005864,-459.657299,-0.000000,9696.697840
636.006180,-689.485948,370.102971,9474.636058
636.006496,0.000000,740.205942,8808.450710
636.006812,459.657299,666.185348,8068.244768
636.007128,919.314598,296.082377,8216.285956
636.007444,612.876398,-740.205942,8734.430116
636.007760,612.876398,-1258.350101,9326.594869
636.008076,689.485948,-1110.308913,9400.615463
636.008392,153.219100,-1480.411884,9770.718434
636.008708,0.000000,-1184.329507,10362.883188
636.009024,76.609550,-1480.411884,10807.006753
636.009340,-229.828649,-1406.391290,10584.944971
636.009656,0.000000,-666.185348,10436.903782
636.009971,383.047749,-0.000000,9770.718434
636.010287,229.828649,1184.329507,8882.471304
636.010603,536.266849,1628.453072,8216.285956
636.010919,995.924147,1406.391290,7846.182985
636.011235,1455.581446,444.123565,7994.224174
636.011551,995.924147,-962.267725,8364.327145
636.011867,459.657299,-1628.453072,9622.677246
636.012183,536.266849,-1924.535449,9548.656652
636.012499,229.828649,-1702.473667,9918.759623
636.012815,-153.219100,-1184.329507,10658.965565
636.013131,-536.266849,-1258.350101,10955.047942
636.013447,0.000000,-1036.288319,10658.965565
636.013763,-306.438199,-296.082377,9918.759623
636.014078,0.000000,592.164754,9696.697840
636.014394,612.876398,1110.308913,9178.553681
636.014710,1378.971896,1406.391290,8438.347739
636.015026,2068.457845,1776.494261,8068.244768
636.015342,2221.676944,370.102971,8068.244768
636.015658,1608.800546,-370.102971,8512.368333
636.015974,1225.752797,-1258.350101,9400.615463
636.016290,1302.362347,-1480.411884,9696.697840
636.016606,766.095498,-1184.329507,10140.821405
636.016922,76.609550,-1110.308913,10732.986159
636.017238,459.657299,-1184.329507,11029.068536
636.017554,229.828649,-740.205942,10807.006753
636.017870,-383.047749,-222.061783,9696.697840
636.018185,536.266849,814.226536,9474.636058
636.018501,766.095498,1554.432478,8882.471304
636.018817,1532.190996,2072.576638,8142.265362
636.019133,1608.800546,1554.432478,7846.182985
636.019449,1455.581446,-74.020594,8438.347739
636.019765,1378.971896,-1036.288319,9030.512492
636.020081,842.705048,-1332.370696,9252.574275
636.020397,459.657299,-1332.370696,9844.739029
636.020713,459.657299,-1332.370696,10362.883188
636.021029,76.609550,-1184.329507,10807.006753
636.021345,-229.828649,-814.226536,10881.027347
636.021661,-306.438199,-518.144159,10436.903782
636.021977,-612.876398,296.082377,10140.821405
636.022293,-383.047749,1036.288319,9474.636058
636.022608,76.609550,1628.453072,8956.491898
636.022924,229.828649,1554.432478,8364.327145
636.023240,766.095498,592.164754,8290.306550
636.023556,536.266849,-74.020594,8364.327145
636.023872,689.485948,-1036.288319,9030.512492
636.024188,306.438199,-1110.308913,9548.656652
636.024504,-306.438199,-1184.329507,10288.862594
636.024820,76.609550,-814.226536,10436.903782
636.025136,0.000000,-370.102971,10510.924376
636.025452,-306.438199,-1184.329507,11029.068536
636.025768,0.000000,-0.000000,10214.842000
636.026084,0.000000,888.247130,9548.656652
636.026400,229.828649,1628.453072,8808.450710
636.026715,1149.143247,1850.514855,8660.409521
636.027031,1302.362347,1628.453072,7624.121203
636.027347,1608.800546,962.267725,7920.203579
636.027663,1302.362347,-74.020594,8438.347739
636.027979,766.095498,-888.247130,9104.533087
636.028295,229.828649,-1184.329507,9918.759623
636.028611,153.219100,-1332.370696,10140.821405
636.028927,-153.219100,-888.247130,10436.903782
636.029243,-766.095498,-1554.432478,10510.924376
636.029559,-612.876398,-1628.453072,10584.944971
636.029875,-383.047749,-666.185348,10288.862594
636.030191,-229.828649,-0.000000,10066.800811
636.030507,-153.219100,666.185348,9326.594869
636.030822,536.266849,1406.391290,8660.409521
636.031138,1225.752797,1406.391290,8142.265362
636.031454,1455.581446,-222.061783,8216.285956
636.031770,1302.362347,-444.123565,8512.368333
636.032086,1072.533697,-962.267725,9400.615463
636.032402,842.705048,-1480.411884,9252.574275
636.032718,766.095498,-1554.432478,9696.697840
636.033034,306.438199,-666.185348,10584.944971
636.033350,459.657299,-1184.329507,11029.068536
636.033666,153.219100,-888.247130,10436.903782
636.033982,0.000000,148.041188,9918.759623
636.034298,153.219100,962.267725,9548.656652
636.034614,766.095498,1332.370696,8956.491898
636.034929,1378.971896,1850.514855,8290.306550
636.035245,1149.143247,1480.411884,7846.182985
636.035561,1455.581446,148.041188,8142.265362
636.035877,1302.362347,-962.267725,8882.471304
636.036193,919.314598,-1628.453072,9326.594869
636.036509,153.219100,-1406.391290,9696.697840
636.036825,0.000000,-1554.432478,10288.862594
636.037141,0.000000,-1110.308913,10510.924376
636.037457,-76.609550,-1184.329507,11177.109724
636.037773,0.000000,-1480.411884,11103.089130
636.038089,-306.438199,-296.082377,10066.800811
636.038405,0.000000,888.247130,9252.574275
636.038721,766.095498,1480.411884,8882.471304
636.039037,1455.581446,1850.514855,8142.265362
636.039352,1455.581446,1480.411884,7624.121203
636.039668,1532.190996,370.102971,8216.285956
636.039984,1225.752797,-962.267725,8882.471304
636.040300,536.266849,-1554.432478,9548.656652
636.040616,689.485948,-1554.432478,10066.800811
636.040932,306.438199,-1332.370696,10362.883188
636.041248,0.000000,-962.267725,10658.965565
636.041564,-229.828649,-1110.308913,10732.986159
636.041880,-229.828649,-444.123565,10732.986159
636.042196,-229.828649,518.144159,9770.718434
636.042512,0.000000,1258.350101,9326.594869
636.042828,383.047749,1480.411884,8808.450710
636.043144,1149.143247,1406.391290,8216.285956
636.043459,689.485948,888.247130,8216.285956
636.043775,842.705048,-222.061783,8586.388927
636.044091,1072.533697,-962.267725,9030.512492
636.044407,459.657299,-1110.308913,9326.594869
636.044723,76.609550,-1036.288319,9844.739029
636.045039,-153.219100,-814.226536,10140.821405
636.045355,-612.876398,-1036.288319,10881.027347
636.045671,-689.485948,-962.267725,10732.986159
636.045987,-612.876398,-222.061783,10584.944971
636.046303,-383.047749,666.185348,9918.759623
636.046619,153.219100,1258.350101,9474.636058
636.046935,76.609550,1332.370696,8660.409521
636.047251,612.876398,1554.432478,8068.244768
636.047566,766.095498,592.164754,8216.285956
636.047882,919.314598,-148.041188,8734.430116
636.048198,612.876398,-1036.288319,9548.656652
636.048514,459.657299,-1406.391290,9548.656652
636.048830,229.828649,-1332.370696,9992.780217
636.049146,0.000000,-1110.308913,10658.965565
636.049462,0.000000,-962.267725,10732.986159
636.049778,-459.657299,-740.205942,10881.027347
636.050094,229.828649,-74.020594,10066.800811
636.050410,0.000000,666.185348,9622.677246
636.050725,459.657299,1332.370696,9030.512492
636.051041,919.314598,1258.350101,7994.224174
636.051357,1302.362347,1110.308913,8068.244768
636.051673,1455.581446,222.061783,8216.285956
636.051989,1302.362347,-592.164754,8512.368333
636.052305,1072.533697,-1184.329507,9252.574275
636.052621,536.266849,-1702.473667,9844.739029
636.052937,229.828649,-1776.494261,10140.821405
636.053253,0.000000,-1332.370696,10362.883188
636.053569,-459.657299,-1776.494261,10881.027347
636.053885,-536.266849,-1628.453072,10955.047942
636.054200,0.000000,-888.247130,10140.821405
636.054516,-153.219100,518.144159,9918.759623
636.054832,229.828649,1184.329507,9030.512492
636.055148,1072.533697,1332.370696,8142.265362
636.055464,1225.752797,1110.308913,7846.182985
636.055780,1532.190996,-222.061783,8290.306550
636.056096,1302.362347,-962.267725,8882.471304
636.056412,1225.752797,-1332.370696,9252.574275
636.056728,995.924147,-1258.350101,9474.636058
636.057044,766.095498,-962.267725,10066.800811
636.057359,612.876398,-1036.288319,10732.986159
636.057675,0.000000,-888.247130,10658.965565
636.057991,306.438199,-518.144159,10510.924376
636.058307,306.438199,-0.000000,9844.739029
636.058623,612.876398,1184.329507,9252.574275
636.058939,1149.143247,1628.453072,8512.368333
636.059255,1378.971896,1850.514855,7772.162391
636.059571,1302.362347,1110.308913,7624.121203
636.059887,1072.533697,148.041188,8068.244768
636.060203,995.924147,-814.226536,9104.533087
636.060518,153.219100,-1110.308913,9992.780217
636.060834,0.000000,-1258.350101,9918.759623
636.061150,-383.047749,-1184.329507,10732.986159
636.061466,-459.657299,-1332.370696,10732.986159
636.061782,-459.657299,-1554.432478,11103.089130
636.062098,-766.095498,-740.205942,10881.027347
636.062414,-536.266849,-0.000000,9770.718434
636.062730,0.000000,962.267725,9474.636058
636.063046,229.828649,1480.411884,8512.368333
636.063362,995.924147,1850.514855,8216.285956
636.063677,1455.581446,888.247130,7920.203579
636.063993,1302.362347,-74.020594,8216.285956
636.064309,919.314598,-666.185348,8808.450710
636.064625,919.314598,-1036.288319,9474.636058
636.064941,766.095498,-1258.350101,9844.739029
636.065257,0.000000,-518.144159,10288.862594
636.065573,76.609550,-740.205942,10807.006753
636.065889,-306.438199,-1036.288319,11029.068536
636.066205,-459.657299,-296.082377,10510.924376
636.066521,-306.438199,296.082377,9992.780217
636.066836,0.000000,1184.329507,9622.677246
636.067152,229.828649,1628.453072,8882.471304
636.067468,842.705048,1702.473667,7994.224174
636.067784,1302.362347,740.205942,8216.285956
636.068100,1072.533697,-222.061783,8660.409521
636.068416,229.828649,-814.226536,9400.615463
636.068732,383.047749,-1480.411884,9918.759623
636.069048,76.609550,-1480.411884,10288.862594
636.069364,-153.219100,-1480.411884,10584.944971
636.069680,153.219100,-1406.391290,10732.986159
636.069995,-383.047749,-1258.350101,10955.047942
636.070311,-229.828649,-592.164754,10288.862594
636.070627,0.000000,296.082377,9548.656652
636.070943,306.438199,1110.308913,8956.491898
636.071259,1072.533697,1628.453072,8586.388927
636.071575,1378.971896,1554.432478,7994.224174
636.071891,1532.190996,148.041188,8068.244768
636.072207,1378.971896,-592.164754,8586.388927
636.072523,1072.533697,-1036.288319,9326.594869
636.072839,919.314598,-1332.370696,9548.656652
636.073155,612.876398,-1258.350101,9844.739029
636.073470,153.219100,-1110.308913,10584.944971
636.073786,76.609550,-1184.329507,10881.027347
636.074102,-229.828649,-1258.350101,11029.068536
636.074418,306.438199,-0.000000,10066.800811
636.074734,383.047749,962.267725,9400.615463
636.075050,919.314598,1406.391290,8808.450710
636.075366,1532.190996,1702.473667,8216.285956
636.075682,2374.896044,1110.308913,7846.182985
636.075998,1762.019645,518.144159,7994.224174
636.076314,1455.581446,-444.123565,8660.409521
636.076629,1225.752797,-1184.329507,9400.615463
636.076945,689.485948,-1036.288319,9474.636058
636.077261,153.219100,-1332.370696,10140.821405
636.077577,0.000000,-1110.308913,10807.006753
636.077893,0.000000,-1258.350101,11251.130318
636.078209,-153.219100,-962.267725,10881.027347
636.078525,-153.219100,-0.000000,10140.821405
636.078841,0.000000,962.267725,9326.594869
636.079157,383.047749,1480.411884,8956.491898
636.079473,766.095498,1332.370696,8290.306550
636.079788,1302.362347,1036.288319,7994.224174
636.080104,1608.800546,-0.000000,8142.265362
636.080420,919.314598,-1110.308913,9030.512492
636.080736,689.485948,-1036.288319,9548.656652
636.081052,383.047749,-962.267725,9622.677246
636.081368,383.047749,-814.226536,10140.821405
636.081684,-306.438199,-962.267725,10436.903782
636.082000,153.219100,-962.267725,10732.986159
636.082316,153.219100,-370.102971,10510.924376
636.082632,0.000000,444.123565,9622.677246
636.082947,76.609550,1406.391290,9400.615463
636.083263,842.705048,1480.411884,8808.450710
636.083579,919.314598,1924.535449,8068.244768
636.083895,766.095498,1554.432478,8216.285956
636.084211,842.705048,-74.020594,8438.347739
636.084527,766.095498,-1332.370696,9400.615463
636.084843,0.000000,-1184.329507,9622.677246
636.085159,-306.438199,-1406.391290,10288.862594
636.085475,-459.657299,-962.267725,10658.965565
636.085791,-995.924147,-1184.329507,11029.068536
636.086106,-1149.143247,-1480.411884,11251.130318
636.086422,-995.924147,-888.247130,11029.068536
636.086738,-842.705048,-0.000000,10066.800811
636.087054,-306.438199,962.267725,9400.615463
636.087370,306.438199,1554.432478,8808.450710
636.087686,1072.533697,1184.329507,8512.368333
636.088002,1072.533697,814.226536,7846.182985
636.088318,1072.533697,-296.082377,8364.327145
636.088634,1149.143247,-962.267725,8956.491898
636.088950,995.924147,-1184.329507,9252.574275
636.089265,766.095498,-1110.308913,9918.759623
636.089581,383.047749,-1110.308913,10288.862594
636.089897,306.438199,-1258.350101,10584.944971
636.090213,0.000000,-1702.473667,10658.965565
636.090529,76.609550,-740.205942,10214.842000
636.090845,0.000000,666.185348,9622.677246
636.091161,536.266849,1036.288319,8956.491898
636.091477,1072.533697,1406.391290,8438.347739
636.091793,1302.362347,1184.329507,7846.182985
636.092109,1072.533697,518.144159,8068.244768
636.092425,689.485948,-592.164754,8512.368333
636.092740,459.657299,-1702.473667,9400.615463
636.093056,0.000000,-1850.514855,9844.739029
636.093372,76.609550,-1702.473667,10140.821405
636.093688,153.219100,-1480.411884,10362.883188
636.094004,-153.219100,-1480.411884,10807.006753
636.094320,-306.438199,-1184.329507,10658.965565
636.094636,-153.219100,-74.020594,9844.739029
636.094952,383.047749,518.144159,9474.636058
636.095268,459.657299,962.267725,8586.388927
636.095584,1302.362347,1702.473667,8216.285956
636.095899,1608.800546,1036.288319,7624.121203
636.096215,1838.629195,148.041188,7994.224174
636.096531,1608.800546,-518.144159,8882.471304
636.096847,1149.143247,-1554.432478,9696.697840
636.097163,1225.752797,-1110.308913,9326.594869
636.097479,383.047749,-1110.308913,9918.759623
636.097795,229.828649,-1184.329507,10362.883188
636.098111,153.219100,-1258.350101,10732.986159
636.098427,76.609550,-962.267725,10436.903782
636.098743,229.828649,148.041188,9770.718434
636.099058,76.609550,962.267725,9178.553681
636.099374,919.314598,1850.514855,8956.491898
636.099690,1302.362347,1924.535449,7772.162391
636.100006,1838.629195,1036.288319,7846.182985
636.100322,1149.143247,-148.041188,8438.347739
636.100638,1072.533697,-814.226536,9030.512492
636.100954,536.266849,-1480.411884,9622.677246
636.101270,459.657299,-1776.494261,9992.780217
636.101586,-229.828649,-1184.329507,10658.965565
636.101902,-612.876398,-1036.288319,10584.944971
636.102217,-689.485948,-888.247130,10881.027347
636.102533,-536.266849,-518.144159,10732.986159
636.102849,-536.266849,148.041188,9992.780217
636.103165,-229.828649,962.267725,9178.553681
636.103481,0.000000,1406.391290,8956.491898
636.103797,689.485948,1480.411884,8512.368333
636.104113,919.314598,888.247130,8142.265362
636.104429,842.705048,-0.000000,8956.491898
636.104745,612.876398,-962.267725,9178.553681
636.105061,383.047749,-1110.308913,9696.697840
636.105376,0.000000,-962.267725,9696.697840
636.105692,0.000000,-814.226536,10584.944971
636.106008,0.000000,-1036.288319,10881.027347
636.106324,-383.047749,-814.226536,10955.047942
636.106640,-229.828649,-74.020594,10362.883188
636.106956,0.000000,888.247130,9770.718434
636.107272,153.219100,1406.391290,9104.533087
636.107588,689.485948,1702.473667,8734.430116
636.107904,842.705048,1776.494261,7698.141797
636.108220,1302.362347,740.205942,7994.224174
636.108535,766.095498,-518.144159,8586.388927
636.108851,0.000000,-1036.288319,9252.574275
636.109167,0.000000,-1628.453072,9622.677246
636.109483,0.000000,-1258.350101,9992.780217
636.109799,-459.657299,-1110.308913,10510.924376
636.110115,-766.095498,-1258.350101,11177.109724
636.110431,-612.876398,-1406.391290,10732.986159
636.110747,-919.314598,-592.164754,9992.780217
636.111063,-536.266849,148.041188,9918.759623
636.111379,-153.219100,1036.288319,9252.574275
636.111695,689.485948,1406.391290,8660.409521
636.112010,1149.143247,1406.391290,7994.224174
636.112326,1225.752797,-148.041188,7920.203579
636.112642,1302.362347,-666.185348,8734.430116
636.112958,1455.581446,-888.247130,9400.615463
636.113274,1072.533697,-1258.350101,9326.594869
636.113590,995.924147,-1184.329507,10214.842000
636.113906,689.485948,-1036.288319,10362.883188
636.114222,536.266849,-814.226536,10362.883188
636.114538,383.047749,-814.226536,10436.903782
636.114854,689.485948,-0.000000,9770.718434
636.115169,612.876398,1406.391290,9474.636058
636.115485,919.314598,1332.370696,8956.491898
636.115801,1608.800546,1850.514855,7846.182985
636.116117,1762.019645,1110.308913,7550.100608
636.116433,2145.067394,296.082377,8586.388927
636.116749,1225.752797,-740.205942,8882.471304
636.117065,842.705048,-1406.391290,9548.656652
636.117381,612.876398,-1258.350101,9918.759623
636.117697,153.219100,-1258.350101,10214.842000
636.118013,-229.828649,-1406.391290,10732.986159
636.118328,-229.828649,-1036.288319,11103.089130
636.118644,-153.219100,-888.247130,10510.924376
636.118960,-153.219100,-222.061783,10066.800811
636.119276,76.609550,740.205942,9252.574275
636.119592,612.876398,1480.411884,8882.471304
636.119908,1149.143247,1628.453072,7920.203579
636.120224,1532.190996,1332.370696,7550.100608
636.120540,1455.581446,370.102971,8216.285956
636.120856,1455.581446,-740.205942,8438.347739
636.121172,842.705048,-888.247130,9474.636058
636.121487,689.485948,-1036.288319,9622.677246
636.121803,459.657299,-666.185348,10436.903782
636.122119,0.000000,-814.226536,10732.986159
636.122435,-153.219100,-1332.370696,10881.027347
636.122751,-229.828649,-518.144159,10955.047942
636.123067,-306.438199,518.144159,9918.759623
636.123383,383.047749,1480.411884,9326.594869
636.123699,536.266849,1628.453072,8660.409521
636.124015,1072.533697,1776.494261,8216.285956
636.124331,1225.752797,1110.308913,8068.244768
636.124646,995.924147,-222.061783,8438.347739
636.124962,536.266849,-962.267725,9252.574275
636.125278,383.047749,-1258.350101,9696.697840
636.125594,-459.657299,-1480.411884,10288.862594
636.125910,-536.266849,-1184.329507,10881.027347
636.126226,-919.314598,-1258.350101,11029.068536
636.126542,-919.314598,-1184.329507,11029.068536
636.126858,-1149.143247,-814.226536,10807.006753
636.127174,-842.705048,-0.000000,10140.821405
636.127490,-306.438199,814.226536,9474.636058
636.127805,153.219100,1480.411884,8808.450710
636.128121,766.095498,1406.391290,7920.203579
636.128437,1149.143247,666.185348,8216.285956
636.128753,995.924147,-740.205942,8660.409521
636.129069,612.876398,-1702.473667,9178.553681
636.129385,536.266849,-1628.453072,9918.759623
636.129701,229.828649,-1776.494261,10066.800811
636.130017,-153.219100,-1110.308913,10732.986159
636.130333,0.000000,-1258.350101,10955.047942
636.130649,0.000000,-1110.308913,10584.944971
636.130965,0.000000,-0.000000,9844.739029
636.131280,229.828649,814.226536,9326.594869
636.131596,459.657299,1480.411884,8586.388927
636.131912,1762.019645,1776.494261,8068.244768
636.132228,1532.190996,1258.350101,7624.121203
636.132544,1608.800546,296.082377,7994.224174
636.132860,1225.752797,-1036.288319,8512.368333
636.133176,766.095498,-1406.391290,9178.553681
636.133492,306.438199,-1480.411884,9548.656652
636.133808,153.219100,-1480.411884,10140.821405
636.134124,0.000000,-1110.308913,10362.883188
636.134439,-459.657299,-1184.329507,10584.944971
636.134755,-459.657299,-1554.432478,10362.883188
636.135071,-306.438199,-444.123565,9992.780217
636.135387,76.609550,518.144159,9474.636058
636.135703,383.047749,814.226536,9030.512492
636.136019,995.924147,1258.350101,8290.306550
636.136335,1378.971896,814.226536,8290.306550
636.136651,1225.752797,222.061783,8512.368333
636.136967,1378.971896,-888.247130,8882.471304
636.137283,919.314598,-1332.370696,9548.656652
636.137598,995.924147,-1480.411884,9622.677246
636.137914,995.924147,-1110.308913,10288.862594
636.138230,229.828649,-1184.329507,10658.965565
636.138546,229.828649,-888.247130,10807.006753
636.138862,536.266849,-370.102971,10510.924376
636.139178,536.266849,222.061783,9770.718434
636.139494,995.924147,1110.308913,9326.594869
636.139810,1149.143247,1702.473667,8882.471304
636.140126,1838.629195,1850.514855,8216.285956
636.140442,1838.629195,1258.350101,7920.203579
636.140757,1378.971896,444.123565,7920.203579
636.141073,1149.143247,-592.164754,8882.471304
636.141389,536.266849,-1036.288319,9548.656652
636.141705,76.609550,-888.247130,9844.739029
636.142021,-306.438199,-814.226536,10584.944971
636.142337,-842.705048,-1258.350101,10584.944971
636.142653,-1072.533697,-1332.370696,11103.089130
636.142969,-919.314598,-1036.288319,10881.027347
636.143285,-842.705048,-74.020594,10140.821405
636.143601,-536.266849,962.267725,9548.656652
636.143916,76.609550,1110.308913,9178.553681
636.144232,383.047749,1776.494261,8142.265362
636.144548,766.095498,666.185348,7994.224174
636.144864,383.047749,-74.020594,8586.388927
636.145180,536.266849,-814.226536,9178.553681
636.145496,612.876398,-1480.411884,9548.656652
636.145812,76.609550,-814.226536,9844.739029
636.146128,76.609550,-518.144159,10584.944971
636.146444,0.000000,-888.247130,10658.965565
636.146760,76.609550,-1110.308913,10881.027347
636.147075,0.000000,-0.000000,10436.903782
636.147391,153.219100,1036.288319,9548.656652
636.147707,153.219100,1628.453072,9326.594869
636.148023,1072.533697,1850.514855,8586.388927
636.148339,1225.752797,1850.514855,7920.203579
636.148655,1072.533697,666.185348,7920.203579
636.148971,689.485948,-518.144159,8586.388927
636.149287,383.047749,-1184.329507,9104.533087
636.149602,0.000000,-1554.432478,9844.739029
636.149918,-536.266849,-1702.473667,10658.965565
636.150234,-995.924147,-1480.411884,10584.944971
636.150550,-1378.971896,-1702.473667,11029.068536
636.150865,-1225.752797,-1554.432478,10955.047942
636.151181,-919.314598,-814.226536,10584.944971
636.151497,-766.095498,-0.000000,10066.800811
636.151813,306.438199,1258.350101,9030.512492
636.152128,842.705048,1480.411884,8068.244768
636.152444,1532.190996,1332.370696,7476.080014
636.152760,1915.238745,444.123565,7624.121203
636.153076,1608.800546,-888.247130,8142.265362
636.153392,1302.362347,-1110.308913,8734.430116
636.153707,1149.143247,-1332.370696,9326.594869
636.154023,766.095498,-1184.329507,9770.718434
636.154339,383.047749,-1110.308913,10214.842000
636.154655,229.828649,-1110.308913,10584.944971
636.154970,153.219100,-962.267725,10362.883188
636.155286,229.828649,-222.061783,9992.780217
636.155602,383.047749,740.205942,9548.656652
636.155918,919.314598,1184.329507,8808.450710
636.156233,1455.581446,1628.453072,8216.285956
636.156549,1455.581446,962.267725,7772.162391
636.156865,1149.143247,518.144159,8068.244768
636.157181,1455.581446,-740.205942,8882.471304
636.157497,612.876398,-1258.350101,9548.656652
636.157812,229.828649,-1332.370696,9770.718434
636.158128,0.000000,-1110.308913,10584.944971
636.158444,0.000000,-1110.308913,10807.006753
636.158760,0.000000,-1702.473667,10807.006753
636.159075,0.000000,-888.247130,10658.965565
636.159391,-383.047749,-0.000000,9992.780217
636.159707,0.000000,1036.288319,9548.656652
636.160023,919.314598,1406.391290,8808.450710
636.160338,1072.533697,1406.391290,8068.244768
636.160654,1608.800546,1110.308913,7846.182985
636.160970,1685.410096,-222.061783,8142.265362
636.161286,1378.971896,-888.247130,8734.430116
636.161602,995.924147,-1258.350101,9622.677246
636.161917,536.266849,-1480.411884,10066.800811
636.162233,383.047749,-962.267725,10140.821405
636.162549,0.000000,-814.226536,10732.986159
636.162865,-306.438199,-1036.288319,10955.047942
636.163180,-612.876398,-962.267725,10881.027347
636.163496,-689.485948,592.164754,10140.821405
636.163812,153.219100,1110.308913,9622.677246
636.164128,306.438199,1554.432478,8808.450710
636.164444,995.924147,1850.514855,8142.265362
636.164759,1072.533697,1036.288319,7846.182985
636.165075,1149.143247,-0.000000,8586.388927
636.165391,689.485948,-518.144159,9030.512492
636.165707,459.657299,-1184.329507,9696.697840
636.166022,76.609550,-1258.350101,10140.821405
636.166338,0.000000,-1480.411884,10288.862594
636.166654,-229.828649,-1480.411884,10881.027347
636.166970,-689.485948,-1480.411884,10955.047942
636.167285,-536.266849,-814.226536,10362.883188
636.167601,-383.047749,-74.020594,9696.697840
636.167917,0.000000,592.164754,9104.533087
636.168233,612.876398,962.267725,8438.347739
636.168549,766.095498,1184.329507,8068.244768
636.168864,1225.752797,518.144159,8142.265362
636.169180,995.924147,-518.144159,8808.450710
636.169496,842.705048,-962.267725,8808.450710
636.169812,842.705048,-1258.350101,9252.574275
636.170127,459.657299,-1258.350101,9548.656652
636.170443,0.000000,-1184.329507,10140.821405
636.170759,0.000000,-1406.391290,10658.965565
636.171075,0.000000,-1258.350101,10658.965565
636.171390,0.000000,-666.185348,10288.862594
636.171706,229.828649,592.164754,9474.636058
636.172022,306.438199,1332.370696,9104.533087
636.172338,1149.143247,1554.432478,8290.306550
636.172654,1378.971896,1628.453072,7772.162391
636.172969,1532.190996,518.144159,8364.327145
636.173285,1225.752797,-444.123565,8364.327145
636.173601,919.314598,-962.267725,9474.636058
636.173917,995.924147,-1480.411884,9548.656652
636.174232,459.657299,-1924.535449,9844.739029
636.174548,0.000000,-1480.411884,10362.883188
636.174864,-229.828649,-1628.453072,11029.068536
636.175180,-229.828649,-1110.308913,10881.027347
636.175495,-153.219100,-444.123565,10214.842000
636.175811,76.609550,518.144159,9622.677246
636.176127,229.828649,1110.308913,8808.450710
636.176443,919.314598,1554.432478,8290.306550
636.176759,1225.752797,1554.432478,7846.182985
636.177074,1532.190996,444.123565,8216.285956
636.177390,1685.410096,-740.205942,8660.409521
636.177706,842.705048,-1036.288319,9474.636058
636.178022,612.876398,-1184.329507,9622.677246
636.178337,689.485948,-1110.308913,10214.842000
636.178653,383.047749,-962.267725,10362.883188
636.178969,229.828649,-1258.350101,10807.006753
636.179285,383.047749,-370.102971,10807.006753
636.179600,306.438199,518.144159,9844.739029
636.179916,383.047749,1406.391290,9178.553681
636.180232,766.095498,2368.659014,8512.368333
636.180548,1378.971896,1776.494261,7550.100608
636.180864,1762.019645,1332.370696,7846.182985
636.181179,995.924147,444.123565,8512.368333
636.181495,459.657299,-518.144159,9104.533087
636.181811,0.000000,-1184.329507,9770.718434
636.182127,306.438199,-962.267725,10140.821405
636.182442,-689.485948,-814.226536,10584.944971
636.182758,-612.876398,-888.247130,11473.192101
636.183074,-689.485948,-962.267725,11251.130318
636.183390,-995.924147,-444.123565,10881.027347
636.183705,-383.047749,370.102971,10362.883188
636.184021,0.000000,1184.329507,9474.636058
636.184337,612.876398,2220.617826,8734.430116
636.184653,1225.752797,2368.659014,7772.162391
636.184969,1532.190996,1480.411884,7846.182985
636.185284,1302.362347,-0.000000,8364.327145
636.185600,919.314598,-740.205942,8956.491898
636.185916,766.095498,-1184.329507,9400.615463
636.186232,459.657299,-1258.350101,9696.697840
636.186547,153.219100,-740.205942,10807.006753
636.186863,0.000000,-1036.288319,10881.027347
636.187179,0.000000,-1110.308913,11029.068536
636.187495,-459.657299,-0.000000,10658.965565
636.187810,-306.438199,444.123565,9844.739029
636.188126,76.609550,1406.391290,9030.512492
636.188442,306.438199,1850.514855,8512.368333
636.188758,919.314598,1480.411884,8364.327145
636.189074,1455.581446,444.123565,8142.265362
636.189389,1378.971896,-592.164754,8586.388927
636.189705,1149.143247,-1924.535449,9474.636058
636.190021,919.314598,-1480.411884,9474.636058
636.190337,689.485948,-1184.329507,9622.677246
636.190652,76.609550,-1184.329507,10140.821405
636.190968,0.000000,-1110.308913,10658.965565
636.191284,-76.609550,-1258.350101,10436.903782
636.191600,-153.219100,-444.123565,10066.800811
636.191916,229.828649,-0.000000,9252.574275
636.192231,459.657299,1184.329507,8882.471304
636.192547,919.314598,1258.350101,8142.265362
636.192863,1225.752797,962.267725,7402.059420
636.193179,1225.752797,-296.082377,8216.285956
636.193494,842.705048,-1480.411884,8882.471304
636.193810,689.485948,-2072.576638,9548.656652
636.194126,689.485948,-2220.617826,9918.759623
636.194442,766.095498,-2442.679609,9992.780217
636.194757,153.219100,-1628.453072,10658.965565
636.195073,76.609550,-1406.391290,10362.883188
636.195389,0.000000,-1110.308913,9918.759623
636.195705,153.219100,-222.061783,9696.697840
636.196021,536.266849,370.102971,9030.512492
636.196336,1072.533697,1110.308913,8512.368333
636.196652,1532.190996,1628.453072,7846.182985
636.196968,1838.629195,962.267725,7179.997637
636.197284,1991.848295,-74.020594,7994.224174
636.197599,1072.533697,-1110.308913,8586.388927
636.197915,766.095498,-1554.432478,9474.636058
636.198231,76.609550,-1480.411884,9770.718434
636.198547,-306.438199,-1628.453072,10362.883188
636.198862,-766.095498,-1480.411884,10881.027347
636.199178,-766.095498,-1406.391290,10955.047942
636.199494,-842.705048,-1184.329507,10584.944971
636.199810,-612.876398,-0.000000,10140.821405
636.200126,-229.828649,814.226536,9474.636058
636.200441,306.438199,1332.370696,8882.471304
636.200757,842.705048,1702.473667,8290.306550
636.201073,1072.533697,1110.308913,7994.224174
636.201389,1225.752797,-0.000000,8586.388927
636.201704,1302.362347,-888.247130,8956.491898
636.202020,995.924147,-1184.329507,9400.615463
636.202336,459.657299,-814.226536,9696.697840
636.202652,306.438199,-518.144159,10214.842000
636.202967,0.000000,-592.164754,10510.924376
636.203283,0.000000,-370.102971,10658.965565
636.203599,-153.219100,-0.000000,10732.986159
636.203915,-306.438199,888.247130,9918.759623
636.204231,0.000000,1480.411884,9178.553681
636.204546,459.657299,1924.535449,9104.533087
636.204862,842.705048,1480.411884,8364.327145
636.205178,919.314598,1036.288319,8290.306550
636.205494,459.657299,-148.041188,8808.450710
636.205809,383.047749,-1110.308913,9474.636058
636.206125,0.000000,-1258.350101,10140.821405
636.206441,-306.438199,-1332.370696,10362.883188
636.206757,-306.438199,-1036.288319,10584.944971
636.207072,-536.266849,-1184.329507,11029.068536
636.207388,-536.266849,-740.205942,10807.006753
636.207704,-306.438199,148.041188,10436.903782
636.208020,76.609550,888.247130,9696.697840
636.208336,536.266849,1406.391290,9326.594869
636.208651,842.705048,1776.494261,8512.368333
636.208967,1378.971896,1702.473667,7698.141797
636.209283,1608.800546,592.164754,8586.388927
636.209599,1072.533697,-592.164754,8660.409521
636.209914,689.485948,-1332.370696,9326.594869
636.210230,766.095498,-1332.370696,9992.780217
636.210546,536.266849,-1110.308913,10140.821405
636.210862,153.219100,-1184.329507,10436.903782
636.211177,0.000000,-1110.308913,10807.006753
636.211493,-229.828649,-1332.370696,10658.965565
636.211809,0.000000,-444.123565,10436.903782
636.212125,76.609550,370.102971,9622.677246
636.212441,612.876398,888.247130,9178.553681
636.212756,919.314598,1702.473667,8068.244768
636.213072,1608.800546,1258.350101,7550.100608
636.213388,1991.848295,-0.000000,8142.265362
636.213704,1302.362347,-888.247130,8586.388927
636.214019,1532.190996,-1776.494261,9400.615463
636.214335,536.266849,-2072.576638,9474.636058
636.214651,153.219100,-1628.453072,10140.821405
636.214967,0.000000,-1554.432478,10510.924376
636.215282,-153.219100,-1702.473667,10955.047942
636.215598,0.000000,-1554.432478,10584.944971
636.215914,-306.438199,-666.185348,10066.800811
636.216230,0.000000,370.102971,9548.656652
636.216546,383.047749,962.267725,8808.450710
636.216861,995.924147,1258.350101,7994.224174
636.217177,1762.019645,666.185348,7476.080014
636.217493,1149.143247,-296.082377,8068.244768
636.217809,1149.143247,-1184.329507,8808.450710
636.218124,995.924147,-1924.535449,9474.636058
636.218440,766.095498,-1628.453072,9622.677246
636.218756,153.219100,-1332.370696,10214.842000
636.219072,229.828649,-1258.350101,10362.883188
636.219388,153.219100,-1184.329507,10732.986159
636.219703,0.000000,-666.185348,10362.883188
636.220019,383.047749,518.144159,9696.697840
636.220335,153.219100,1258.350101,8956.491898
636.220651,842.705048,1850.514855,8290.306550
636.220966,919.314598,1702.473667,7920.203579
636.221282,1225.752797,814.226536,7698.141797
636.221598,919.314598,-222.061783,8660.409521
636.221914,536.266849,-1110.308913,9178.553681
636.222229,0.000000,-1776.494261,10066.800811
636.222545,-612.876398,-1406.391290,10214.842000
636.222861,-766.095498,-1406.391290,10881.027347
636.223177,-842.705048,-1110.308913,10955.047942
636.223493,-766.095498,-1184.329507,10955.047942
636.223808,-766.095498,-740.205942,10881.027347
636.224124,-536.266849,-0.000000,10066.800811
636.224440,-153.219100,814.226536,9326.594869
636.224756,383.047749,1258.350101,8808.450710
636.225071,536.266849,1480.411884,8142.265362
636.225387,1149.143247,814.226536,8068.244768
636.225703,1149.143247,-0.000000,8660.409521
636.226019,689.485948,-888.247130,9400.615463
636.226334,842.705048,-1258.350101,9992.780217
636.226650,842.705048,-1184.329507,10214.842000
636.226966,229.828649,-1258.350101,10584.944971
636.227282,76.609550,-1110.308913,11177.109724
636.227598,0.000000,-1184.329507,10955.047942
636.227913,0.000000,-370.102971,10288.862594
636.228229,76.609550,814.226536,9696.697840
636.228545,306.438199,1702.473667,8808.450710
636.228861,919.314598,1850.514855,8512.368333
636.229176,1149.143247,1554.432478,7846.182985
636.229492,1532.190996,444.123565,8068.244768
636.229808,842.705048,-888.247130,8586.388927
636.230124,383.047749,-1998.556043,9696.697840
636.230439,306.438199,-1702.473667,9770.718434
636.230755,-229.828649,-1628.453072,10214.842000
636.231071,153.219100,-1110.308913,10362.883188
636.231387,-459.657299,-1184.329507,10584.944971
636.231703,-383.047749,-1110.308913,10658.965565
636.232018,-76.609550,-222.061783,9918.759623
636.232334,-229.828649,592.164754,9548.656652
636.232650,612.876398,1258.350101,8882.471304
636.232966,995.924147,1554.432478,8068.244768
636.233281,1532.190996,1776.494261,7476.080014
636.233597,1685.410096,888.247130,7772.162391
636.233913,1455.581446,-370.102971,8290.306550
636.234229,689.485948,-1628.453072,9400.615463
636.234544,919.314598,-1554.432478,9548.656652
636.234860,766.095498,-1258.350101,10436.903782
636.235176,689.485948,-962.267725,10881.027347
636.235492,229.828649,-1110.308913,10807.006753
636.235808,459.657299,-592.164754,10732.986159
636.236123,229.828649,444.123565,9844.739029
636.236439,459.657299,1480.411884,9400.615463
636.236755,1149.143247,2294.638420,8438.347739
636.237071,1608.800546,2072.576638,7846.182985
636.237386,1838.629195,1406.391290,7772.162391
636.237702,1762.019645,-74.020594,8364.327145
636.238018,1378.971896,-1184.329507,8808.450710
636.238334,766.095498,-1628.453072,9622.677246
636.238649,-229.828649,-1406.391290,9918.759623
636.238965,-229.828649,-1480.411884,10658.965565
636.239281,-689.485948,-1406.391290,10955.047942
636.239597,-919.314598,-1332.370696,11177.109724
636.239913,-995.924147,-888.247130,10732.986159
636.240228,-459.657299,-222.061783,9992.780217
636.240544,-229.828649,666.185348,9252.574275
636.240860,76.609550,1998.556043,8216.285956
636.241176,689.485948,1998.556043,7846.182985
636.241491,1302.362347,1258.350101,7328.038826
636.241807,1302.362347,370.102971,7772.162391
636.242123,1149.143247,-740.205942,8956.491898
636.242439,766.095498,-888.247130,9696.697840
636.242754,536.266849,-592.164754,9770.718434
636.243070,383.047749,-222.061783,9992.780217
636.243386,76.609550,-74.020594,10807.006753
636.243702,-229.828649,-0.000000,10510.924376
636.244018,-459.657299,444.123565,10510.924376
636.244333,-383.047749,1406.391290,9992.780217
636.244649,0.000000,2220.617826,9548.656652
636.244965,306.438199,2664.741391,9178.553681
636.245281,766.095498,2738.761985,8290.306550
636.245596,1149.143247,2072.576638,8290.306550
636.245912,919.314598,888.247130,8956.491898
636.246228,383.047749,-0.000000,9474.636058
636.246544,229.828649,-370.102971,9992.780217
636.246860,0.000000,-222.061783,10288.862594
636.247175,0.000000,-222.061783,10584.944971
636.247491,-153.219100,-518.144159,10955.047942
636.247807,-536.266849,-888.247130,11103.089130
636.248123,-306.438199,-370.102971,10510.924376
636.248438,-153.219100,444.123565,9770.718434
636.248754,153.219100,1110.308913,9252.574275
636.249070,536.266849,1480.411884,8660.409521
636.249386,1991.848295,1332.370696,7920.203579
636.249701,1225.752797,-0.000000,8068.244768
636.250019,1072.533697,-1258.350101,8956.491898
636.250335,842.705048,-1998.556043,9844.739029
636.250651,919.314598,-2368.659014,9844.739029
636.250967,383.047749,-1776.494261,10214.842000
636.251282,306.438199,-1702.473667,10288.862594
636.251598,0.000000,-1850.514855,10584.944971
636.251914,0.000000,-1702.473667,10955.047942
636.252229,0.000000,-1332.370696,10214.842000
636.252545,-229.828649,-518.144159,9622.677246
636.252861,153.219100,-0.000000,9252.574275
636.253176,995.924147,666.185348,8438.347739
636.253492,1149.143247,444.123565,7772.162391
636.253808,1302.362347,-74.020594,8068.244768
636.254123,1149.143247,-1554.432478,8512.368333
636.254439,306.438199,-2220.617826,9326.594869
636.254755,153.219100,-2294.638420,9400.615463
636.255071,0.000000,-1924.535449,9992.780217
636.255386,0.000000,-1998.556043,10288.862594
636.255702,-229.828649,-2368.659014,10807.006753
636.256018,-459.657299,-1776.494261,10362.883188
636.256333,0.000000,-962.267725,9696.697840
636.256649,0.000000,444.123565,9178.553681
636.256965,459.657299,592.164754,8586.388927
636.257280,842.705048,1332.370696,7179.997637
636.257596,1455.581446,1258.350101,7550.100608
636.257912,1608.800546,-74.020594,8290.306550
636.258228,1225.752797,-1258.350101,8660.409521
636.258543,842.705048,-1406.391290,9474.636058
636.258859,766.095498,-1554.432478,9326.594869
636.259175,766.095498,-1554.432478,9770.718434
636.259490,383.047749,-962.267725,9992.780217
636.259806,536.266849,-962.267725,10362.883188
636.260122,153.219100,-296.082377,10140.821405
636.260437,76.609550,666.185348,9104.533087
636.260753,459.657299,1702.473667,9252.574275
636.261069,842.705048,1998.556043,8512.368333
636.261384,612.876398,1702.473667,7994.224174
636.261700,1149.143247,1406.391290,7698.141797
636.262016,919.314598,148.041188,8438.347739
636.262332,383.047749,-740.205942,9400.615463
636.262647,0.000000,-1036.288319,9992.780217
636.262963,-306.438199,-962.267725,10510.924376
636.263279,-842.705048,-962.267725,10807.006753
636.263594,-1149.143247,-962.267725,11029.068536
636.263910,-919.314598,-740.205942,11177.109724
636.264226,-612.876398,-444.123565,10732.986159
636.264541,-459.657299,370.102971,9696.697840
636.264857,76.609550,1480.411884,9252.574275
636.265173,689.485948,2220.617826,8734.430116
636.265488,1149.143247,2294.638420,7994.224174
636.265804,1378.971896,1702.473667,8364.327145
636.266120,1072.533697,-0.000000,8586.388927
636.266436,842.705048,-444.123565,9474.636058
636.266751,689.485948,-592.164754,9844.739029
636.267067,612.876398,-370.102971,10362.883188
636.267383,306.438199,-222.061783,10955.047942
636.267698,-153.219100,-148.041188,11325.150913
636.268014,-153.219100,-0.000000,10955.047942
636.268330,0.000000,962.267725,10436.903782
636.268645,76.609550,1850.514855,9770.718434
636.268961,1072.533697,2516.700203,9400.615463
636.269277,919.314598,2738.761985,8808.450710
636.269592,1149.143247,2368.659014,8734.430116
636.269908,1455.581446,1332.370696,8586.388927
636.270224,995.924147,296.082377,8882.471304
636.270540,383.047749,-592.164754,9992.780217
636.270855,612.876398,-1036.288319,10362.883188
636.271171,-229.828649,-888.247130,10436.903782
636.271487,0.000000,-222.061783,10955.047942
636.271802,-383.047749,-962.267725,11103.089130
636.272118,-612.876398,-518.144159,11251.130318
636.272434,-229.828649,-74.020594,10584.944971
636.272749,-153.219100,814.226536,9474.636058
636.273065,459.657299,1406.391290,9030.512492
636.273381,919.314598,1332.370696,8216.285956
636.273696,1608.800546,814.226536,7698.141797
636.274012,1608.800546,-296.082377,8068.244768
636.274328,1302.362347,-1628.453072,8512.368333
636.274644,842.705048,-1924.535449,9548.656652
636.274959,919.314598,-2368.659014,9918.759623
636.275275,153.219100,-2294.638420,9918.759623
636.275591,0.000000,-1998.556043,10288.862594
636.275906,153.219100,-2072.576638,10436.903782
636.276222,0.000000,-1480.411884,10214.842000
636.276538,306.438199,-740.205942,9400.615463
636.276853,459.657299,-296.082377,8734.430116
636.277169,842.705048,148.041188,8216.285956
636.277485,1378.971896,370.102971,7550.100608
636.277800,1532.190996,-222.061783,7550.100608
636.278116,1225.752797,-1332.370696,7920.203579
636.278432,1072.533697,-1998.556043,8808.450710
636.278748,459.657299,-2368.659014,9252.574275
636.279063,229.828649,-1850.514855,9400.615463
636.279379,0.000000,-2146.597232,9696.697840
636.279695,-306.438199,-1998.556043,10288.862594
636.280010,-612.876398,-2516.700203,10732.986159
636.280326,-536.266849,-2220.617826,10214.842000
636.280642,-689.485948,-740.205942,9622.677246
636.280957,-459.657299,-0.000000,9252.574275
636.281273,-383.047749,666.185348,8660.409521
636.281589,459.657299,1258.350101,7920.203579
636.281904,842.705048,370.102971,7846.182985
636.282220,766.095498,-370.102971,8290.306550
636.282536,842.705048,-1554.432478,8734.430116
636.282852,1532.190996,-1702.473667,9696.697840
636.283167,766.095498,-1258.350101,9844.739029
636.283483,229.828649,-1332.370696,10288.862594
636.283799,-153.219100,-962.267725,10436.903782
636.284114,0.000000,-962.267725,10436.903782
636.284430,0.000000,-74.020594,10510.924376
636.284746,76.609550,888.247130,9844.739029
636.285061,229.828649,1628.453072,9030.512492
636.285377,689.485948,1924.535449,8734.430116
636.285693,995.924147,1776.494261,7920.203579
636.286008,1378.971896,1110.308913,8512.368333
636.286324,842.705048,-0.000000,8586.388927
636.286640,76.609550,-1184.329507,9844.739029
636.286956,0.000000,-1406.391290,10288.862594
636.287271,0.000000,-1406.391290,10732.986159
636.287587,0.000000,-1110.308913,11103.089130
636.287903,-766.095498,-1036.288319,11695.253884
636.288218,-766.095498,-1036.288319,11251.130318
636.288534,-766.095498,-222.061783,10584.944971
636.288850,-229.828649,740.205942,9918.759623
636.289165,76.609550,1554.432478,9548.656652
636.289481,459.657299,2220.617826,8734.430116
636.289797,1302.362347,2146.597232,7846.182985
636.290112,1532.190996,1258.350101,8290.306550
636.290428,1302.362347,-0.000000,8808.450710
636.290744,1302.362347,-592.164754,9770.718434
636.291060,919.314598,-888.247130,9548.656652
636.291375,689.485948,-592.164754,10362.883188
636.291691,306.438199,-296.082377,10732.986159
636.292007,229.828649,-296.082377,10881.027347
636.292322,0.000000,-148.041188,10955.047942
636.292638,-229.828649,444.123565,10140.821405
636.292954,0.000000,1776.494261,9844.739029
636.293269,536.266849,2220.617826,9104.533087
636.293585,842.705048,2516.700203,8364.327145
636.293901,995.924147,1776.494261,7994.224174
636.294216,1302.362347,592.164754,8142.265362
636.294532,995.924147,-222.061783,8808.450710
636.294848,536.266849,-888.247130,9844.739029
636.295164,919.314598,-1184.329507,10066.800811
636.295479,0.000000,-962.267725,10584.944971
636.295795,0.000000,-814.226536,10510.924376
636.296111,0.000000,-962.267725,10658.965565
636.296426,0.000000,-888.247130,10436.903782
636.296742,0.000000,-222.061783,9770.718434
636.297058,459.657299,814.226536,9326.594869
636.297373,995.924147,1480.411884,8512.368333
636.297689,1455.581446,1480.411884,7698.141797
636.298005,1838.629195,962.267725,7476.080014
636.298320,1991.848295,-0.000000,7994.224174
636.298636,1455.581446,-1332.370696,8956.491898
636.298952,1225.752797,-1628.453072,9400.615463
636.299268,919.314598,-1850.514855,9696.697840
636.299583,689.485948,-1480.411884,9770.718434
636.299899,612.876398,-1554.432478,10214.842000
636.300215,0.000000,-1628.453072,10807.006753
636.300530,76.609550,-962.267725,10140.821405
636.300846,153.219100,-296.082377,9474.636058
636.301162,153.219100,518.144159,9474.636058
636.301477,612.876398,1258.350101,8808.450710
636.301793,612.876398,1110.308913,7994.224174
636.302109,1149.143247,740.205942,7846.182985
636.302425,919.314598,-444.123565,8364.327145
636.302740,459.657299,-1554.432478,9400.615463
636.303056,229.828649,-1628.453072,9622.677246
636.303372,-306.438199,-1998.556043,10140.821405
636.303687,-689.485948,-1406.391290,10732.986159
636.304003,-1072.533697,-1702.473667,10732.986159
636.304319,-842.705048,-1332.370696,11029.068536
636.304634,-842.705048,-1332.370696,10658.965565
636.304950,-1072.533697,-222.061783,9770.718434
636.305266,-459.657299,296.082377,9400.615463
636.305581,76.609550,888.247130,8808.450710
636.305897,153.219100,888.247130,8216.285956
636.306213,766.095498,222.061783,8142.265362
636.306529,766.095498,-814.226536,8586.388927
636.306844,459.657299,-1332.370696,9474.636058
636.307160,612.876398,-1554.432478,9992.780217
636.307476,306.438199,-1184.329507,9992.780217
636.307791,306.438199,-1110.308913,10362.883188
636.308107,-153.219100,-1036.288319,10732.986159
636.308423,0.000000,-1036.288319,10732.986159
636.308738,383.047749,-888.247130,10436.903782
636.309054,153.219100,148.041188,9622.677246
636.309370,766.095498,1258.350101,8956.491898
636.309685,919.314598,1554.432478,8364.327145
636.310001,1302.362347,1554.432478,7698.141797
636.310317,1608.800546,666.185348,7994.224174
636.310633,1072.533697,-296.082377,8512.368333
636.310948,536.266849,-1406.391290,9326.594869
636.311264,153.219100,-1776.494261,9770.718434
636.311580,76.609550,-1702.473667,10288.862594
636.311895,0.000000,-1702.473667,10510.924376
636.312211,-689.485948,-1628.453072,10955.047942
636.312527,-536.266849,-1036.288319,11103.089130
636.312842,-612.876398,-666.185348,10436.903782
636.313158,-383.047749,444.123565,9548.656652
636.313474,229.828649,1406.391290,9030.512492
636.313789,842.705048,1628.453072,8068.244768
636.314105,1302.362347,1554.432478,7920.203579
636.314421,1608.800546,666.185348,7920.203579
636.314737,1455.581446,-666.185348,8808.450710
636.315052,612.876398,-888.247130,9474.636058
636.315368,919.314598,-1036.288319,9548.656652
636.315684,766.095498,-592.164754,9992.780217
636.315999,536.266849,-444.123565,10362.883188
636.316315,0.000000,-666.185348,10510.924376
636.316631,153.219100,-0.000000,10807.006753
636.316946,383.047749,592.164754,10066.800811
636.317262,766.095498,1628.453072,9400.615463
636.317578,1072.533697,2146.597232,8660.409521
636.317893,1455.581446,2516.700203,7772.162391
636.318209,1762.019645,1554.432478,7550.100608
636.318525,1378.971896,740.205942,8290.306550
636.318841,1149.143247,-370.102971,9178.553681
636.319156,766.095498,-1258.350101,9622.677246
636.319472,153.219100,-1554.432478,10214.842000
636.319788,0.000000,-1110.308913,10658.965565
636.320103,-153.219100,-1258.350101,10881.027347
636.320419,-306.438199,-1036.288319,11103.089130
636.320735,-459.657299,-740.205942,10732.986159
636.321050,0.000000,222.061783,10066.800811
636.321366,153.219100,1332.370696,9474.636058
636.321682,459.657299,1702.473667,8956.491898
636.321997,1455.581446,1850.514855,8068.244768
636.322313,1608.800546,1184.329507,7772.162391
636.322629,1762.019645,-0.000000,8290.306550
636.322945,1378.971896,-962.267725,9178.553681
636.323260,919.314598,-1258.350101,9548.656652
636.323576,612.876398,-1406.391290,10066.800811
636.323892,153.219100,-1184.329507,10658.965565
636.324207,383.047749,-1332.370696,11103.089130
636.324523,-153.219100,-1258.350101,10955.047942
636.324839,-612.876398,-888.247130,10510.924376
636.325154,-383.047749,148.041188,9770.718434
636.325470,0.000000,1480.411884,9252.574275
636.325786,306.438199,1924.535449,8660.409521
636.326101,995.924147,1776.494261,8142.265362
636.326417,995.924147,666.185348,8068.244768
636.326733,612.876398,-296.082377,8586.388927
636.327049,612.876398,-1554.432478,9400.615463
636.327364,459.657299,-1480.411884,9770.718434
636.327680,-306.438199,-1480.411884,9844.739029
636.327996,-459.657299,-1110.308913,10584.944971
636.328311,-689.485948,-1110.308913,10658.965565
636.328627,-919.314598,-1110.308913,10807.006753
636.328943,-1072.533697,-592.164754,10214.842000
636.329258,-919.314598,518.144159,9770.718434
636.329574,-459.657299,1480.411884,8882.471304
636.329890,76.609550,2294.638420,8364.327145
636.330205,459.657299,1924.535449,7772.162391
636.330521,1072.533697,740.205942,7994.224174
636.330837,842.705048,-296.082377,8438.347739
636.331153,919.314598,-1184.329507,9400.615463
636.331468,689.485948,-1332.370696,9696.697840
636.331784,612.876398,-1332.370696,10066.800811
636.332100,383.047749,-518.144159,10510.924376
636.332415,383.047749,-370.102971,10510.924376
636.332731,153.219100,-74.020594,10288.862594
636.333047,306.438199,592.164754,9400.615463
636.333362,383.047749,1258.350101,9252.574275
636.333678,612.876398,1480.411884,8660.409521
636.333994,1225.752797,2072.576638,8512.368333
636.334309,1378.971896,962.267725,7698.141797
636.334625,1608.800546,-0.000000,8290.306550
636.334941,1302.362347,-1332.370696,8512.368333
636.335257,919.314598,-1406.391290,9696.697840
636.335572,459.657299,-1702.473667,9622.677246
636.335888,229.828649,-1628.453072,10140.821405
636.336204,0.000000,-1406.391290,11029.068536
636.336519,0.000000,-1702.473667,10807.006753
636.336835,-306.438199,-1332.370696,10732.986159
636.337151,-536.266849,-666.185348,10436.903782
636.337466,153.219100,518.144159,9548.656652
636.337782,306.438199,962.267725,9030.512492
636.338098,1149.143247,1184.329507,8068.244768
636.338413,1455.581446,962.267725,8142.265362
636.338729,1455.581446,-0.000000,8512.368333
636.339045,919.314598,-888.247130,8956.491898
636.339361,1149.143247,-1184.329507,9622.677246
636.339676,1072.533697,-1036.288319,10066.800811
636.339992,919.314598,-888.247130,10214.842000
636.340308,536.266849,-888.247130,10362.883188
636.340623,306.438199,-740.205942,10362.883188
636.340939,-383.047749,-444.123565,10955.047942
636.341255,76.609550,296.082377,9844.739029
636.341570,383.047749,1554.432478,9400.615463
636.341886,612.876398,1924.535449,8882.471304
636.342202,1072.533697,1998.556043,8364.327145
636.342518,1302.362347,1110.308913,7920.203579
636.342833,1378.971896,222.061783,8216.285956
636.343149,612.876398,-1036.288319,9178.553681
636.343465,689.485948,-1110.308913,9474.636058
636.343780,612.876398,-962.267725,9844.739029
636.344096,0.000000,-962.267725,10288.862594
636.344412,-689.485948,-1332.370696,10807.006753
636.344727,-612.876398,-1480.411884,10881.027347
636.345043,-766.095498,-740.205942,10436.903782
636.345359,-919.314598,-0.000000,10066.800811
636.345674,-459.657299,962.267725,9326.594869
636.345990,0.000000,1480.411884,8660.409521
636.346306,612.876398,1480.411884,7994.224174
636.346622,842.705048,222.061783,8216.285956
636.346937,689.485948,-592.164754,8438.347739
636.347253,689.485948,-1184.329507,9326.594869
636.347569,612.876398,-1406.391290,9696.697840
636.347884,536.266849,-1332.370696,9696.697840
636.348200,-153.219100,-1184.329507,10288.862594
636.348516,76.609550,-1110.308913,10436.903782
636.348831,0.000000,-962.267725,10584.944971
636.349147,76.609550,-592.164754,9992.780217
636.349463,0.000000,444.123565,9622.677246
636.349778,153.219100,1110.308913,8956.491898
636.350094,1072.533697,1998.556043,8290.306550
636.350410,1072.533697,1850.514855,7179.997637
636.350726,1302.362347,1184.329507,7772.162391
636.351041,995.924147,-296.082377,8586.388927
636.351357,612.876398,-1036.288319,9474.636058
636.351673,306.438199,-1184.329507,9622.677246
636.351989,0.000000,-1036.288319,10584.944971
636.352304,-306.438199,-1036.288319,10584.944971
636.352620,-919.314598,-1036.288319,10732.986159
636.352936,-459.657299,-962.267725,11029.068536
636.353252,-995.924147,-518.144159,10436.903782
636.353568,-536.266849,592.164754,9992.780217
636.353883,0.000000,1702.473667,9326.594869
636.354199,536.266849,1554.432478,8734.430116
636.354515,1225.752797,1628.453072,8290.306550
636.354831,1302.362347,740.205942,8660.409521
636.355147,1378.971896,-370.102971,9030.512492
636.355462,1302.362347,-592.164754,9548.656652
636.355778,1225.752797,-666.185348,9474.636058
636.356094,995.924147,-888.247130,10288.862594
636.356410,919.314598,-814.226536,10436.903782
636.356725,689.485948,-1258.350101,10732.986159
636.357041,766.095498,-518.144159,10436.903782
636.357357,1532.190996,-0.000000,9918.759623
636.357673,1072.533697,962.267725,9548.656652
636.357989,1225.752797,1628.453072,8512.368333
636.358304,1532.190996,1702.473667,7920.203579
636.358620,1991.848295,1036.288319,8068.244768
636.358936,1532.190996,-518.144159,8216.285956
636.359252,766.095498,-1850.514855,9178.553681
636.359568,153.219100,-2220.617826,9992.780217
636.359883,229.828649,-1998.556043,9844.739029
636.360199,-153.219100,-1776.494261,10510.924376
636.360515,-459.657299,-1554.432478,11103.089130
636.360831,-459.657299,-1850.514855,10881.027347
636.361147,-612.876398,-1480.411884,10658.965565
636.361462,-383.047749,-740.205942,10066.800811
636.361778,0.000000,148.041188,8882.471304
636.362094,459.657299,1110.308913,8808.450710
636.362410,842.705048,1036.288319,8068.244768
636.362725,1149.143247,740.205942,7550.100608
636.363041,1378.971896,-0.000000,8068.244768
636.363357,995.924147,-1036.288319,8882.471304
636.363673,536.266849,-1406.391290,9252.574275
636.363989,766.095498,-1110.308913,9474.636058
636.364304,76.609550,-888.247130,9918.759623
636.364620,-229.828649,-888.247130,10436.903782
636.364936,-383.047749,-1184.329507,10732.986159
636.365252,-842.705048,-666.185348,10362.883188
636.365568,-1149.143247,370.102971,9844.739029
636.365883,-306.438199,1480.411884,9030.512492
636.366199,306.438199,1924.535449,8438.347739
636.366515,689.485948,1924.535449,7624.121203
636.366831,1149.143247,962.267725,8216.285956
636.367147,383.047749,-148.041188,8290.306550
636.367462,459.657299,-1110.308913,9104.533087
636.367778,229.828649,-1184.329507,9548.656652
636.368094,0.000000,-1480.411884,9992.780217
636.368410,-459.657299,-1332.370696,10584.944971
636.368725,-459.657299,-1406.391290,10881.027347
636.369041,-689.485948,-1332.370696,10732.986159
636.369357,-842.705048,-888.247130,10436.903782
636.369673,-689.485948,-74.020594,9474.636058
636.369989,-229.828649,1036.288319,8808.450710
636.370304,153.219100,1480.411884,8956.491898
636.370620,766.095498,1332.370696,8438.347739
636.370936,1072.533697,518.144159,8142.265362
636.371252,766.095498,-370.102971,8808.450710
636.371568,536.266849,-1110.308913,9844.739029
636.371883,842.705048,-1332.370696,9844.739029
636.372199,612.876398,-1258.350101,10288.862594
636.372515,306.438199,-962.267725,10732.986159
636.372831,0.000000,-1850.514855,10955.047942
636.373146,0.000000,-888.247130,10955.047942
636.373462,306.438199,-148.041188,10510.924376
636.373778,459.657299,1036.288319,9918.759623
636.374094,842.705048,1776.494261,8956.491898
636.374410,1302.362347,1554.432478,8216.285956
636.374725,1302.362347,1258.350101,8142.265362
636.375041,1225.752797,222.061783,8216.285956
636.375357,1302.362347,-370.102971,8808.450710
636.375673,1072.533697,-962.267725,9844.739029
636.375989,612.876398,-1332.370696,9992.780217
636.376304,689.485948,-888.247130,10214.842000
636.376620,76.609550,-814.226536,10658.965565
636.376936,-229.828649,-1406.391290,10955.047942
636.377252,-76.609550,-1480.411884,11103.089130
636.377568,-306.438199,-296.082377,9992.780217
636.377883,-153.219100,888.247130,9474.636058
636.378199,536.266849,1406.391290,9104.533087
636.378515,995.924147,1702.473667,8438.347739
636.378831,1225.752797,1332.370696,8290.306550
636.379146,1378.971896,-0.000000,8142.265362
636.379462,1149.143247,-814.226536,8882.471304
636.379778,1072.533697,-1258.350101,9548.656652
636.380094,919.314598,-1184.329507,9844.739029
636.380410,919.314598,-592.164754,9992.780217
636.380725,536.266849,-740.205942,10066.800811
636.381041,842.705048,-888.247130,10584.944971
636.381357,306.438199,-814.226536,10214.842000
636.381673,689.485948,-0.000000,9548.656652
636.381989,842.705048,1480.411884,9104.533087
636.382304,1225.752797,1850.514855,8364.327145
636.382620,1608.800546,1554.432478,7624.121203
636.382936,1455.581446,1184.329507,7698.141797
636.383252,995.924147,-74.020594,7772.162391
636.383568,689.485948,-1332.370696,8660.409521
636.383883,229.828649,-1406.391290,9696.697840
636.384199,0.000000,-1702.473667,10140.821405
636.384515,-612.876398,-1776.494261,10436.903782
636.384831,-536.266849,-1702.473667,11399.171507
636.385146,-995.924147,-1850.514855,11103.089130
636.385462,-995.924147,-1332.370696,10510.924376
636.385778,-1072.533697,-0.000000,9992.780217
636.386094,-536.266849,1036.288319,9326.594869
636.386410,229.828649,1258.350101,8660.409521
636.386725,459.657299,1332.370696,7920.203579
636.387041,612.876398,518.144159,8216.285956
636.387357,459.657299,-148.041188,8586.388927
636.387673,229.828649,-814.226536,9400.615463
636.387989,612.876398,-1480.411884,9622.677246
636.388304,383.047749,-1184.329507,9918.759623
636.388620,76.609550,-814.226536,10436.903782
636.388936,-229.828649,-814.226536,10658.965565
636.389252,-229.828649,-1258.350101,11103.089130
636.389567,-536.266849,-222.061783,10658.965565
636.389883,-383.047749,666.185348,9474.636058
636.390199,0.000000,1628.453072,9252.574275
636.390515,153.219100,1628.453072,8882.471304
636.390831,766.095498,1628.453072,8438.347739
636.391146,689.485948,592.164754,8364.327145
636.391462,842.705048,-518.144159,8734.430116
636.391778,612.876398,-1184.329507,9770.718434
636.392094,383.047749,-1628.453072,9844.739029
636.392410,306.438199,-1554.432478,9992.780217
636.392725,76.609550,-888.247130,10658.965565
636.393041,-229.828649,-1184.329507,10807.006753
636.393357,-536.266849,-888.247130,10658.965565
636.393673,0.000000,-444.123565,10140.821405
636.393989,383.047749,-0.000000,9622.677246
636.394304,689.485948,1702.473667,8734.430116
636.394620,842.705048,1110.308913,7994.224174
636.394936,1149.143247,814.226536,8142.265362
636.395252,1608.800546,-296.082377,8438.347739
636.395567,1072.533697,-888.247130,9030.512492
636.395883,1149.143247,-888.247130,9548.656652
636.396199,995.924147,-1406.391290,9548.656652
636.396515,689.485948,-1110.308913,10066.800811
636.396831,766.095498,-888.247130,10732.986159
636.397146,766.095498,-1184.329507,10362.883188
636.397462,612.876398,-666.185348,9992.780217
636.397778,306.438199,222.061783,9548.656652
636.398094,1072.533697,888.247130,9400.615463
636.398410,1225.752797,2220.617826,8956.491898
636.398725,1378.971896,2072.576638,7772.162391
636.399041,2068.457845,1480.411884,7772.162391
636.399357,1685.410096,592.164754,7846.182985
636.399673,1302.362347,-222.061783,8882.471304
636.399988,1225.752797,-814.226536,9622.677246
636.400304,842.705048,-1480.411884,9992.780217
636.400620,153.219100,-1258.350101,10510.924376
636.400936,0.000000,-1036.288319,11029.068536
636.401252,-229.828649,-1628.453072,11251.130318
636.401567,-536.266849,-1036.288319,10955.047942
636.401883,-306.438199,-74.020594,9918.759623
636.402199,0.000000,1110.308913,9474.636058
636.402515,612.876398,1332.370696,8512.368333
636.402831,919.314598,1702.473667,8290.306550
636.403146,1072.533697,1110.308913,8142.265362
636.403462,1072.533697,-0.000000,8438.347739
636.403778,919.314598,-1110.308913,9030.512492
636.404094,766.095498,-1184.329507,9474.636058
636.404410,689.485948,-1406.391290,9844.739029
636.404725,383.047749,-1406.391290,10140.821405
636.405041,0.000000,-1406.391290,10658.965565
636.405357,0.000000,-1406.391290,10510.924376
636.405673,-536.266849,-888.247130,10288.862594
636.405988,-459.657299,518.144159,9548.656652
636.406304,536.266849,1036.288319,9104.533087
636.406620,536.266849,1628.453072,8068.244768
636.406936,383.047749,1554.432478,7994.224174
636.407252,383.047749,592.164754,7994.224174
636.407567,383.047749,-518.144159,8512.368333
636.407883,0.000000,-1332.370696,9252.574275
636.408199,-229.828649,-1554.432478,9918.759623
636.408515,-306.438199,-1480.411884,10140.821405
636.408831,-536.266849,-1332.370696,10436.903782
636.409146,-766.095498,-1258.350101,10807.006753
636.409462,-919.314598,-1184.329507,10881.027347
636.409778,-1072.533697,-148.041188,10288.862594
636.410094,-612.876398,1332.370696,9474.636058
636.410410,0.000000,1998.556043,9252.574275
636.410725,459.657299,2072.576638,8364.327145
636.411041,842.705048,2072.576638,7698.141797
636.411357,1072.533697,1110.308913,8142.265362
636.411673,842.705048,-74.020594,8660.409521
636.411988,766.095498,-592.164754,9474.636058
636.412304,383.047749,-814.226536,9770.718434
636.412620,459.657299,-296.082377,10362.883188
636.412936,383.047749,-370.102971,10658.965565
636.413252,-229.828649,-666.185348,11029.068536
636.413567,-459.657299,-518.144159,10955.047942
636.413883,-383.047749,148.041188,10362.883188
636.414199,76.609550,888.247130,9548.656652
636.414515,689.485948,1480.411884,8956.491898
636.414831,919.314598,1628.453072,8364.327145
636.415146,1608.800546,444.123565,8290.306550
636.415462,1149.143247,-0.000000,8734.430116
636.415778,1685.410096,-1036.288319,8808.450710
636.416094,1149.143247,-1702.473667,9326.594869
636.416409,1225.752797,-1628.453072,9622.677246
636.416725,1225.752797,-1554.432478,9844.739029
636.417041,536.266849,-1406.391290,10288.862594
636.417357,229.828649,-1628.453072,10732.986159
636.417673,76.609550,-1258.350101,10807.006753
636.417988,229.828649,-518.144159,9918.759623
636.418304,536.266849,444.123565,9326.594869
636.418620,919.314598,518.144159,8586.388927
636.418936,1225.752797,888.247130,8512.368333
636.419252,1532.190996,592.164754,8142.265362
636.419567,1455.581446,-74.020594,8290.306550
636.419883,1225.752797,-1258.350101,9104.533087
636.420199,1072.533697,-1258.350101,9770.718434
636.420515,1225.752797,-1258.350101,9844.739029
636.420831,842.705048,-1036.288319,10066.800811
636.421146,1225.752797,-592.164754,10362.883188
636.421462,383.047749,-814.226536,10214.842000
636.421778,459.657299,-222.061783,10140.821405
636.422094,383.047749,518.144159,9400.615463
636.422409,919.314598,1850.514855,9030.512492
636.422725,1455.581446,2294.638420,8512.368333
636.423041,1455.581446,2146.597232,7846.182985
636.423357,1685.410096,1776.494261,7772.162391
636.423673,1302.362347,444.123565,8142.265362
636.423988,766.095498,-370.102971,8956.491898
636.424304,689.485948,-518.144159,9918.759623
636.424620,0.000000,-962.267725,9992.780217
636.424936,-229.828649,-592.164754,10436.903782
636.425252,-842.705048,-1258.350101,10732.986159
636.425567,-842.705048,-1258.350101,11251.130318
636.425883,-1532.190996,-666.185348,10732.986159
636.426199,-1378.971896,296.082377,9696.697840
636.426515,-919.314598,1258.350101,9252.574275
636.426830,-153.219100,1776.494261,8956.491898
636.427146,306.438199,1480.411884,8142.265362
636.427462,459.657299,814.226536,8142.265362
636.427778,459.657299,-444.123565,8660.409521
636.428094,536.266849,-962.267725,9400.615463
636.428409,1072.533697,-1036.288319,9548.656652
636.428725,842.705048,-962.267725,9844.739029
636.429041,0.000000,-814.226536,10288.862594
636.429357,0.000000,-814.226536,11029.068536
636.429673,-306.438199,-814.226536,10362.883188
636.429988,-306.438199,-74.020594,9992.780217
636.430304,0.000000,444.123565,10066.800811
636.430620,0.000000,888.247130,9178.553681
636.430936,229.828649,1332.370696,8660.409521
636.431252,459.657299,888.247130,8512.368333
636.431567,842.705048,-222.061783,8364.327145
636.431883,689.485948,-1184.329507,9400.615463
636.432199,0.000000,-1628.453072,9992.780217
636.432515,0.000000,-1776.494261,10066.800811
636.432830,229.828649,-1332.370696,10362.883188
636.433146,306.438199,-814.226536,10658.965565
636.433462,-383.047749,-1332.370696,10732.986159
636.433778,-306.438199,-1332.370696,10807.006753
636.434094,0.000000,-444.123565,10066.800811
636.434409,229.828649,370.102971,9770.718434
636.434725,459.657299,1184.329507,9326.594869
636.435041,1149.143247,1480.411884,8216.285956
636.435357,1225.752797,1480.411884,7920.203579
636.435673,1532.190996,444.123565,8142.265362
636.435988,1455.581446,-370.102971,8882.471304
636.436304,1302.362347,-1258.350101,9326.594869
636.436620,1302.362347,-1184.329507,9770.718434
636.436936,995.924147,-1406.391290,9844.739029
636.437252,536.266849,-1332.370696,10436.903782
636.437567,612.876398,-1480.411884,10436.903782
636.437883,153.219100,-1110.308913,10214.842000
636.438199,383.047749,-222.061783,9770.718434
636.438515,919.314598,888.247130,9252.574275
636.438830,1072.533697,1776.494261,8290.306550
636.439146,1608.800546,1480.411884,7328.038826
636.439462,2145.067394,592.164754,7698.141797
636.439778,1608.800546,-444.123565,7994.224174
636.440094,1378.971896,-1628.453072,8586.388927
636.440409,842.705048,-1998.556043,9474.636058
636.440725,612.876398,-1924.535449,10066.800811
636.441041,689.485948,-1702.473667,10436.903782
636.441357,0.000000,-1850.514855,10584.944971
636.441673,-459.657299,-1776.494261,10732.986159
636.441988,-536.266849,-1480.411884,10584.944971
636.442304,-383.047749,-0.000000,9770.718434
636.442620,-229.828649,370.102971,9104.533087
636.442936,612.876398,1332.370696,8438.347739
636.443251,1072.533697,1110.308913,7698.141797
636.443567,1225.752797,740.205942,7846.182985
636.443883,919.314598,-666.185348,8438.347739
636.444199,612.876398,-888.247130,9474.636058
636.444515,689.485948,-1036.288319,9252.574275
636.444830,536.266849,-1110.308913,9844.739029
636.445146,76.609550,-592.164754,10288.862594
636.445462,-153.219100,-592.164754,10658.965565
636.445778,-153.219100,-518.144159,10436.903782
636.446094,-153.219100,222.061783,10214.842000
636.446409,-229.828649,1406.391290,9622.677246
636.446725,153.219100,2294.638420,8882.471304
636.447041,689.485948,2590.720797,8586.388927
636.447357,842.705048,2442.679609,8364.327145
636.447673,842.705048,1406.391290,8216.285956
636.447988,306.438199,-0.000000,8956.491898
636.448304,306.438199,-592.164754,9918.759623
636.448620,536.266849,-1184.329507,10214.842000
636.448936,-229.828649,-444.123565,10436.903782
636.449251,-536.266849,-518.144159,10732.986159
636.449567,-919.314598,-814.226536,11251.130318
636.449883,-842.705048,-888.247130,11251.130318
636.450199,-995.924147,-0.000000,10807.006753
636.450515,-383.047749,740.205942,10066.800811
636.450830,0.000000,1702.473667,9326.594869
636.451146,612.876398,1998.556043,8734.430116
636.451462,919.314598,1406.391290,8142.265362
636.451778,1991.848295,-0.000000,8586.388927
636.452094,995.924147,-370.102971,9178.553681
636.452409,612.876398,-1406.391290,9548.656652
636.452725,689.485948,-1628.453072,10066.800811
636.453041,536.266849,-1406.391290,10510.924376
636.453357,0.000000,-1332.370696,10881.027347
636.453672,-306.438199,-1850.514855,11103.089130
636.453988,0.000000,-1406.391290,10436.903782
636.454304,0.000000,-740.205942,9992.780217
636.454620,383.047749,666.185348,9622.677246
636.454936,689.485948,1406.391290,9030.512492
636.455251,1072.533697,1332.370696,8216.285956
636.455567,1532.190996,444.123565,7698.141797
636.455883,1685.410096,-370.102971,8142.265362
636.456199,1378.971896,-1628.453072,8734.430116
636.456514,689.485948,-1776.494261,9548.656652
636.456830,919.314598,-1776.494261,9696.697840
636.457146,612.876398,-1554.432478,10066.800811
636.457462,229.828649,-1776.494261,10362.883188
636.457778,612.876398,-1998.556043,10510.924376
636.458093,76.609550,-1702.473667,10510.924376
636.458409,76.609550,-370.102971,9548.656652
636.458725,383.047749,888.247130,9030.512492
636.459041,1072.533697,1850.514855,8290.306550
636.459356,1532.190996,1776.494261,7550.100608
636.459672,1685.410096,1258.350101,7550.100608
636.459988,1685.410096,-296.082377,7624.121203
636.460304,1608.800546,-1258.350101,8364.327145
636.460620,1149.143247,-1924.535449,9474.636058
636.460935,1072.533697,-1924.535449,9622.677246
636.461251,612.876398,-1110.308913,9844.739029
636.461567,229.828649,-1036.288319,10066.800811
636.461883,229.828649,-1036.288319,10362.883188
636.462199,306.438199,-444.123565,9992.780217
636.462514,229.828649,666.185348,9252.574275
636.462830,229.828649,1628.453072,8882.471304
636.463146,995.924147,1924.535449,8290.306550
636.463462,995.924147,1184.329507,7550.100608
636.463777,842.705048,296.082377,7476.080014
636.464093,689.485948,-666.185348,8216.285956
636.464409,229.828649,-1332.370696,9326.594869
636.464725,76.609550,-1406.391290,9992.780217
636.465041,-536.266849,-1110.308913,10288.862594
636.465356,-612.876398,-1258.350101,10584.944971
636.465672,-766.095498,-1184.329507,11103.089130
636.465988,-842.705048,-1258.350101,11029.068536
636.466304,-1149.143247,-592.164754,10807.006753
636.466619,-919.314598,444.123565,9918.759623
636.466935,-153.219100,1628.453072,9474.636058
636.467251,383.047749,1850.514855,8808.450710
636.467567,459.657299,1628.453072,8068.244768
636.467883,766.095498,1110.308913,8660.409521
636.468198,459.657299,-222.061783,9104.533087
636.468514,383.047749,-740.205942,9844.739029
636.468830,153.219100,-888.247130,10214.842000
636.469146,76.609550,-666.185348,10584.944971
636.469461,0.000000,-740.205942,10732.986159
636.469777,0.000000,-666.185348,11325.150913
636.470093,-306.438199,-666.185348,11177.109724
636.470409,-383.047749,-0.000000,10584.944971
636.470725,-153.219100,1110.308913,9918.759623
636.471040,383.047749,1702.473667,9400.615463
636.471356,689.485948,1924.535449,8882.471304
636.471672,1072.533697,1554.432478,8068.244768
636.471988,1302.362347,888.247130,8364.327145
636.472303,995.924147,-370.102971,8882.471304
636.472619,766.095498,-1036.288319,9918.759623
636.472935,76.609550,-1406.391290,9918.759623
636.473251,383.047749,-1184.329507,10510.924376
636.473567,383.047749,-1258.350101,10658.965565
636.473882,-153.219100,-1406.391290,10881.027347
636.474198,76.609550,-1258.350101,10807.006753
636.474514,-229.828649,-592.164754,10288.862594
636.474830,0.000000,518.144159,9474.636058
636.475146,153.219100,1258.350101,8808.450710
636.475461,842.705048,1628.453072,8142.265362
636.475777,1838.629195,1036.288319,7550.100608
636.476093,1838.629195,-0.000000,8142.265362
636.476409,1302.362347,-1110.308913,8734.430116
636.476724,1302.362347,-1628.453072,9326.594869
636.477040,1302.362347,-1554.432478,9622.677246
636.477356,995.924147,-962.267725,9770.718434
636.477672,766.095498,-888.247130,9844.739029
636.477988,612.876398,-1036.288319,10140.821405
636.478303,383.047749,-814.226536,9844.739029
636.478619,689.485948,-0.000000,9400.615463
636.478935,995.924147,1184.329507,9178.553681
636.479251,842.705048,1480.411884,8068.244768
636.479566,1685.410096,1628.453072,7846.182985
636.479882,2221.676944,1332.370696,7328.038826
636.480198,1455.581446,370.102971,7698.141797
636.480514,1532.190996,-1258.350101,9030.512492
636.480830,612.876398,-1480.411884,9326.594869
636.481145,536.266849,-1480.411884,9696.697840
636.481461,0.000000,-1554.432478,10362.883188
636.481777,-459.657299,-1628.453072,10807.006753
636.482093,-995.924147,-2072.576638,11177.109724
636.482408,-689.485948,-1406.391290,10807.006753
636.482724,-689.485948,-296.082377,10066.800811
636.483040,-306.438199,592.164754,9548.656652
636.483356,76.609550,1850.514855,8808.450710
636.483672,919.314598,1258.350101,8290.306550
636.483987,919.314598,740.205942,8142.265362
636.484303,919.314598,-148.041188,8216.285956
636.484619,1072.533697,-1258.350101,9104.533087
636.484935,995.924147,-1258.350101,9918.759623
636.485250,766.095498,-1184.329507,10140.821405
636.485566,689.485948,-962.267725,10214.842000
636.485882,306.438199,-1110.308913,10658.965565
636.486198,-306.438199,-1110.308913,10732.986159
636.486514,-153.219100,-814.226536,10584.944971
636.486829,0.000000,-0.000000,9844.739029
636.487145,-153.219100,1406.391290,9474.636058
636.487461,306.438199,1924.535449,8660.409521
636.487777,459.657299,1702.473667,7994.224174
636.488093,612.876398,814.226536,8364.327145
636.488408,536.266849,-74.020594,8956.491898
636.488724,0.000000,-1332.370696,9622.677246
636.489040,-459.657299,-1924.535449,10140.821405
636.489356,-383.047749,-1924.535449,10658.965565
636.489671,-153.219100,-1702.473667,11399.171507
636.489987,-766.095498,-1480.411884,11325.150913
636.490303,-1225.752797,-962.267725,11103.089130
636.490619,-1072.533697,-148.041188,10584.944971
636.490935,-612.876398,1036.288319,9696.697840
636.491250,0.000000,1628.453072,8734.430116
636.491566,536.266849,2220.617826,8438.347739
636.491882,919.314598,1480.411884,8216.285956
636.492198,1302.362347,888.247130,8364.327145
636.492513,1149.143247,148.041188,8438.347739
636.492829,1072.533697,-888.247130,9548.656652
636.493145,1072.533697,-888.247130,9770.718434
636.493461,919.314598,-444.123565,9770.718434
636.493777,536.266849,-296.082377,10066.800811
636.494092,383.047749,-1036.288319,10658.965565
636.494408,153.219100,-888.247130,10955.047942
636.494724,536.266849,-0.000000,9770.718434
636.495040,383.047749,1184.329507,8882.471304
636.495355,766.095498,2072.576638,8734.430116
636.495671,1608.800546,2294.638420,8142.265362
636.495987,1302.362347,1184.329507,7846.182985
636.496303,1455.581446,-0.000000,8364.327145
636.496619,919.314598,-1184.329507,8956.491898
636.496934,919.314598,-1776.494261,9548.656652
636.497250,842.705048,-1998.556043,9844.739029
636.497566,536.266849,-1480.411884,10362.883188
636.497882,536.266849,-1110.308913,10288.862594
636.498197,306.438199,-1258.350101,10436.903782
636.498513,76.609550,-962.267725,10288.862594
636.498829,306.438199,-370.102971,9696.697840
636.499145,995.924147,1036.288319,9030.512492
636.499461,1225.752797,1480.411884,8512.368333
636.499776,1532.190996,1406.391290,7994.224174
636.500092,1991.848295,814.226536,7920.203579
636.500408,1532.190996,-74.020594,7994.224174
636.500724,1149.143247,-1332.370696,9104.533087
636.501040,919.314598,-1554.432478,9918.759623
636.501355,1072.533697,-1332.370696,9918.759623
636.501671,612.876398,-1036.288319,10214.842000
636.501987,459.657299,-1110.308913,10807.006753
636.502303,229.828649,-1110.308913,10584.944971
636.502618,0.000000,-740.205942,10436.903782
636.502934,0.000000,222.061783,9622.677246
636.503250,383.047749,814.226536,9030.512492
636.503566,766.095498,1850.514855,8364.327145
636.503882,689.485948,1480.411884,8068.244768
636.504197,995.924147,740.205942,8068.244768
636.504513,919.314598,-148.041188,8586.388927
636.504829,459.657299,-1036.288319,9178.553681
636.505145,383.047749,-888.247130,9992.780217
636.505460,306.438199,-962.267725,10140.821405
636.505776,-229.828649,-666.185348,10362.883188
636.506092,-459.657299,-666.185348,11547.212695
636.506408,-842.705048,-1184.329507,11029.068536
636.506724,-1072.533697,-370.102971,10807.006753
636.507039,-1072.533697,444.123565,10140.821405
636.507355,-919.314598,1184.329507,9548.656652
636.507671,-229.828649,1332.370696,8808.450710
636.507987,383.047749,1628.453072,8438.347739
636.508302,0.000000,666.185348,8290.306550
636.508618,76.609550,-296.082377,8882.471304
636.508934,76.609550,-1258.350101,9696.697840
636.509250,459.657299,-1110.308913,9770.718434
636.509566,536.266849,-962.267725,10288.862594
636.509881,229.828649,-740.205942,10214.842000
636.510197,153.219100,-740.205942,10362.883188
636.510513,76.609550,-888.247130,10436.903782
636.510829,-459.657299,-0.000000,10140.821405
636.511144,76.609550,592.164754,9178.553681
636.511460,383.047749,1332.370696,8956.491898
636.511776,919.314598,1628.453072,8364.327145
636.512092,1149.143247,962.267725,8068.244768
636.512408,1378.971896,-0.000000,8586.388927
636.512723,459.657299,-740.205942,8734.430116
636.513039,459.657299,-1332.370696,9548.656652
636.513355,459.657299,-1480.411884,9844.739029
636.513671,0.000000,-1406.391290,10140.821405
636.513987,-766.095498,-1184.329507,10584.944971
636.514302,-689.485948,-1702.473667,11029.068536
636.514618,-842.705048,-1554.432478,10658.965565
636.514934,-306.438199,-962.267725,10288.862594
636.515250,-153.219100,444.123565,9474.636058
636.515565,0.000000,1406.391290,8808.450710
636.515881,1072.533697,1924.535449,8142.265362
636.516197,1455.581446,1554.432478,7698.141797
636.516513,1838.629195,148.041188,7920.203579
636.516829,1532.190996,-518.144159,8956.491898
636.517144,1302.362347,-1332.370696,9622.677246
636.517460,1149.143247,-1554.432478,9918.759623
636.517776,1532.190996,-814.226536,9918.759623
636.518092,842.705048,-592.164754,10214.842000
636.518407,766.095498,-888.247130,10362.883188
636.518723,766.095498,-518.144159,10362.883188
636.519039,766.095498,592.164754,9474.636058
636.519355,842.705048,1480.411884,8956.491898
636.519671,1149.143247,1850.514855,8438.347739
636.519986,1302.362347,1776.494261,8068.244768
636.520302,1225.752797,518.144159,7994.224174
636.520618,1225.752797,-592.164754,8364.327145
636.520934,919.314598,-1184.329507,9474.636058
636.521249,383.047749,-1776.494261,10066.800811
636.521565,153.219100,-1702.473667,10362.883188
636.521881,0.000000,-1258.350101,10658.965565
636.522197,-306.438199,-1184.329507,11103.089130
636.522513,-612.876398,-1332.370696,10955.047942
636.522828,-689.485948,-962.267725,10881.027347
636.523144,-306.438199,-74.020594,10066.800811
636.523460,0.000000,740.205942,9030.512492
636.523776,153.219100,1184.329507,8660.409521
636.524091,995.924147,1628.453072,8142.265362
636.524407,1302.362347,1036.288319,7994.224174
636.524723,1762.019645,-222.061783,8142.265362
636.525039,919.314598,-1110.308913,9326.594869
636.525355,612.876398,-1184.329507,9770.718434
636.525670,1072.533697,-888.247130,9844.739029
636.525986,153.219100,-888.247130,10362.883188
636.526302,0.000000,-666.185348,11029.068536
636.526618,-306.438199,-740.205942,10881.027347
636.526934,-306.438199,-148.041188,9918.759623
636.527249,-536.266849,518.144159,9696.697840
636.527565,0.000000,1332.370696,8882.471304
636.527881,536.266849,1850.514855,8586.388927
636.528197,306.438199,1480.411884,8142.265362
636.528512,766.095498,518.144159,8364.327145
636.528828,536.266849,-592.164754,8808.450710
636.529144,0.000000,-740.205942,9474.636058
636.529460,153.219100,-888.247130,9696.697840
636.529776,0.000000,-888.247130,10362.883188
636.530091,0.000000,-592.164754,10362.883188
636.530407,-612.876398,-1036.288319,10881.027347
