#time,accel_x,accel_y,accel_z
996.050508,-842.705048,740.205942,9474.636058
996.050823,-689.485948,888.247130,9696.697840
996.051139,-766.095498,888.247130,9844.739029
996.051455,-766.095498,666.185348,9770.718434
996.051770,-919.314598,814.226536,9844.739029
996.052086,-1149.143247,666.185348,9474.636058
996.052402,-1225.752797,296.082377,9844.739029
996.052717,-919.314598,592.164754,9770.718434
996.053033,-459.657299,740.205942,9474.636058
996.053348,0.000000,814.226536,9474.636058
996.053664,0.000000,592.164754,9252.574275
996.053980,76.609550,962.267725,9104.533087
996.054295,229.828649,1110.308913,9104.533087
996.054611,0.000000,1628.453072,9178.553681
996.054927,-306.438199,1998.556043,9400.615463
996.055242,-383.047749,1850.514855,9400.615463
996.055558,-766.095498,1702.473667,9400.615463
996.055873,-995.924147,1480.411884,9474.636058
996.056189,-1532.190996,1406.391290,9474.636058
996.056505,-2145.067394,1258.350101,9696.697840
996.056820,-2298.286494,1406.391290,9622.677246
996.057136,-2834.553343,1332.370696,9548.656652
996.057452,-2757.943793,1480.411884,9696.697840
996.057767,-2987.772442,1258.350101,9696.697840
996.058083,-3447.429741,1702.473667,9474.636058
996.058398,-2987.772442,2072.576638,9400.615463
996.058714,-2528.115143,2146.597232,9252.574275
996.059030,-2681.334243,2146.597232,9104.533087
996.059345,-2451.505594,1850.514855,9178.553681
996.059661,-2451.505594,1702.473667,9030.512492
996.059977,-2451.505594,2072.576638,9252.574275
996.060292,-2145.067394,2220.617826,9400.615463
996.060608,-2298.286494,2368.659014,9326.594869
996.060923,-2451.505594,2516.700203,9326.594869
996.061239,-2068.457845,2812.782580,8882.471304
996.061555,-1991.848295,2960.823768,8734.430116
996.061870,-2374.896044,3034.844362,8808.450710
996.062186,-1991.848295,3034.844362,9030.512492
996.062502,-2528.115143,2738.761985,9326.594869
996.062817,-2604.724693,2516.700203,9474.636058
996.063133,-2451.505594,2294.638420,9696.697840
996.063449,-2834.553343,1998.556043,9770.718434
996.063764,-2757.943793,1924.535449,10140.821405
996.064080,-2834.553343,2072.576638,9992.780217
996.064395,-2681.334243,2294.638420,10288.862594
996.064711,-2681.334243,2812.782580,9918.759623
996.065027,-2528.115143,3108.864956,9548.656652
996.065342,-3064.381992,3701.029710,8956.491898
996.065658,-2298.286494,3552.988522,9030.512492
996.065974,-2221.676944,3478.967927,9030.512492
996.066289,-2068.457845,3034.844362,9252.574275
996.066605,-2298.286494,3034.844362,9326.594869
996.066920,-2451.505594,2294.638420,9696.697840
996.067236,-2604.724693,1776.494261,10066.800811
996.067552,-2834.553343,1406.391290,10732.986159
996.067867,-2834.553343,1036.288319,10881.027347
996.068183,-2528.115143,1480.411884,10807.006753
996.068499,-2145.067394,1480.411884,10584.944971
996.068814,-1455.581446,1776.494261,10066.800811
996.069130,-1302.362347,2146.597232,9548.656652
996.069445,-612.876398,2368.659014,9326.594869
996.069761,0.000000,2220.617826,9104.533087
996.070077,306.438199,2368.659014,8882.471304
996.070392,306.438199,2072.576638,8882.471304
996.070708,76.609550,1702.473667,9474.636058
996.071024,0.000000,888.247130,9548.656652
996.071339,0.000000,370.102971,10066.800811
996.071655,-536.266849,592.164754,10066.800811
996.071970,-459.657299,518.144159,10066.800811
996.072286,-842.705048,-0.000000,10436.903782
996.072602,-612.876398,-0.000000,10214.842000
996.072917,-612.876398,370.102971,10214.842000
996.073233,-383.047749,-0.000000,9548.656652
996.073549,0.000000,-148.041188,9474.636058
996.073864,229.828649,-888.247130,9844.739029
996.074180,689.485948,-1480.411884,9622.677246
996.074495,1302.362347,-1776.494261,9918.759623
996.074811,1532.190996,-1702.473667,9696.697840
996.075127,1915.238745,-1628.453072,9548.656652
996.075442,2451.505594,-1480.411884,9252.574275
996.075758,2604.724693,-740.205942,9104.533087
996.076074,2298.286494,-148.041188,8586.388927
996.076389,2681.334243,222.061783,8438.347739
996.076705,2374.896044,592.164754,8290.306550
996.077020,1838.629195,814.226536,8068.244768
996.077336,612.876398,444.123565,7920.203579
996.077652,229.828649,-444.123565,8512.368333
996.077967,-229.828649,-888.247130,8512.368333
996.078283,-1378.971896,-1480.411884,9326.594869
996.078599,-2298.286494,-2368.659014,9844.739029
996.078914,-2374.896044,-2738.761985,10584.944971
996.079230,-2298.286494,-3330.926739,10955.047942
996.079546,-2451.505594,-3775.050304,11029.068536
996.079861,-1685.410096,-3256.906145,10584.944971
996.080177,-689.485948,-2960.823768,10214.842000
996.080492,383.047749,-2294.638420,9474.636058
996.080808,1378.971896,-1036.288319,8660.409521
996.081124,2451.505594,-0.000000,7846.182985
996.081439,3064.381992,740.205942,7031.956449
996.081755,3294.210641,1776.494261,6587.832884
996.082071,2987.772442,1776.494261,6365.771101
996.082386,2681.334243,2294.638420,6661.853478
996.082702,1532.190996,1702.473667,7031.956449
996.083018,459.657299,1036.288319,7846.182985
996.083333,-1072.533697,74.020594,9030.512492
996.083649,-2374.896044,-1406.391290,9992.780217
996.083965,-2681.334243,-2368.659014,11251.130318
996.084280,-3447.429741,-3034.844362,11843.295072
996.084596,-2987.772442,-3108.864956,12213.398043
996.084912,-2681.334243,-3182.885551,11843.295072
996.085227,-1991.848295,-2368.659014,11769.274478
996.085543,-689.485948,-1332.370696,10807.006753
996.085859,536.266849,-0.000000,9622.677246
996.086174,1838.629195,1776.494261,8660.409521
996.086490,2757.943793,3034.844362,7402.059420
996.086806,3600.648841,4145.153275,7105.977043
996.087121,3524.039291,4737.318029,6957.935855
996.087437,3064.381992,4589.276840,7179.997637
996.087753,2451.505594,3404.947333,7920.203579
996.088068,1685.410096,2072.576638,8734.430116
996.088384,229.828649,666.185348,10510.924376
996.088700,-766.095498,-1110.308913,11843.295072
996.089015,-1378.971896,-1554.432478,12583.501014
996.089331,-1838.629195,-1924.535449,12361.439231
996.089646,-1685.410096,-1628.453072,12731.542202
996.089962,-1072.533697,-740.205942,12139.377449
996.090278,-459.657299,-222.061783,11769.274478
996.090593,383.047749,518.144159,10807.006753
996.090909,1532.190996,2072.576638,9474.636058
996.091225,2221.676944,3182.885551,8438.347739
996.091540,2987.772442,4293.194464,7328.038826
996.091856,3217.601092,4145.153275,7476.080014
996.092172,2834.553343,3849.070898,7624.121203
996.092487,2145.067394,3034.844362,8290.306550
996.092803,995.924147,1036.288319,9326.594869
996.093119,229.828649,-0.000000,10732.986159
996.093434,-459.657299,-1406.391290,11325.150913
996.093750,-995.924147,-2294.638420,12065.356855
996.094066,-689.485948,-2516.700203,12139.377449
996.094381,-536.266849,-2442.679609,11991.336260
996.094697,-229.828649,-1924.535449,11103.089130
996.095013,689.485948,-1258.350101,10732.986159
996.095328,1685.410096,-296.082377,9696.697840
996.095644,2604.724693,1110.308913,8068.244768
996.095960,2757.943793,2886.803174,7031.956449
996.096275,2834.553343,4367.215058,6291.750507
996.096591,2911.162892,3923.091493,6883.915261
996.096907,1915.238745,2812.782580,7105.977043
996.097222,919.314598,1110.308913,8216.285956
996.097538,0.000000,-1258.350101,9252.574275
996.097853,-919.314598,-2664.741391,10510.924376
996.098169,-2145.067394,-3775.050304,11695.253884
996.098485,-2681.334243,-4737.318029,11917.315666
996.098800,-2451.505594,-4367.215058,11991.336260
996.099116,-2221.676944,-3923.091493,11621.233289
996.099432,-1455.581446,-3034.844362,10881.027347
996.099747,0.000000,-2146.597232,9844.739029
996.100063,919.314598,-1332.370696,8068.244768
996.100379,2604.724693,592.164754,6661.853478
996.100694,3370.820191,2738.761985,5107.421000
996.101010,3294.210641,3923.091493,4811.338623
996.101326,2911.162892,3404.947333,5477.523971
996.101641,1532.190996,2220.617826,6809.894666
996.101957,383.047749,148.041188,7846.182985
996.102273,-842.705048,-2442.679609,9326.594869
996.102588,-2068.457845,-4367.215058,11177.109724
996.102904,-2911.162892,-5181.441594,12213.398043
996.103220,-2987.772442,-5847.626942,12657.521608
996.103535,-2834.553343,-4811.338623,12509.480420
996.103851,-2451.505594,-3997.112087,11769.274478
996.104167,-1378.971896,-2812.782580,11029.068536
996.104482,229.828649,-1480.411884,9918.759623
996.104798,1532.190996,-222.061783,7772.162391
996.105114,2911.162892,1628.453072,6217.729913
996.105429,3524.039291,3552.988522,4959.379811
996.105745,3753.867940,4589.276840,5033.400406
996.106061,3140.991542,4145.153275,5995.668130
996.106376,2145.067394,1924.535449,7254.018232
996.106692,612.876398,-518.144159,9104.533087
996.107007,-689.485948,-2516.700203,10510.924376
996.107323,-1608.800546,-4219.173869,12435.459826
996.107639,-1838.629195,-5107.421000,13249.686362
996.107954,-2221.676944,-4811.338623,13915.871710
996.108270,-2221.676944,-3923.091493,13397.727550
996.108586,-1455.581446,-1998.556043,12065.356855
996.108901,-306.438199,-814.226536,11325.150913
996.109217,1225.752797,-666.185348,9622.677246
996.109533,2604.724693,444.123565,7994.224174
996.109848,3524.039291,3034.844362,6439.791695
996.110164,4213.525239,5403.503377,4811.338623
996.110480,4213.525239,6217.729913,5403.503377
996.110795,3600.648841,5551.544565,6809.894666
996.111111,1838.629195,2664.741391,8068.244768
996.111427,383.047749,-296.082377,9992.780217
996.111742,-995.924147,-2960.823768,11917.315666
996.112058,-1608.800546,-3997.112087,13249.686362
996.112374,-1915.238745,-4219.173869,14434.015869
996.112689,-2068.457845,-3775.050304,13545.768739
996.113005,-1915.238745,-1998.556043,13027.624579
996.113321,-919.314598,-370.102971,11917.315666
996.113636,0.000000,666.185348,10955.047942
996.113952,1991.848295,518.144159,9104.533087
996.114268,2987.772442,1702.473667,7772.162391
996.114583,3830.477490,4663.297435,5625.565159
996.114899,3983.696590,6735.874072,4663.297435
996.115214,4519.963438,6661.853478,5033.400406
996.115530,2911.162892,4737.318029,6809.894666
996.115846,919.314598,1776.494261,8586.388927
996.116161,-1072.533697,-1332.370696,10288.862594
996.116477,-2298.286494,-3775.050304,12213.398043
996.116793,-2911.162892,-4663.297435,13175.665768
996.117108,-2757.943793,-4219.173869,13619.789333
996.117424,-2757.943793,-3034.844362,13249.686362
996.117740,-2298.286494,-1110.308913,12139.377449
996.118055,-1762.019645,296.082377,10955.047942
996.118371,-842.705048,-296.082377,9844.739029
996.118687,1072.533697,-370.102971,8586.388927
996.119002,2451.505594,1110.308913,6957.935855
996.119318,3140.991542,4959.379811,4589.276840
996.119634,3447.429741,6883.915261,4145.153275
996.119949,2987.772442,5329.482782,5477.523971
996.120265,1455.581446,3330.926739,7550.100608
996.120581,-383.047749,-74.020594,8956.491898
996.120896,-2068.457845,-3552.988522,10732.986159
996.121212,-2987.772442,-5551.544565,12287.418637
996.121528,-3064.381992,-5403.503377,13471.748144
996.121843,-2834.553343,-4515.256246,13101.645173
996.122159,-2451.505594,-2294.638420,12879.583391
996.122475,-1991.848295,-740.205942,11769.274478
996.122790,-1149.143247,-0.000000,10288.862594
996.123106,-229.828649,-444.123565,9326.594869
996.123422,2221.676944,-740.205942,7476.080014
996.123737,3447.429741,1924.535449,5921.647536
996.124053,3447.429741,5921.647536,4071.132681
996.124368,4213.525239,6365.771101,4589.276840
996.124684,3370.820191,4219.173869,6735.874072
996.125000,1455.581446,1480.411884,8216.285956
996.125315,-612.876398,-2146.597232,9696.697840
996.125631,-1685.410096,-5477.523971,11547.212695
996.125947,-2221.676944,-6217.729913,13175.665768
996.126262,-2374.896044,-5477.523971,13693.809927
996.126578,-2451.505594,-3775.050304,13101.645173
996.126894,-1608.800546,-2072.576638,12435.459826
996.127209,-1225.752797,-370.102971,11251.130318
996.127525,0.000000,-0.000000,10510.924376
996.127841,842.705048,-666.185348,8660.409521
996.128156,3370.820191,-888.247130,7698.141797
996.128472,4060.306139,3404.947333,5699.585753
996.128788,3753.867940,5995.668130,3701.029710
996.129103,4443.353888,5255.462188,5403.503377
996.129419,3294.210641,2664.741391,7920.203579
996.129735,1225.752797,-222.061783,9326.594869
996.130050,-536.266849,-3330.926739,10436.903782
996.130366,-919.314598,-6217.729913,12509.480420
996.130682,-1302.362347,-6365.771101,12953.603985
996.130997,-1225.752797,-4515.256246,13471.748144
996.131313,-1225.752797,-2812.782580,12583.501014
996.131629,-383.047749,-1184.329507,11991.336260
996.131944,383.047749,-0.000000,10436.903782
996.132260,766.095498,-0.000000,9326.594869
996.132575,1378.971896,-1332.370696,7994.224174
996.132891,4136.915689,-0.000000,7328.038826
996.133207,3907.087040,4737.318029,4515.256246
996.133522,3370.820191,6069.688724,3997.112087
996.133838,4060.306139,3775.050304,6661.853478
996.134154,2068.457845,1554.432478,8882.471304
996.134469,-229.828649,-1850.514855,9622.677246
996.134785,-766.095498,-5403.503377,11177.109724
996.135101,-1838.629195,-6883.915261,13323.706956
996.135416,-2068.457845,-5033.400406,13101.645173
996.135732,-1915.238745,-2738.761985,12435.459826
996.136048,-536.266849,-1036.288319,11991.336260
996.136363,-536.266849,444.123565,11251.130318
996.136679,0.000000,1332.370696,9474.636058
996.136995,995.924147,-74.020594,7920.203579
996.137310,2681.334243,-888.247130,7328.038826
996.137626,3064.381992,2294.638420,5995.668130
996.137942,3447.429741,6661.853478,4219.173869
996.138257,3064.381992,5625.565159,4737.318029
996.138573,2145.067394,2886.803174,7772.162391
996.138889,383.047749,518.144159,9252.574275
996.139204,-1762.019645,-3034.844362,10436.903782
996.139520,-2374.896044,-6069.688724,12139.377449
996.139836,-2604.724693,-6365.771101,13175.665768
996.140151,-2451.505594,-3849.070898,13249.686362
996.140467,-1915.238745,-1480.411884,11991.336260
996.140783,-995.924147,518.144159,11473.192101
996.141098,-612.876398,1406.391290,10436.903782
996.141414,-459.657299,1036.288319,9474.636058
996.141729,842.705048,-74.020594,7624.121203
996.142045,3064.381992,666.185348,6883.915261
996.142361,3370.820191,5107.421000,4367.215058
996.142676,2911.162892,6883.915261,4441.235652
996.142992,2911.162892,4515.256246,6735.874072
996.143308,1302.362347,2442.679609,8734.430116
996.143623,-766.095498,-666.185348,9622.677246
996.143939,-1532.190996,-4293.194464,11029.068536
996.144255,-2681.334243,-6217.729913,13619.789333
996.144570,-3064.381992,-4663.297435,14211.954086
996.144886,-2374.896044,-2368.659014,12657.521608
996.145202,-1608.800546,-296.082377,12435.459826
996.145517,-612.876398,888.247130,11843.295072
996.145833,-306.438199,1702.473667,10288.862594
996.146149,383.047749,74.020594,8438.347739
996.146464,2451.505594,-74.020594,7920.203579
996.146780,3064.381992,2738.761985,6735.874072
996.147096,3217.601092,6365.771101,4071.132681
996.147411,3600.648841,6735.874072,4589.276840
996.147727,3217.601092,3182.885551,7846.182985
996.148043,1225.752797,444.123565,9622.677246
996.148358,-1072.533697,-3108.864956,10881.027347
996.148674,-1455.581446,-5921.647536,12879.583391
996.148990,-1762.019645,-6217.729913,13767.830521
996.149305,-1762.019645,-3775.050304,13841.851115
996.149621,-1302.362347,-1110.308913,12361.439231
996.149937,0.000000,444.123565,11695.253884
996.150252,-459.657299,1554.432478,10807.006753
996.150568,536.266849,1110.308913,9770.718434
996.150883,1608.800546,-518.144159,7846.182985
996.151199,3600.648841,296.082377,7105.977043
996.151515,3294.210641,4737.318029,5255.462188
996.151830,3600.648841,6217.729913,4515.256246
996.152146,3753.867940,3775.050304,7105.977043
996.152462,2068.457845,1406.391290,8808.450710
996.152777,153.219100,-2072.576638,9992.780217
996.153093,-842.705048,-5551.544565,11695.253884
996.153409,-1532.190996,-7031.956449,12879.583391
996.153724,-1915.238745,-5255.462188,13101.645173
996.154040,-1302.362347,-2886.803174,12213.398043
996.154356,-536.266849,-666.185348,11695.253884
996.154671,-459.657299,814.226536,10955.047942
996.154987,0.000000,1110.308913,8882.471304
996.155303,1302.362347,-1110.308913,7772.162391
996.155618,2528.115143,-1480.411884,7624.121203
996.155934,3140.991542,1332.370696,5699.585753
996.156250,2987.772442,4737.318029,4219.173869
996.156565,3370.820191,4293.194464,5255.462188
996.156881,2757.943793,1776.494261,7920.203579
996.157197,612.876398,-962.267725,9030.512492
996.157512,-1225.752797,-4071.132681,10362.883188
996.157828,-1838.629195,-6513.812290,12435.459826
996.158144,-1991.848295,-6661.853478,12879.583391
996.158459,-1915.238745,-4441.235652,12953.603985
996.158775,-1532.190996,-1554.432478,11695.253884
996.159090,-306.438199,-0.000000,10658.965565
996.159406,-76.609550,1184.329507,9548.656652
996.159722,383.047749,-0.000000,8956.491898
996.160037,1532.190996,-814.226536,7402.059420
996.160353,2911.162892,518.144159,6439.791695
996.160669,2681.334243,4219.173869,4589.276840
996.160984,2987.772442,5477.523971,4663.297435
996.161300,2834.553343,3182.885551,7031.956449
996.161616,842.705048,814.226536,9104.533087
996.161931,-1149.143247,-2516.700203,10066.800811
996.162247,-1838.629195,-5773.606348,11695.253884
996.162563,-2834.553343,-6513.812290,13545.768739
996.162878,-2911.162892,-4737.318029,13693.809927
996.163194,-2221.676944,-2294.638420,12731.542202
996.163510,-766.095498,-0.000000,11843.295072
996.163825,-1072.533697,1406.391290,11177.109724
996.164141,-383.047749,1480.411884,9770.718434
996.164457,766.095498,148.041188,8142.265362
996.164772,2681.334243,-0.000000,7105.977043
996.165088,2757.943793,3775.050304,5773.606348
996.165404,2604.724693,6143.709319,4293.194464
996.165719,3294.210641,5551.544565,6069.688724
996.166035,2221.676944,2886.803174,8660.409521
996.166351,383.047749,-74.020594,10140.821405
996.166666,-1915.238745,-3404.947333,11325.150913
996.166982,-2221.676944,-5477.523971,13027.624579
996.167298,-2451.505594,-4959.379811,13915.871710
996.167613,-2298.286494,-3182.885551,13989.892304
996.167929,-2145.067394,-592.164754,12879.583391
996.168244,-1072.533697,1480.411884,11399.171507
996.168560,-536.266849,2294.638420,10066.800811
996.168876,459.657299,1110.308913,9178.553681
996.169191,1991.848295,222.061783,7772.162391
996.169507,3217.601092,1850.514855,6291.750507
996.169823,2604.724693,5255.462188,4811.338623
996.170138,3064.381992,5995.668130,5403.503377
996.170454,2757.943793,3997.112087,7402.059420
996.170770,1532.190996,1776.494261,9548.656652
996.171085,-612.876398,-1998.556043,9918.759623
996.171401,-1762.019645,-4589.276840,11695.253884
996.171717,-2221.676944,-5625.565159,13323.706956
996.172032,-2298.286494,-4071.132681,13397.727550
996.172348,-1762.019645,-1554.432478,12657.521608
996.172664,-1225.752797,518.144159,11917.315666
996.172979,-612.876398,1554.432478,10807.006753
996.173295,-383.047749,1332.370696,9770.718434
996.173611,1149.143247,-0.000000,8364.327145
996.173926,2681.334243,-74.020594,7105.977043
996.174242,2757.943793,3775.050304,5403.503377
996.174558,2911.162892,5625.565159,4367.215058
996.174873,3294.210641,4663.297435,6143.709319
996.175189,2068.457845,2368.659014,8364.327145
996.175505,459.657299,-888.247130,9400.615463
996.175820,-995.924147,-3923.091493,10807.006753
996.176136,-1225.752797,-6365.771101,12731.542202
996.176451,-1915.238745,-5551.544565,13027.624579
996.176767,-1532.190996,-3627.009116,12805.562797
996.177083,-766.095498,-1110.308913,12139.377449
996.177398,0.000000,518.144159,10732.986159
996.177714,153.219100,1332.370696,9400.615463
996.178030,995.924147,-518.144159,8438.347739
996.178345,2221.676944,-814.226536,7476.080014
996.178661,3983.696590,1480.411884,6217.729913
996.178977,3447.429741,4885.359217,3997.112087
996.179292,3524.039291,4589.276840,4737.318029
996.179608,2528.115143,1998.556043,7772.162391
996.179924,1072.533697,-592.164754,9326.594869
996.180239,-1149.143247,-4145.153275,10510.924376
996.180555,-1762.019645,-6513.812290,12213.398043
996.180871,-2145.067394,-7105.977043,13323.706956
996.181186,-2145.067394,-4811.338623,13101.645173
996.181502,-1608.800546,-1998.556043,12213.398043
996.181818,-536.266849,-0.000000,11177.109724
996.182133,-536.266849,1110.308913,9992.780217
996.182449,612.876398,370.102971,9548.656652
996.182765,1762.019645,-888.247130,7328.038826
996.183080,3370.820191,-444.123565,6883.915261
996.183396,3140.991542,3701.029710,5329.482782
996.183712,3294.210641,4737.318029,4367.215058
996.184027,3524.039291,3552.988522,6661.853478
996.184343,2145.067394,1110.308913,8660.409521
996.184659,306.438199,-1850.514855,9844.739029
996.184974,-229.828649,-4737.318029,11251.130318
996.185290,-1838.629195,-6587.832884,13101.645173
996.185606,-1991.848295,-5329.482782,13545.768739
996.185921,-1915.238745,-3256.906145,12879.583391
996.186237,-1225.752797,-1110.308913,12065.356855
996.186553,-536.266849,-0.000000,11177.109724
996.186868,-153.219100,1110.308913,9400.615463
996.187184,766.095498,-518.144159,8586.388927
996.187500,2068.457845,-740.205942,8068.244768
996.187815,2604.724693,2146.597232,6809.894666
996.188131,3370.820191,5255.462188,4367.215058
996.188447,3677.258390,5255.462188,4959.379811
996.188762,2604.724693,2738.761985,7994.224174
996.189078,1072.533697,296.082377,9400.615463
996.189394,-919.314598,-2960.823768,10807.006753
996.189709,-1685.410096,-5477.523971,12065.356855
996.190025,-2374.896044,-5773.606348,13249.686362
996.190341,-2145.067394,-4071.132681,13397.727550
996.190656,-1838.629195,-1258.350101,12435.459826
996.190972,-766.095498,814.226536,11473.192101
996.191288,-536.266849,2072.576638,10214.842000
996.191603,153.219100,888.247130,9252.574275
996.191919,1225.752797,-0.000000,8068.244768
996.192235,2528.115143,1332.370696,6809.894666
996.192550,3064.381992,4589.276840,4885.359217
996.192866,2757.943793,6217.729913,4737.318029
996.193182,2451.505594,4145.153275,6957.935855
996.193497,1532.190996,1628.453072,9030.512492
996.193813,-842.705048,-1036.288319,9844.739029
996.194129,-1685.410096,-4441.235652,11251.130318
996.194444,-1762.019645,-5329.482782,13323.706956
996.194760,-1991.848295,-4145.153275,13397.727550
996.195076,-1608.800546,-1776.494261,11991.336260
996.195391,-842.705048,148.041188,11843.295072
996.195707,-766.095498,1628.453072,10881.027347
996.196023,0.000000,1702.473667,9844.739029
996.196338,1072.533697,148.041188,8364.327145
996.196654,2298.286494,-0.000000,7402.059420
996.196970,2451.505594,3404.947333,5699.585753
996.197285,2911.162892,5699.585753,4441.235652
996.197601,2987.772442,5181.441594,5477.523971
996.197917,2528.115143,3108.864956,8068.244768
996.198232,689.485948,-0.000000,9474.636058
996.198548,-1455.581446,-3478.967927,10732.986159
996.198864,-1991.848295,-5699.585753,12731.542202
996.199179,-2298.286494,-5403.503377,13397.727550
996.199495,-1838.629195,-3775.050304,13397.727550
996.199811,-1608.800546,-962.267725,12435.459826
996.200126,-536.266849,666.185348,11103.089130
996.200442,-153.219100,1776.494261,9696.697840
996.200758,919.314598,296.082377,9030.512492
996.201073,1532.190996,-518.144159,7920.203579
996.201389,2987.772442,1702.473667,6661.853478
996.201705,2987.772442,4885.359217,4663.297435
996.202020,3370.820191,5033.400406,5033.400406
996.202336,2681.334243,3034.844362,7328.038826
996.202652,1455.581446,592.164754,9326.594869
996.202967,-306.438199,-3108.864956,10066.800811
996.203283,-1532.190996,-5625.565159,12065.356855
996.203599,-2145.067394,-6587.832884,13397.727550
996.203914,-1838.629195,-4367.215058,13249.686362
996.204230,-1302.362347,-2442.679609,12287.418637
996.204546,-612.876398,-0.000000,11325.150913
996.204861,-536.266849,814.226536,10510.924376
996.205177,383.047749,370.102971,9548.656652
996.205493,1685.410096,-666.185348,8216.285956
996.205808,3294.210641,-518.144159,7105.977043
996.206124,3370.820191,2738.761985,5403.503377
996.206440,3524.039291,4589.276840,4441.235652
996.206755,3600.648841,3552.988522,6143.709319
996.207071,2528.115143,1480.411884,8142.265362
996.207387,1302.362347,-1702.473667,9548.656652
996.207702,-1378.971896,-4367.215058,10807.006753
996.208018,-1762.019645,-6439.791695,12731.542202
996.208334,-2298.286494,-5625.565159,13175.665768
996.208649,-1991.848295,-3923.091493,12657.521608
996.208965,-1072.533697,-1924.535449,11917.315666
996.209281,-842.705048,-370.102971,11103.089130
996.209596,-383.047749,740.205942,9252.574275
996.209912,536.266849,-962.267725,8438.347739
996.210228,1838.629195,-1406.391290,7920.203579
996.210543,2911.162892,1036.288319,6217.729913
996.210859,2757.943793,5033.400406,4589.276840
996.211175,3370.820191,4811.338623,4811.338623
996.211490,2604.724693,2590.720797,7179.997637
996.211806,1378.971896,-0.000000,8956.491898
996.212122,-1072.533697,-2886.803174,10140.821405
996.212437,-1991.848295,-5033.400406,11843.295072
996.212753,-2145.067394,-6143.709319,12953.603985
996.213069,-2298.286494,-4219.173869,13175.665768
996.213384,-1532.190996,-1776.494261,11843.295072
996.213700,-612.876398,-0.000000,11251.130318
996.214016,-612.876398,1184.329507,10066.800811
996.214331,0.000000,666.185348,9622.677246
996.214647,1225.752797,-0.000000,7920.203579
996.214963,2374.896044,962.267725,6661.853478
996.215278,2528.115143,4145.153275,5033.400406
996.215594,2757.943793,5921.647536,4811.338623
996.215910,2911.162892,4071.132681,6883.915261
996.216225,1455.581446,2072.576638,8586.388927
996.216541,-229.828649,-814.226536,9474.636058
996.216857,-1455.581446,-3478.967927,11325.150913
996.217172,-2374.896044,-4959.379811,12879.583391
996.217488,-2374.896044,-3775.050304,13471.748144
996.217804,-1991.848295,-1776.494261,12509.480420
996.218119,-1149.143247,-0.000000,11843.295072
996.218435,-842.705048,1480.411884,11473.192101
996.218751,-383.047749,1776.494261,9992.780217
996.219066,919.314598,444.123565,8734.430116
996.219382,2145.067394,370.102971,7994.224174
996.219698,2987.772442,3478.967927,6513.812290
996.220013,2757.943793,5477.523971,5181.441594
996.220329,3447.429741,5551.544565,5921.647536
996.220645,2451.505594,3404.947333,7772.162391
996.220960,1072.533697,740.205942,9474.636058
996.221276,-995.924147,-2368.659014,10807.006753
996.221592,-1608.800546,-4737.318029,12509.480420
996.221907,-2221.676944,-4589.276840,13545.768739
996.222223,-2145.067394,-3034.844362,13249.686362
996.222539,-1608.800546,-962.267725,12731.542202
996.222854,-383.047749,222.061783,11843.295072
996.223170,-536.266849,1702.473667,10362.883188
996.223486,306.438199,444.123565,9548.656652
996.223801,1838.629195,-296.082377,8808.450710
996.224117,2604.724693,1184.329507,7179.997637
996.224433,2987.772442,4737.318029,5255.462188
996.224748,3370.820191,5699.585753,4811.338623
996.225064,2911.162892,3923.091493,6809.894666
996.225380,1685.410096,1776.494261,8882.471304
996.225695,-229.828649,-1924.535449,9696.697840
996.226011,-919.314598,-4663.297435,11621.233289
996.226327,-2298.286494,-5625.565159,13397.727550
996.226642,-1991.848295,-4145.153275,13249.686362
996.226958,-2068.457845,-2664.741391,12361.439231
996.227274,-1225.752797,-1184.329507,12213.398043
996.227589,-919.314598,296.082377,10881.027347
996.227905,-306.438199,-0.000000,10066.800811
996.228221,1149.143247,-888.247130,8882.471304
996.228536,2528.115143,-518.144159,7476.080014
996.228852,2911.162892,2886.803174,5847.626942
996.229168,3447.429741,4737.318029,4293.194464
996.229483,3600.648841,4515.256246,5181.441594
996.229799,2681.334243,2294.638420,7402.059420
996.230115,1532.190996,-1036.288319,8882.471304
996.230430,-766.095498,-4071.132681,10140.821405
996.230746,-1378.971896,-6513.812290,12139.377449
996.231062,-1915.238745,-5921.647536,13027.624579
996.231377,-1838.629195,-4219.173869,12509.480420
996.231693,-1455.581446,-2442.679609,11621.233289
996.232009,-383.047749,-592.164754,11251.130318
996.232324,-306.438199,740.205942,9918.759623
996.232640,459.657299,-814.226536,8734.430116
996.232956,1762.019645,-1184.329507,7624.121203
996.233271,2834.553343,740.205942,6513.812290
996.233587,3140.991542,4219.173869,4811.338623
996.233903,3447.429741,4367.215058,4737.318029
996.234218,2528.115143,2516.700203,6957.935855
996.234534,1532.190996,740.205942,8586.388927
996.234850,-689.485948,-2812.782580,9992.780217
996.235165,-1302.362347,-4737.318029,11621.233289
996.235481,-2298.286494,-5551.544565,12805.562797
996.235797,-2298.286494,-4441.235652,13101.645173
996.236112,-1991.848295,-2368.659014,12509.480420
996.236428,-1225.752797,-666.185348,11917.315666
996.236744,-842.705048,592.164754,10510.924376
996.237059,0.000000,-74.020594,9622.677246
996.237375,919.314598,-222.061783,8364.327145
996.237691,2298.286494,518.144159,7254.018232
996.238006,2834.553343,2664.741391,5773.606348
996.238322,3294.210641,5477.523971,4959.379811
996.238638,2834.553343,4589.276840,6217.729913
996.238953,1608.800546,1850.514855,8290.306550
996.239269,766.095498,-740.205942,9696.697840
996.239585,-689.485948,-3330.926739,10955.047942
996.239900,-1838.629195,-4811.338623,13027.624579
996.240216,-1991.848295,-4515.256246,13397.727550
996.240532,-1685.410096,-2812.782580,12953.603985
996.240847,-1072.533697,-1110.308913,12731.542202
996.241163,-689.485948,444.123565,11547.212695
996.241479,-229.828649,1332.370696,10362.883188
996.241794,689.485948,-0.000000,9326.594869
996.242110,2145.067394,-74.020594,8068.244768
996.242426,2911.162892,2590.720797,6587.832884
996.242741,2987.772442,4885.359217,5033.400406
996.243057,3524.039291,5403.503377,5699.585753
996.243373,2681.334243,3849.070898,7179.997637
996.243688,2145.067394,1110.308913,8956.491898
996.244004,-306.438199,-1406.391290,9992.780217
996.244320,-995.924147,-3923.091493,11843.295072
996.244635,-1762.019645,-4737.318029,13101.645173
996.244951,-1991.848295,-3849.070898,13175.665768
996.245267,-1838.629195,-2072.576638,13027.624579
996.245582,-919.314598,-592.164754,11843.295072
996.245898,-842.705048,1258.350101,10807.006753
996.246214,0.000000,370.102971,9844.739029
996.246529,1302.362347,-444.123565,8364.327145
996.246845,2528.115143,888.247130,7254.018232
996.247161,2757.943793,4219.173869,5255.462188
996.247476,3370.820191,6069.688724,4589.276840
996.247792,3217.601092,4219.173869,6291.750507
996.248108,2451.505594,2146.597232,8364.327145
996.248423,995.924147,-1184.329507,9548.656652
996.248739,-612.876398,-3478.967927,10658.965565
996.249055,-1532.190996,-5033.400406,12065.356855
996.249370,-1608.800546,-4737.318029,12879.583391
996.249686,-1225.752797,-2812.782580,12583.501014
996.250002,-995.924147,-1184.329507,11917.315666
996.250317,-766.095498,370.102971,11029.068536
996.250633,-383.047749,370.102971,9918.759623
996.250949,612.876398,-370.102971,9252.574275
996.251264,2145.067394,-222.061783,7476.080014
996.251580,2604.724693,2368.659014,5847.626942
996.251896,2528.115143,4367.215058,4885.359217
996.252211,3140.991542,4515.256246,5625.565159
996.252527,2451.505594,2590.720797,7031.956449
996.252843,1378.971896,-0.000000,8808.450710
996.253158,-766.095498,-3256.906145,9992.780217
996.253474,-1378.971896,-5033.400406,11621.233289
996.253790,-2145.067394,-4737.318029,12805.562797
996.254105,-2221.676944,-3849.070898,12657.521608
996.254421,-1608.800546,-2812.782580,12657.521608
996.254737,-995.924147,-962.267725,11695.253884
996.255052,-383.047749,444.123565,9770.718434
996.255368,0.000000,-444.123565,9474.636058
996.255684,1455.581446,-1184.329507,8216.285956
996.255999,2221.676944,-0.000000,7031.956449
996.256315,3140.991542,3997.112087,5255.462188
996.256631,3064.381992,4811.338623,4737.318029
996.256946,2757.943793,3701.029710,6365.771101
996.257262,1915.238745,1702.473667,8290.306550
996.257578,0.000000,-1332.370696,9474.636058
996.257893,-1149.143247,-3849.070898,11029.068536
996.258209,-2145.067394,-4811.338623,12583.501014
996.258525,-2451.505594,-5181.441594,13101.645173
996.258840,-2068.457845,-3330.926739,13175.665768
996.259156,-1685.410096,-1628.453072,12139.377449
996.259472,-1378.971896,-0.000000,11251.130318
996.259787,-612.876398,-0.000000,10584.944971
996.260103,459.657299,-296.082377,9326.594869
996.260419,2298.286494,-0.000000,7772.162391
996.260734,2911.162892,2960.823768,6069.688724
996.261050,2911.162892,5181.441594,4663.297435
996.261366,3370.820191,4811.338623,5403.503377
996.261681,2298.286494,3108.864956,7328.038826
996.261997,766.095498,370.102971,8882.471304
996.262313,-306.438199,-2442.679609,10362.883188
996.262628,-1302.362347,-4589.276840,12361.439231
996.262944,-2068.457845,-4737.318029,12879.583391
996.263260,-2298.286494,-3627.009116,13027.624579
996.263575,-1149.143247,-2368.659014,12953.603985
996.263891,-1072.533697,-888.247130,11917.315666
996.264207,-919.314598,1036.288319,10732.986159
996.264522,0.000000,444.123565,9400.615463
996.264838,1302.362347,-222.061783,8290.306550
996.265154,3064.381992,1554.432478,7105.977043
996.265469,2834.553343,4959.379811,5033.400406
996.265785,3140.991542,5773.606348,4663.297435
996.266101,2911.162892,3701.029710,6883.915261
996.266416,2068.457845,1554.432478,8216.285956
996.266732,229.828649,-1850.514855,10140.821405
996.267048,-842.705048,-3849.070898,11325.150913
996.267363,-1455.581446,-4811.338623,12657.521608
996.267679,-1915.238745,-4293.194464,12731.542202
996.267995,-1532.190996,-2072.576638,12953.603985
996.268310,-689.485948,-814.226536,11843.295072
996.268626,-229.828649,1036.288319,10881.027347
996.268942,76.609550,1184.329507,9992.780217
996.269257,995.924147,222.061783,8512.368333
996.269573,2604.724693,-0.000000,7328.038826
996.269889,3370.820191,3034.844362,5625.565159
996.270204,3064.381992,4811.338623,4885.359217
996.270520,3370.820191,4737.318029,6069.688724
996.270836,1991.848295,2664.741391,7550.100608
996.271151,766.095498,148.041188,9104.533087
996.271467,-459.657299,-2664.741391,10807.006753
996.271783,-1762.019645,-4589.276840,12213.398043
996.272098,-2145.067394,-4219.173869,13101.645173
996.272414,-2068.457845,-3701.029710,12731.542202
996.272730,-1302.362347,-2294.638420,12731.542202
996.273045,-1072.533697,-370.102971,11325.150913
996.273361,-536.266849,666.185348,10362.883188
996.273677,536.266849,-370.102971,9030.512492
996.273992,1915.238745,-814.226536,8142.265362
996.274308,2757.943793,962.267725,7105.977043
996.274624,3140.991542,4737.318029,5255.462188
996.274939,3140.991542,5403.503377,4959.379811
996.275255,2911.162892,3478.967927,7031.956449
996.275571,1685.410096,814.226536,8808.450710
996.275886,-229.828649,-1554.432478,9622.677246
996.276202,-919.314598,-3923.091493,11325.150913
996.276518,-1838.629195,-4811.338623,12657.521608
996.276833,-2145.067394,-4589.276840,13175.665768
996.277149,-1455.581446,-2886.803174,12731.542202
996.277465,-1302.362347,-1258.350101,11917.315666
996.277780,-1072.533697,-0.000000,11029.068536
996.278096,-153.219100,-296.082377,10510.924376
996.278412,995.924147,-592.164754,8956.491898
996.278728,2451.505594,148.041188,7698.141797
996.279044,2757.943793,3108.864956,5625.565159
996.279360,2681.334243,5329.482782,4663.297435
996.279676,3677.258390,4367.215058,6069.688724
996.279992,2145.067394,2294.638420,7994.224174
996.280308,0.000000,-962.267725,8882.471304
996.280623,-1149.143247,-3701.029710,10584.944971
996.280939,-2068.457845,-5625.565159,12583.501014
996.281255,-2528.115143,-5033.400406,13027.624579
996.281571,-2374.896044,-3478.967927,12509.480420
996.281887,-2145.067394,-1850.514855,12213.398043
996.282203,-1455.581446,-444.123565,11473.192101
996.282519,-689.485948,444.123565,10140.821405
996.282835,612.876398,-296.082377,8734.430116
996.283151,2451.505594,-962.267725,8142.265362
996.283467,2911.162892,1628.453072,6439.791695
996.283783,2987.772442,4663.297435,4737.318029
996.284098,3447.429741,4885.359217,5255.462188
996.284414,2681.334243,2812.782580,6809.894666
996.284730,1608.800546,740.205942,8438.347739
996.285046,-842.705048,-2368.659014,9918.759623
996.285362,-1685.410096,-4811.338623,11473.192101
996.285678,-1915.238745,-5551.544565,12953.603985
996.285994,-2145.067394,-4293.194464,13175.665768
996.286310,-1762.019645,-2664.741391,12435.459826
996.286626,-995.924147,-1036.288319,11695.253884
996.286942,-536.266849,518.144159,10732.986159
996.287258,383.047749,518.144159,9844.739029
996.287573,1915.238745,-74.020594,8216.285956
996.287889,2987.772442,-0.000000,7105.977043
996.288205,3524.039291,3701.029710,5181.441594
996.288521,3370.820191,5773.606348,4145.153275
996.288837,3753.867940,4441.235652,5847.626942
996.289153,2528.115143,1998.556043,8438.347739
996.289469,1149.143247,-370.102971,9400.615463
996.289785,-689.485948,-3627.009116,10807.006753
996.290101,-1455.581446,-4811.338623,12509.480420
996.290417,-1532.190996,-4589.276840,13101.645173
996.290733,-1762.019645,-2886.803174,12879.583391
996.291048,-1378.971896,-1110.308913,12435.459826
996.291364,-842.705048,444.123565,11843.295072
996.291680,-383.047749,1110.308913,10214.842000
996.291996,766.095498,-0.000000,9104.533087
996.292312,2221.676944,-518.144159,7920.203579
996.292628,2757.943793,2072.576638,6587.832884
996.292944,3294.210641,5255.462188,5033.400406
996.293260,3753.867940,5329.482782,5403.503377
996.293576,3064.381992,3256.906145,7254.018232
996.293892,1455.581446,666.185348,9326.594869
996.294208,-459.657299,-2368.659014,10362.883188
996.294523,-995.924147,-4811.338623,11843.295072
996.294839,-1838.629195,-5033.400406,13175.665768
996.295155,-1991.848295,-3923.091493,13397.727550
996.295471,-1608.800546,-1850.514855,12657.521608
996.295787,-229.828649,-0.000000,11547.212695
996.296103,-383.047749,1184.329507,10214.842000
996.296419,229.828649,518.144159,9770.718434
996.296735,1455.581446,-222.061783,8290.306550
996.297051,2681.334243,518.144159,7179.997637
996.297367,2834.553343,3478.967927,5403.503377
996.297683,3294.210641,5181.441594,4737.318029
996.297999,2681.334243,3923.091493,6587.832884
996.298314,1532.190996,1628.453072,8438.347739
996.298630,76.609550,-1110.308913,9400.615463
996.298946,-1608.800546,-3701.029710,11473.192101
996.299262,-2451.505594,-4959.379811,13323.706956
996.299578,-2374.896044,-4441.235652,13323.706956
996.299894,-1685.410096,-2590.720797,12583.501014
996.300210,-1762.019645,-1036.288319,12139.377449
996.300526,-1225.752797,-0.000000,11251.130318
996.300842,-689.485948,370.102971,10066.800811
996.301158,383.047749,-666.185348,9030.512492
996.301474,2221.676944,-222.061783,7624.121203
996.301789,2911.162892,2516.700203,6069.688724
996.302105,2451.505594,4219.173869,4515.256246
996.302421,3217.601092,4959.379811,5181.441594
996.302737,2528.115143,2590.720797,7105.977043
996.303053,1455.581446,-0.000000,8438.347739
996.303369,-842.705048,-3034.844362,9844.739029
996.303685,-1378.971896,-5625.565159,11843.295072
996.304001,-2298.286494,-5551.544565,12731.542202
996.304317,-1838.629195,-4071.132681,13101.645173
996.304633,-1915.238745,-2442.679609,12583.501014
996.304949,-1149.143247,-666.185348,11695.253884
996.305264,-766.095498,740.205942,10436.903782
996.305580,0.000000,-0.000000,9326.594869
996.305896,1302.362347,-740.205942,8216.285956
996.306212,2604.724693,740.205942,6809.894666
996.306528,2911.162892,4293.194464,4737.318029
996.306844,3294.210641,5329.482782,4589.276840
996.307160,3217.601092,3849.070898,6513.812290
996.307476,2221.676944,1702.473667,8216.285956
996.307792,229.828649,-1554.432478,9178.553681
996.308108,-842.705048,-4441.235652,10955.047942
996.308424,-1838.629195,-5403.503377,12583.501014
996.308739,-1991.848295,-4293.194464,12805.562797
996.309055,-1762.019645,-2442.679609,12509.480420
996.309371,-1149.143247,-296.082377,11843.295072
996.309687,-689.485948,1036.288319,11103.089130
996.310003,0.000000,814.226536,9918.759623
996.310319,842.705048,370.102971,8808.450710
996.310635,2374.896044,-0.000000,7624.121203
996.310951,2604.724693,2812.782580,6217.729913
996.311267,2987.772442,4515.256246,5033.400406
996.311583,3294.210641,4737.318029,5699.585753
996.311899,2145.067394,2960.823768,7476.080014
996.312214,1685.410096,-222.061783,8956.491898
996.312530,-536.266849,-2590.720797,10436.903782
996.312846,-995.924147,-4663.297435,11991.336260
996.313162,-1455.581446,-4737.318029,13249.686362
996.313478,-1762.019645,-3182.885551,12953.603985
996.313794,-1225.752797,-1554.432478,12435.459826
996.314110,-459.657299,-74.020594,11843.295072
996.314426,-153.219100,1258.350101,10436.903782
996.314742,229.828649,-0.000000,9622.677246
996.315058,1685.410096,-592.164754,8512.368333
996.315374,2911.162892,1184.329507,7328.038826
996.315689,2987.772442,4737.318029,5477.523971
996.316005,3217.601092,5403.503377,5033.400406
996.316321,2834.553343,3627.009116,7105.977043
996.316637,1685.410096,1480.411884,9030.512492
996.316953,-306.438199,-1998.556043,9918.759623
996.317269,-1302.362347,-4663.297435,11399.171507
996.317585,-1991.848295,-5847.626942,13323.706956
996.317901,-2451.505594,-4293.194464,13323.706956
996.318217,-1762.019645,-2590.720797,12435.459826
996.318533,-1455.581446,-518.144159,12213.398043
996.318849,-995.924147,518.144159,11029.068536
996.319164,-612.876398,370.102971,10214.842000
996.319480,919.314598,-444.123565,8956.491898
996.319796,2145.067394,-0.000000,7402.059420
996.320112,2834.553343,2738.761985,5847.626942
996.320428,2987.772442,5181.441594,4737.318029
996.320744,3064.381992,4589.276840,5551.544565
996.321060,2451.505594,2220.617826,7624.121203
996.321376,842.705048,-592.164754,8808.450710
996.321692,-766.095498,-3330.926739,10362.883188
996.322008,-1608.800546,-5107.421000,12509.480420
996.322324,-2221.676944,-4737.318029,13027.624579
996.322640,-2298.286494,-3034.844362,12583.501014
996.322955,-1685.410096,-1776.494261,12287.418637
996.323271,-1149.143247,-592.164754,11695.253884
996.323587,-1149.143247,740.205942,10288.862594
996.323903,0.000000,-296.082377,9104.533087
996.324219,1302.362347,-592.164754,8068.244768
996.324535,2451.505594,1332.370696,6513.812290
996.324851,2604.724693,3997.112087,4959.379811
996.325167,2911.162892,4811.338623,4959.379811
996.325483,3140.991542,3256.906145,6661.853478
996.325799,1838.629195,370.102971,8364.327145
996.326115,-612.876398,-2220.617826,9622.677246
996.326430,-1455.581446,-4367.215058,11103.089130
996.326746,-1991.848295,-4885.359217,12361.439231
996.327062,-1762.019645,-3997.112087,12805.562797
996.327378,-1762.019645,-2368.659014,11917.315666
996.327694,-842.705048,-1110.308913,11399.171507
996.328010,-995.924147,370.102971,10510.924376
996.328326,-383.047749,222.061783,9918.759623
996.328642,689.485948,-370.102971,8290.306550
996.328958,2145.067394,222.061783,7698.141797
996.329274,2681.334243,3923.091493,5699.585753
996.329590,2757.943793,5477.523971,4589.276840
996.329905,2987.772442,4367.215058,6365.771101
996.330221,2298.286494,2146.597232,8364.327145
996.330537,766.095498,-518.144159,9030.512492
996.330853,-459.657299,-3775.050304,10955.047942
996.331169,-1302.362347,-5255.462188,12879.583391
996.331485,-1685.410096,-4367.215058,13175.665768
996.331801,-1302.362347,-2664.741391,13175.665768
996.332117,-995.924147,-1110.308913,12509.480420
996.332433,-612.876398,370.102971,11695.253884
996.332749,0.000000,1332.370696,10066.800811
996.333065,842.705048,-0.000000,9474.636058
996.333380,2068.457845,222.061783,8364.327145
996.333696,3140.991542,2516.700203,7031.956449
996.334012,3217.601092,4885.359217,4959.379811
996.334328,3600.648841,4737.318029,5477.523971
996.334644,2834.553343,3182.885551,7402.059420
996.334960,1915.238745,296.082377,8956.491898
996.335276,-459.657299,-2812.782580,10362.883188
996.335592,-1149.143247,-4737.318029,12065.356855
996.335908,-1991.848295,-4737.318029,13249.686362
996.336224,-1762.019645,-3849.070898,13323.706956
996.336540,-995.924147,-1924.535449,12731.542202
996.336855,-689.485948,-518.144159,11547.212695
996.337171,-306.438199,962.267725,10584.944971
996.337487,153.219100,222.061783,9326.594869
996.337803,919.314598,-1184.329507,8734.430116
996.338119,2911.162892,370.102971,7402.059420
996.338435,3064.381992,3330.926739,5033.400406
996.338751,3140.991542,5107.421000,4737.318029
996.339067,2834.553343,3627.009116,6587.832884
996.339383,2374.896044,1258.350101,8142.265362
996.339699,0.000000,-1184.329507,9178.553681
996.340015,-995.924147,-4145.153275,10881.027347
996.340330,-1991.848295,-5625.565159,12583.501014
996.340646,-2068.457845,-4293.194464,13101.645173
996.340962,-1532.190996,-3330.926739,12213.398043
996.341278,-1225.752797,-1480.411884,12213.398043
996.341594,-919.314598,-0.000000,11103.089130
996.341910,-383.047749,518.144159,9770.718434
996.342226,766.095498,-444.123565,8364.327145
996.342542,2374.896044,-592.164754,7624.121203
996.342858,2681.334243,2220.617826,5847.626942
996.343174,3064.381992,4737.318029,4219.173869
996.343490,3370.820191,4811.338623,5033.400406
996.343805,2451.505594,2220.617826,7105.977043
996.344121,995.924147,-0.000000,8364.327145
996.344437,-842.705048,-2960.823768,9992.780217
996.344753,-1608.800546,-5181.441594,11547.212695
996.345069,-2221.676944,-5477.523971,12879.583391
996.345385,-2451.505594,-4293.194464,12879.583391
996.345701,-1838.629195,-2368.659014,12287.418637
996.346017,-1608.800546,-814.226536,11769.274478
996.346333,-1149.143247,518.144159,10510.924376
996.346649,-383.047749,-0.000000,9474.636058
996.346965,1149.143247,-370.102971,8290.306550
996.347281,2374.896044,1110.308913,7031.956449
996.347596,2681.334243,4071.132681,4663.297435
996.347912,3370.820191,5329.482782,4737.318029
996.348228,2681.334243,3701.029710,6809.894666
996.348544,1762.019645,1628.453072,8216.285956
996.348860,153.219100,-1628.453072,9548.656652
996.349176,-536.266849,-4145.153275,11251.130318
996.349492,-1915.238745,-4663.297435,12583.501014
996.349808,-2145.067394,-3701.029710,12879.583391
996.350124,-1991.848295,-2590.720797,12435.459826
996.350440,-1302.362347,-814.226536,12213.398043
996.350756,-1149.143247,592.164754,11399.171507
996.351071,-536.266849,444.123565,10584.944971
996.351387,383.047749,-0.000000,8956.491898
996.351703,2221.676944,148.041188,8142.265362
996.352019,2451.505594,2590.720797,6587.832884
996.352335,2528.115143,4737.318029,5403.503377
996.352651,2757.943793,4959.379811,6291.750507
996.352967,1991.848295,2738.761985,7698.141797
996.353283,919.314598,148.041188,9104.533087
996.353599,-229.828649,-2368.659014,10510.924376
996.353915,-1225.752797,-4219.173869,12139.377449
996.354231,-1685.410096,-4145.153275,12805.562797
996.354546,-1532.190996,-2812.782580,13249.686362
996.354862,-1378.971896,-1480.411884,12509.480420
996.355178,-766.095498,-0.000000,11843.295072
996.355494,-842.705048,888.247130,10362.883188
996.355810,229.828649,-0.000000,9548.656652
996.356126,1838.629195,-148.041188,8438.347739
996.356442,2451.505594,1184.329507,7105.977043
996.356758,2681.334243,4885.359217,5551.544565
996.357074,3140.991542,5181.441594,5699.585753
996.357390,2757.943793,3923.091493,7031.956449
996.357706,1532.190996,1628.453072,8586.388927
996.358021,-76.609550,-1554.432478,9992.780217
996.358337,-689.485948,-4293.194464,11325.150913
996.358653,-1378.971896,-5255.462188,12731.542202
996.358969,-1838.629195,-4145.153275,12953.603985
996.359285,-1455.581446,-2220.617826,12509.480420
996.359601,-842.705048,-666.185348,11843.295072
996.359917,-689.485948,444.123565,10584.944971
996.360233,0.000000,-0.000000,10140.821405
996.360549,1072.533697,-222.061783,8660.409521
996.360865,2221.676944,148.041188,7402.059420
996.361181,2757.943793,2664.741391,5477.523971
996.361496,3064.381992,4589.276840,4515.256246
996.361812,3600.648841,3997.112087,6365.771101
996.362128,2221.676944,1924.535449,7476.080014
996.362444,1072.533697,-370.102971,8734.430116
996.362760,-383.047749,-3256.906145,10066.800811
996.363076,-1608.800546,-5107.421000,11843.295072
996.363392,-2298.286494,-4663.297435,12657.521608
996.363708,-1991.848295,-3478.967927,12731.542202
996.364024,-1915.238745,-2220.617826,12213.398043
996.364340,-1378.971896,-740.205942,11547.212695
996.364656,-536.266849,-0.000000,10288.862594
996.364971,76.609550,-592.164754,9326.594869
996.365287,1378.971896,-962.267725,8068.244768
996.365603,2681.334243,1406.391290,6661.853478
996.365919,2528.115143,3849.070898,5255.462188
996.366235,2911.162892,5107.421000,5329.482782
996.366551,2681.334243,3034.844362,6587.832884
996.366867,2145.067394,888.247130,8290.306550
996.367183,0.000000,-1776.494261,9400.615463
996.367499,-612.876398,-4219.173869,10881.027347
996.367815,-1302.362347,-4515.256246,12583.501014
996.368131,-2068.457845,-3997.112087,12879.583391
996.368446,-1762.019645,-2664.741391,12583.501014
996.368762,-1225.752797,-1480.411884,11917.315666
996.369078,-689.485948,-74.020594,10955.047942
996.369394,-306.438199,-0.000000,10288.862594
996.369710,689.485948,-518.144159,8956.491898
996.370026,2145.067394,148.041188,7550.100608
996.370342,2604.724693,3182.885551,5699.585753
996.370658,2451.505594,5329.482782,4589.276840
996.370974,2834.553343,4293.194464,6291.750507
996.371290,2221.676944,2072.576638,8512.368333
996.371606,612.876398,-814.226536,9178.553681
996.371922,-766.095498,-3108.864956,10881.027347
996.372237,-1838.629195,-4589.276840,12953.603985
996.372553,-1915.238745,-4441.235652,12879.583391
996.372869,-1915.238745,-2664.741391,12805.562797
996.373185,-1378.971896,-1184.329507,12583.501014
996.373501,-1532.190996,-0.000000,11621.233289
996.373817,-536.266849,518.144159,10881.027347
996.374133,229.828649,-0.000000,9326.594869
996.374449,1685.410096,370.102971,7994.224174
996.374765,2681.334243,2368.659014,6661.853478
996.375081,2911.162892,4737.318029,5329.482782
996.375397,3294.210641,4885.359217,5625.565159
996.375712,2451.505594,3182.885551,6957.935855
996.376028,1455.581446,1036.288319,8512.368333
996.376344,0.000000,-1850.514855,9696.697840
996.376660,-919.314598,-3701.029710,11547.212695
996.376976,-1991.848295,-4367.215058,13249.686362
996.377292,-2298.286494,-3478.967927,13101.645173
996.377608,-1838.629195,-2294.638420,12509.480420
996.377924,-1838.629195,-1184.329507,12139.377449
996.378240,-766.095498,296.082377,11251.130318
996.378556,0.000000,370.102971,9548.656652
996.378872,1455.581446,-0.000000,8438.347739
996.379187,2681.334243,740.205942,7624.121203
996.379503,3064.381992,3849.070898,5921.647536
996.379819,3370.820191,5551.544565,4737.318029
996.380135,3370.820191,4145.153275,5921.647536
996.380451,2451.505594,2146.597232,8364.327145
996.380767,612.876398,-518.144159,10066.800811
996.381083,-459.657299,-3108.864956,10584.944971
996.381399,-1302.362347,-4515.256246,12287.418637
996.381715,-1685.410096,-4441.235652,13027.624579
996.382031,-1455.581446,-3108.864956,12731.542202
996.382346,-919.314598,-1184.329507,12213.398043
996.382662,-689.485948,74.020594,11325.150913
996.382978,153.219100,592.164754,10362.883188
996.383294,919.314598,-0.000000,8882.471304
996.383610,2374.896044,-74.020594,7846.182985
996.383926,2834.553343,2368.659014,6439.791695
996.384242,2911.162892,4219.173869,4737.318029
996.384558,3983.696590,4589.276840,5551.544565
996.384874,2374.896044,2738.761985,7402.059420
996.385190,1225.752797,222.061783,8734.430116
996.385506,0.000000,-2516.700203,10214.842000
996.385821,-1532.190996,-5033.400406,11621.233289
996.386137,-1685.410096,-5107.421000,12879.583391
996.386453,-1838.629195,-3923.091493,12953.603985
996.386769,-1532.190996,-2590.720797,12287.418637
996.387085,-919.314598,-1406.391290,11621.233289
996.387401,-919.314598,74.020594,10584.944971
996.387717,0.000000,-296.082377,9474.636058
996.388033,1762.019645,-888.247130,8142.265362
996.388349,3064.381992,518.144159,7105.977043
996.388665,3600.648841,3478.967927,5107.421000
996.388980,3524.039291,5181.441594,4515.256246
996.389296,3294.210641,3478.967927,6069.688724
996.389612,1838.629195,1184.329507,8438.347739
996.389928,0.000000,-1628.453072,9326.594869
996.390244,-459.657299,-4367.215058,11029.068536
996.390560,-1915.238745,-5773.606348,12731.542202
996.390876,-2374.896044,-4515.256246,13175.665768
996.391192,-2145.067394,-2960.823768,12805.562797
996.391508,-1685.410096,-1554.432478,12213.398043
996.391824,-1455.581446,-148.041188,11695.253884
996.392139,-995.924147,148.041188,10140.821405
996.392455,383.047749,-370.102971,8734.430116
996.392771,1915.238745,-0.000000,7550.100608
996.393087,2528.115143,2368.659014,6069.688724
996.393403,3064.381992,4219.173869,4589.276840
996.393719,2987.772442,4589.276840,5403.503377
996.394035,2145.067394,2738.761985,7105.977043
996.394351,919.314598,-296.082377,8956.491898
996.394667,-842.705048,-3034.844362,10288.862594
996.394983,-1685.410096,-4515.256246,12213.398043
996.395299,-2145.067394,-4515.256246,12805.562797
996.395614,-2145.067394,-3478.967927,13027.624579
996.395930,-1838.629195,-1998.556043,12657.521608
996.396246,-1532.190996,-740.205942,11547.212695
996.396562,-1149.143247,962.267725,10436.903782
996.396878,-229.828649,296.082377,9696.697840
996.397194,1455.581446,-518.144159,8216.285956
996.397510,2451.505594,888.247130,7105.977043
996.397826,2987.772442,4885.359217,5033.400406
996.398142,2757.943793,5403.503377,5033.400406
996.398458,2604.724693,3701.029710,6735.874072
996.398773,1915.238745,1554.432478,8512.368333
996.399089,0.000000,-962.267725,9844.739029
996.399405,-1072.533697,-3627.009116,11251.130318
996.399721,-1608.800546,-4219.173869,12509.480420
996.400037,-1838.629195,-3627.009116,12583.501014
996.400353,-1838.629195,-2072.576638,12805.562797
996.400669,-1072.533697,-888.247130,12139.377449
996.400985,-842.705048,814.226536,11251.130318
996.401301,-383.047749,962.267725,10066.800811
996.401617,842.705048,370.102971,8586.388927
996.401933,2757.943793,444.123565,7772.162391
996.402248,4213.525239,3701.029710,5847.626942
996.402564,2987.772442,5477.523971,4589.276840
996.402880,3294.210641,5107.421000,5625.565159
996.403196,2451.505594,2664.741391,7698.141797
996.403512,1149.143247,148.041188,9104.533087
996.403828,-612.876398,-2590.720797,10732.986159
996.404144,-1225.752797,-4737.318029,12583.501014
996.404460,-1762.019645,-4367.215058,13397.727550
996.404776,-1991.848295,-2886.803174,13027.624579
996.405092,-1685.410096,-1628.453072,12435.459826
996.405407,-612.876398,-148.041188,11769.274478
996.405723,-612.876398,1110.308913,10288.862594
996.406039,76.609550,74.020594,9696.697840
996.406355,1915.238745,-740.205942,8068.244768
996.406671,2604.724693,962.267725,7105.977043
996.406987,3217.601092,4589.276840,5403.503377
996.407303,3753.867940,5181.441594,4811.338623
996.407619,2911.162892,3108.864956,6809.894666
996.407935,1838.629195,1110.308913,8734.430116
996.408251,76.609550,-1776.494261,9992.780217
996.408566,-1072.533697,-4515.256246,11547.212695
996.408882,-1838.629195,-5255.462188,12805.562797
996.409198,-1762.019645,-3775.050304,12583.501014
996.409514,-1378.971896,-2664.741391,12509.480420
996.409830,-1455.581446,-1332.370696,11843.295072
996.410146,-1532.190996,222.061783,10881.027347
996.410462,-919.314598,148.041188,10066.800811
996.410778,612.876398,-740.205942,9030.512492
996.411094,1915.238745,-518.144159,7698.141797
996.411410,2834.553343,2590.720797,6217.729913
996.411726,2528.115143,4589.276840,4589.276840
996.412041,3217.601092,3775.050304,5847.626942
996.412357,2221.676944,1998.556043,7698.141797
996.412673,1072.533697,-1036.288319,8956.491898
996.412989,-536.266849,-3330.926739,10140.821405
996.413305,-1455.581446,-4737.318029,11917.315666
996.413621,-1838.629195,-4737.318029,12509.480420
996.413937,-1455.581446,-3182.885551,12583.501014
996.414253,-1149.143247,-1924.535449,12287.418637
996.414569,-766.095498,-666.185348,11547.212695
996.414885,-842.705048,296.082377,9992.780217
996.415200,0.000000,-740.205942,9252.574275
996.415516,1455.581446,-1332.370696,7994.224174
996.415832,3064.381992,1036.288319,6883.915261
996.416148,2604.724693,4515.256246,4959.379811
996.416464,2987.772442,4737.318029,5181.441594
996.416780,2757.943793,2812.782580,6809.894666
996.417096,1532.190996,814.226536,8216.285956
996.417412,-612.876398,-2442.679609,9622.677246
996.417728,-1302.362347,-4811.338623,11399.171507
996.418044,-1762.019645,-5107.421000,12509.480420
996.418360,-1915.238745,-4071.132681,12583.501014
996.418675,-1608.800546,-2516.700203,12213.398043
996.418991,-1455.581446,-1184.329507,11843.295072
996.419307,-995.924147,296.082377,10732.986159
996.419623,-536.266849,-0.000000,10066.800811
996.419939,766.095498,-370.102971,8660.409521
996.420255,2145.067394,148.041188,7254.018232
996.420571,2757.943793,3404.947333,5625.565159
996.420887,2681.334243,5403.503377,4737.318029
996.421203,2911.162892,3997.112087,6365.771101
996.421519,1838.629195,2072.576638,7920.203579
996.421834,995.924147,-592.164754,8808.450710
996.422150,-459.657299,-3108.864956,10881.027347
996.422466,-1072.533697,-4515.256246,12361.439231
996.422782,-1915.238745,-3923.091493,12731.542202
996.423098,-1455.581446,-2516.700203,12583.501014
996.423414,-689.485948,-1554.432478,12139.377449
996.423730,-995.924147,222.061783,11769.274478
996.424046,-919.314598,1258.350101,10288.862594
996.424362,153.219100,370.102971,9474.636058
996.424678,1915.238745,-0.000000,8290.306550
996.424993,2681.334243,2294.638420,6957.935855
996.425309,2298.286494,4811.338623,5107.421000
996.425625,3140.991542,5329.482782,5477.523971
996.425941,2604.724693,3404.947333,7254.018232
996.426257,1608.800546,814.226536,8882.471304
996.426573,-229.828649,-1924.535449,10140.821405
996.426889,-689.485948,-4219.173869,11621.233289
996.427205,-1455.581446,-4663.297435,12805.562797
996.427521,-1378.971896,-3478.967927,13323.706956
996.427837,-1225.752797,-2146.597232,12583.501014
996.428153,-1149.143247,-740.205942,11695.253884
996.428468,-842.705048,888.247130,10881.027347
996.428784,-229.828649,444.123565,9918.759623
996.429100,1225.752797,-148.041188,8734.430116
996.429416,2374.896044,740.205942,7624.121203
996.429732,2834.553343,3552.988522,5329.482782
996.430048,2757.943793,5329.482782,4811.338623
996.430364,2834.553343,3775.050304,6587.832884
996.430680,1685.410096,1406.391290,8438.347739
996.430996,536.266849,-1628.453072,9548.656652
996.431312,-459.657299,-4145.153275,10881.027347
996.431627,-1455.581446,-5255.462188,12361.439231
996.431943,-1608.800546,-4441.235652,12657.521608
996.432259,-1302.362347,-2886.803174,12583.501014
996.432575,-995.924147,-1406.391290,11991.336260
996.432891,-689.485948,-148.041188,11473.192101
996.433207,-306.438199,370.102971,10066.800811
996.433523,536.266849,-370.102971,8882.471304
996.433839,2298.286494,-814.226536,7846.182985
996.434155,3217.601092,2516.700203,6291.750507
996.434471,2911.162892,4367.215058,4737.318029
996.434786,3294.210641,4737.318029,5181.441594
996.435102,2528.115143,2812.782580,7105.977043
996.435418,1915.238745,-370.102971,8586.388927
996.435734,-383.047749,-2960.823768,9992.780217
996.436050,-1302.362347,-5107.421000,11325.150913
996.436366,-1762.019645,-5329.482782,13027.624579
996.436682,-2145.067394,-4293.194464,12731.542202
996.436998,-1685.410096,-2664.741391,12213.398043
996.437314,-1149.143247,-1406.391290,11621.233289
996.437630,-1225.752797,148.041188,10436.903782
996.437946,-229.828649,-0.000000,9252.574275
996.438261,995.924147,-888.247130,8290.306550
996.438577,2911.162892,296.082377,7328.038826
996.438893,2757.943793,4293.194464,4663.297435
996.439209,3140.991542,5699.585753,4441.235652
996.439525,2987.772442,3701.029710,6217.729913
996.439841,1915.238745,1332.370696,8438.347739
996.440157,0.000000,-1554.432478,9400.615463
996.440473,-459.657299,-4663.297435,10881.027347
996.440789,-1762.019645,-5551.544565,12435.459826
996.441105,-2068.457845,-4219.173869,12731.542202
996.441420,-1608.800546,-2738.761985,12361.439231
996.441736,-1072.533697,-1036.288319,12139.377449
996.442052,-919.314598,296.082377,11547.212695
996.442368,-919.314598,962.267725,10362.883188
996.442684,229.828649,-0.000000,8734.430116
996.443000,1532.190996,222.061783,7846.182985
996.443316,2221.676944,3108.864956,6291.750507
996.443632,2681.334243,4663.297435,5107.421000
996.443948,2834.553343,4811.338623,5847.626942
996.444264,2374.896044,2886.803174,7476.080014
996.444580,1455.581446,-0.000000,9104.533087
996.444895,-536.266849,-2664.741391,10288.862594
996.445211,-1532.190996,-4145.153275,11991.336260
996.445527,-1532.190996,-4219.173869,13323.706956
996.445843,-1072.533697,-2886.803174,13619.789333
996.446159,-1378.971896,-1110.308913,12361.439231
996.446475,-612.876398,592.164754,11769.274478
996.446791,-612.876398,1628.453072,10288.862594
996.447107,0.000000,296.082377,9400.615463
996.447423,1532.190996,-444.123565,8512.368333
996.447739,2451.505594,1628.453072,7476.080014
996.448054,2987.772442,5181.441594,5551.544565
996.448370,2911.162892,5403.503377,5255.462188
996.448686,2451.505594,3775.050304,6957.935855
996.449002,1838.629195,1554.432478,8586.388927
996.449318,0.000000,-1406.391290,10140.821405
996.449634,-919.314598,-3701.029710,11695.253884
996.449950,-1762.019645,-4885.359217,12805.562797
996.450266,-1991.848295,-3997.112087,13101.645173
996.450582,-1685.410096,-2516.700203,13027.624579
996.450898,-766.095498,-592.164754,11917.315666
996.451213,-842.705048,814.226536,11029.068536
996.451529,-306.438199,888.247130,10140.821405
996.451845,1225.752797,370.102971,8586.388927
996.452161,2681.334243,370.102971,7624.121203
996.452477,3064.381992,3627.009116,5847.626942
996.452793,3140.991542,5181.441594,4367.215058
996.453109,3447.429741,4367.215058,6069.688724
996.453425,2681.334243,2368.659014,7994.224174
996.453741,1378.971896,-666.185348,9326.594869
996.454057,-689.485948,-3182.885551,10214.842000
996.454373,-1072.533697,-4885.359217,12213.398043
996.454688,-1915.238745,-4515.256246,12657.521608
996.455004,-2298.286494,-2886.803174,12361.439231
996.455320,-1532.190996,-1998.556043,12361.439231
996.455636,-995.924147,-518.144159,11547.212695
996.455952,-995.924147,444.123565,10214.842000
996.456268,0.000000,-518.144159,9104.533087
996.456584,2145.067394,-1406.391290,8290.306550
996.456900,2145.067394,296.082377,6735.874072
996.457216,2528.115143,4145.153275,5255.462188
996.457532,2911.162892,4663.297435,5107.421000
996.457847,2834.553343,2886.803174,6809.894666
996.458163,1915.238745,592.164754,8216.285956
996.458479,0.000000,-2072.576638,9696.697840
996.458795,-919.314598,-4737.318029,11251.130318
996.459111,-1455.581446,-5107.421000,12361.439231
996.459427,-1915.238745,-4589.276840,12657.521608
996.459743,-1455.581446,-2812.782580,12139.377449
996.460059,-919.314598,-1184.329507,11251.130318
996.460375,-995.924147,-0.000000,10732.986159
996.460691,-459.657299,-296.082377,9992.780217
996.461007,842.705048,-814.226536,8586.388927
996.461322,2221.676944,-0.000000,7624.121203
996.461638,2451.505594,2886.803174,5699.585753
996.461954,2451.505594,4737.318029,4663.297435
996.462270,2681.334243,3997.112087,5921.647536
996.462586,1762.019645,1554.432478,7994.224174
996.462902,153.219100,-1110.308913,9104.533087
996.463218,-1225.752797,-3775.050304,10584.944971
996.463534,-1762.019645,-5033.400406,12361.439231
996.463850,-2298.286494,-4589.276840,13249.686362
996.464166,-1991.848295,-3182.885551,12805.562797
996.464481,-1455.581446,-1480.411884,12139.377449
996.464797,-919.314598,-74.020594,11621.233289
996.465113,-689.485948,592.164754,10362.883188
996.465429,383.047749,-0.000000,8956.491898
996.465745,1991.848295,-370.102971,8216.285956
996.466061,2604.724693,2590.720797,6661.853478
996.466377,3064.381992,4885.359217,4737.318029
996.466693,3524.039291,4811.338623,5255.462188
996.467009,2604.724693,3330.926739,7031.956449
996.467325,1762.019645,370.102971,8660.409521
996.467640,-306.438199,-2146.597232,9844.739029
996.467956,-995.924147,-4071.132681,11769.274478
996.468272,-1991.848295,-4663.297435,13027.624579
996.468588,-1685.410096,-3627.009116,13323.706956
996.468904,-1991.848295,-1628.453072,13175.665768
996.469220,-1455.581446,-740.205942,12065.356855
996.469536,-995.924147,740.205942,11251.130318
996.469852,-229.828649,370.102971,9918.759623
996.470168,1532.190996,-74.020594,8808.450710
996.470484,2528.115143,518.144159,7698.141797
996.470800,2987.772442,4145.153275,5477.523971
996.471115,3140.991542,6069.688724,4737.318029
996.471431,3447.429741,4441.235652,6291.750507
996.471747,2068.457845,2368.659014,8734.430116
996.472063,766.095498,-666.185348,9252.574275
996.472379,-306.438199,-3478.967927,11103.089130
996.472695,-995.924147,-4811.338623,12287.418637
996.473011,-1455.581446,-3849.070898,12731.542202
996.473327,-1302.362347,-2738.761985,12509.480420
996.473643,-919.314598,-1036.288319,11991.336260
996.473959,-536.266849,666.185348,11251.130318
996.474274,-229.828649,888.247130,10362.883188
996.474590,536.266849,222.061783,9252.574275
996.474906,1455.581446,-0.000000,7994.224174
996.475222,2911.162892,2590.720797,6735.874072
996.475538,3064.381992,4515.256246,5033.400406
996.475854,3064.381992,4367.215058,5921.647536
996.476170,2374.896044,2738.761985,7328.038826
996.476486,1532.190996,296.082377,8956.491898
996.476802,-383.047749,-2442.679609,9844.739029
996.477118,-766.095498,-4737.318029,11547.212695
996.477434,-1532.190996,-4663.297435,12361.439231
996.477749,-919.314598,-3775.050304,13175.665768
996.478065,-1302.362347,-2072.576638,12065.356855
996.478381,-612.876398,-814.226536,11473.192101
996.478697,-306.438199,666.185348,10214.842000
996.479013,0.000000,-0.000000,9474.636058
996.479329,1455.581446,-666.185348,8142.265362
996.479645,2604.724693,518.144159,7105.977043
996.479961,3064.381992,3849.070898,5329.482782
996.480277,3140.991542,4811.338623,4737.318029
996.480592,2987.772442,2738.761985,6661.853478
996.480908,1532.190996,962.267725,8438.347739
996.481224,153.219100,-1924.535449,9548.656652
996.481540,-995.924147,-4367.215058,11399.171507
996.481856,-2068.457845,-5255.462188,12287.418637
996.482172,-1762.019645,-4145.153275,12953.603985
996.482488,-1532.190996,-2590.720797,12139.377449
996.482803,-1225.752797,-1258.350101,11769.274478
996.483119,-1302.362347,-74.020594,11103.089130
996.483435,-842.705048,-74.020594,10214.842000
996.483751,383.047749,-888.247130,8956.491898
996.484067,1838.629195,-222.061783,7698.141797
996.484383,2604.724693,2072.576638,5921.647536
996.484699,2681.334243,4441.235652,4959.379811
996.485015,2911.162892,4589.276840,5625.565159
996.485330,2374.896044,2072.576638,7105.977043
996.485646,1225.752797,-0.000000,8586.388927
996.485962,-689.485948,-2590.720797,9918.759623
996.486278,-1378.971896,-4811.338623,11843.295072
996.486594,-2068.457845,-4663.297435,12731.542202
996.486910,-2451.505594,-3478.967927,12657.521608
996.487226,-1838.629195,-2368.659014,12213.398043
996.487541,-1302.362347,-740.205942,11843.295072
996.487857,-1302.362347,518.144159,10584.944971
996.488173,-229.828649,-222.061783,9400.615463
996.488489,1225.752797,-814.226536,8142.265362
996.488805,2451.505594,962.267725,7105.977043
996.489121,2757.943793,4441.235652,5403.503377
996.489437,2987.772442,5551.544565,5033.400406
996.489752,3064.381992,3404.947333,6661.853478
996.490068,1838.629195,1702.473667,8734.430116
996.490384,76.609550,-1406.391290,9918.759623
996.490700,-612.876398,-3552.988522,11029.068536
996.491016,-1532.190996,-4219.173869,11991.336260
996.491332,-1225.752797,-3256.906145,12953.603985
996.491648,-1149.143247,-1776.494261,12509.480420
996.491963,-459.657299,-444.123565,11843.295072
996.492279,-766.095498,888.247130,11029.068536
996.492595,-383.047749,814.226536,10584.944971
996.492911,1149.143247,-0.000000,9030.512492
996.493227,2298.286494,518.144159,7698.141797
996.493543,2681.334243,3256.906145,5995.668130
996.493859,2528.115143,5033.400406,4959.379811
996.494175,3140.991542,4737.318029,6217.729913
996.494490,2298.286494,2220.617826,7846.182985
996.494806,459.657299,-148.041188,8956.491898
996.495122,-842.705048,-2960.823768,10881.027347
996.495438,-1762.019645,-4737.318029,12435.459826
996.495754,-1991.848295,-4145.153275,13249.686362
996.496070,-1302.362347,-2886.803174,13323.706956
996.496386,-1072.533697,-1258.350101,12139.377449
996.496701,-459.657299,222.061783,11325.150913
996.497017,-153.219100,1184.329507,10288.862594
996.497333,842.705048,148.041188,9030.512492
996.497649,2451.505594,-0.000000,8290.306550
996.497965,3217.601092,1776.494261,6883.915261
996.498281,3370.820191,5033.400406,4811.338623
996.498597,3447.429741,5107.421000,4885.359217
996.498912,2604.724693,3256.906145,6883.915261
996.499228,1302.362347,962.267725,8956.491898
996.499544,-766.095498,-2220.617826,10066.800811
996.499860,-1762.019645,-4293.194464,11547.212695
996.500176,-2451.505594,-5329.482782,12879.583391
996.500492,-1608.800546,-4071.132681,13323.706956
996.500808,-2068.457845,-2664.741391,12731.542202
996.501123,-995.924147,-962.267725,11991.336260
996.501439,-995.924147,444.123565,11103.089130
996.501755,-383.047749,-0.000000,9918.759623
996.502071,459.657299,-444.123565,8364.327145
996.502387,2681.334243,-74.020594,7698.141797
996.502703,3140.991542,2738.761985,5181.441594
996.503019,2834.553343,5181.441594,4367.215058
996.503335,3447.429741,4367.215058,6069.688724
996.503650,1915.238745,1850.514855,8142.265362
996.503966,689.485948,-814.226536,8734.430116
996.504282,-612.876398,-3627.009116,10807.006753
996.504598,-1762.019645,-5477.523971,12361.439231
996.504914,-2298.286494,-4737.318029,12805.562797
996.505230,-1532.190996,-3552.988522,12953.603985
996.505546,-1455.581446,-2146.597232,12509.480420
996.505861,-1149.143247,-370.102971,11547.212695
996.506177,-689.485948,296.082377,10140.821405
996.506493,153.219100,-592.164754,9252.574275
996.506809,2145.067394,-962.267725,8290.306550
996.507125,2987.772442,1184.329507,6365.771101
996.507441,2987.772442,4737.318029,4811.338623
996.507757,3447.429741,4737.318029,5181.441594
996.508072,2604.724693,2368.659014,7031.956449
996.508388,1378.971896,666.185348,8660.409521
996.508704,-766.095498,-2590.720797,10140.821405
996.509020,-1532.190996,-4959.379811,11769.274478
996.509336,-2068.457845,-5255.462188,13027.624579
996.509652,-1762.019645,-4293.194464,13175.665768
996.509968,-1762.019645,-2294.638420,12583.501014
996.510283,-842.705048,-1036.288319,11621.233289
996.510599,-689.485948,296.082377,10510.924376
996.510915,0.000000,-74.020594,9548.656652
996.511231,1685.410096,-740.205942,7920.203579
996.511547,2528.115143,296.082377,7254.018232
996.511863,3140.991542,3552.988522,4959.379811
996.512179,3217.601092,5551.544565,4441.235652
996.512495,2834.553343,4219.173869,6291.750507
996.512810,1762.019645,1554.432478,8438.347739
996.513126,0.000000,-888.247130,9252.574275
996.513442,-766.095498,-3701.029710,11103.089130
996.513758,-1991.848295,-5181.441594,12879.583391
996.514074,-2221.676944,-3997.112087,12879.583391
996.514390,-1915.238745,-2442.679609,12287.418637
996.514706,-1225.752797,-1110.308913,11917.315666
996.515021,-919.314598,-0.000000,11399.171507
996.515337,-612.876398,888.247130,10362.883188
996.515653,842.705048,-148.041188,8808.450710
996.515969,2298.286494,-0.000000,8216.285956
996.516285,3064.381992,2442.679609,6513.812290
996.516601,3064.381992,5625.565159,4589.276840
996.516917,3370.820191,5329.482782,5255.462188
996.517232,2911.162892,3478.967927,7328.038826
996.517548,1532.190996,592.164754,9030.512492
996.517864,-536.266849,-2220.617826,10510.924376
996.518180,-1302.362347,-4219.173869,12139.377449
996.518496,-1762.019645,-4811.338623,12879.583391
996.518812,-1762.019645,-3034.844362,13101.645173
996.519128,-1685.410096,-1554.432478,12731.542202
996.519443,-995.924147,-148.041188,11917.315666
996.519759,-459.657299,1554.432478,10510.924376
996.520075,-229.828649,592.164754,9844.739029
996.520391,995.924147,-444.123565,8808.450710
996.520707,2528.115143,666.185348,7772.162391
996.521023,2987.772442,4293.194464,5181.441594
996.521339,3140.991542,6217.729913,4737.318029
996.521655,3370.820191,3701.029710,6439.791695
996.521970,1532.190996,1702.473667,8512.368333
996.522286,-229.828649,-1480.411884,9696.697840
996.522602,-1225.752797,-4441.235652,11621.233289
996.522918,-2068.457845,-5551.544565,13545.768739
996.523234,-1991.848295,-4663.297435,13175.665768
996.523550,-1532.190996,-2590.720797,12361.439231
996.523866,-995.924147,-962.267725,11917.315666
996.524181,-612.876398,444.123565,11473.192101
996.524497,-306.438199,1184.329507,9992.780217
996.524813,1225.752797,-148.041188,8586.388927
996.525129,2604.724693,-222.061783,7624.121203
996.525445,3370.820191,2590.720797,6291.750507
996.525761,3217.601092,5033.400406,4737.318029
996.526077,3370.820191,4737.318029,5033.400406
996.526392,2451.505594,2368.659014,7254.018232
996.526708,1072.533697,-148.041188,8808.450710
996.527024,-612.876398,-3330.926739,10362.883188
996.527340,-1685.410096,-5403.503377,11917.315666
996.527656,-1991.848295,-5329.482782,12805.562797
996.527972,-1991.848295,-3923.091493,12953.603985
996.528288,-1455.581446,-2146.597232,12361.439231
996.528603,-919.314598,-592.164754,11473.192101
996.528919,-842.705048,888.247130,9992.780217
996.529235,306.438199,-518.144159,9474.636058
996.529551,995.924147,-1332.370696,8142.265362
996.529867,2757.943793,296.082377,6513.812290
996.530183,2987.772442,3849.070898,4145.153275
996.530499,3294.210641,5403.503377,4293.194464
996.530815,2834.553343,3256.906145,6809.894666
996.531130,1685.410096,814.226536,8438.347739
996.531446,-229.828649,-2072.576638,9400.615463
996.531762,-995.924147,-4811.338623,11547.212695
996.532078,-1915.238745,-5773.606348,12805.562797
996.532394,-2068.457845,-3775.050304,13175.665768
996.532710,-1838.629195,-2442.679609,12139.377449
996.533026,-1378.971896,-962.267725,11843.295072
996.533341,-766.095498,222.061783,11251.130318
996.533657,-612.876398,518.144159,9844.739029
996.533973,536.266849,-814.226536,8734.430116
996.534289,2298.286494,-296.082377,7846.182985
996.534605,2757.943793,3182.885551,6291.750507
996.534921,2681.334243,4737.318029,4663.297435
996.535237,3217.601092,4737.318029,5773.606348
996.535552,2451.505594,2590.720797,7698.141797
996.535868,1072.533697,-74.020594,9104.533087
996.536184,-919.314598,-2738.761985,9992.780217
996.536500,-1608.800546,-4885.359217,12065.356855
996.536816,-2068.457845,-4663.297435,13027.624579
996.537132,-1762.019645,-3330.926739,12953.603985
996.537448,-1302.362347,-1480.411884,12213.398043
996.537763,-995.924147,-0.000000,11473.192101
996.538079,-995.924147,1184.329507,10140.821405
996.538395,0.000000,-148.041188,9770.718434
996.538711,1072.533697,-666.185348,8660.409521
996.539027,2451.505594,1628.453072,7254.018232
996.539343,2681.334243,5181.441594,4663.297435
996.539659,3217.601092,5921.647536,4737.318029
996.539975,2987.772442,3923.091493,7105.977043
996.540290,1378.971896,1480.411884,9252.574275
996.540606,-229.828649,-1628.453072,10066.800811
996.540922,-766.095498,-4589.276840,11769.274478
996.541238,-1455.581446,-5551.544565,13323.706956
996.541554,-1225.752797,-3923.091493,13027.624579
996.541870,-1149.143247,-1554.432478,12139.377449
996.542186,-612.876398,-0.000000,11917.315666
996.542501,-536.266849,1406.391290,11325.150913
996.542817,0.000000,1110.308913,10140.821405
996.543133,689.485948,222.061783,9030.512492
996.543449,2451.505594,444.123565,7698.141797
996.543765,2681.334243,3701.029710,5773.606348
996.544081,2681.334243,5181.441594,4663.297435
996.544397,3370.820191,4367.215058,6291.750507
996.544712,2068.457845,2368.659014,8660.409521
996.545028,612.876398,-1036.288319,9548.656652
996.545344,-1072.533697,-3849.070898,10732.986159
996.545660,-1378.971896,-5255.462188,12435.459826
996.545976,-1608.800546,-4885.359217,13027.624579
996.546292,-1378.971896,-2886.803174,12731.542202
996.546608,-919.314598,-1184.329507,11843.295072
996.546923,-612.876398,518.144159,11029.068536
996.547239,-459.657299,1332.370696,9696.697840
996.547555,459.657299,-296.082377,8956.491898
996.547871,1991.848295,-1110.308913,8068.244768
996.548187,2681.334243,1258.350101,6735.874072
996.548503,3217.601092,4737.318029,4663.297435
996.548819,3447.429741,5033.400406,4959.379811
996.549135,2604.724693,2516.700203,7031.956449
996.549450,1225.752797,666.185348,8512.368333
996.549766,-612.876398,-2294.638420,9918.759623
996.550082,-1302.362347,-5107.421000,11695.253884
996.550398,-1685.410096,-5773.606348,12805.562797
996.550714,-1685.410096,-3997.112087,13027.624579
996.551030,-1685.410096,-2072.576638,11991.336260
996.551346,-995.924147,-592.164754,11547.212695
996.551661,-842.705048,370.102971,10584.944971
996.551977,-919.314598,-74.020594,9918.759623
996.552293,612.876398,-444.123565,8364.327145
996.552609,2145.067394,-0.000000,7402.059420
996.552925,2451.505594,3256.906145,5255.462188
996.553241,2604.724693,5477.523971,4515.256246
996.553557,3064.381992,4145.153275,5847.626942
996.553872,1608.800546,1628.453072,7772.162391
996.554188,76.609550,-1628.453072,8956.491898
996.554504,-842.705048,-4589.276840,11029.068536
996.554820,-1838.629195,-6217.729913,12805.562797
996.555136,-1991.848295,-5033.400406,12953.603985
996.555452,-1915.238745,-2960.823768,12361.439231
996.555768,-1302.362347,-1406.391290,12139.377449
996.556083,-995.924147,-0.000000,11399.171507
996.556399,-766.095498,814.226536,9992.780217
996.556715,0.000000,-444.123565,8808.450710
996.557031,1915.238745,-592.164754,7920.203579
996.557347,2757.943793,1776.494261,6587.832884
996.557663,2528.115143,4811.338623,5033.400406
996.557979,3064.381992,5107.421000,5403.503377
996.558295,2451.505594,1998.556043,7624.121203
996.558610,1225.752797,222.061783,9326.594869
996.558926,-766.095498,-3034.844362,10807.006753
996.559242,-1532.190996,-5181.441594,11991.336260
996.559558,-1915.238745,-5255.462188,13027.624579
996.559874,-1762.019645,-3627.009116,13027.624579
996.560190,-1225.752797,-1184.329507,11991.336260
996.560506,-536.266849,444.123565,11325.150913
996.560821,-229.828649,1702.473667,10288.862594
996.561137,76.609550,-0.000000,9844.739029
996.561453,1149.143247,-296.082377,8438.347739
996.561769,2834.553343,666.185348,7105.977043
996.562085,2987.772442,4367.215058,5329.482782
996.562401,3600.648841,6217.729913,4737.318029
996.562717,3064.381992,4145.153275,6883.915261
996.563032,1915.238745,1554.432478,8808.450710
996.563348,0.000000,-1184.329507,9770.718434
996.563664,-459.657299,-4367.215058,11695.253884
996.563980,-1608.800546,-5403.503377,13471.748144
996.564296,-1608.800546,-3849.070898,12879.583391
996.564612,-1532.190996,-2146.597232,11991.336260
996.564928,-536.266849,-222.061783,11991.336260
996.565243,-612.876398,814.226536,11621.233289
996.565559,-229.828649,1110.308913,10066.800811
996.565875,766.095498,-148.041188,8660.409521
996.566191,2451.505594,-518.144159,7994.224174
996.566507,2987.772442,2516.700203,6587.832884
996.566823,2757.943793,5107.421000,4441.235652
996.567139,3370.820191,5255.462188,5625.565159
996.567455,2834.553343,2442.679609,7698.141797
996.567770,1072.533697,-740.205942,9326.594869
996.568086,-536.266849,-3478.967927,10362.883188
996.568402,-1455.581446,-5625.565159,12139.377449
996.568718,-1838.629195,-5551.544565,12583.501014
996.569034,-1455.581446,-3330.926739,13027.624579
996.569350,-1302.362347,-1332.370696,12065.356855
996.569666,-459.657299,-0.000000,11103.089130
996.569981,-306.438199,1258.350101,9696.697840
996.570297,-229.828649,-370.102971,9696.697840
996.570613,1149.143247,-518.144159,7994.224174
996.570929,2451.505594,592.164754,7031.956449
996.571245,2604.724693,4071.132681,4811.338623
996.571561,3140.991542,5033.400406,4737.318029
996.571877,2681.334243,3108.864956,6809.894666
996.572192,1378.971896,1110.308913,8734.430116
996.572508,-306.438199,-1924.535449,9696.697840
996.572824,-1455.581446,-4737.318029,11473.192101
996.573140,-2068.457845,-5551.544565,12879.583391
996.573456,-1838.629195,-4071.132681,12731.542202
996.573772,-2145.067394,-2442.679609,11843.295072
996.574088,-1302.362347,-370.102971,11917.315666
996.574403,-1302.362347,740.205942,11251.130318
996.574719,-995.924147,1184.329507,9770.718434
996.575035,536.266849,-518.144159,8512.368333
996.575351,2221.676944,-370.102971,7698.141797
996.575667,2834.553343,3108.864956,5995.668130
996.575983,2834.553343,4737.318029,4737.318029
996.576299,2604.724693,4367.215058,5403.503377
996.576615,1762.019645,2368.659014,7698.141797
996.576930,919.314598,-666.185348,9252.574275
996.577246,-1149.143247,-3627.009116,10584.944971
996.577562,-1915.238745,-5181.441594,11991.336260
996.577878,-2221.676944,-4959.379811,12731.542202
996.578194,-1915.238745,-3034.844362,12731.542202
996.578510,-1149.143247,-1776.494261,12139.377449
996.578826,-612.876398,-74.020594,11399.171507
996.579141,-766.095498,1332.370696,9992.780217
996.579457,383.047749,-148.041188,9548.656652
996.579773,1532.190996,-1036.288319,8290.306550
996.580089,3064.381992,592.164754,7254.018232
996.580405,3064.381992,5033.400406,4885.359217
996.580721,3753.867940,5773.606348,4663.297435
996.581037,3217.601092,3478.967927,6809.894666
996.581352,1915.238745,1628.453072,9030.512492
996.581668,-229.828649,-1628.453072,10066.800811
996.581984,-995.924147,-4589.276840,11843.295072
996.582300,-1378.971896,-5181.441594,13397.727550
996.582615,-1991.848295,-3404.947333,13027.624579
996.582931,-1302.362347,-1480.411884,12435.459826
996.583247,-689.485948,-0.000000,11843.295072
996.583563,-689.485948,962.267725,11103.089130
996.583879,-229.828649,1110.308913,10288.862594
996.584195,766.095498,-0.000000,8808.450710
996.584511,2451.505594,-0.000000,7550.100608
996.584826,3370.820191,3849.070898,6069.688724
996.585142,3294.210641,5181.441594,4145.153275
996.585458,3524.039291,4885.359217,5921.647536
996.585774,2374.896044,2442.679609,7920.203579
996.586090,995.924147,-592.164754,9474.636058
996.586406,-842.705048,-3552.988522,10732.986159
996.586721,-1378.971896,-5625.565159,12287.418637
996.587037,-1608.800546,-4589.276840,12953.603985
996.587353,-1455.581446,-3108.864956,12879.583391
996.587669,-1072.533697,-1184.329507,11843.295072
996.587985,-459.657299,444.123565,11251.130318
996.588301,-229.828649,1406.391290,10214.842000
996.588617,383.047749,-0.000000,9252.574275
996.588932,1302.362347,-814.226536,8142.265362
996.589248,2451.505594,1184.329507,7254.018232
996.589564,3217.601092,4737.318029,4885.359217
996.589880,3217.601092,5107.421000,5551.544565
996.590196,2451.505594,2738.761985,7179.997637
996.590512,1225.752797,296.082377,9178.553681
996.590828,-459.657299,-2812.782580,9992.780217
996.591143,-1149.143247,-5329.482782,11843.295072
996.591459,-1838.629195,-5625.565159,12731.542202
996.591775,-1915.238745,-3404.947333,12583.501014
996.592091,-1378.971896,-1702.473667,11843.295072
996.592407,-459.657299,222.061783,11547.212695
996.592723,-612.876398,1332.370696,11251.130318
996.593039,-536.266849,518.144159,9844.739029
996.593354,766.095498,-666.185348,8512.368333
996.593670,2451.505594,-592.164754,7402.059420
996.593986,2834.553343,3034.844362,5699.585753
996.594302,2604.724693,5255.462188,4367.215058
996.594618,2757.943793,4071.132681,5995.668130
996.594934,1302.362347,2146.597232,7994.224174
996.595250,0.000000,-1110.308913,9474.636058
996.595565,-1225.752797,-3849.070898,11029.068536
996.595881,-1762.019645,-5477.523971,12065.356855
996.596197,-2221.676944,-5033.400406,12657.521608
996.596513,-1762.019645,-2886.803174,12287.418637
996.596829,-1225.752797,-962.267725,11695.253884
996.597145,-766.095498,666.185348,11177.109724
996.597460,-229.828649,1036.288319,9844.739029
996.597776,459.657299,-444.123565,8956.491898
996.598092,1915.238745,-888.247130,8068.244768
996.598408,2757.943793,1554.432478,6661.853478
996.598724,2757.943793,5847.626942,4663.297435
996.599040,3370.820191,4959.379811,5033.400406
996.599356,2451.505594,2442.679609,7328.038826
996.599671,612.876398,518.144159,9104.533087
996.599987,-1225.752797,-2442.679609,10510.924376
996.600303,-1685.410096,-5847.626942,12065.356855
996.600619,-2221.676944,-5995.668130,13249.686362
996.600935,-2451.505594,-3627.009116,13249.686362
996.601251,-1762.019645,-1628.453072,12213.398043
996.601567,-842.705048,-0.000000,11547.212695
996.601882,-842.705048,1258.350101,10510.924376
996.602198,-229.828649,1184.329507,9992.780217
996.602514,1302.362347,-296.082377,8438.347739
996.602830,3064.381992,222.061783,7402.059420
996.603146,3140.991542,4219.173869,5255.462188
996.603462,3677.258390,5329.482782,4589.276840
996.603778,3447.429741,4071.132681,6143.709319
996.604093,2221.676944,1924.535449,8216.285956
996.604409,536.266849,-1332.370696,9474.636058
996.604725,-995.924147,-4293.194464,11473.192101
996.605041,-1532.190996,-5403.503377,12879.583391
996.605357,-2068.457845,-4219.173869,12953.603985
996.605673,-1149.143247,-2294.638420,12213.398043
996.605989,-919.314598,-814.226536,11843.295072
996.606304,-229.828649,888.247130,11251.130318
996.606620,-306.438199,1998.556043,9844.739029
996.606936,766.095498,-0.000000,9104.533087
996.607252,2451.505594,-1110.308913,8364.327145
996.607568,2911.162892,1924.535449,6883.915261
996.607884,2757.943793,5847.626942,4737.318029
996.608200,3677.258390,5329.482782,5477.523971
996.608515,2451.505594,2368.659014,7624.121203
996.608831,1149.143247,370.102971,9326.594869
996.609147,-612.876398,-3108.864956,10732.986159
996.609463,-1072.533697,-5403.503377,11991.336260
996.609779,-2068.457845,-5255.462188,12805.562797
996.610095,-1685.410096,-3256.906145,12953.603985
996.610410,-1455.581446,-1628.453072,12287.418637
996.610726,-612.876398,296.082377,11473.192101
996.611042,-766.095498,1480.411884,10436.903782
996.611358,0.000000,444.123565,10214.842000
996.611674,1302.362347,-740.205942,8438.347739
996.611990,2604.724693,-0.000000,7031.956449
996.612306,2911.162892,3849.070898,5329.482782
996.612621,2987.772442,5107.421000,4885.359217
996.612937,2987.772442,3627.009116,6661.853478
996.613253,1608.800546,1554.432478,8290.306550
996.613569,-153.219100,-1480.411884,9918.759623
996.613885,-1225.752797,-4663.297435,11325.150913
996.614201,-1532.190996,-6069.688724,12953.603985
996.614517,-2145.067394,-4589.276840,12879.583391
996.614832,-1608.800546,-2220.617826,12213.398043
996.615148,-766.095498,-740.205942,11473.192101
996.615464,-536.266849,888.247130,11103.089130
996.615780,-306.438199,1406.391290,9844.739029
996.616096,689.485948,-296.082377,8438.347739
996.616412,2145.067394,-814.226536,7772.162391
996.616728,2834.553343,2368.659014,6809.894666
996.617043,2604.724693,4737.318029,4959.379811
996.617359,3447.429741,4737.318029,5699.585753
996.617675,2451.505594,2146.597232,7698.141797
996.617991,919.314598,-518.144159,9252.574275
996.618307,-995.924147,-3404.947333,10658.965565
996.618623,-1608.800546,-5625.565159,12139.377449
996.618939,-2145.067394,-5329.482782,13027.624579
996.619254,-1608.800546,-3330.926739,13101.645173
996.619570,-1302.362347,-1184.329507,12065.356855
996.619886,-459.657299,-0.000000,10881.027347
996.620202,-689.485948,1554.432478,9548.656652
996.620518,153.219100,-0.000000,9474.636058
996.620834,1302.362347,-814.226536,7994.224174
996.621149,2987.772442,518.144159,7254.018232
996.621465,3064.381992,4219.173869,5033.400406
996.621781,3370.820191,5773.606348,4663.297435
996.622097,2834.553343,2886.803174,6809.894666
996.622413,1685.410096,962.267725,8734.430116
996.622729,-306.438199,-2220.617826,9696.697840
996.623045,-1532.190996,-5033.400406,11843.295072
996.623360,-1838.629195,-5773.606348,13619.789333
996.623676,-1915.238745,-4145.153275,12879.583391
996.623992,-1455.581446,-1924.535449,11621.233289
996.624308,-919.314598,-296.082377,11769.274478
996.624624,-766.095498,962.267725,11325.150913
996.624940,0.000000,1110.308913,9992.780217
996.625256,766.095498,-296.082377,8364.327145
996.625571,2604.724693,-740.205942,8216.285956
996.625887,3217.601092,2738.761985,6513.812290
996.626203,3370.820191,4959.379811,4441.235652
996.626519,3524.039291,5403.503377,5255.462188
996.626835,2528.115143,2368.659014,7846.182985
996.627151,919.314598,-222.061783,9474.636058
996.627467,-689.485948,-3552.988522,10658.965565
996.627782,-1685.410096,-5551.544565,12065.356855
996.628098,-2374.896044,-5107.421000,13175.665768
996.628414,-1991.848295,-3404.947333,13249.686362
996.628730,-1225.752797,-1406.391290,12065.356855
996.629046,-689.485948,370.102971,10881.027347
996.629362,-766.095498,1924.535449,9770.718434
996.629678,306.438199,814.226536,9326.594869
996.629993,1455.581446,-666.185348,8068.244768
996.630309,3140.991542,1184.329507,7254.018232
996.630625,2987.772442,5329.482782,4885.359217
996.630941,3140.991542,5847.626942,4145.153275
996.631257,2681.334243,2960.823768,6957.935855
996.631573,1455.581446,962.267725,9030.512492
996.631889,-459.657299,-2146.597232,9918.759623
996.632204,-1532.190996,-5107.421000,11843.295072
996.632520,-1991.848295,-5995.668130,13545.768739
996.632836,-2145.067394,-3849.070898,13249.686362
996.633152,-1762.019645,-1184.329507,12213.398043
996.633468,-766.095498,222.061783,11769.274478
996.633784,0.000000,1258.350101,11177.109724
996.634099,0.000000,1554.432478,9770.718434
996.634415,766.095498,-74.020594,8364.327145
996.634731,2528.115143,-222.061783,7920.203579
996.635047,2528.115143,3330.926739,5995.668130
996.635363,2834.553343,4885.359217,4737.318029
996.635679,3064.381992,4589.276840,5995.668130
996.635995,2221.676944,2072.576638,8216.285956
996.636310,459.657299,-1036.288319,9844.739029
996.636626,-1455.581446,-4293.194464,11029.068536
996.636942,-1991.848295,-5921.647536,12731.542202
996.637258,-2451.505594,-5107.421000,12953.603985
996.637574,-1915.238745,-3108.864956,12805.562797
996.637890,-995.924147,-1110.308913,12065.356855
996.638206,153.219100,814.226536,10955.047942
996.638521,-459.657299,1702.473667,9474.636058
996.638837,842.705048,-0.000000,9104.533087
996.639153,1838.629195,-1184.329507,8142.265362
996.639469,2987.772442,962.267725,7031.956449
996.639785,3294.210641,4737.318029,4959.379811
996.640101,3524.039291,5551.544565,4737.318029
996.640417,2528.115143,2516.700203,7179.997637
996.640732,1685.410096,222.061783,9474.636058
996.641048,-536.266849,-2590.720797,9992.780217
996.641364,-1378.971896,-5329.482782,11917.315666
996.641680,-1762.019645,-5921.647536,13397.727550
996.641996,-1685.410096,-3552.988522,12509.480420
996.642312,-1378.971896,-1332.370696,11769.274478
996.642628,-306.438199,444.123565,11695.253884
996.642943,76.609550,1036.288319,10807.006753
996.643259,-383.047749,1184.329507,9992.780217
996.643575,995.924147,-592.164754,8290.306550
996.643891,2834.553343,-666.185348,7920.203579
996.644207,2757.943793,3478.967927,6069.688724
996.644523,2681.334243,5181.441594,4219.173869
996.644838,3370.820191,4293.194464,5773.606348
996.645154,1991.848295,1998.556043,8364.327145
996.645470,229.828649,-1184.329507,9622.677246
996.645786,-1072.533697,-4441.235652,10881.027347
996.646102,-1532.190996,-6291.750507,12657.521608
996.646418,-2374.896044,-4885.359217,13249.686362
996.646734,-1838.629195,-2960.823768,12583.501014
996.647049,-1072.533697,-740.205942,11843.295072
996.647365,-306.438199,666.185348,10807.006753
996.647681,-689.485948,1480.411884,9622.677246
996.647997,459.657299,-148.041188,8882.471304
996.648313,1838.629195,-1036.288319,8068.244768
996.648629,2681.334243,1702.473667,6883.915261
996.648945,2451.505594,4885.359217,4441.235652
996.649260,2987.772442,4885.359217,4959.379811
996.649576,2145.067394,2590.720797,7846.182985
996.649892,612.876398,222.061783,9400.615463
996.650208,-1072.533697,-3108.864956,10510.924376
996.650524,-1762.019645,-6291.750507,12213.398043
996.650840,-2451.505594,-6143.709319,13397.727550
996.651156,-2298.286494,-3404.947333,12879.583391
996.651471,-1378.971896,-1110.308913,11991.336260
996.651787,-306.438199,962.267725,11325.150913
996.652103,229.828649,2072.576638,10584.944971
996.652419,0.000000,1258.350101,9474.636058
996.652735,1149.143247,-518.144159,8364.327145
996.653051,3140.991542,444.123565,7328.038826
996.653367,2834.553343,4441.235652,5699.585753
996.653682,3217.601092,5403.503377,4367.215058
996.653998,3447.429741,3923.091493,6291.750507
996.654314,1838.629195,1554.432478,8438.347739
996.654630,-229.828649,-1628.453072,9844.739029
996.654946,-1072.533697,-4737.318029,11917.315666
996.655262,-2221.676944,-6291.750507,13027.624579
996.655578,-2221.676944,-4515.256246,13323.706956
996.655893,-1685.410096,-1998.556043,11991.336260
996.656209,-612.876398,-222.061783,11843.295072
996.656525,0.000000,1184.329507,11029.068536
996.656841,-306.438199,1480.411884,9548.656652
996.657157,842.705048,-296.082377,8438.347739
996.657473,2451.505594,-1036.288319,8068.244768
996.657788,2987.772442,2220.617826,6735.874072
996.658104,3217.601092,5625.565159,5033.400406
996.658420,3447.429741,4737.318029,5625.565159
996.658736,2528.115143,2368.659014,8068.244768
996.659052,842.705048,-222.061783,9400.615463
996.659368,-1072.533697,-3404.947333,10881.027347
996.659684,-1378.971896,-5921.647536,12657.521608
996.659999,-1838.629195,-5551.544565,12731.542202
996.660315,-1608.800546,-3034.844362,12657.521608
996.660631,-766.095498,-962.267725,11843.295072
996.660947,-459.657299,222.061783,11029.068536
996.661263,-229.828649,1702.473667,9844.739029
996.661579,612.876398,518.144159,9696.697840
996.661895,1378.971896,-1036.288319,7994.224174
996.662210,2834.553343,222.061783,7031.956449
996.662526,2911.162892,3701.029710,4885.359217
996.662842,3217.601092,5403.503377,4663.297435
996.663158,2911.162892,3108.864956,6587.832884
996.663474,1532.190996,666.185348,8734.430116
996.663790,-459.657299,-2442.679609,9622.677246
996.664106,-1149.143247,-5477.523971,11843.295072
996.664421,-1915.238745,-6365.771101,13249.686362
996.664737,-2068.457845,-4293.194464,12805.562797
996.665053,-1532.190996,-1924.535449,11843.295072
996.665369,-689.485948,-296.082377,11769.274478
996.665685,-306.438199,1184.329507,11177.109724
996.666001,-383.047749,1406.391290,9622.677246
996.666317,919.314598,-444.123565,8512.368333
996.666632,2298.286494,-962.267725,7698.141797
996.666948,2451.505594,2886.803174,6217.729913
996.667264,2451.505594,5033.400406,4441.235652
996.667580,2987.772442,4515.256246,5921.647536
996.667896,2145.067394,2220.617826,7994.224174
996.668212,0.000000,-740.205942,9548.656652
996.668527,-1455.581446,-3997.112087,11547.212695
996.668843,-1838.629195,-6069.688724,12583.501014
996.669159,-2221.676944,-5255.462188,12805.562797
996.669475,-1991.848295,-3034.844362,12731.542202
996.669791,-995.924147,-962.267725,11695.253884
996.670107,-612.876398,518.144159,10807.006753
996.670423,-689.485948,1406.391290,9548.656652
996.670738,76.609550,-148.041188,9326.594869
996.671054,1532.190996,-1184.329507,8290.306550
996.671370,2681.334243,962.267725,6883.915261
996.671686,2604.724693,4663.297435,4589.276840
996.672002,2911.162892,5477.523971,5181.441594
996.672318,2451.505594,3108.864956,7328.038826
996.672634,1072.533697,740.205942,9104.533087
996.672949,-689.485948,-2590.720797,10214.842000
996.673265,-1532.190996,-5329.482782,12139.377449
996.673581,-1991.848295,-5847.626942,13249.686362
996.673897,-2068.457845,-3701.029710,12805.562797
996.674213,-1532.190996,-1184.329507,11917.315666
996.674529,-536.266849,666.185348,11621.233289
996.674845,-612.876398,1924.535449,10807.006753
996.675160,76.609550,1554.432478,9770.718434
996.675476,919.314598,-0.000000,8512.368333
996.675792,2681.334243,148.041188,7476.080014
996.676108,3217.601092,4367.215058,5773.606348
996.676424,2911.162892,5329.482782,4441.235652
996.676740,3217.601092,4737.318029,6217.729913
996.677056,2145.067394,2368.659014,7994.224174
996.677371,612.876398,-1036.288319,9696.697840
996.677687,-1072.533697,-4145.153275,11103.089130
996.678003,-1685.410096,-5773.606348,12583.501014
996.678319,-2145.067394,-4811.338623,12953.603985
996.678635,-1302.362347,-2664.741391,12583.501014
996.678951,-612.876398,-444.123565,11843.295072
996.679267,-153.219100,814.226536,11251.130318
996.679582,-306.438199,1924.535449,9770.718434
996.679898,919.314598,-0.000000,9178.553681
996.680214,2068.457845,-1036.288319,8290.306550
996.680530,3064.381992,1702.473667,6809.894666
996.680846,3370.820191,5403.503377,4811.338623
996.681162,3447.429741,5107.421000,5107.421000
996.681477,2987.772442,2368.659014,7772.162391
996.681793,1378.971896,-0.000000,9326.594869
996.682109,-459.657299,-3404.947333,10881.027347
996.682425,-1532.190996,-5625.565159,12139.377449
996.682741,-1991.848295,-5625.565159,13249.686362
996.683057,-1608.800546,-3256.906145,12731.542202
996.683373,-1072.533697,-1036.288319,11843.295072
996.683689,-536.266849,814.226536,11325.150913
996.684004,-536.266849,962.267725,10288.862594
996.684320,0.000000,740.205942,9770.718434
996.684636,612.876398,-814.226536,8216.285956
996.684952,2451.505594,-296.082377,7254.018232
996.685268,2911.162892,2960.823768,5625.565159
996.685584,2528.115143,4885.359217,4885.359217
996.685900,2911.162892,3478.967927,6365.771101
996.686216,1302.362347,1554.432478,8364.327145
996.686531,153.219100,-1628.453072,9770.718434
996.686847,-1302.362347,-4441.235652,11325.150913
996.687163,-1915.238745,-5995.668130,12287.418637
996.687479,-2068.457845,-4737.318029,12509.480420
996.687795,-1685.410096,-2812.782580,11917.315666
996.688111,-612.876398,-888.247130,11843.295072
996.688427,-383.047749,740.205942,11029.068536
996.688743,-612.876398,1110.308913,9696.697840
996.689058,612.876398,-370.102971,8660.409521
996.689374,2068.457845,-1036.288319,7994.224174
996.689690,2911.162892,1776.494261,6661.853478
996.690006,3064.381992,5773.606348,4737.318029
996.690322,3524.039291,4589.276840,5033.400406
996.690638,2528.115143,2072.576638,7698.141797
996.690954,766.095498,-222.061783,9326.594869
996.691269,-1225.752797,-3923.091493,10584.944971
996.691585,-1991.848295,-5773.606348,11991.336260
996.691901,-2604.724693,-5625.565159,12509.480420
996.692217,-2145.067394,-3627.009116,13027.624579
996.692533,-2068.457845,-1628.453072,11843.295072
996.692849,-1225.752797,518.144159,11473.192101
996.693165,-1149.143247,1258.350101,9992.780217
996.693481,-229.828649,518.144159,9622.677246
996.693796,1149.143247,-740.205942,8290.306550
996.694112,2757.943793,-0.000000,7105.977043
996.694428,2987.772442,4071.132681,5107.421000
996.694744,3140.991542,5625.565159,4515.256246
996.695060,2987.772442,3775.050304,6365.771101
996.695376,1991.848295,1406.391290,8512.368333
996.695692,0.000000,-1998.556043,9696.697840
996.696008,-1149.143247,-4737.318029,11695.253884
996.696323,-2068.457845,-5625.565159,12805.562797
996.696639,-1762.019645,-3923.091493,12435.459826
996.696955,-1685.410096,-1480.411884,12213.398043
996.697271,-766.095498,-370.102971,11769.274478
996.697587,-612.876398,1332.370696,11547.212695
996.697903,-306.438199,1554.432478,10066.800811
996.698219,689.485948,-0.000000,8882.471304
996.698535,2604.724693,-814.226536,8216.285956
996.698850,2604.724693,2072.576638,6883.915261
996.699166,2604.724693,5181.441594,5107.421000
996.699482,3217.601092,4885.359217,5699.585753
996.699798,2451.505594,2294.638420,8216.285956
996.700114,842.705048,-0.000000,9548.656652
996.700430,-459.657299,-3182.885551,10732.986159
996.700746,-1532.190996,-5033.400406,11917.315666
996.701062,-1608.800546,-4737.318029,12953.603985
996.701377,-919.314598,-3108.864956,13027.624579
996.701693,-306.438199,-1110.308913,12065.356855
996.702009,0.000000,518.144159,11029.068536
996.702325,0.000000,1702.473667,9622.677246
996.702641,689.485948,518.144159,9548.656652
996.702957,1532.190996,-740.205942,8068.244768
996.703273,2757.943793,592.164754,7105.977043
996.703589,2911.162892,3701.029710,4885.359217
996.703904,2987.772442,5033.400406,4811.338623
996.704220,2451.505594,2960.823768,7254.018232
996.704536,1225.752797,518.144159,9326.594869
996.704852,-459.657299,-2220.617826,10066.800811
996.705168,-1302.362347,-5107.421000,11843.295072
996.705484,-1991.848295,-5847.626942,13545.768739
996.705800,-1991.848295,-3923.091493,12805.562797
996.706116,-1608.800546,-1850.514855,11843.295072
996.706431,-612.876398,-370.102971,11399.171507
996.706747,-459.657299,592.164754,11177.109724
996.707063,0.000000,1184.329507,9770.718434
996.707379,1072.533697,-296.082377,8216.285956
996.707695,3294.210641,-518.144159,7624.121203
996.708011,3140.991542,3034.844362,6217.729913
996.708327,3064.381992,4737.318029,4441.235652
996.708643,3524.039291,4441.235652,5477.523971
996.708958,2145.067394,1998.556043,7698.141797
996.709274,383.047749,-1258.350101,9400.615463
996.709590,-1532.190996,-4515.256246,10584.944971
996.709906,-2145.067394,-6069.688724,12509.480420
996.710222,-2528.115143,-5403.503377,13249.686362
996.710538,-2298.286494,-3478.967927,12731.542202
996.710854,-1762.019645,-2146.597232,11843.295072
996.711169,-689.485948,-0.000000,11103.089130
996.711485,-995.924147,1036.288319,9474.636058
996.711801,0.000000,148.041188,9178.553681
996.712117,1225.752797,-1110.308913,8216.285956
996.712433,2834.553343,518.144159,7031.956449
996.712749,2757.943793,4219.173869,4737.318029
996.713065,3140.991542,5107.421000,4441.235652
996.713381,2681.334243,3034.844362,6809.894666
996.713696,1455.581446,888.247130,8734.430116
996.714012,-459.657299,-2368.659014,9696.697840
996.714328,-1225.752797,-5033.400406,11621.233289
996.714644,-2068.457845,-5773.606348,12879.583391
996.714960,-1838.629195,-3849.070898,12361.439231
996.715276,-1608.800546,-1850.514855,11621.233289
996.715592,-842.705048,-370.102971,11769.274478
996.715908,-383.047749,1110.308913,11029.068536
996.716223,-306.438199,1184.329507,9918.759623
996.716539,689.485948,-518.144159,8364.327145
996.716855,2451.505594,-888.247130,8068.244768
996.717171,2451.505594,3182.885551,6217.729913
996.717487,2757.943793,4959.379811,4885.359217
996.717803,3140.991542,4885.359217,5847.626942
996.718119,2374.896044,2516.700203,7920.203579
996.718435,842.705048,-592.164754,9252.574275
996.718750,-1302.362347,-3330.926739,10807.006753
996.719066,-1455.581446,-5403.503377,12065.356855
996.719382,-1915.238745,-4589.276840,12953.603985
996.719698,-1991.848295,-2590.720797,12731.542202
996.720014,-842.705048,-962.267725,11769.274478
996.720330,-536.266849,740.205942,11325.150913
996.720646,-689.485948,1776.494261,9770.718434
996.720962,383.047749,444.123565,9252.574275
996.721277,2068.457845,-518.144159,8586.388927
996.721593,2681.334243,1332.370696,7698.141797
996.721909,2681.334243,4811.338623,4811.338623
996.722225,2911.162892,5773.606348,5107.421000
996.722541,2298.286494,3108.864956,7550.100608
996.722857,1378.971896,888.247130,9770.718434
996.723173,-612.876398,-2220.617826,10362.883188
996.723489,-1149.143247,-4885.359217,11991.336260
996.723804,-1608.800546,-5181.441594,13471.748144
996.724120,-1532.190996,-2960.823768,13027.624579
996.724436,-1225.752797,-1258.350101,11843.295072
996.724752,-459.657299,592.164754,11473.192101
996.725068,0.000000,1702.473667,10732.986159
996.725384,153.219100,1332.370696,9770.718434
996.725700,1455.581446,-74.020594,8512.368333
996.726016,2757.943793,-0.000000,7994.224174
996.726331,2911.162892,3182.885551,6143.709319
996.726647,2911.162892,4885.359217,4737.318029
996.726963,3370.820191,4219.173869,6069.688724
996.727279,1762.019645,1850.514855,8438.347739
996.727595,306.438199,-1036.288319,9992.780217
996.727911,-1225.752797,-4293.194464,11029.068536
996.728227,-1685.410096,-5921.647536,12435.459826
996.728543,-1991.848295,-4811.338623,12805.562797
996.728858,-1378.971896,-2664.741391,12139.377449
996.729174,-1072.533697,-1184.329507,11843.295072
996.729490,-689.485948,666.185348,10881.027347
996.729806,-383.047749,1332.370696,9474.636058
996.730122,459.657299,-74.020594,8660.409521
996.730438,1838.629195,-1406.391290,8512.368333
996.730754,2911.162892,1110.308913,7031.956449
996.731069,2681.334243,4811.338623,4737.318029
996.731385,3524.039291,5033.400406,5255.462188
996.731701,2681.334243,2442.679609,7550.100608
996.732017,1302.362347,370.102971,9252.574275
996.732333,0.000000,-2886.803174,10362.883188
996.732649,-995.924147,-5477.523971,11843.295072
996.732965,-1685.410096,-5477.523971,12731.542202
996.733281,-1532.190996,-3775.050304,12583.501014
996.733596,-1149.143247,-1480.411884,11769.274478
996.733912,-229.828649,296.082377,11399.171507
996.734228,-459.657299,1184.329507,10288.862594
996.734544,0.000000,370.102971,9770.718434
996.734860,1072.533697,-370.102971,8438.347739
996.735176,2528.115143,-74.020594,7402.059420
996.735492,2451.505594,3182.885551,5551.544565
996.735808,2604.724693,4737.318029,4959.379811
996.736123,2987.772442,3627.009116,6513.812290
996.736439,1225.752797,1332.370696,7920.203579
996.736755,0.000000,-1776.494261,9474.636058
996.737071,-1302.362347,-4737.318029,11177.109724
996.737387,-2374.896044,-5773.606348,12657.521608
996.737703,-2298.286494,-4589.276840,12879.583391
996.738019,-1915.238745,-2738.761985,12287.418637
996.738335,-1072.533697,-740.205942,11843.295072
996.738650,-766.095498,740.205942,11103.089130
996.738966,-612.876398,1480.411884,9548.656652
996.739282,919.314598,-740.205942,8808.450710
996.739598,1838.629195,-962.267725,8068.244768
996.739914,2681.334243,1924.535449,6661.853478
996.740230,2451.505594,5551.544565,4959.379811
996.740546,3140.991542,5107.421000,5403.503377
996.740862,2604.724693,2220.617826,7846.182985
996.741177,919.314598,370.102971,9548.656652
996.741493,-1149.143247,-3108.864956,10807.006753
996.741809,-1762.019645,-5255.462188,11843.295072
996.742125,-1991.848295,-5255.462188,12953.603985
996.742441,-1915.238745,-3256.906145,13249.686362
996.742757,-1455.581446,-1036.288319,12139.377449
996.743073,-536.266849,814.226536,11177.109724
996.743389,-766.095498,1702.473667,9918.759623
996.743704,-153.219100,814.226536,9696.697840
996.744020,1378.971896,-814.226536,8660.409521
996.744336,2298.286494,370.102971,7476.080014
996.744652,2987.772442,3997.112087,5625.565159
996.744968,2911.162892,5625.565159,4959.379811
996.745284,3064.381992,3849.070898,7105.977043
996.745600,1532.190996,1480.411884,8882.471304
996.745916,76.609550,-1480.411884,9696.697840
996.746231,-1225.752797,-4219.173869,11621.233289
996.746547,-1838.629195,-5551.544565,12879.583391
996.746863,-1455.581446,-3923.091493,12953.603985
996.747179,-1685.410096,-1776.494261,12509.480420
996.747495,-766.095498,-148.041188,12065.356855
996.747811,-459.657299,1332.370696,11251.130318
996.748127,0.000000,1702.473667,9696.697840
996.748443,1149.143247,-148.041188,8660.409521
996.748758,2451.505594,-740.205942,8142.265362
996.749074,3064.381992,2294.638420,6587.832884
996.749390,2604.724693,5477.523971,4885.359217
996.749706,3447.429741,4811.338623,5699.585753
996.750022,2374.896044,2146.597232,7994.224174
996.750338,689.485948,-0.000000,9474.636058
996.750654,-766.095498,-3256.906145,11029.068536
996.750969,-1302.362347,-5551.544565,12435.459826
996.751285,-1838.629195,-5403.503377,12657.521608
996.751601,-1532.190996,-3330.926739,12805.562797
996.751917,-459.657299,-1258.350101,11917.315666
996.752233,0.000000,370.102971,10807.006753
996.752549,-153.219100,1406.391290,9548.656652
996.752865,842.705048,444.123565,9326.594869
996.753181,1991.848295,-740.205942,7994.224174
996.753496,3294.210641,592.164754,7105.977043
996.753812,2987.772442,4515.256246,4737.318029
996.754128,3217.601092,5329.482782,4441.235652
996.754444,2681.334243,2960.823768,6957.935855
996.754760,1302.362347,666.185348,8660.409521
996.755076,-229.828649,-2812.782580,9622.677246
996.755392,-1302.362347,-5625.565159,11547.212695
996.755708,-1991.848295,-6365.771101,12731.542202
996.756023,-1915.238745,-4589.276840,12213.398043
996.756339,-1685.410096,-2368.659014,11843.295072
996.756655,-1072.533697,-592.164754,11991.336260
996.756971,-842.705048,888.247130,11029.068536
996.757287,-229.828649,1332.370696,9622.677246
996.757603,536.266849,-1184.329507,8290.306550
996.757919,2221.676944,-1110.308913,7772.162391
996.758235,2451.505594,2664.741391,6143.709319
996.758550,2451.505594,4737.318029,4589.276840
996.758866,2834.553343,4367.215058,5551.544565
996.759182,1838.629195,2220.617826,8068.244768
996.759498,306.438199,-666.185348,9474.636058
996.759814,-1685.410096,-3775.050304,10732.986159
996.760130,-2451.505594,-5995.668130,12139.377449
996.760446,-2604.724693,-5477.523971,12805.562797
996.760762,-1991.848295,-3256.906145,12953.603985
996.761077,-1608.800546,-1406.391290,11843.295072
996.761393,-766.095498,148.041188,11029.068536
996.761709,-842.705048,1258.350101,9548.656652
996.762025,0.000000,-0.000000,9400.615463
996.762341,1532.190996,-1258.350101,8290.306550
996.762657,2451.505594,1110.308913,7105.977043
996.762973,2757.943793,4515.256246,4737.318029
996.763289,3064.381992,5477.523971,4811.338623
996.763604,2757.943793,2960.823768,7550.100608
996.763920,1378.971896,962.267725,9400.615463
996.764236,-383.047749,-2368.659014,10140.821405
996.764552,-1302.362347,-5107.421000,11917.315666
996.764868,-1838.629195,-5773.606348,13249.686362
996.765184,-1608.800546,-3775.050304,13175.665768
996.765500,-1608.800546,-1480.411884,12287.418637
996.765816,-459.657299,888.247130,11621.233289
996.766131,-229.828649,1702.473667,10807.006753
996.766447,153.219100,1628.453072,10140.821405
996.766763,689.485948,-0.000000,8660.409521
996.767079,2757.943793,-0.000000,7476.080014
996.767395,3064.381992,3849.070898,5921.647536
996.767711,2757.943793,5181.441594,4663.297435
996.768027,3447.429741,4515.256246,6069.688724
996.768343,2374.896044,2368.659014,7994.224174
996.768658,689.485948,-592.164754,9548.656652
996.768974,-612.876398,-4071.132681,11029.068536
996.769290,-1455.581446,-5329.482782,12583.501014
996.769606,-1762.019645,-4515.256246,12657.521608
996.769922,-1532.190996,-2516.700203,12361.439231
996.770238,-459.657299,-444.123565,11695.253884
996.770554,-153.219100,962.267725,11177.109724
996.770869,-459.657299,1850.514855,9696.697840
996.771185,612.876398,518.144159,8956.491898
996.771501,1838.629195,-518.144159,8142.265362
996.771817,3064.381992,1406.391290,7105.977043
996.772133,2834.553343,5033.400406,4589.276840
996.772449,3447.429741,5699.585753,5181.441594
996.772765,2604.724693,2442.679609,7328.038826
996.773081,1072.533697,370.102971,9548.656652
996.773396,-306.438199,-2590.720797,10510.924376
996.773712,-1378.971896,-5329.482782,12139.377449
996.774028,-1532.190996,-6143.709319,13101.645173
996.774344,-1455.581446,-3330.926739,12731.542202
996.774660,-1072.533697,-1554.432478,11695.253884
996.774976,-229.828649,666.185348,11251.130318
996.775292,-306.438199,1480.411884,10362.883188
996.775608,0.000000,814.226536,9548.656652
996.775923,766.095498,-1036.288319,8364.327145
996.776239,2681.334243,-222.061783,7476.080014
996.776555,2604.724693,3552.988522,5699.585753
996.776871,2528.115143,4663.297435,4663.297435
996.777187,3370.820191,3552.988522,6291.750507
996.777503,1762.019645,1480.411884,8512.368333
996.777819,0.000000,-1554.432478,9474.636058
996.778135,-1455.581446,-4589.276840,11325.150913
996.778450,-1532.190996,-6069.688724,12731.542202
996.778766,-1685.410096,-4811.338623,12805.562797
996.779082,-1915.238745,-2664.741391,12065.356855
996.779398,-1072.533697,-1258.350101,11917.315666
996.779714,-842.705048,370.102971,10955.047942
996.780030,-919.314598,1406.391290,9770.718434
996.780346,0.000000,-592.164754,8882.471304
996.780662,1532.190996,-1184.329507,8290.306550
996.780977,2451.505594,1702.473667,6957.935855
996.781293,2757.943793,5403.503377,4959.379811
996.781609,3370.820191,4885.359217,5181.441594
996.781925,1991.848295,2146.597232,7624.121203
996.782241,612.876398,222.061783,9252.574275
996.782557,-1072.533697,-3701.029710,10584.944971
996.782873,-1991.848295,-5773.606348,12065.356855
996.783189,-2374.896044,-5625.565159,12583.501014
996.783504,-2068.457845,-3256.906145,12879.583391
996.783820,-1838.629195,-1332.370696,12065.356855
996.784136,-995.924147,370.102971,11029.068536
996.784452,-1149.143247,1480.411884,10140.821405
996.784767,-383.047749,592.164754,9696.697840
996.785083,1149.143247,-666.185348,8290.306550
996.785399,2145.067394,-0.000000,7328.038826
996.785715,2681.334243,3478.967927,5403.503377
996.786030,2528.115143,5551.544565,5107.421000
996.786346,2451.505594,3552.988522,7105.977043
996.786662,1455.581446,1332.370696,8512.368333
996.786978,0.000000,-1628.453072,9474.636058
996.787293,-1072.533697,-4441.235652,11547.212695
996.787609,-1685.410096,-5699.585753,13101.645173
996.787925,-1532.190996,-4219.173869,12583.501014
996.788241,-1302.362347,-1998.556043,11621.233289
996.788556,-612.876398,-296.082377,11547.212695
996.788872,0.000000,1332.370696,11177.109724
996.789188,-383.047749,1554.432478,9844.739029
996.789504,536.266849,-74.020594,8586.388927
996.789819,2451.505594,-518.144159,8142.265362
996.790135,3064.381992,2368.659014,6661.853478
996.790451,2681.334243,5625.565159,5033.400406
996.790767,3217.601092,4737.318029,5699.585753
996.791082,2681.334243,1998.556043,7550.100608
996.791398,1149.143247,-222.061783,9622.677246
996.791714,-612.876398,-3478.967927,10881.027347
996.792030,-689.485948,-5329.482782,11843.295072
996.792345,-1532.190996,-4737.318029,12731.542202
996.792661,-1072.533697,-2738.761985,12731.542202
996.792977,-536.266849,-814.226536,11769.274478
996.793293,0.000000,888.247130,10807.006753
996.793608,-459.657299,2220.617826,9622.677246
996.793924,76.609550,814.226536,9844.739029
996.794240,1225.752797,-740.205942,8438.347739
996.794556,2528.115143,962.267725,7698.141797
996.794871,2528.115143,3923.091493,5477.523971
996.795187,2911.162892,5329.482782,5181.441594
996.795503,3064.381992,2812.782580,7105.977043
996.795819,1378.971896,666.185348,8956.491898
996.796134,0.000000,-2146.597232,10140.821405
996.796450,-689.485948,-4885.359217,11843.295072
996.796766,-995.924147,-5773.606348,13397.727550
996.797082,-1378.971896,-3997.112087,12731.542202
996.797397,-842.705048,-1924.535449,11843.295072
996.797713,-153.219100,-370.102971,11325.150913
996.798029,0.000000,962.267725,11029.068536
996.798345,0.000000,962.267725,9622.677246
996.798660,1149.143247,-592.164754,8364.327145
996.798976,2451.505594,-740.205942,7772.162391
996.799292,3217.601092,2664.741391,6365.771101
996.799608,2834.553343,4441.235652,4737.318029
996.799923,3294.210641,3923.091493,5847.626942
996.800239,2145.067394,1776.494261,7994.224174
996.800555,612.876398,-1406.391290,9474.636058
996.800871,-1302.362347,-4367.215058,11029.068536
996.801186,-1838.629195,-6291.750507,11917.315666
996.801502,-2298.286494,-5477.523971,12583.501014
996.801818,-1608.800546,-3330.926739,12731.542202
996.802134,-1149.143247,-1554.432478,11695.253884
996.802449,-536.266849,444.123565,10436.903782
996.802765,-766.095498,1554.432478,9474.636058
996.803081,153.219100,-0.000000,9252.574275
996.803397,1532.190996,-1258.350101,8068.244768
996.803712,2451.505594,888.247130,7105.977043
996.804028,2298.286494,4663.297435,4737.318029
996.804344,2681.334243,4885.359217,4885.359217
996.804660,2221.676944,2590.720797,7254.018232
996.804975,766.095498,222.061783,9252.574275
996.805291,-689.485948,-2738.761985,9992.780217
996.805607,-1915.238745,-5107.421000,11621.233289
996.805923,-2451.505594,-5625.565159,12879.583391
996.806238,-2145.067394,-3552.988522,12657.521608
996.806554,-1915.238745,-1332.370696,11695.253884
996.806870,-919.314598,222.061783,11325.150913
996.807186,-766.095498,1406.391290,10584.944971
996.807501,-459.657299,814.226536,9696.697840
996.807817,536.266849,-148.041188,8512.368333
996.808133,2451.505594,-222.061783,7624.121203
996.808449,2681.334243,3627.009116,5995.668130
996.808764,3140.991542,4663.297435,4885.359217
996.809080,3064.381992,4589.276840,6069.688724
996.809396,2145.067394,2590.720797,8068.244768
996.809712,306.438199,-444.123565,9474.636058
996.810027,-995.924147,-3478.967927,10881.027347
996.810343,-1225.752797,-5255.462188,12287.418637
996.810659,-1915.238745,-4071.132681,12435.459826
996.810975,-1378.971896,-2072.576638,12287.418637
996.811290,-766.095498,-296.082377,11843.295072
996.811606,-383.047749,1184.329507,11177.109724
996.811922,-459.657299,2220.617826,9918.759623
996.812238,383.047749,148.041188,9030.512492
996.812553,1608.800546,-740.205942,8660.409521
996.812869,2451.505594,1554.432478,7550.100608
996.813185,2451.505594,5477.523971,5255.462188
996.813501,3370.820191,5255.462188,5699.585753
996.813816,2681.334243,3108.864956,7698.141797
996.814132,1378.971896,1036.288319,9548.656652
996.814448,-459.657299,-2368.659014,10288.862594
996.814764,-1149.143247,-5033.400406,12213.398043
996.815079,-1455.581446,-5699.585753,13027.624579
996.815395,-1455.581446,-3404.947333,12805.562797
996.815711,-766.095498,-1036.288319,11843.295072
996.816027,0.000000,962.267725,11103.089130
996.816342,-306.438199,1702.473667,10140.821405
996.816658,689.485948,1480.411884,10140.821405
996.816974,1302.362347,-592.164754,8512.368333
996.817290,2987.772442,222.061783,7550.100608
996.817606,3140.991542,3923.091493,5773.606348
996.817921,3064.381992,4737.318029,4885.359217
996.818237,3140.991542,3923.091493,6883.915261
996.818553,1991.848295,2072.576638,8438.347739
996.818869,153.219100,-1332.370696,9622.677246
996.819184,-1378.971896,-3997.112087,11325.150913
996.819500,-1685.410096,-5921.647536,12287.418637
996.819816,-2068.457845,-4663.297435,12583.501014
996.820132,-1915.238745,-2812.782580,12361.439231
996.820447,-995.924147,-814.226536,11843.295072
996.820763,-536.266849,740.205942,11325.150913
996.821079,-612.876398,1628.453072,9696.697840
996.821395,306.438199,-222.061783,8512.368333
996.821710,1838.629195,-1554.432478,8512.368333
996.822026,2681.334243,1702.473667,7254.018232
996.822342,2604.724693,5181.441594,4737.318029
996.822658,3524.039291,4589.276840,5477.523971
996.822973,2834.553343,2294.638420,7624.121203
996.823289,1302.362347,-74.020594,8808.450710
996.823605,-766.095498,-3256.906145,10214.842000
996.823921,-1378.971896,-6069.688724,11917.315666
996.824236,-1762.019645,-5995.668130,12657.521608
996.824552,-1762.019645,-3627.009116,12657.521608
996.824868,-1149.143247,-1702.473667,11843.295072
996.825184,-689.485948,-0.000000,10732.986159
996.825499,-919.314598,444.123565,10066.800811
996.825815,-229.828649,-296.082377,9696.697840
996.826131,842.705048,-1480.411884,8734.430116
996.826447,2451.505594,-370.102971,7476.080014
996.826762,2681.334243,3330.926739,5329.482782
996.827078,3370.820191,4663.297435,4885.359217
996.827394,2757.943793,3330.926739,6587.832884
996.827710,1608.800546,1480.411884,7994.224174
996.828025,0.000000,-1628.453072,9178.553681
996.828341,-919.314598,-4737.318029,11103.089130
996.828657,-1608.800546,-5921.647536,13027.624579
996.828973,-2145.067394,-4219.173869,12509.480420
996.829288,-1532.190996,-2368.659014,11917.315666
996.829604,-919.314598,-518.144159,11843.295072
996.829920,-766.095498,1258.350101,10955.047942
996.830236,-766.095498,1406.391290,9622.677246
996.830551,383.047749,-518.144159,8290.306550
996.830867,2068.457845,-962.267725,8290.306550
996.831183,2374.896044,2368.659014,6735.874072
996.831499,2757.943793,4959.379811,4885.359217
996.831814,2604.724693,4737.318029,5625.565159
996.832130,2221.676944,2664.741391,7698.141797
996.832446,1149.143247,-0.000000,9104.533087
996.832762,-689.485948,-2886.803174,10584.944971
996.833077,-1915.238745,-5477.523971,11991.336260
996.833393,-1915.238745,-5255.462188,12731.542202
996.833709,-1532.190996,-3478.967927,12879.583391
996.834025,-1072.533697,-740.205942,12287.418637
996.834340,-306.438199,740.205942,10881.027347
996.834656,-153.219100,2072.576638,9474.636058
996.834972,229.828649,962.267725,9474.636058
996.835288,1149.143247,-592.164754,8808.450710
996.835603,2757.943793,370.102971,7624.121203
996.835919,2604.724693,3775.050304,5551.544565
996.836235,2987.772442,5329.482782,5255.462188
996.836551,2834.553343,3775.050304,7105.977043
996.836866,1608.800546,1628.453072,8808.450710
996.837182,0.000000,-1406.391290,9696.697840
996.837498,-766.095498,-4145.153275,11473.192101
996.837814,-1762.019645,-5477.523971,13249.686362
996.838129,-1838.629195,-3775.050304,12879.583391
996.838445,-1532.190996,-1702.473667,11991.336260
996.838761,-536.266849,222.061783,11843.295072
996.839077,-383.047749,1554.432478,11103.089130
996.839392,-306.438199,1702.473667,9696.697840
996.839708,459.657299,-148.041188,8882.471304
996.840024,2374.896044,-814.226536,8290.306550
996.840340,2681.334243,2368.659014,6883.915261
996.840655,2757.943793,5255.462188,5329.482782
996.840971,3370.820191,4885.359217,5847.626942
996.841287,2528.115143,2590.720797,7920.203579
996.841603,919.314598,-148.041188,9326.594869
996.841918,-689.485948,-3404.947333,10510.924376
996.842234,-1608.800546,-5625.565159,12287.418637
996.842550,-1762.019645,-5255.462188,12361.439231
996.842866,-1685.410096,-3404.947333,13027.624579
996.843181,-1072.533697,-888.247130,11621.233289
996.843497,-383.047749,518.144159,10807.006753
996.843813,-459.657299,1480.411884,9326.594869
996.844129,306.438199,148.041188,9326.594869
996.844444,1455.581446,-1258.350101,8142.265362
