#time,accel_x,accel_y,accel_z
728.928716,459.657299,-148.041188,9474.636058
728.929032,459.657299,-74.020594,9474.636058
728.929348,612.876398,-222.061783,9548.656652
728.929664,612.876398,-148.041188,9548.656652
728.929979,459.657299,-0.000000,9474.636058
728.930295,306.438199,-74.020594,9400.615463
728.930611,229.828649,-0.000000,9474.636058
728.930927,689.485948,-370.102971,9474.636058
728.931242,612.876398,-444.123565,9474.636058
728.931558,76.609550,-370.102971,9474.636058
728.931874,383.047749,-222.061783,9326.594869
728.932190,459.657299,-296.082377,9400.615463
728.932506,306.438199,-74.020594,9696.697840
728.932821,383.047749,-370.102971,9474.636058
728.933137,383.047749,-148.041188,9474.636058
728.933453,229.828649,-0.000000,9474.636058
728.933769,766.095498,222.061783,9474.636058
728.934085,689.485948,444.123565,9178.553681
728.934400,383.047749,-0.000000,9252.574275
728.934716,306.438199,148.041188,9400.615463
728.935032,229.828649,-0.000000,9474.636058
728.935348,459.657299,-0.000000,9400.615463
728.935663,153.219100,-148.041188,9474.636058
728.935979,153.219100,-148.041188,9770.718434
728.936295,0.000000,-222.061783,9770.718434
728.936611,153.219100,-222.061783,9696.697840
728.936927,536.266849,-0.000000,9770.718434
728.937242,536.266849,444.123565,9474.636058
728.937558,383.047749,666.185348,9104.533087
728.937874,459.657299,888.247130,9252.574275
728.938190,766.095498,740.205942,9400.615463
728.938505,383.047749,666.185348,9400.615463
728.938821,689.485948,666.185348,9030.512492
728.939137,766.095498,814.226536,9474.636058
728.939453,536.266849,370.102971,9474.636058
728.939769,689.485948,296.082377,9696.697840
728.940084,536.266849,222.061783,9548.656652
728.940400,919.314598,666.185348,9474.636058
728.940716,842.705048,740.205942,9474.636058
728.941032,1149.143247,740.205942,9770.718434
728.941347,1225.752797,1184.329507,9622.677246
728.941663,1455.581446,1332.370696,9400.615463
728.941979,1685.410096,1628.453072,9178.553681
728.942295,1991.848295,1480.411884,9178.553681
728.942611,2145.067394,1554.432478,9178.553681
728.942926,2528.115143,1850.514855,9030.512492
728.943242,2451.505594,1776.494261,9252.574275
728.943558,2298.286494,1554.432478,9252.574275
728.943874,2604.724693,1776.494261,9474.636058
728.944189,2374.896044,1776.494261,9400.615463
728.944505,2604.724693,1628.453072,9400.615463
728.944821,2528.115143,2072.576638,9622.677246
728.945137,2681.334243,2072.576638,9548.656652
728.945453,2757.943793,2146.597232,9474.636058
728.945768,2757.943793,2368.659014,9474.636058
728.946084,3370.820191,2368.659014,9326.594869
728.946400,3140.991542,2294.638420,9326.594869
728.946716,3140.991542,2590.720797,9326.594869
728.947031,3524.039291,2516.700203,9400.615463
728.947347,3217.601092,2442.679609,9548.656652
728.947663,3370.820191,2590.720797,9474.636058
728.947979,3217.601092,2812.782580,9696.697840
728.948295,3217.601092,2664.741391,9844.739029
728.948610,3524.039291,2368.659014,10140.821405
728.948926,2757.943793,2516.700203,9770.718434
728.949242,2911.162892,2368.659014,9770.718434
728.949558,2604.724693,2294.638420,9844.739029
728.949873,2681.334243,2072.576638,9992.780217
728.950189,2604.724693,2146.597232,10066.800811
728.950505,2604.724693,2072.576638,10214.842000
728.950821,2528.115143,2368.659014,10066.800811
728.951137,2451.505594,2442.679609,9770.718434
728.951452,2911.162892,2368.659014,9918.759623
728.951768,3064.381992,2146.597232,9844.739029
728.952084,2834.553343,2294.638420,9474.636058
728.952400,2681.334243,2146.597232,9474.636058
728.952715,2681.334243,1850.514855,9474.636058
728.953031,2834.553343,1998.556043,9252.574275
728.953347,2451.505594,1702.473667,9474.636058
728.953663,2145.067394,1850.514855,9252.574275
728.953979,1378.971896,1258.350101,9622.677246
728.954294,1072.533697,814.226536,10066.800811
728.954610,919.314598,444.123565,9918.759623
728.954926,459.657299,-0.000000,10658.965565
728.955242,383.047749,-592.164754,10732.986159
728.955557,536.266849,-740.205942,11029.068536
728.955873,919.314598,-296.082377,10881.027347
728.956189,1685.410096,-0.000000,10066.800811
728.956505,1991.848295,888.247130,9326.594869
728.956821,2834.553343,2072.576638,9178.553681
728.957136,3447.429741,2516.700203,7994.224174
728.957452,3983.696590,2960.823768,7476.080014
728.957768,4213.525239,2960.823768,7105.977043
728.958084,4519.963438,2368.659014,7328.038826
728.958399,4136.915689,2146.597232,7328.038826
728.958715,3447.429741,1554.432478,7920.203579
728.959031,2528.115143,962.267725,8660.409521
728.959347,1532.190996,222.061783,9326.594869
728.959663,919.314598,592.164754,9770.718434
728.959978,0.000000,-0.000000,10140.821405
728.960294,-766.095498,-0.000000,10436.903782
728.960610,-1149.143247,-740.205942,10955.047942
728.960926,-842.705048,-1110.308913,11473.192101
728.961241,-612.876398,-814.226536,11251.130318
728.961557,0.000000,-444.123565,10807.006753
728.961873,1072.533697,296.082377,10288.862594
728.962189,2145.067394,1184.329507,9622.677246
728.962505,3600.648841,2368.659014,8956.491898
728.962820,4826.401637,3256.906145,7698.141797
728.963136,5898.935335,3701.029710,7254.018232
728.963452,6435.202183,4071.132681,6957.935855
728.963768,6894.859482,4441.235652,6735.874072
728.964083,6665.030833,4219.173869,6587.832884
728.964399,6128.763984,4145.153275,7105.977043
728.964715,5056.230287,3330.926739,7698.141797
728.965031,3907.087040,2294.638420,9104.533087
728.965347,2451.505594,962.267725,10214.842000
728.965662,1149.143247,-148.041188,11695.253884
728.965978,-459.657299,-962.267725,12435.459826
728.966294,-1378.971896,-814.226536,13249.686362
728.966610,-1149.143247,-74.020594,13249.686362
728.966925,-229.828649,-0.000000,12805.562797
728.967241,383.047749,1702.473667,11547.212695
728.967557,1302.362347,2812.782580,10214.842000
728.967873,2451.505594,3923.091493,8882.471304
728.968189,4366.744339,4441.235652,7624.121203
728.968504,5669.106685,4589.276840,7105.977043
728.968820,6281.983084,4145.153275,6957.935855
728.969136,6511.811733,3552.988522,7476.080014
728.969452,6128.763984,2886.803174,7994.224174
728.969767,5286.058936,2664.741391,8512.368333
728.970083,4443.353888,2146.597232,10066.800811
728.970399,3524.039291,1998.556043,11325.150913
728.970715,2374.896044,1554.432478,11843.295072
728.971031,1532.190996,2146.597232,11473.192101
728.971346,919.314598,2146.597232,10658.965565
728.971662,766.095498,2886.803174,10881.027347
728.971978,1915.238745,2590.720797,10510.924376
728.972294,1455.581446,2368.659014,9770.718434
728.972609,1685.410096,2220.617826,9474.636058
728.972925,1685.410096,1924.535449,9030.512492
728.973241,2298.286494,1554.432478,9178.553681
728.973557,2834.553343,2072.576638,8808.450710
728.973873,2451.505594,2812.782580,8290.306550
728.974188,2221.676944,2368.659014,9030.512492
728.974504,1149.143247,2072.576638,9622.677246
728.974820,1302.362347,1258.350101,9992.780217
728.975136,1762.019645,888.247130,9696.697840
728.975451,1455.581446,518.144159,10436.903782
728.975767,1149.143247,740.205942,10807.006753
728.976083,842.705048,666.185348,11251.130318
728.976399,1608.800546,1110.308913,10881.027347
728.976715,2298.286494,2664.741391,9696.697840
728.977030,2298.286494,3478.967927,8660.409521
728.977346,2451.505594,3478.967927,7698.141797
728.977662,3830.477490,2738.761985,7105.977043
728.977978,4136.915689,2516.700203,6957.935855
728.978293,3983.696590,2220.617826,7105.977043
728.978609,3294.210641,1258.350101,7920.203579
728.978925,2528.115143,-444.123565,9104.533087
728.979241,1608.800546,-1110.308913,10510.924376
728.979557,459.657299,-592.164754,11325.150913
728.979872,-536.266849,-0.000000,11917.315666
728.980188,0.000000,222.061783,11399.171507
728.980504,766.095498,-0.000000,10584.944971
728.980820,1149.143247,888.247130,10066.800811
728.981135,1608.800546,1184.329507,9844.739029
728.981451,2374.896044,518.144159,9770.718434
728.981767,3983.696590,222.061783,9696.697840
728.982083,4366.744339,962.267725,8216.285956
728.982399,4519.963438,2146.597232,7550.100608
728.982714,5132.839837,1332.370696,7994.224174
728.983030,5362.668486,962.267725,8290.306550
728.983346,4903.011187,962.267725,7772.162391
728.983662,4519.963438,1184.329507,7846.182985
728.983977,4060.306139,814.226536,9474.636058
728.984293,3370.820191,1110.308913,9326.594869
728.984609,2221.676944,2368.659014,8734.430116
728.984925,1685.410096,2146.597232,9178.553681
728.985241,1302.362347,592.164754,10362.883188
728.985556,-383.047749,-444.123565,11029.068536
728.985872,-1149.143247,-1850.514855,11177.109724
728.986188,-1302.362347,-2516.700203,11695.253884
728.986504,-1149.143247,-2664.741391,11695.253884
728.986820,-842.705048,-1406.391290,11251.130318
728.987136,0.000000,-444.123565,10510.924376
728.987452,842.705048,444.123565,9696.697840
728.987768,995.924147,1036.288319,8586.388927
728.988083,2145.067394,1480.411884,8512.368333
728.988399,2451.505594,1110.308913,8808.450710
728.988715,2374.896044,1110.308913,8512.368333
728.989031,2298.286494,1998.556043,8068.244768
728.989347,2451.505594,1332.370696,8216.285956
728.989663,2528.115143,592.164754,9474.636058
728.989979,1532.190996,296.082377,9178.553681
728.990295,612.876398,370.102971,9474.636058
728.990611,459.657299,-148.041188,10066.800811
728.990927,153.219100,-0.000000,9992.780217
728.991243,-689.485948,666.185348,10584.944971
728.991559,0.000000,-444.123565,11029.068536
728.991874,-459.657299,-1110.308913,10807.006753
728.992190,-153.219100,-962.267725,9400.615463
728.992506,-766.095498,-962.267725,9474.636058
728.992822,-383.047749,-1332.370696,9770.718434
728.993138,-536.266849,-296.082377,9770.718434
728.993454,-1072.533697,814.226536,8734.430116
728.993770,0.000000,666.185348,9104.533087
728.994086,842.705048,-0.000000,9326.594869
728.994402,383.047749,666.185348,8512.368333
728.994718,-229.828649,148.041188,8808.450710
728.995034,306.438199,-1110.308913,9844.739029
728.995350,459.657299,296.082377,9400.615463
728.995666,229.828649,1036.288319,9030.512492
728.995981,1072.533697,740.205942,9918.759623
728.996297,919.314598,1110.308913,9030.512492
728.996613,0.000000,1554.432478,8364.327145
728.996929,76.609550,1110.308913,8808.450710
728.997245,-229.828649,444.123565,9326.594869
728.997561,-919.314598,1036.288319,8808.450710
728.997877,-1225.752797,888.247130,8882.471304
728.998193,-1072.533697,-740.205942,9252.574275
728.998509,-1378.971896,-518.144159,9622.677246
728.998825,-2068.457845,-1258.350101,9770.718434
728.999141,-1991.848295,-2220.617826,11029.068536
728.999457,-2221.676944,-2220.617826,11399.171507
728.999772,-2298.286494,-814.226536,11103.089130
729.000088,-1149.143247,-0.000000,10436.903782
729.000404,76.609550,148.041188,9252.574275
729.000720,1378.971896,2072.576638,8586.388927
729.001036,1838.629195,1702.473667,7772.162391
729.001352,2757.943793,1258.350101,8142.265362
729.001668,2834.553343,1776.494261,7550.100608
729.001984,2604.724693,1924.535449,7328.038826
729.002300,2834.553343,666.185348,7624.121203
729.002616,2528.115143,-222.061783,9030.512492
729.002932,1455.581446,-0.000000,9844.739029
729.003248,383.047749,-1184.329507,10066.800811
729.003563,0.000000,-1628.453072,11473.192101
729.003879,0.000000,-666.185348,11547.212695
729.004195,-689.485948,222.061783,10955.047942
729.004511,459.657299,-148.041188,10881.027347
729.004827,1302.362347,-0.000000,10436.903782
729.005143,1072.533697,814.226536,9696.697840
729.005459,1762.019645,592.164754,9252.574275
729.005775,2451.505594,592.164754,8438.347739
729.006091,2145.067394,1480.411884,8068.244768
729.006407,2528.115143,1258.350101,8216.285956
729.006723,3064.381992,222.061783,8216.285956
729.007039,1991.848295,-0.000000,9104.533087
729.007355,1149.143247,-592.164754,9474.636058
729.007670,1072.533697,-1628.453072,10214.842000
729.007986,459.657299,-1406.391290,10584.944971
729.008302,-306.438199,-444.123565,10436.903782
729.008618,-612.876398,-740.205942,10658.965565
729.008934,-153.219100,-1406.391290,10881.027347
729.009250,-842.705048,-222.061783,10288.862594
729.009566,-459.657299,-296.082377,9844.739029
729.009882,-306.438199,-666.185348,8956.491898
729.010198,383.047749,518.144159,9104.533087
729.010514,306.438199,-296.082377,8068.244768
729.010830,1532.190996,-444.123565,8512.368333
729.011146,1302.362347,-592.164754,8438.347739
729.011461,612.876398,-1406.391290,8882.471304
729.011777,153.219100,-1998.556043,9696.697840
729.012093,0.000000,-1998.556043,10214.842000
729.012409,-229.828649,-370.102971,9770.718434
729.012725,-1149.143247,-518.144159,9548.656652
729.013041,-766.095498,-1332.370696,10066.800811
729.013357,-612.876398,-888.247130,10288.862594
729.013673,-1149.143247,-592.164754,9252.574275
729.013989,-229.828649,-666.185348,10066.800811
729.014305,-76.609550,-148.041188,9030.512492
729.014621,-153.219100,370.102971,7994.224174
729.014937,842.705048,296.082377,8068.244768
729.015253,1608.800546,-962.267725,8438.347739
729.015568,612.876398,-814.226536,8216.285956
729.015884,229.828649,-1628.453072,9178.553681
729.016200,229.828649,-2516.700203,10066.800811
729.016516,-612.876398,-1406.391290,10214.842000
729.016832,-919.314598,-962.267725,9844.739029
729.017148,-689.485948,-1110.308913,9918.759623
729.017464,-612.876398,-592.164754,9918.759623
729.017780,-766.095498,148.041188,9400.615463
729.018096,-612.876398,-74.020594,9178.553681
729.018412,0.000000,-370.102971,9400.615463
729.018728,76.609550,444.123565,8364.327145
729.019044,459.657299,-0.000000,7772.162391
729.019359,1685.410096,-888.247130,8734.430116
729.019675,1455.581446,-814.226536,8660.409521
729.019991,536.266849,-518.144159,8956.491898
729.020307,612.876398,-1332.370696,9548.656652
729.020623,612.876398,-592.164754,9844.739029
729.020939,0.000000,518.144159,9992.780217
729.021255,383.047749,666.185348,9918.759623
729.021571,689.485948,296.082377,9844.739029
729.021887,459.657299,592.164754,9918.759623
729.022203,306.438199,740.205942,9548.656652
729.022519,536.266849,370.102971,9918.759623
729.022835,229.828649,1184.329507,9474.636058
729.023150,306.438199,2146.597232,9252.574275
729.023466,1378.971896,1184.329507,8956.491898
729.023782,1915.238745,1258.350101,8956.491898
729.024098,1302.362347,962.267725,9326.594869
729.024414,1991.848295,-0.000000,9844.739029
729.024730,1762.019645,-444.123565,10066.800811
729.025046,995.924147,370.102971,10140.821405
729.025362,1225.752797,1332.370696,9918.759623
729.025678,1608.800546,592.164754,9992.780217
729.025994,995.924147,888.247130,10288.862594
729.026310,459.657299,1258.350101,10288.862594
729.026626,229.828649,444.123565,10214.842000
729.026942,0.000000,1036.288319,9548.656652
729.027257,229.828649,1850.514855,9696.697840
729.027573,612.876398,1184.329507,9696.697840
729.027889,995.924147,592.164754,9770.718434
729.028205,766.095498,444.123565,9548.656652
729.028521,229.828649,-370.102971,9844.739029
729.028837,1149.143247,-1480.411884,10362.883188
729.029153,536.266849,-592.164754,10436.903782
729.029469,153.219100,-222.061783,10510.924376
729.029785,766.095498,-518.144159,10362.883188
729.030101,842.705048,-370.102971,9992.780217
729.030417,229.828649,296.082377,9844.739029
729.030733,536.266849,-296.082377,9696.697840
729.031048,919.314598,-0.000000,9178.553681
729.031364,536.266849,1184.329507,8438.347739
729.031680,766.095498,888.247130,8216.285956
729.031996,919.314598,-444.123565,9030.512492
729.032312,766.095498,-1036.288319,9326.594869
729.032628,0.000000,-1110.308913,8734.430116
729.032944,76.609550,-2220.617826,9918.759623
729.033260,76.609550,-1776.494261,11251.130318
729.033576,-536.266849,-666.185348,9696.697840
729.033892,-383.047749,-666.185348,9400.615463
729.034208,306.438199,-888.247130,9992.780217
729.034524,306.438199,-518.144159,9548.656652
729.034840,153.219100,-0.000000,7846.182985
729.035155,459.657299,-74.020594,8882.471304
729.035471,0.000000,-296.082377,8438.347739
729.035787,0.000000,518.144159,7550.100608
729.036103,536.266849,-444.123565,8142.265362
729.036419,612.876398,-1554.432478,8586.388927
729.036735,76.609550,-1628.453072,9030.512492
729.037051,-689.485948,-2294.638420,9474.636058
729.037367,-612.876398,-2664.741391,10288.862594
729.037683,-919.314598,-1406.391290,10436.903782
729.037999,-1149.143247,-740.205942,9252.574275
729.038315,-383.047749,-1480.411884,10066.800811
729.038631,0.000000,-1110.308913,10510.924376
729.038946,-459.657299,-222.061783,8734.430116
729.039262,0.000000,-444.123565,8956.491898
729.039578,153.219100,-518.144159,8808.450710
729.039894,459.657299,814.226536,8142.265362
729.040210,1149.143247,962.267725,7846.182985
729.040526,1608.800546,-370.102971,8142.265362
729.040842,842.705048,-518.144159,9400.615463
729.041158,229.828649,-1850.514855,9844.739029
729.041474,766.095498,-2442.679609,10066.800811
729.041790,306.438199,-1850.514855,11251.130318
729.042106,383.047749,-444.123565,10510.924376
729.042422,76.609550,-740.205942,10214.842000
729.042738,536.266849,-444.123565,10584.944971
729.043053,229.828649,370.102971,10066.800811
729.043369,383.047749,370.102971,9178.553681
729.043685,766.095498,444.123565,9178.553681
729.044001,919.314598,1036.288319,8734.430116
729.044317,1455.581446,1258.350101,8142.265362
729.044633,2298.286494,296.082377,8734.430116
729.044949,1532.190996,370.102971,8956.491898
729.045265,919.314598,-0.000000,9696.697840
729.045581,1302.362347,-814.226536,9696.697840
729.045897,1225.752797,-1628.453072,10955.047942
729.046213,0.000000,-592.164754,11473.192101
729.046529,0.000000,-74.020594,11103.089130
729.046844,995.924147,-74.020594,10807.006753
729.047160,536.266849,888.247130,10436.903782
729.047476,383.047749,1406.391290,9474.636058
729.047792,1149.143247,1184.329507,9178.553681
729.048108,1225.752797,1998.556043,8734.430116
729.048424,766.095498,2294.638420,7772.162391
729.048740,1608.800546,962.267725,8142.265362
729.049056,1762.019645,-814.226536,9178.553681
729.049372,536.266849,-518.144159,9696.697840
729.049688,459.657299,-444.123565,9548.656652
729.050004,76.609550,-1036.288319,10288.862594
729.050320,0.000000,-518.144159,10658.965565
729.050635,-995.924147,296.082377,10362.883188
729.050951,0.000000,-222.061783,10436.903782
729.051267,-153.219100,-370.102971,10214.842000
729.051583,-536.266849,518.144159,9548.656652
729.051899,0.000000,-0.000000,9252.574275
729.052215,766.095498,814.226536,9030.512492
729.052531,459.657299,1850.514855,8142.265362
729.052847,1072.533697,1258.350101,7994.224174
729.053163,1608.800546,-148.041188,8290.306550
729.053479,1225.752797,-0.000000,8660.409521
729.053795,612.876398,-0.000000,8734.430116
729.054111,842.705048,-1258.350101,9918.759623
729.054427,306.438199,-1184.329507,10288.862594
729.054742,-229.828649,222.061783,10214.842000
729.055058,0.000000,-592.164754,9770.718434
729.055374,0.000000,-1184.329507,10066.800811
729.055690,-459.657299,-0.000000,10288.862594
729.056006,-153.219100,-592.164754,9918.759623
729.056322,0.000000,296.082377,10140.821405
729.056638,0.000000,1110.308913,9030.512492
729.056954,229.828649,1480.411884,7994.224174
729.057270,1149.143247,-0.000000,8438.347739
729.057586,1378.971896,-962.267725,8808.450710
729.057902,919.314598,-518.144159,8364.327145
729.058218,536.266849,-1924.535449,9548.656652
729.058533,229.828649,-2516.700203,10732.986159
729.058849,0.000000,-666.185348,9548.656652
729.059165,-536.266849,-74.020594,9770.718434
729.059481,229.828649,-1480.411884,10436.903782
729.059797,-229.828649,-888.247130,10288.862594
729.060113,-842.705048,-148.041188,9400.615463
729.060429,-459.657299,-740.205942,9696.697840
729.060745,-229.828649,-518.144159,9104.533087
729.061061,153.219100,740.205942,8808.450710
729.061377,459.657299,-0.000000,8364.327145
729.061693,1225.752797,-962.267725,8660.409521
729.062009,459.657299,-444.123565,9178.553681
729.062325,612.876398,-1406.391290,9400.615463
729.062640,306.438199,-2368.659014,9548.656652
729.062956,-383.047749,-1554.432478,10214.842000
729.063272,-459.657299,-444.123565,10066.800811
729.063588,306.438199,-814.226536,10140.821405
729.063904,153.219100,-962.267725,10881.027347
729.064220,0.000000,592.164754,9474.636058
729.064536,0.000000,296.082377,9252.574275
729.064852,842.705048,296.082377,9474.636058
729.065168,919.314598,1480.411884,8290.306550
729.065484,1532.190996,1554.432478,8068.244768
729.065800,2145.067394,-0.000000,8660.409521
729.066116,1762.019645,-370.102971,9252.574275
729.066431,995.924147,-74.020594,8882.471304
729.066747,1302.362347,-1258.350101,9548.656652
729.067063,1302.362347,-1110.308913,9770.718434
729.067379,459.657299,296.082377,10214.842000
729.067695,689.485948,-0.000000,10658.965565
729.068011,919.314598,-1110.308913,10436.903782
729.068327,536.266849,-370.102971,10140.821405
729.068643,229.828649,-0.000000,9696.697840
729.068959,766.095498,-222.061783,9548.656652
729.069275,842.705048,740.205942,9326.594869
729.069591,536.266849,1554.432478,8364.327145
729.069907,1532.190996,740.205942,8586.388927
729.070222,2145.067394,-296.082377,9326.594869
729.070538,995.924147,222.061783,8882.471304
729.070854,1302.362347,-222.061783,8882.471304
729.071170,1378.971896,-1406.391290,10214.842000
729.071486,842.705048,-370.102971,9992.780217
729.071802,383.047749,74.020594,10140.821405
729.072118,612.876398,-518.144159,10436.903782
729.072434,459.657299,-0.000000,10066.800811
729.072750,153.219100,962.267725,9326.594869
729.073066,536.266849,1110.308913,9326.594869
729.073382,612.876398,1036.288319,9474.636058
729.073698,383.047749,1554.432478,8882.471304
729.074014,919.314598,1110.308913,8216.285956
729.074329,995.924147,-222.061783,9474.636058
729.074645,766.095498,-666.185348,10214.842000
729.074961,0.000000,-222.061783,9326.594869
729.075277,306.438199,-888.247130,9770.718434
729.075593,383.047749,-0.000000,10214.842000
729.075909,0.000000,592.164754,9622.677246
729.076225,306.438199,296.082377,10214.842000
729.076541,919.314598,-0.000000,10214.842000
729.076857,383.047749,740.205942,9622.677246
729.077173,0.000000,814.226536,9178.553681
729.077489,0.000000,444.123565,9622.677246
729.077805,229.828649,888.247130,8808.450710
729.078120,0.000000,1406.391290,8290.306550
729.078436,459.657299,-74.020594,9178.553681
729.078752,383.047749,-740.205942,9622.677246
729.079068,0.000000,-444.123565,9400.615463
729.079384,-306.438199,-1258.350101,9844.739029
729.079700,0.000000,-1332.370696,10510.924376
729.080016,-536.266849,-592.164754,10214.842000
729.080332,-229.828649,-592.164754,9622.677246
729.080648,229.828649,-1406.391290,10214.842000
729.080964,-153.219100,-1110.308913,10140.821405
729.081280,-383.047749,-740.205942,9696.697840
729.081596,153.219100,-444.123565,9548.656652
729.081912,0.000000,-0.000000,9030.512492
729.082227,153.219100,666.185348,8660.409521
729.082543,383.047749,-444.123565,8808.450710
729.082859,919.314598,-1184.329507,9326.594869
729.083175,229.828649,-888.247130,9696.697840
729.083491,0.000000,-1406.391290,9326.594869
729.083807,0.000000,-2146.597232,10140.821405
729.084123,-229.828649,-592.164754,10288.862594
729.084439,0.000000,-222.061783,9548.656652
729.084755,536.266849,-1110.308913,9844.739029
729.085071,383.047749,-814.226536,9548.656652
729.085387,459.657299,-1036.288319,9252.574275
729.085703,766.095498,-1036.288319,9474.636058
729.086018,995.924147,-444.123565,9178.553681
729.086334,766.095498,888.247130,8438.347739
729.086650,842.705048,296.082377,8586.388927
729.086966,1455.581446,-444.123565,8882.471304
729.087282,919.314598,-0.000000,8956.491898
729.087598,306.438199,-0.000000,8512.368333
729.087914,459.657299,-1406.391290,9770.718434
729.088230,459.657299,-1406.391290,10288.862594
729.088546,0.000000,-444.123565,9548.656652
729.088862,383.047749,-666.185348,9770.718434
729.089177,1072.533697,-1036.288319,9770.718434
729.089493,536.266849,-74.020594,9548.656652
729.089809,612.876398,-0.000000,9474.636058
729.090125,1072.533697,148.041188,9326.594869
729.090441,766.095498,1480.411884,8438.347739
729.090757,995.924147,1850.514855,8068.244768
729.091073,1685.410096,-222.061783,8882.471304
729.091388,1762.019645,-518.144159,9178.553681
729.091704,842.705048,-148.041188,8882.471304
729.092020,536.266849,-1480.411884,10066.800811
729.092336,842.705048,-1850.514855,10436.903782
729.092652,306.438199,-296.082377,10140.821405
729.092968,76.609550,222.061783,10066.800811
729.093284,76.609550,-518.144159,10658.965565
729.093600,229.828649,370.102971,10066.800811
729.093915,306.438199,666.185348,8956.491898
729.094231,842.705048,-148.041188,9548.656652
729.094547,919.314598,-0.000000,9252.574275
729.094863,536.266849,1258.350101,8068.244768
729.095179,1072.533697,518.144159,8290.306550
729.095495,1838.629195,-518.144159,9400.615463
729.095811,1225.752797,-0.000000,8808.450710
729.096127,536.266849,-222.061783,9104.533087
729.096442,306.438199,-1628.453072,10214.842000
729.096758,-229.828649,-666.185348,10510.924376
729.097074,-536.266849,518.144159,10140.821405
729.097390,229.828649,-148.041188,10288.862594
729.097706,153.219100,-0.000000,9770.718434
729.098022,-306.438199,962.267725,9622.677246
729.098338,-153.219100,592.164754,8956.491898
729.098654,0.000000,-0.000000,9844.739029
729.098969,-153.219100,1036.288319,9548.656652
729.099285,-383.047749,1110.308913,9104.533087
729.099601,612.876398,-296.082377,9178.553681
729.099917,0.000000,-222.061783,9474.636058
729.100233,-842.705048,-518.144159,9622.677246
729.100549,-459.657299,-1036.288319,11103.089130
729.100865,-383.047749,-666.185348,10510.924376
729.101181,-766.095498,370.102971,9696.697840
729.101496,-919.314598,-0.000000,9474.636058
729.101812,306.438199,-1184.329507,10584.944971
729.102128,76.609550,-740.205942,10732.986159
729.102444,-229.828649,222.061783,9474.636058
729.102760,-153.219100,-740.205942,9696.697840
729.103076,229.828649,518.144159,9400.615463
729.103392,153.219100,1406.391290,8512.368333
729.103708,1225.752797,-0.000000,7920.203579
729.104023,1455.581446,-518.144159,8660.409521
729.104339,459.657299,-518.144159,9252.574275
729.104655,995.924147,-1702.473667,9622.677246
729.104971,842.705048,-2442.679609,10214.842000
729.105287,459.657299,-888.247130,9696.697840
729.105603,0.000000,-444.123565,10140.821405
729.105919,1225.752797,-888.247130,10066.800811
729.106235,919.314598,148.041188,9252.574275
729.106550,306.438199,888.247130,8808.450710
729.106866,1225.752797,-148.041188,9252.574275
729.107182,1149.143247,-148.041188,8882.471304
729.107498,1149.143247,962.267725,8216.285956
729.107814,1762.019645,370.102971,7772.162391
729.108130,2145.067394,-444.123565,8734.430116
729.108446,1455.581446,-0.000000,9178.553681
729.108762,995.924147,-0.000000,9030.512492
729.109077,1302.362347,-1184.329507,9622.677246
729.109393,842.705048,-370.102971,10214.842000
729.109709,383.047749,74.020594,9696.697840
729.110025,766.095498,-222.061783,9770.718434
729.110341,1072.533697,-444.123565,10066.800811
729.110657,383.047749,518.144159,9400.615463
729.110973,229.828649,962.267725,9030.512492
729.111289,842.705048,-0.000000,9696.697840
729.111604,536.266849,1110.308913,8512.368333
729.111920,842.705048,1332.370696,8364.327145
729.112236,1225.752797,-444.123565,9252.574275
729.112552,919.314598,-1036.288319,9548.656652
729.112868,0.000000,-592.164754,9844.739029
729.113184,536.266849,-1406.391290,10140.821405
729.113500,536.266849,-1036.288319,10288.862594
729.113816,76.609550,666.185348,10066.800811
729.114131,76.609550,444.123565,9548.656652
729.114447,842.705048,-814.226536,10214.842000
729.114763,383.047749,-296.082377,10140.821405
729.115079,76.609550,222.061783,9178.553681
729.115395,536.266849,-296.082377,9844.739029
729.115711,306.438199,444.123565,9326.594869
729.116027,229.828649,1480.411884,8364.327145
729.116343,689.485948,740.205942,8142.265362
729.116658,919.314598,-370.102971,9696.697840
729.116974,0.000000,-962.267725,9696.697840
729.117290,-153.219100,-1924.535449,10140.821405
729.117606,0.000000,-2516.700203,11177.109724
729.117922,-383.047749,-1110.308913,10955.047942
729.118238,-459.657299,296.082377,9992.780217
729.118554,0.000000,-74.020594,9770.718434
729.118869,153.219100,-0.000000,10140.821405
729.119185,0.000000,666.185348,8808.450710
729.119501,-229.828649,-222.061783,9474.636058
729.119817,76.609550,-296.082377,9474.636058
729.120133,229.828649,1332.370696,8734.430116
729.120449,383.047749,740.205942,7772.162391
729.120765,459.657299,-666.185348,9178.553681
729.121081,383.047749,-1258.350101,9548.656652
729.121396,0.000000,-888.247130,9400.615463
729.121712,0.000000,-1554.432478,9844.739029
729.122028,0.000000,-1480.411884,10288.862594
729.122344,-689.485948,-148.041188,10140.821405
729.122660,-153.219100,-370.102971,9696.697840
729.122976,459.657299,-962.267725,9696.697840
729.123292,-459.657299,-0.000000,9326.594869
729.123608,-689.485948,-74.020594,9104.533087
729.123923,459.657299,-518.144159,8956.491898
729.124239,306.438199,666.185348,8586.388927
729.124555,459.657299,814.226536,7772.162391
729.124871,1378.971896,-518.144159,8364.327145
729.125187,2068.457845,-1332.370696,9326.594869
729.125503,612.876398,-740.205942,8882.471304
729.125819,229.828649,-1702.473667,9400.615463
729.126135,612.876398,-1924.535449,10362.883188
729.126450,0.000000,-666.185348,9992.780217
729.126766,76.609550,-222.061783,9844.739029
729.127082,995.924147,-518.144159,9844.739029
729.127398,995.924147,-74.020594,9474.636058
729.127714,153.219100,222.061783,9252.574275
729.128030,1225.752797,-148.041188,9178.553681
729.128346,1149.143247,592.164754,8586.388927
729.128662,1072.533697,1702.473667,8512.368333
729.128977,1915.238745,518.144159,8290.306550
729.129293,2451.505594,-74.020594,8882.471304
729.129609,1532.190996,-74.020594,9030.512492
729.129925,229.828649,-962.267725,9474.636058
729.130241,1302.362347,-814.226536,10066.800811
729.130557,766.095498,-0.000000,9770.718434
729.130873,229.828649,740.205942,9696.697840
729.131189,842.705048,-370.102971,10288.862594
729.131504,919.314598,370.102971,10510.924376
729.131820,229.828649,1258.350101,9548.656652
729.132136,229.828649,814.226536,9548.656652
729.132452,842.705048,962.267725,9548.656652
729.132768,383.047749,1850.514855,8290.306550
729.133084,459.657299,1184.329507,8734.430116
729.133400,1378.971896,-296.082377,9918.759623
729.133716,1149.143247,-74.020594,9844.739029
729.134031,153.219100,-0.000000,9400.615463
729.134347,229.828649,-1036.288319,10288.862594
729.134663,153.219100,-1110.308913,11473.192101
729.134979,-536.266849,444.123565,10584.944971
729.135295,-306.438199,370.102971,10362.883188
729.135611,0.000000,370.102971,10362.883188
729.135927,-383.047749,1184.329507,9844.739029
729.136243,0.000000,740.205942,9178.553681
729.136558,689.485948,370.102971,9104.533087
729.136874,459.657299,888.247130,9474.636058
729.137190,76.609550,888.247130,8586.388927
729.137506,1302.362347,-518.144159,9252.574275
729.137822,995.924147,-962.267725,9326.594869
729.138138,306.438199,-296.082377,9474.636058
729.138454,306.438199,-1258.350101,9918.759623
729.138770,306.438199,-1628.453072,10510.924376
729.139085,-153.219100,-148.041188,9844.739029
729.139401,-536.266849,-0.000000,9844.739029
729.139717,153.219100,-666.185348,9844.739029
729.140033,0.000000,-814.226536,10066.800811
729.140349,-306.438199,-148.041188,9104.533087
729.140665,153.219100,-0.000000,9326.594869
729.140981,306.438199,-0.000000,8956.491898
729.141297,536.266849,1554.432478,8216.285956
729.141612,1149.143247,740.205942,8068.244768
729.141928,1455.581446,-592.164754,8216.285956
729.142244,1149.143247,-740.205942,9030.512492
729.142560,229.828649,-1332.370696,8808.450710
729.142876,383.047749,-2442.679609,10214.842000
729.143192,0.000000,-2146.597232,10436.903782
729.143508,-612.876398,-814.226536,10140.821405
729.143824,-229.828649,-740.205942,10066.800811
729.144139,-229.828649,-740.205942,9696.697840
729.144455,-229.828649,222.061783,9474.636058
729.144771,0.000000,-0.000000,9252.574275
729.145087,306.438199,-444.123565,9400.615463
729.145403,0.000000,-148.041188,8438.347739
729.145719,306.438199,-74.020594,8216.285956
729.146035,1532.190996,-1776.494261,9104.533087
729.146350,1072.533697,-1850.514855,9400.615463
729.146666,76.609550,-666.185348,8364.327145
729.146982,229.828649,-2072.576638,9252.574275
729.147298,153.219100,-2368.659014,10214.842000
729.147614,0.000000,-1184.329507,9992.780217
729.147930,76.609550,-962.267725,9548.656652
729.148246,842.705048,-1184.329507,9918.759623
729.148562,306.438199,-74.020594,9400.615463
729.148877,383.047749,296.082377,9252.574275
729.149193,689.485948,-0.000000,9252.574275
729.149509,919.314598,962.267725,8882.471304
729.149825,536.266849,1554.432478,8290.306550
729.150141,1225.752797,370.102971,8142.265362
729.150457,1532.190996,-666.185348,9104.533087
729.150773,766.095498,-296.082377,9400.615463
729.151089,919.314598,-1036.288319,9622.677246
729.151404,1149.143247,-1184.329507,10214.842000
729.151720,306.438199,-0.000000,10066.800811
729.152036,-229.828649,1110.308913,9622.677246
729.152352,612.876398,-74.020594,10288.862594
729.152668,536.266849,592.164754,10584.944971
729.152984,76.609550,1036.288319,9918.759623
729.153300,229.828649,962.267725,9474.636058
729.153616,995.924147,814.226536,9474.636058
729.153931,459.657299,1554.432478,9104.533087
729.154247,689.485948,1406.391290,9104.533087
729.154563,1838.629195,370.102971,8586.388927
729.154879,842.705048,296.082377,9474.636058
729.155195,459.657299,-0.000000,9844.739029
729.155511,995.924147,-1554.432478,10288.862594
729.155827,689.485948,-1406.391290,10584.944971
729.156143,-459.657299,370.102971,10362.883188
729.156458,229.828649,-370.102971,10955.047942
729.156774,766.095498,-74.020594,10066.800811
729.157090,0.000000,1036.288319,9992.780217
729.157406,153.219100,888.247130,9326.594869
729.157722,766.095498,148.041188,9992.780217
729.158038,229.828649,1258.350101,8660.409521
729.158354,229.828649,1184.329507,8734.430116
729.158670,689.485948,-222.061783,9178.553681
729.158985,1149.143247,-1406.391290,9622.677246
729.159301,0.000000,-296.082377,9622.677246
729.159617,459.657299,-1184.329507,9622.677246
729.159933,0.000000,-1628.453072,10066.800811
729.160249,-459.657299,-592.164754,10066.800811
729.160565,0.000000,-592.164754,10140.821405
729.160881,459.657299,-518.144159,10214.842000
729.161197,76.609550,-222.061783,9548.656652
729.161512,-459.657299,296.082377,9104.533087
729.161828,306.438199,-0.000000,9548.656652
729.162144,306.438199,666.185348,8586.388927
729.162460,76.609550,1332.370696,8216.285956
729.162776,995.924147,-0.000000,8438.347739
729.163092,1072.533697,-814.226536,8660.409521
729.163408,536.266849,-888.247130,8660.409521
729.163724,229.828649,-1332.370696,9326.594869
729.164039,612.876398,-2220.617826,9548.656652
729.164355,-153.219100,-1406.391290,9696.697840
729.164671,-689.485948,-444.123565,9770.718434
729.164987,306.438199,-1406.391290,10140.821405
729.165303,383.047749,-888.247130,9622.677246
729.165619,-306.438199,-222.061783,9474.636058
729.165935,76.609550,-444.123565,9400.615463
729.166251,612.876398,148.041188,8586.388927
729.166566,-306.438199,962.267725,8068.244768
729.166882,689.485948,444.123565,8290.306550
729.167198,1378.971896,-1184.329507,8216.285956
729.167514,689.485948,-1036.288319,8734.430116
729.167830,76.609550,-1332.370696,9474.636058
729.168146,306.438199,-2368.659014,10140.821405
729.168462,306.438199,-1924.535449,10510.924376
729.168778,-306.438199,-740.205942,9548.656652
729.169093,0.000000,-1110.308913,10288.862594
729.169409,689.485948,-888.247130,9992.780217
729.169725,0.000000,-296.082377,9622.677246
729.170041,0.000000,-0.000000,9548.656652
729.170357,536.266849,-0.000000,9104.533087
729.170673,383.047749,1258.350101,9104.533087
729.170989,536.266849,1776.494261,8290.306550
729.171305,1072.533697,296.082377,8438.347739
729.171620,1455.581446,-518.144159,8882.471304
729.171936,689.485948,-444.123565,9474.636058
729.172252,842.705048,-740.205942,9548.656652
729.172568,919.314598,-888.247130,10288.862594
729.172884,612.876398,296.082377,9844.739029
729.173200,153.219100,592.164754,10140.821405
729.173516,919.314598,-0.000000,10214.842000
729.173831,612.876398,-0.000000,10288.862594
729.174147,153.219100,740.205942,9844.739029
729.174463,842.705048,370.102971,9696.697840
729.174779,995.924147,1184.329507,9252.574275
729.175095,766.095498,1924.535449,8956.491898
729.175411,1149.143247,1184.329507,8956.491898
729.175727,1302.362347,370.102971,9400.615463
729.176043,459.657299,-296.082377,9918.759623
729.176358,459.657299,-296.082377,9770.718434
729.176674,612.876398,-1110.308913,9844.739029
729.176990,383.047749,-148.041188,10362.883188
729.177306,306.438199,148.041188,9992.780217
729.177622,383.047749,-962.267725,10584.944971
729.177938,383.047749,-592.164754,10288.862594
729.178254,-306.438199,370.102971,10362.883188
729.178570,76.609550,-0.000000,9992.780217
729.178885,153.219100,296.082377,9548.656652
729.179201,229.828649,1554.432478,9622.677246
729.179517,536.266849,1480.411884,8734.430116
729.179833,1225.752797,222.061783,8882.471304
729.180149,919.314598,222.061783,9104.533087
729.180465,459.657299,-222.061783,8882.471304
729.180781,0.000000,-1332.370696,9548.656652
729.181097,306.438199,-1184.329507,10436.903782
729.181412,-153.219100,-592.164754,9474.636058
729.181728,-153.219100,-222.061783,10288.862594
729.182044,0.000000,-444.123565,10362.883188
729.182360,0.000000,-222.061783,9696.697840
729.182676,-229.828649,518.144159,9474.636058
729.182992,0.000000,148.041188,8882.471304
729.183308,383.047749,1036.288319,8512.368333
729.183624,459.657299,1554.432478,8142.265362
729.183939,995.924147,-370.102971,8512.368333
729.184255,995.924147,-1036.288319,9178.553681
729.184571,229.828649,-666.185348,9178.553681
729.184887,306.438199,-1406.391290,9252.574275
729.185203,0.000000,-1628.453072,9770.718434
729.185519,-459.657299,-74.020594,9400.615463
729.185835,0.000000,-74.020594,9474.636058
729.186151,383.047749,-1258.350101,9918.759623
729.186466,0.000000,-962.267725,10214.842000
729.186782,-229.828649,-0.000000,9474.636058
729.187098,153.219100,-518.144159,9622.677246
729.187414,306.438199,-592.164754,9400.615463
729.187730,0.000000,740.205942,9104.533087
729.188046,689.485948,-0.000000,8660.409521
729.188362,1072.533697,-814.226536,8882.471304
729.188678,612.876398,-592.164754,9474.636058
729.188993,766.095498,-1258.350101,9104.533087
729.189309,842.705048,-1702.473667,9474.636058
729.189625,612.876398,-1628.453072,9992.780217
729.189941,536.266849,-1036.288319,9622.677246
729.190257,995.924147,-962.267725,9474.636058
729.190573,306.438199,-888.247130,10140.821405
729.190888,0.000000,-148.041188,9844.739029
729.191204,76.609550,-296.082377,9178.553681
729.191520,766.095498,-296.082377,9548.656652
729.191836,306.438199,814.226536,9326.594869
729.192152,842.705048,962.267725,8660.409521
729.192468,1608.800546,-0.000000,8882.471304
729.192783,1302.362347,-592.164754,9104.533087
729.193099,612.876398,-0.000000,9252.574275
729.193415,1072.533697,-592.164754,9992.780217
729.193731,1072.533697,-814.226536,9844.739029
729.194047,383.047749,296.082377,9770.718434
729.194363,76.609550,-148.041188,10510.924376
729.194678,766.095498,-518.144159,10510.924376
729.194994,76.609550,222.061783,9770.718434
729.195310,0.000000,296.082377,9918.759623
729.195626,689.485948,-74.020594,9918.759623
729.195942,0.000000,962.267725,9474.636058
729.196258,306.438199,1628.453072,8956.491898
729.196574,1225.752797,296.082377,8512.368333
729.196889,1072.533697,-0.000000,8956.491898
729.197205,919.314598,-148.041188,9474.636058
729.197521,612.876398,-666.185348,9252.574275
729.197837,459.657299,-1110.308913,10066.800811
729.198153,0.000000,-0.000000,9918.759623
729.198469,-459.657299,-0.000000,9696.697840
729.198784,229.828649,-296.082377,10214.842000
729.199100,153.219100,-592.164754,10214.842000
729.199416,-842.705048,-74.020594,9548.656652
729.199732,-459.657299,-296.082377,10214.842000
729.200048,306.438199,-444.123565,9844.739029
729.200364,0.000000,1036.288319,9178.553681
729.200679,229.828649,962.267725,8808.450710
729.200995,842.705048,-222.061783,8956.491898
729.201311,153.219100,-0.000000,8734.430116
729.201627,0.000000,-518.144159,9474.636058
729.201943,842.705048,-1184.329507,9252.574275
729.202259,153.219100,-814.226536,9918.759623
729.202574,0.000000,-666.185348,9844.739029
729.202890,306.438199,-740.205942,9992.780217
729.203206,459.657299,-1036.288319,10066.800811
729.203522,0.000000,74.020594,9844.739029
729.203838,76.609550,296.082377,9326.594869
729.204154,536.266849,148.041188,9326.594869
729.204470,229.828649,740.205942,9252.574275
729.204785,-229.828649,962.267725,8660.409521
729.205101,1225.752797,-296.082377,9326.594869
729.205417,1225.752797,-222.061783,8512.368333
729.205733,229.828649,-370.102971,9326.594869
729.206049,689.485948,-1924.535449,9992.780217
729.206365,306.438199,-1628.453072,10066.800811
729.206680,153.219100,-518.144159,9548.656652
729.206996,0.000000,-444.123565,9918.759623
729.207312,459.657299,-962.267725,10066.800811
729.207628,536.266849,-370.102971,10288.862594
729.207944,153.219100,74.020594,9252.574275
729.208260,612.876398,148.041188,9326.594869
729.208575,766.095498,740.205942,8956.491898
729.208891,459.657299,1258.350101,8290.306550
729.209207,1072.533697,-0.000000,8882.471304
729.209523,1685.410096,-814.226536,8956.491898
729.209839,689.485948,-222.061783,8586.388927
729.210155,383.047749,-962.267725,9474.636058
729.210470,842.705048,-1480.411884,9918.759623
729.210786,459.657299,-962.267725,9918.759623
729.211102,0.000000,-0.000000,9696.697840
729.211418,229.828649,-1036.288319,10288.862594
729.211734,306.438199,-592.164754,9918.759623
729.212050,-153.219100,-148.041188,9696.697840
729.212366,76.609550,-0.000000,9696.697840
729.212681,459.657299,-444.123565,9548.656652
729.212997,306.438199,962.267725,8956.491898
729.213313,459.657299,962.267725,9104.533087
729.213629,1378.971896,148.041188,8512.368333
729.213945,1302.362347,-0.000000,8882.471304
729.214261,383.047749,-0.000000,9400.615463
729.214576,766.095498,-740.205942,10214.842000
729.214892,1072.533697,-296.082377,10066.800811
729.215208,76.609550,592.164754,9696.697840
729.215524,0.000000,-0.000000,9770.718434
729.215840,612.876398,-1036.288319,10140.821405
729.216156,153.219100,370.102971,10362.883188
729.216471,-153.219100,666.185348,9326.594869
729.216787,153.219100,-0.000000,9770.718434
729.217103,0.000000,740.205942,9400.615463
729.217419,-383.047749,962.267725,8808.450710
729.217735,612.876398,-518.144159,9474.636058
729.218051,842.705048,-888.247130,9400.615463
729.218366,76.609550,-518.144159,9326.594869
729.218682,306.438199,-1110.308913,9918.759623
729.218998,536.266849,-2072.576638,10436.903782
729.219314,306.438199,-222.061783,9918.759623
729.219630,536.266849,296.082377,9030.512492
729.219946,1072.533697,-296.082377,9400.615463
729.220262,995.924147,-0.000000,9696.697840
729.220577,612.876398,-0.000000,8660.409521
729.220893,995.924147,-0.000000,8660.409521
729.221209,995.924147,444.123565,9104.533087
729.221525,229.828649,1036.288319,8586.388927
729.221841,383.047749,518.144159,8216.285956
729.222157,1378.971896,-666.185348,9400.615463
729.222472,153.219100,-1110.308913,9548.656652
729.222788,0.000000,-962.267725,9548.656652
729.223104,0.000000,-1998.556043,9918.759623
729.223420,-229.828649,-1258.350101,10584.944971
729.223736,-766.095498,-148.041188,9918.759623
729.224052,0.000000,-444.123565,9622.677246
729.224367,306.438199,-296.082377,9622.677246
729.224683,-306.438199,370.102971,9400.615463
729.224999,536.266849,-222.061783,9400.615463
729.225315,1149.143247,222.061783,9178.553681
729.225631,766.095498,1554.432478,8142.265362
729.225947,1455.581446,1406.391290,8290.306550
729.226262,1838.629195,-222.061783,8512.368333
729.226578,1302.362347,-370.102971,9030.512492
729.226894,306.438199,-444.123565,9400.615463
729.227210,459.657299,-1332.370696,9474.636058
729.227526,459.657299,-1776.494261,10436.903782
729.227842,-306.438199,-592.164754,10288.862594
729.228158,-229.828649,-370.102971,10066.800811
729.228473,459.657299,-1406.391290,9770.718434
729.228789,-536.266849,-592.164754,10214.842000
729.229105,-306.438199,-222.061783,9992.780217
729.229421,229.828649,-592.164754,9252.574275
729.229737,-153.219100,296.082377,8956.491898
729.230053,0.000000,444.123565,8734.430116
729.230368,919.314598,-370.102971,9104.533087
729.230684,1072.533697,-888.247130,9104.533087
729.231000,306.438199,-740.205942,9178.553681
729.231316,766.095498,-1554.432478,10066.800811
729.231632,536.266849,-2072.576638,9770.718434
729.231948,383.047749,-814.226536,10288.862594
729.232263,306.438199,-0.000000,10066.800811
729.232579,1072.533697,-888.247130,10066.800811
729.232895,383.047749,-74.020594,9918.759623
729.233211,76.609550,888.247130,9548.656652
729.233527,766.095498,222.061783,9252.574275
729.233843,1072.533697,666.185348,8586.388927
729.234158,689.485948,1554.432478,8364.327145
729.234474,1149.143247,444.123565,8512.368333
729.234790,1378.971896,-592.164754,8512.368333
729.235106,1072.533697,-666.185348,9252.574275
729.235422,76.609550,-1036.288319,9844.739029
729.235738,153.219100,-1406.391290,10510.924376
729.236053,0.000000,-814.226536,10436.903782
729.236369,-612.876398,740.205942,9696.697840
729.236685,-153.219100,-0.000000,10362.883188
729.237001,76.609550,-370.102971,10140.821405
729.237317,-229.828649,444.123565,9918.759623
729.237633,306.438199,370.102971,9474.636058
729.237949,1072.533697,518.144159,8660.409521
729.238264,919.314598,1924.535449,8512.368333
729.238580,1149.143247,1702.473667,8216.285956
729.238896,1915.238745,592.164754,8364.327145
729.239212,1225.752797,222.061783,8734.430116
729.239528,766.095498,-74.020594,9400.615463
729.239844,459.657299,-1258.350101,9696.697840
729.240159,383.047749,-1332.370696,9992.780217
729.240475,-153.219100,-370.102971,10658.965565
729.240791,-536.266849,-0.000000,10658.965565
729.241107,76.609550,-888.247130,10288.862594
729.241423,-306.438199,-148.041188,10510.924376
729.241739,-459.657299,518.144159,9548.656652
729.242054,76.609550,-0.000000,9252.574275
729.242370,306.438199,962.267725,9104.533087
729.242686,459.657299,962.267725,9104.533087
729.243002,1532.190996,148.041188,8660.409521
729.243318,1838.629195,-222.061783,7846.182985
729.243634,842.705048,-148.041188,8956.491898
729.243949,842.705048,-1480.411884,10066.800811
729.244265,995.924147,-1702.473667,9992.780217
729.244581,76.609550,-444.123565,10066.800811
729.244897,153.219100,-148.041188,10288.862594
729.245213,995.924147,-666.185348,9992.780217
729.245529,689.485948,-148.041188,10066.800811
729.245845,-153.219100,1036.288319,9696.697840
729.246160,536.266849,814.226536,8956.491898
729.246476,612.876398,962.267725,8734.430116
729.246792,0.000000,1258.350101,8438.347739
729.247108,306.438199,-148.041188,9252.574275
729.247424,842.705048,-888.247130,9178.553681
729.247740,459.657299,-814.226536,8956.491898
729.248055,0.000000,-1554.432478,9622.677246
729.248371,229.828649,-2146.597232,10214.842000
729.248687,-153.219100,-1258.350101,10288.862594
729.249003,-919.314598,-296.082377,10140.821405
729.249319,-612.876398,-444.123565,10066.800811
729.249635,-229.828649,-1480.411884,10881.027347
729.249950,-536.266849,-296.082377,10140.821405
729.250266,-383.047749,-148.041188,9622.677246
729.250582,306.438199,-74.020594,8808.450710
729.250898,229.828649,962.267725,8068.244768
729.251214,459.657299,888.247130,8438.347739
729.251530,1225.752797,-444.123565,9030.512492
729.251845,1225.752797,-814.226536,8512.368333
729.252161,536.266849,-1258.350101,8956.491898
729.252477,766.095498,-1776.494261,9104.533087
729.252793,842.705048,-1850.514855,9844.739029
729.253109,-229.828649,-1110.308913,10214.842000
729.253425,-459.657299,-814.226536,10362.883188
729.253741,76.609550,-1036.288319,10362.883188
729.254056,-306.438199,-370.102971,9622.677246
729.254372,-612.876398,-0.000000,9400.615463
729.254688,76.609550,-592.164754,9770.718434
729.255004,229.828649,-0.000000,9104.533087
729.255320,0.000000,888.247130,8956.491898
729.255636,842.705048,-296.082377,8956.491898
729.255951,1149.143247,-592.164754,8808.450710
729.256267,1072.533697,-444.123565,8216.285956
729.256583,766.095498,-370.102971,8956.491898
729.256899,1378.971896,-1406.391290,9770.718434
729.257215,766.095498,-296.082377,10140.821405
729.257531,383.047749,-0.000000,9696.697840
729.257846,766.095498,-370.102971,9992.780217
729.258162,689.485948,-148.041188,9992.780217
729.258478,306.438199,962.267725,9918.759623
729.258794,76.609550,1258.350101,9474.636058
729.259110,1072.533697,1258.350101,9104.533087
729.259426,229.828649,2072.576638,9030.512492
729.259741,842.705048,1184.329507,8586.388927
729.260057,1149.143247,-222.061783,9326.594869
729.260373,766.095498,-0.000000,9178.553681
729.260689,383.047749,-370.102971,9770.718434
729.261005,1072.533697,-888.247130,9696.697840
729.261321,459.657299,-518.144159,9770.718434
729.261637,0.000000,222.061783,9992.780217
729.261952,-76.609550,222.061783,9992.780217
729.262268,612.876398,-148.041188,10140.821405
729.262584,383.047749,222.061783,9918.759623
729.262900,153.219100,814.226536,8956.491898
729.263216,766.095498,-0.000000,9548.656652
729.263532,842.705048,296.082377,9548.656652
729.263847,229.828649,1480.411884,8142.265362
729.264163,995.924147,222.061783,8808.450710
729.264479,1532.190996,-592.164754,9030.512492
729.264795,1378.971896,-222.061783,9474.636058
729.265111,383.047749,-592.164754,9770.718434
729.265427,842.705048,-1110.308913,10288.862594
729.265742,459.657299,-296.082377,10066.800811
729.266058,153.219100,222.061783,10214.842000
729.266374,383.047749,-370.102971,10066.800811
729.266690,536.266849,-148.041188,10436.903782
729.267006,153.219100,1184.329507,9622.677246
729.267322,306.438199,962.267725,9400.615463
729.267637,919.314598,1036.288319,9696.697840
729.267953,612.876398,2368.659014,8808.450710
729.268269,995.924147,1702.473667,8142.265362
729.268585,1762.019645,296.082377,8068.244768
729.268901,612.876398,-0.000000,9178.553681
729.269217,306.438199,-888.247130,9548.656652
729.269533,76.609550,-1332.370696,10214.842000
729.269848,-306.438199,-666.185348,10584.944971
729.270164,-995.924147,-74.020594,10288.862594
729.270480,-306.438199,-592.164754,10362.883188
729.270796,0.000000,-1332.370696,10066.800811
729.271112,-995.924147,-444.123565,9548.656652
729.271428,-536.266849,-222.061783,9696.697840
729.271743,459.657299,-592.164754,9474.636058
729.272059,0.000000,666.185348,8364.327145
729.272375,306.438199,888.247130,8734.430116
729.272691,1225.752797,-814.226536,8512.368333
729.273007,842.705048,-1110.308913,8512.368333
729.273323,0.000000,-1036.288319,9178.553681
729.273638,383.047749,-2516.700203,9992.780217
729.273954,383.047749,-2146.597232,9770.718434
729.274270,-153.219100,-814.226536,9770.718434
729.274586,0.000000,-666.185348,10140.821405
729.274902,306.438199,-1776.494261,10066.800811
729.275218,-306.438199,-740.205942,10140.821405
729.275533,-153.219100,-296.082377,9178.553681
729.275849,459.657299,-444.123565,9844.739029
729.276165,536.266849,222.061783,8956.491898
729.276481,153.219100,888.247130,8512.368333
729.276797,1225.752797,-148.041188,8512.368333
729.277113,1302.362347,-1184.329507,9474.636058
729.277429,689.485948,-592.164754,9252.574275
729.277744,689.485948,-814.226536,9474.636058
729.278060,1149.143247,-1554.432478,10066.800811
729.278376,383.047749,-592.164754,9770.718434
729.278692,153.219100,-0.000000,9696.697840
729.279008,919.314598,-666.185348,9918.759623
729.279324,842.705048,-296.082377,9326.594869
729.279639,612.876398,740.205942,9474.636058
729.279955,689.485948,-370.102971,9548.656652
729.280271,1225.752797,666.185348,8882.471304
729.280587,612.876398,1554.432478,8142.265362
729.280903,995.924147,666.185348,8586.388927
729.281219,1532.190996,-962.267725,9030.512492
729.281534,766.095498,-740.205942,8956.491898
729.281850,536.266849,-962.267725,9696.697840
729.282166,306.438199,-2072.576638,9844.739029
729.282482,76.609550,-1332.370696,10362.883188
729.282798,-383.047749,148.041188,9992.780217
729.283114,306.438199,-518.144159,9918.759623
729.283429,689.485948,-592.164754,9844.739029
729.283745,0.000000,-444.123565,10214.842000
729.284061,76.609550,-0.000000,9548.656652
729.284377,919.314598,-296.082377,9696.697840
729.284693,383.047749,1036.288319,8734.430116
729.285009,919.314598,1776.494261,8068.244768
729.285325,1302.362347,74.020594,8438.347739
729.285640,995.924147,-148.041188,9104.533087
729.285956,306.438199,-0.000000,9548.656652
729.286272,536.266849,-962.267725,9548.656652
729.286588,459.657299,-1628.453072,10066.800811
729.286904,-229.828649,-74.020594,10066.800811
729.287220,-459.657299,-0.000000,10214.842000
729.287535,612.876398,-666.185348,10066.800811
729.287851,-459.657299,-74.020594,10140.821405
729.288167,-612.876398,74.020594,9992.780217
729.288483,0.000000,518.144159,9326.594869
729.288799,0.000000,1036.288319,9178.553681
729.289115,76.609550,1850.514855,8660.409521
729.289430,766.095498,962.267725,8364.327145
729.289746,919.314598,-74.020594,8586.388927
729.290062,153.219100,-370.102971,9400.615463
729.290377,153.219100,-814.226536,9400.615463
729.290693,459.657299,-1628.453072,9844.739029
729.291009,0.000000,-444.123565,10362.883188
729.291325,-459.657299,148.041188,10140.821405
729.291640,306.438199,-370.102971,10214.842000
729.291956,306.438199,-370.102971,10362.883188
729.292272,-153.219100,740.205942,9696.697840
729.292587,306.438199,296.082377,9400.615463
729.292903,153.219100,222.061783,8956.491898
729.293219,-306.438199,1036.288319,9400.615463
729.293534,612.876398,592.164754,8956.491898
729.293850,1302.362347,-444.123565,8512.368333
729.294166,536.266849,-518.144159,9474.636058
729.294481,459.657299,-814.226536,9400.615463
729.294797,919.314598,-1776.494261,9474.636058
729.295113,689.485948,-740.205942,9918.759623
729.295429,0.000000,-74.020594,10066.800811
729.295744,612.876398,-518.144159,9918.759623
729.296060,995.924147,-740.205942,9992.780217
729.296376,459.657299,-518.144159,10140.821405
729.296691,306.438199,-0.000000,9326.594869
729.297007,919.314598,-148.041188,8882.471304
729.297323,612.876398,592.164754,8882.471304
729.297638,536.266849,962.267725,8512.368333
729.297954,1685.410096,-222.061783,8290.306550
729.298270,1685.410096,-666.185348,9178.553681
729.298585,612.876398,-666.185348,9400.615463
729.298901,842.705048,-1184.329507,9474.636058
729.299217,1378.971896,-1110.308913,9474.636058
729.299532,383.047749,-222.061783,9696.697840
729.299848,153.219100,-148.041188,10066.800811
729.300164,842.705048,-1036.288319,9992.780217
729.300480,0.000000,-666.185348,9696.697840
729.300795,-383.047749,-222.061783,10362.883188
729.301111,536.266849,-740.205942,9696.697840
729.301427,842.705048,666.185348,8808.450710
729.301742,-153.219100,1036.288319,9178.553681
729.302058,842.705048,444.123565,8512.368333
729.302374,1149.143247,-888.247130,8512.368333
729.302689,153.219100,-814.226536,9104.533087
729.303005,153.219100,-1332.370696,9548.656652
729.303321,689.485948,-1924.535449,9696.697840
729.303636,76.609550,-1110.308913,9770.718434
729.303952,-306.438199,-740.205942,9844.739029
729.304268,536.266849,-1036.288319,10214.842000
729.304583,229.828649,-666.185348,9844.739029
729.304899,-536.266849,-0.000000,9474.636058
729.305215,76.609550,370.102971,9252.574275
729.305531,689.485948,592.164754,8734.430116
729.305846,459.657299,1110.308913,8512.368333
729.306162,306.438199,962.267725,8808.450710
729.306478,1302.362347,-296.082377,8808.450710
729.306793,536.266849,-296.082377,9178.553681
729.307109,-229.828649,-370.102971,9548.656652
729.307425,0.000000,-962.267725,9696.697840
729.307740,383.047749,-370.102971,10214.842000
729.308056,-612.876398,-0.000000,10436.903782
729.308372,-689.485948,518.144159,9992.780217
729.308687,0.000000,-222.061783,9696.697840
729.309003,0.000000,370.102971,9992.780217
729.309319,-536.266849,888.247130,10066.800811
729.309634,153.219100,740.205942,9178.553681
729.309950,459.657299,1480.411884,8808.450710
729.310266,76.609550,1924.535449,9030.512492
729.310582,766.095498,888.247130,8734.430116
729.310897,995.924147,-0.000000,8808.450710
729.311213,0.000000,-74.020594,9474.636058
729.311529,383.047749,-888.247130,9770.718434
729.311844,612.876398,-1480.411884,9918.759623
729.312160,-459.657299,-666.185348,9992.780217
729.312476,-766.095498,-74.020594,10288.862594
729.312791,76.609550,-740.205942,10436.903782
729.313107,306.438199,-0.000000,9622.677246
729.313423,-383.047749,444.123565,9770.718434
729.313738,306.438199,148.041188,9992.780217
729.314054,306.438199,-518.144159,9030.512492
729.314370,76.609550,592.164754,8882.471304
729.314685,536.266849,148.041188,9030.512492
729.315001,1149.143247,-1258.350101,9252.574275
729.315317,1072.533697,-444.123565,9548.656652
729.315633,306.438199,-740.205942,9474.636058
729.315948,766.095498,-1628.453072,9844.739029
729.316264,766.095498,-1184.329507,9992.780217
729.316580,153.219100,-0.000000,9918.759623
729.316895,995.924147,-0.000000,10214.842000
729.317211,1532.190996,-370.102971,9474.636058
729.317527,995.924147,222.061783,9844.739029
729.317842,919.314598,518.144159,9178.553681
729.318158,1072.533697,444.123565,8882.471304
729.318474,1072.533697,1702.473667,8956.491898
729.318789,919.314598,1184.329507,8586.388927
729.319105,1838.629195,-0.000000,8734.430116
729.319421,1532.190996,-296.082377,8882.471304
729.319736,1072.533697,-296.082377,9400.615463
729.320052,1455.581446,-1036.288319,9918.759623
729.320368,1149.143247,-1036.288319,9326.594869
729.320684,383.047749,296.082377,9696.697840
729.320999,689.485948,370.102971,10288.862594
729.321315,1378.971896,-666.185348,10066.800811
729.321631,995.924147,666.185348,9104.533087
729.321946,306.438199,1110.308913,9474.636058
729.322262,1225.752797,222.061783,9030.512492
729.322578,1072.533697,296.082377,8660.409521
729.322893,-229.828649,962.267725,9030.512492
729.323209,689.485948,-222.061783,9104.533087
729.323525,612.876398,-1110.308913,8956.491898
729.323840,-153.219100,-74.020594,9326.594869
729.324156,0.000000,-1184.329507,9696.697840
729.324472,0.000000,-2738.761985,10214.842000
729.324788,-612.876398,-1554.432478,10732.986159
729.325103,-1302.362347,-1184.329507,10436.903782
729.325419,-536.266849,-1554.432478,10955.047942
729.325735,-153.219100,-814.226536,9992.780217
729.326050,-612.876398,-222.061783,9474.636058
729.326366,0.000000,-0.000000,9474.636058
729.326682,459.657299,-296.082377,9030.512492
729.326997,153.219100,666.185348,8660.409521
729.327313,229.828649,-222.061783,9400.615463
729.327629,995.924147,-1480.411884,9474.636058
729.327944,689.485948,-1110.308913,9104.533087
729.328260,76.609550,-592.164754,9178.553681
729.328576,612.876398,-1480.411884,9844.739029
729.328891,383.047749,-1998.556043,10066.800811
729.329207,-919.314598,-592.164754,9548.656652
729.329523,-459.657299,-1480.411884,10436.903782
729.329839,229.828649,-1036.288319,10140.821405
729.330154,0.000000,-0.000000,9474.636058
729.330470,229.828649,148.041188,9474.636058
729.330786,842.705048,222.061783,9252.574275
729.331101,536.266849,888.247130,8734.430116
729.331417,536.266849,1480.411884,8142.265362
729.331733,1225.752797,444.123565,8660.409521
729.332048,1072.533697,-518.144159,8142.265362
729.332364,612.876398,-0.000000,9104.533087
729.332680,995.924147,-1184.329507,9696.697840
729.332995,1302.362347,-1258.350101,9844.739029
729.333311,0.000000,-370.102971,9918.759623
729.333627,-383.047749,-444.123565,9918.759623
729.333942,306.438199,-740.205942,9918.759623
729.334258,306.438199,148.041188,9548.656652
729.334574,-383.047749,814.226536,9326.594869
729.334890,306.438199,-0.000000,9326.594869
729.335205,383.047749,222.061783,8734.430116
729.335521,-459.657299,666.185348,8660.409521
729.335837,229.828649,148.041188,8586.388927
729.336152,842.705048,-888.247130,8882.471304
729.336468,153.219100,-666.185348,9178.553681
729.336784,-153.219100,-740.205942,9622.677246
729.337099,612.876398,-1628.453072,9770.718434
729.337415,306.438199,-1406.391290,10140.821405
729.337731,0.000000,-370.102971,10658.965565
729.338046,229.828649,-962.267725,10214.842000
729.338362,689.485948,-740.205942,9844.739029
729.338678,0.000000,444.123565,9770.718434
729.338993,536.266849,592.164754,9178.553681
729.339309,1072.533697,962.267725,9030.512492
729.339625,842.705048,1924.535449,8586.388927
729.339941,1149.143247,1628.453072,8216.285956
729.340256,1991.848295,296.082377,8438.347739
729.340572,1378.971896,-148.041188,9030.512492
729.340888,689.485948,-74.020594,10214.842000
729.341203,1072.533697,-1184.329507,9844.739029
729.341519,689.485948,-1406.391290,10066.800811
729.341835,-229.828649,222.061783,10436.903782
729.342150,0.000000,-0.000000,10807.006753
729.342466,306.438199,-666.185348,10436.903782
729.342782,689.485948,-0.000000,10658.965565
729.343097,-306.438199,740.205942,9770.718434
729.343413,766.095498,666.185348,9326.594869
729.343729,689.485948,1332.370696,8882.471304
729.344044,689.485948,1776.494261,8512.368333
729.344360,1455.581446,666.185348,8290.306550
729.344676,1838.629195,-148.041188,8586.388927
729.344992,612.876398,-370.102971,9252.574275
729.345307,383.047749,-888.247130,9844.739029
729.345623,1225.752797,-1554.432478,10066.800811
729.345939,0.000000,-666.185348,9548.656652
729.346254,-383.047749,-0.000000,10288.862594
729.346570,76.609550,-888.247130,9992.780217
729.346886,0.000000,-518.144159,10288.862594
729.347201,-766.095498,-0.000000,9770.718434
729.347517,-229.828649,-148.041188,9474.636058
729.347833,0.000000,-148.041188,9326.594869
729.348148,0.000000,740.205942,9030.512492
729.348464,0.000000,-0.000000,8882.471304
729.348780,1149.143247,-1924.535449,9178.553681
729.349095,383.047749,-1554.432478,9474.636058
729.349411,229.828649,-1036.288319,9918.759623
729.349727,612.876398,-1406.391290,9548.656652
729.350043,689.485948,-1184.329507,9252.574275
729.350358,0.000000,-0.000000,9844.739029
729.350674,229.828649,-666.185348,9696.697840
729.350990,919.314598,-1036.288319,10362.883188
729.351305,153.219100,-222.061783,10066.800811
729.351621,229.828649,-296.082377,9400.615463
729.351937,995.924147,-148.041188,9030.512492
729.352252,306.438199,1184.329507,8290.306550
729.352568,459.657299,1480.411884,8734.430116
729.352884,1532.190996,-0.000000,8142.265362
729.353199,689.485948,-592.164754,8882.471304
729.353515,0.000000,-888.247130,9474.636058
729.353831,536.266849,-1850.514855,9400.615463
729.354146,459.657299,-2368.659014,9474.636058
729.354462,-612.876398,-1406.391290,10584.944971
729.354778,-842.705048,-1184.329507,10510.924376
729.355094,0.000000,-1258.350101,9474.636058
729.355409,-459.657299,-222.061783,9548.656652
729.355725,-383.047749,148.041188,9474.636058
729.356041,153.219100,-0.000000,9104.533087
729.356356,76.609550,814.226536,8068.244768
729.356672,-229.828649,1554.432478,8142.265362
729.356988,842.705048,-74.020594,8660.409521
729.357303,1378.971896,-888.247130,8660.409521
729.357619,612.876398,-222.061783,8586.388927
729.357935,383.047749,-1554.432478,9326.594869
729.358250,1072.533697,-1628.453072,9696.697840
729.358566,0.000000,-444.123565,9918.759623
729.358882,-612.876398,-74.020594,10140.821405
729.359198,0.000000,-666.185348,10658.965565
729.359513,-229.828649,296.082377,9918.759623
729.359829,-306.438199,1184.329507,9770.718434
729.360145,229.828649,1332.370696,9326.594869
729.360460,919.314598,1406.391290,9252.574275
729.360776,153.219100,2294.638420,8808.450710
729.361092,689.485948,1406.391290,8734.430116
729.361407,1838.629195,-0.000000,9400.615463
729.361723,1455.581446,666.185348,9252.574275
729.362039,842.705048,666.185348,9252.574275
729.362354,1532.190996,-0.000000,9622.677246
729.362670,1225.752797,296.082377,10658.965565
729.362986,229.828649,1110.308913,10140.821405
729.363301,306.438199,666.185348,10510.924376
729.363617,842.705048,-0.000000,10658.965565
729.363933,459.657299,-0.000000,10288.862594
729.364249,689.485948,1184.329507,10288.862594
729.364564,1302.362347,814.226536,9622.677246
729.364880,689.485948,1702.473667,9178.553681
729.365196,919.314598,1776.494261,9104.533087
729.365511,1532.190996,222.061783,9252.574275
729.365827,1532.190996,-444.123565,9918.759623
729.366143,766.095498,-148.041188,9548.656652
729.366458,842.705048,-888.247130,9918.759623
729.366774,1302.362347,-1406.391290,10214.842000
729.367090,766.095498,-222.061783,9770.718434
729.367405,229.828649,-518.144159,9770.718434
729.367721,383.047749,-1480.411884,10362.883188
729.368037,383.047749,-1258.350101,10140.821405
729.368352,0.000000,-370.102971,10214.842000
729.368668,229.828649,-296.082377,9622.677246
729.368984,306.438199,-74.020594,9030.512492
729.369300,76.609550,740.205942,8438.347739
729.369615,612.876398,148.041188,8512.368333
729.369931,1455.581446,-1258.350101,8734.430116
729.370247,689.485948,-1184.329507,9178.553681
729.370562,383.047749,-1776.494261,9104.533087
729.370878,842.705048,-2368.659014,9622.677246
729.371194,153.219100,-1924.535449,9770.718434
729.371509,-229.828649,-1036.288319,9696.697840
729.371825,0.000000,-1258.350101,9992.780217
729.372141,0.000000,-1332.370696,10066.800811
729.372456,-383.047749,-0.000000,9474.636058
729.372772,-536.266849,296.082377,8882.471304
729.373088,0.000000,-148.041188,8956.491898
729.373403,229.828649,518.144159,8734.430116
729.373719,383.047749,518.144159,7994.224174
729.374035,842.705048,-1036.288319,7994.224174
729.374351,536.266849,-1628.453072,9104.533087
729.374666,229.828649,-1184.329507,9030.512492
729.374982,459.657299,-1480.411884,9178.553681
729.375298,306.438199,-1406.391290,9474.636058
729.375613,-689.485948,-962.267725,9992.780217
729.375929,-306.438199,-1184.329507,10288.862594
729.376245,-153.219100,-1184.329507,9474.636058
729.376560,-536.266849,-1110.308913,9992.780217
729.376876,0.000000,-1036.288319,9474.636058
729.377192,383.047749,-518.144159,8882.471304
729.377507,76.609550,444.123565,8364.327145
729.377823,0.000000,962.267725,8290.306550
729.378139,1455.581446,-592.164754,7846.182985
729.378454,842.705048,-1184.329507,9252.574275
729.378770,0.000000,-1110.308913,9474.636058
729.379086,229.828649,-1554.432478,9104.533087
729.379402,842.705048,-1998.556043,9770.718434
729.379717,0.000000,-1258.350101,9770.718434
729.380033,-459.657299,-888.247130,10288.862594
729.380349,612.876398,-1184.329507,10140.821405
729.380664,153.219100,-518.144159,9918.759623
729.380980,0.000000,370.102971,10436.903782
729.381296,229.828649,-74.020594,9696.697840
729.381611,689.485948,1036.288319,8956.491898
729.381927,689.485948,2146.597232,9104.533087
729.382243,919.314598,1554.432478,9030.512492
729.382558,2145.067394,-0.000000,8956.491898
729.382874,1225.752797,666.185348,9622.677246
729.383190,1072.533697,962.267725,9030.512492
729.383505,1838.629195,-296.082377,9992.780217
729.383821,1455.581446,-0.000000,10214.842000
729.384137,306.438199,1036.288319,10732.986159
729.384453,919.314598,592.164754,10584.944971
729.384768,995.924147,370.102971,10436.903782
729.385084,229.828649,888.247130,10214.842000
729.385400,383.047749,1036.288319,10140.821405
729.385715,1072.533697,1332.370696,9844.739029
729.386031,689.485948,1776.494261,10066.800811
729.386347,459.657299,2220.617826,9622.677246
729.386662,1455.581446,962.267725,9178.553681
729.386978,1455.581446,740.205942,9178.553681
729.387294,689.485948,740.205942,8956.491898
729.387609,919.314598,-1110.308913,9770.718434
729.387925,1149.143247,-1110.308913,10362.883188
729.388241,0.000000,-592.164754,10066.800811
729.388557,-612.876398,-444.123565,10584.944971
729.388872,383.047749,-1332.370696,10807.006753
729.389188,0.000000,-1036.288319,9992.780217
729.389504,-689.485948,-0.000000,9696.697840
729.389819,0.000000,-518.144159,9548.656652
729.390135,0.000000,222.061783,9474.636058
729.390451,0.000000,666.185348,8734.430116
729.390765,306.438199,-518.144159,8660.409521
729.391081,1149.143247,-1554.432478,8808.450710
729.391397,229.828649,-1110.308913,8734.430116
729.391712,536.266849,-1406.391290,9030.512492
729.392028,536.266849,-1702.473667,9104.533087
729.392344,0.000000,-888.247130,9696.697840
729.392660,-229.828649,-370.102971,9030.512492
729.392975,0.000000,-1110.308913,9326.594869
729.393291,0.000000,-1480.411884,9918.759623
729.393607,76.609550,-518.144159,9474.636058
729.393923,76.609550,-0.000000,9252.574275
729.394238,612.876398,666.185348,8660.409521
729.394554,0.000000,1776.494261,7920.203579
729.394870,76.609550,1258.350101,7920.203579
729.395186,536.266849,148.041188,8290.306550
729.395501,0.000000,222.061783,8586.388927
729.395817,-153.219100,-222.061783,8956.491898
729.396133,383.047749,-1332.370696,9696.697840
729.396448,153.219100,-1036.288319,9548.656652
729.396764,-612.876398,-74.020594,9844.739029
729.397080,-229.828649,-296.082377,10140.821405
729.397396,0.000000,-518.144159,9844.739029
729.397711,-153.219100,296.082377,9844.739029
729.398027,0.000000,518.144159,9548.656652
729.398343,612.876398,444.123565,9030.512492
729.398659,612.876398,962.267725,9326.594869
729.398974,459.657299,1110.308913,8660.409521
729.399290,1225.752797,148.041188,8956.491898
729.399606,1608.800546,-148.041188,8882.471304
729.399921,1225.752797,-148.041188,9326.594869
729.400237,1149.143247,-740.205942,9770.718434
729.400553,1072.533697,-962.267725,9918.759623
729.400869,612.876398,-222.061783,9622.677246
729.401184,459.657299,-74.020594,10510.924376
729.401500,766.095498,-1258.350101,10584.944971
729.401816,766.095498,-592.164754,10732.986159
729.402132,306.438199,370.102971,10288.862594
729.402447,842.705048,-0.000000,9622.677246
729.402763,1149.143247,814.226536,9400.615463
729.403079,459.657299,1036.288319,9696.697840
729.403395,995.924147,148.041188,9770.718434
729.403710,1455.581446,-370.102971,9326.594869
729.404026,1225.752797,-296.082377,9622.677246
729.404342,612.876398,-222.061783,10584.944971
729.404657,1608.800546,-888.247130,9992.780217
729.404973,842.705048,296.082377,9770.718434
729.405289,76.609550,962.267725,10510.924376
729.405605,689.485948,-0.000000,9844.739029
729.405920,919.314598,-0.000000,9992.780217
729.406236,229.828649,666.185348,10288.862594
729.406552,383.047749,-0.000000,10362.883188
729.406868,919.314598,-0.000000,9770.718434
729.407183,0.000000,1184.329507,9030.512492
729.407499,229.828649,1110.308913,9326.594869
729.407815,1225.752797,444.123565,9326.594869
729.408130,766.095498,-0.000000,8956.491898
729.408446,76.609550,-444.123565,9474.636058
729.408762,459.657299,-1332.370696,9770.718434
729.409078,689.485948,-1332.370696,9696.697840
729.409393,-383.047749,-518.144159,9474.636058
729.409709,76.609550,-814.226536,9474.636058
729.410025,536.266849,-1480.411884,9474.636058
729.410341,0.000000,-888.247130,9696.697840
729.410656,-306.438199,-444.123565,9696.697840
729.410972,0.000000,-740.205942,8660.409521
729.411288,-306.438199,-370.102971,9030.512492
729.411604,0.000000,-0.000000,8734.430116
729.411919,306.438199,-1036.288319,8660.409521
729.412235,766.095498,-1258.350101,8734.430116
729.412551,-306.438199,-1258.350101,9104.533087
729.412866,229.828649,-2220.617826,9252.574275
729.413182,536.266849,-2442.679609,9474.636058
729.413498,-229.828649,-1406.391290,9474.636058
729.413814,0.000000,-888.247130,9548.656652
729.414129,459.657299,-1110.308913,9474.636058
729.414445,459.657299,-444.123565,8956.491898
729.414761,76.609550,-296.082377,8956.491898
729.415077,536.266849,-518.144159,9030.512492
729.415392,536.266849,-0.000000,8290.306550
729.415708,0.000000,962.267725,8438.347739
729.416024,536.266849,444.123565,8586.388927
729.416339,1072.533697,-296.082377,8142.265362
729.416655,612.876398,-666.185348,9252.574275
729.416971,0.000000,-1406.391290,9474.636058
729.417287,229.828649,-1702.473667,10140.821405
729.417602,-153.219100,-814.226536,9770.718434
729.417918,-1225.752797,-222.061783,10066.800811
729.418234,0.000000,-0.000000,9992.780217
729.418550,536.266849,-74.020594,9770.718434
729.418865,-383.047749,370.102971,9474.636058
729.419181,76.609550,370.102971,9770.718434
729.419497,842.705048,-0.000000,9400.615463
729.419812,766.095498,1036.288319,8882.471304
729.420128,153.219100,962.267725,9178.553681
729.420444,1532.190996,-74.020594,9326.594869
729.420760,919.314598,-74.020594,9474.636058
729.421075,229.828649,222.061783,9770.718434
729.421391,766.095498,-740.205942,10288.862594
729.421707,766.095498,-666.185348,10140.821405
729.422023,76.609550,296.082377,10066.800811
729.422338,689.485948,-74.020594,10584.944971
729.422654,1149.143247,-296.082377,10214.842000
729.422970,919.314598,74.020594,10140.821405
729.423286,459.657299,518.144159,10066.800811
729.423601,919.314598,-74.020594,9474.636058
729.423917,842.705048,444.123565,9696.697840
729.424233,76.609550,1258.350101,9548.656652
729.424548,1149.143247,148.041188,9992.780217
729.424864,1762.019645,-296.082377,9326.594869
729.425180,1149.143247,296.082377,9326.594869
729.425496,1149.143247,-518.144159,9474.636058
729.425811,1685.410096,-814.226536,9844.739029
729.426127,766.095498,-0.000000,9474.636058
729.426443,153.219100,296.082377,10066.800811
729.426759,1378.971896,-370.102971,10362.883188
729.427074,919.314598,-0.000000,9400.615463
729.427390,0.000000,518.144159,9992.780217
729.427706,306.438199,-74.020594,9844.739029
729.428021,306.438199,370.102971,9104.533087
729.428337,76.609550,1332.370696,9030.512492
729.428653,229.828649,1258.350101,9252.574275
729.428969,1302.362347,148.041188,8734.430116
729.429284,536.266849,-0.000000,8586.388927
729.429600,229.828649,-148.041188,9696.697840
729.429916,229.828649,-1554.432478,9844.739029
729.430232,229.828649,-1036.288319,9622.677246
729.430547,-766.095498,-0.000000,9548.656652
729.430863,0.000000,-444.123565,9918.759623
729.431179,459.657299,-592.164754,9326.594869
729.431495,-306.438199,148.041188,9326.594869
729.431810,0.000000,222.061783,9474.636058
729.432126,459.657299,-296.082377,8512.368333
729.432442,0.000000,444.123565,8216.285956
729.432757,0.000000,740.205942,8364.327145
729.433073,766.095498,-666.185348,8956.491898
729.433389,919.314598,-1036.288319,8734.430116
729.433705,0.000000,-740.205942,9326.594869
729.434020,0.000000,-1850.514855,9474.636058
729.434336,306.438199,-1702.473667,9844.739029
729.434652,-306.438199,-370.102971,9918.759623
729.434968,-383.047749,-444.123565,9918.759623
729.435283,689.485948,-296.082377,9696.697840
729.435599,459.657299,-0.000000,8734.430116
729.435915,153.219100,370.102971,9326.594869
729.436230,919.314598,-370.102971,9474.636058
729.436546,766.095498,-296.082377,9178.553681
729.436862,0.000000,1036.288319,9104.533087
729.437178,919.314598,444.123565,8734.430116
729.437493,1302.362347,-74.020594,8734.430116
729.437809,229.828649,296.082377,9400.615463
729.438125,229.828649,-1036.288319,9548.656652
729.438441,919.314598,-1850.514855,9918.759623
729.438756,-306.438199,-962.267725,10510.924376
729.439072,-536.266849,-740.205942,10732.986159
729.439388,0.000000,-1406.391290,10362.883188
729.439704,0.000000,-592.164754,9696.697840
729.440019,-383.047749,-0.000000,10066.800811
729.440335,76.609550,-0.000000,9844.739029
729.440651,459.657299,296.082377,9178.553681
729.440966,0.000000,1036.288319,8956.491898
729.441282,383.047749,518.144159,8808.450710
729.441598,1378.971896,-962.267725,9326.594869
729.441914,1072.533697,-1036.288319,9104.533087
729.442229,689.485948,-296.082377,10362.883188
729.442545,766.095498,-1184.329507,9918.759623
729.442861,1072.533697,-888.247130,9770.718434
729.443177,153.219100,814.226536,9844.739029
729.443492,536.266849,-0.000000,9918.759623
729.443808,1225.752797,-592.164754,10066.800811
729.444124,0.000000,-0.000000,10066.800811
729.444439,536.266849,-0.000000,9918.759623
729.444755,536.266849,-0.000000,9400.615463
729.445071,842.705048,962.267725,8956.491898
729.445387,766.095498,1628.453072,8438.347739
729.445702,842.705048,444.123565,8290.306550
729.446018,1455.581446,-148.041188,9178.553681
729.446334,612.876398,-222.061783,10066.800811
729.446650,536.266849,-444.123565,9474.636058
729.446965,1149.143247,-888.247130,9844.739029
729.447281,76.609550,148.041188,10140.821405
729.447597,0.000000,370.102971,10066.800811
729.447913,919.314598,296.082377,9918.759623
729.448228,842.705048,222.061783,9474.636058
729.448544,76.609550,814.226536,9178.553681
729.448860,1149.143247,666.185348,9252.574275
729.449175,842.705048,222.061783,8808.450710
729.449491,383.047749,1258.350101,8882.471304
729.449807,842.705048,518.144159,8956.491898
729.450123,1225.752797,-444.123565,8364.327145
729.450438,766.095498,-296.082377,9252.574275
729.450754,153.219100,-592.164754,9104.533087
729.451070,689.485948,-1480.411884,9474.636058
729.451386,0.000000,-814.226536,9770.718434
729.451701,-383.047749,-666.185348,9474.636058
729.452017,0.000000,-962.267725,9696.697840
729.452333,76.609550,-1258.350101,10510.924376
729.452648,-383.047749,-814.226536,9992.780217
729.452964,-153.219100,-444.123565,9474.636058
729.453280,383.047749,-0.000000,8882.471304
729.453596,0.000000,888.247130,8512.368333
729.453911,459.657299,888.247130,8364.327145
729.454227,1225.752797,-888.247130,9030.512492
729.454543,1072.533697,-740.205942,8734.430116
729.454859,0.000000,-814.226536,9474.636058
729.455174,459.657299,-1776.494261,9548.656652
729.455490,459.657299,-2146.597232,10214.842000
729.455806,0.000000,-814.226536,10584.944971
729.456122,-459.657299,-148.041188,10584.944971
729.456437,536.266849,-518.144159,9918.759623
729.456753,-306.438199,-74.020594,9918.759623
729.457069,0.000000,592.164754,9696.697840
729.457384,612.876398,370.102971,9178.553681
729.457700,306.438199,518.144159,8586.388927
729.458016,0.000000,1036.288319,9400.615463
729.458332,459.657299,-296.082377,8956.491898
729.458647,766.095498,-962.267725,8882.471304
729.458963,0.000000,-888.247130,10066.800811
729.459279,-153.219100,-1554.432478,10288.862594
729.459595,383.047749,-1628.453072,10288.862594
729.459910,0.000000,-666.185348,9918.759623
729.460226,-459.657299,-148.041188,10436.903782
729.460542,306.438199,-740.205942,10214.842000
729.460857,383.047749,-296.082377,9844.739029
729.461173,-229.828649,592.164754,9770.718434
729.461489,536.266849,296.082377,9548.656652
729.461805,1225.752797,666.185348,8290.306550
729.462120,919.314598,1036.288319,8586.388927
729.462436,1455.581446,666.185348,9030.512492
729.462752,1915.238745,-814.226536,8364.327145
729.463068,919.314598,-444.123565,9178.553681
729.463383,383.047749,-592.164754,9844.739029
729.463699,766.095498,-1628.453072,9844.739029
729.464015,459.657299,-1258.350101,10214.842000
729.464331,-612.876398,-148.041188,10584.944971
729.464646,0.000000,-592.164754,10214.842000
729.464962,76.609550,-666.185348,9770.718434
729.465278,-383.047749,-222.061783,9918.759623
729.465593,-229.828649,-74.020594,9844.739029
729.465909,229.828649,-0.000000,9474.636058
729.466225,76.609550,1036.288319,8660.409521
729.466541,536.266849,1036.288319,8882.471304
729.466856,1608.800546,-0.000000,8216.285956
729.467172,1149.143247,-592.164754,8660.409521
729.467488,689.485948,-592.164754,9400.615463
729.467804,1302.362347,-1036.288319,9252.574275
729.468119,1072.533697,-814.226536,9696.697840
729.468435,306.438199,-0.000000,9400.615463
729.468751,153.219100,370.102971,9400.615463
729.469066,536.266849,-370.102971,9400.615463
729.469382,-153.219100,148.041188,9622.677246
729.469698,-612.876398,518.144159,9992.780217
729.470014,229.828649,222.061783,9474.636058
729.470329,0.000000,666.185348,8586.388927
729.470645,-306.438199,814.226536,9104.533087
729.470961,229.828649,-222.061783,9770.718434
729.471277,766.095498,-814.226536,9104.533087
729.471592,76.609550,148.041188,9622.677246
729.471908,459.657299,-0.000000,9326.594869
729.472224,995.924147,-814.226536,9696.697840
729.472540,153.219100,-222.061783,9992.780217
729.472855,-383.047749,444.123565,9992.780217
729.473171,689.485948,-444.123565,10288.862594
729.473487,842.705048,-370.102971,9992.780217
729.473802,76.609550,888.247130,10214.842000
729.474118,919.314598,888.247130,9326.594869
729.474434,1455.581446,1406.391290,9622.677246
729.474750,995.924147,2072.576638,8734.430116
729.475065,1455.581446,1258.350101,7920.203579
729.475381,1991.848295,-444.123565,9178.553681
729.475697,1532.190996,-666.185348,9326.594869
729.476013,459.657299,-740.205942,9696.697840
729.476328,1225.752797,-1332.370696,10140.821405
729.476644,459.657299,-1332.370696,10066.800811
729.476960,-306.438199,-222.061783,10140.821405
729.477275,-229.828649,-592.164754,10140.821405
729.477591,0.000000,-1554.432478,10510.924376
729.477907,-689.485948,-592.164754,11251.130318
729.478223,-459.657299,-0.000000,10362.883188
729.478538,383.047749,444.123565,9474.636058
729.478854,229.828649,1184.329507,9326.594869
729.479170,459.657299,1480.411884,8808.450710
729.479486,919.314598,222.061783,8512.368333
729.479801,1378.971896,-370.102971,8586.388927
729.480117,536.266849,-444.123565,9178.553681
729.480433,1302.362347,-888.247130,9474.636058
729.480749,995.924147,-1258.350101,9474.636058
729.481064,76.609550,-222.061783,9844.739029
729.481380,-612.876398,-370.102971,9992.780217
729.481696,153.219100,-1036.288319,9918.759623
729.482011,-459.657299,-1036.288319,10288.862594
729.482327,-1149.143247,-148.041188,9548.656652
729.482643,-459.657299,-148.041188,9030.512492
729.482959,-153.219100,-296.082377,8882.471304
729.483274,-766.095498,370.102971,8882.471304
729.483590,0.000000,-370.102971,8142.265362
729.483906,612.876398,-1628.453072,9104.533087
729.484222,0.000000,-1406.391290,8734.430116
729.484537,0.000000,-1406.391290,9474.636058
729.484853,766.095498,-1776.494261,9474.636058
729.485169,536.266849,-740.205942,8882.471304
729.485484,153.219100,-518.144159,9548.656652
729.485800,536.266849,-888.247130,9548.656652
729.486116,766.095498,-740.205942,9548.656652
729.486432,536.266849,-148.041188,9844.739029
729.486747,1072.533697,666.185348,8956.491898
729.487063,1302.362347,592.164754,9030.512492
729.487379,1149.143247,1850.514855,8438.347739
729.487695,1149.143247,1480.411884,8290.306550
729.488010,2068.457845,-0.000000,8512.368333
729.488326,1455.581446,-222.061783,9030.512492
729.488642,612.876398,-666.185348,9696.697840
729.488957,689.485948,-1110.308913,9400.615463
729.489273,842.705048,-444.123565,9178.553681
729.489589,-153.219100,-222.061783,9844.739029
729.489905,-229.828649,-74.020594,10140.821405
729.490220,0.000000,-222.061783,10140.821405
729.490536,-306.438199,-444.123565,10436.903782
729.490852,-536.266849,148.041188,10362.883188
729.491168,76.609550,-222.061783,9770.718434
729.491483,0.000000,592.164754,9178.553681
729.491799,229.828649,1332.370696,9326.594869
729.492115,766.095498,666.185348,8808.450710
729.492431,1762.019645,-518.144159,9474.636058
729.492746,919.314598,-0.000000,9474.636058
729.493062,1072.533697,-962.267725,9844.739029
729.493378,1378.971896,-1110.308913,9548.656652
729.493693,766.095498,-222.061783,10140.821405
729.494009,383.047749,-222.061783,10066.800811
729.494325,995.924147,-148.041188,9844.739029
729.494641,1072.533697,-222.061783,10288.862594
729.494956,459.657299,518.144159,10288.862594
729.495272,689.485948,444.123565,9622.677246
729.495588,842.705048,740.205942,9178.553681
729.495903,383.047749,1332.370696,9400.615463
729.496219,1225.752797,814.226536,8882.471304
729.496535,1762.019645,-518.144159,9400.615463
729.496851,536.266849,-962.267725,9770.718434
729.497166,229.828649,-962.267725,10288.862594
729.497482,1302.362347,-740.205942,9474.636058
729.497798,383.047749,-222.061783,9252.574275
729.498114,0.000000,-0.000000,10288.862594
729.498429,536.266849,-0.000000,9844.739029
729.498745,919.314598,-592.164754,9474.636058
729.499061,0.000000,-370.102971,10066.800811
729.499376,0.000000,-666.185348,9844.739029
729.499692,153.219100,-222.061783,9252.574275
729.500008,76.609550,740.205942,9030.512492
729.500324,153.219100,1702.473667,8808.450710
729.500639,995.924147,814.226536,7846.182985
729.500955,919.314598,148.041188,8290.306550
729.501271,-76.609550,-740.205942,9104.533087
729.501587,0.000000,-1406.391290,9918.759623
729.501902,229.828649,-1554.432478,9696.697840
729.502218,-459.657299,-592.164754,9696.697840
729.502534,-689.485948,-222.061783,9770.718434
729.502849,306.438199,-444.123565,10066.800811
729.503165,-383.047749,-518.144159,9918.759623
729.503481,-766.095498,-0.000000,9178.553681
729.503797,-229.828649,-222.061783,9400.615463
729.504112,-76.609550,370.102971,8808.450710
729.504428,-536.266849,740.205942,8956.491898
729.504744,0.000000,-222.061783,9030.512492
729.505059,842.705048,-1110.308913,9252.574275
729.505375,76.609550,-962.267725,9104.533087
729.505691,0.000000,-814.226536,9326.594869
729.506007,919.314598,-888.247130,9178.553681
729.506322,0.000000,-518.144159,9474.636058
729.506638,0.000000,-370.102971,10140.821405
729.506954,306.438199,-814.226536,9770.718434
729.507270,383.047749,-888.247130,9178.553681
729.507585,229.828649,-444.123565,9696.697840
729.507901,383.047749,-814.226536,9474.636058
729.508217,919.314598,-74.020594,8956.491898
729.508532,459.657299,1258.350101,8512.368333
729.508848,1302.362347,1110.308913,8660.409521
729.509164,1762.019645,-222.061783,8586.388927
729.509480,919.314598,-370.102971,8956.491898
729.509795,306.438199,-592.164754,9622.677246
729.510111,995.924147,-1850.514855,10214.842000
729.510427,919.314598,-1110.308913,10288.862594
729.510743,0.000000,296.082377,10066.800811
729.511058,612.876398,-0.000000,10066.800811
729.511374,1149.143247,-592.164754,9918.759623
729.511690,76.609550,222.061783,10066.800811
729.512005,306.438199,518.144159,9992.780217
729.512321,1072.533697,296.082377,9844.739029
729.512637,229.828649,1406.391290,9400.615463
729.512953,689.485948,1406.391290,9030.512492
729.513268,1532.190996,370.102971,9104.533087
729.513584,1608.800546,222.061783,8956.491898
729.513900,536.266849,-0.000000,9326.594869
729.514215,1072.533697,-962.267725,10214.842000
729.514531,919.314598,-888.247130,10140.821405
729.514847,306.438199,-444.123565,10140.821405
729.515163,383.047749,-74.020594,10362.883188
729.515478,306.438199,-888.247130,10214.842000
729.515794,0.000000,-296.082377,9622.677246
729.516110,0.000000,-74.020594,10214.842000
729.516426,536.266849,-0.000000,9918.759623
729.516741,383.047749,592.164754,9400.615463
729.517057,153.219100,1554.432478,9104.533087
729.517373,919.314598,592.164754,8438.347739
729.517688,1225.752797,-518.144159,8660.409521
729.518004,842.705048,-1036.288319,9326.594869
729.518320,306.438199,-1110.308913,10066.800811
729.518636,766.095498,-1628.453072,9696.697840
729.518951,383.047749,-888.247130,9992.780217
729.519267,-459.657299,370.102971,10140.821405
729.519583,229.828649,148.041188,9844.739029
729.519899,383.047749,-0.000000,9326.594869
729.520214,76.609550,888.247130,9548.656652
729.520530,153.219100,222.061783,9178.553681
729.520846,229.828649,370.102971,8956.491898
729.521161,76.609550,592.164754,9326.594869
729.521477,0.000000,296.082377,8660.409521
729.521793,612.876398,-0.000000,8216.285956
729.522109,0.000000,-592.164754,9104.533087
729.522424,-153.219100,-814.226536,9992.780217
729.522740,153.219100,-1776.494261,9474.636058
729.523056,-153.219100,-1036.288319,9548.656652
729.523371,-689.485948,-518.144159,10140.821405
729.523687,-536.266849,-666.185348,9622.677246
729.524003,76.609550,-888.247130,8956.491898
729.524319,-536.266849,-740.205942,10140.821405
729.524634,0.000000,-148.041188,9844.739029
729.524950,459.657299,-0.000000,8512.368333
729.525266,229.828649,592.164754,8512.368333
729.525582,0.000000,370.102971,8734.430116
729.525897,612.876398,-0.000000,8734.430116
729.526213,1225.752797,-1184.329507,8586.388927
729.526529,536.266849,-1036.288319,9030.512492
729.526844,153.219100,-1332.370696,9474.636058
729.527160,1149.143247,-1776.494261,9474.636058
729.527476,536.266849,-740.205942,10066.800811
729.527792,0.000000,-370.102971,10436.903782
729.528107,229.828649,-518.144159,10066.800811
729.528423,383.047749,-518.144159,9400.615463
729.528739,0.000000,-0.000000,9696.697840
729.529055,536.266849,-74.020594,9474.636058
729.529370,842.705048,518.144159,9104.533087
729.529686,536.266849,1184.329507,8660.409521
729.530002,766.095498,962.267725,8512.368333
729.530317,1762.019645,-74.020594,9178.553681
729.530633,1225.752797,-518.144159,9104.533087
729.530949,919.314598,-518.144159,10362.883188
729.531265,1302.362347,-740.205942,10140.821405
729.531580,1532.190996,-518.144159,9844.739029
729.531896,0.000000,444.123565,9696.697840
729.532212,612.876398,-296.082377,10288.862594
729.532527,1225.752797,-740.205942,10288.862594
729.532843,229.828649,370.102971,9918.759623
729.533159,-153.219100,666.185348,9770.718434
729.533475,1072.533697,740.205942,9474.636058
729.533790,689.485948,1480.411884,8956.491898
729.534106,689.485948,1258.350101,9178.553681
729.534422,1455.581446,-518.144159,9400.615463
729.534738,1225.752797,-740.205942,9770.718434
729.535053,383.047749,-222.061783,9474.636058
729.535369,536.266849,-1110.308913,10288.862594
729.535685,766.095498,-1702.473667,10584.944971
729.536000,0.000000,-444.123565,10362.883188
729.536316,76.609550,-0.000000,9918.759623
729.536632,689.485948,-740.205942,9918.759623
729.536948,76.609550,-148.041188,10066.800811
729.537263,306.438199,-0.000000,10140.821405
729.537579,919.314598,296.082377,8882.471304
729.537895,612.876398,666.185348,9030.512492
729.538211,383.047749,1554.432478,8364.327145
729.538526,1455.581446,-74.020594,8882.471304
729.538842,995.924147,-740.205942,8734.430116
729.539158,153.219100,-740.205942,9770.718434
729.539473,153.219100,-1776.494261,9918.759623
729.539789,459.657299,-1850.514855,9548.656652
729.540105,-459.657299,-962.267725,10732.986159
729.540421,-689.485948,-148.041188,9992.780217
729.540736,0.000000,-962.267725,9400.615463
729.541052,229.828649,-74.020594,9474.636058
729.541368,-842.705048,74.020594,9622.677246
729.541683,76.609550,-0.000000,8734.430116
729.541999,229.828649,370.102971,8216.285956
729.542315,153.219100,1110.308913,8290.306550
729.542631,383.047749,444.123565,8068.244768
729.542946,1072.533697,222.061783,8216.285956
729.543262,383.047749,-814.226536,8734.430116
729.543578,0.000000,-814.226536,9474.636058
729.543894,383.047749,-1036.288319,9252.574275
729.544209,-229.828649,-1110.308913,9622.677246
729.544525,-689.485948,148.041188,10140.821405
729.544841,-536.266849,-370.102971,9696.697840
729.545156,-306.438199,-592.164754,9770.718434
729.545472,-1225.752797,-0.000000,10436.903782
729.545788,-612.876398,148.041188,9474.636058
729.546104,0.000000,444.123565,8660.409521
729.546419,-229.828649,962.267725,8660.409521
729.546735,153.219100,1110.308913,9178.553681
729.547051,1149.143247,148.041188,8808.450710
729.547367,919.314598,-518.144159,8290.306550
729.547682,612.876398,-740.205942,9622.677246
729.547998,919.314598,-1258.350101,9622.677246
729.548314,1225.752797,-1480.411884,9918.759623
729.548629,459.657299,-592.164754,11029.068536
729.548945,153.219100,-148.041188,10807.006753
729.549261,995.924147,-518.144159,9992.780217
729.549577,306.438199,148.041188,9622.677246
729.549892,383.047749,444.123565,10066.800811
729.550208,612.876398,222.061783,9548.656652
729.550524,995.924147,888.247130,8808.450710
729.550839,766.095498,1776.494261,9104.533087
729.551155,1455.581446,296.082377,9252.574275
729.551471,2145.067394,-296.082377,8882.471304
729.551787,919.314598,-370.102971,9104.533087
729.552102,766.095498,-444.123565,9844.739029
729.552418,1608.800546,-1110.308913,10288.862594
729.552734,919.314598,-296.082377,10510.924376
729.553050,0.000000,296.082377,10288.862594
729.553365,766.095498,-370.102971,10288.862594
729.553681,612.876398,-0.000000,10066.800811
729.553997,229.828649,888.247130,9770.718434
729.554312,383.047749,1036.288319,9548.656652
729.554628,1225.752797,1036.288319,9326.594869
729.554944,689.485948,2072.576638,8734.430116
729.555260,536.266849,1480.411884,8364.327145
729.555575,1378.971896,-222.061783,8808.450710
729.555891,1149.143247,-370.102971,9030.512492
729.556207,153.219100,-592.164754,9474.636058
729.556523,689.485948,-1184.329507,9844.739029
729.556838,306.438199,-1184.329507,10066.800811
729.557154,-536.266849,-148.041188,10140.821405
729.557470,-766.095498,-148.041188,9844.739029
729.557785,459.657299,-370.102971,9770.718434
729.558101,-153.219100,-1110.308913,10066.800811
729.558417,-229.828649,370.102971,9696.697840
729.558733,306.438199,-222.061783,8660.409521
729.559048,536.266849,-0.000000,9548.656652
729.559364,0.000000,1110.308913,8660.409521
729.559680,459.657299,-370.102971,8142.265362
729.559995,1378.971896,-814.226536,8956.491898
729.560311,766.095498,-1110.308913,9400.615463
729.560627,536.266849,-888.247130,8808.450710
729.560943,995.924147,-2294.638420,9474.636058
729.561258,-229.828649,-1332.370696,9770.718434
729.561574,76.609550,-740.205942,9844.739029
729.561890,76.609550,-962.267725,9548.656652
729.562206,76.609550,-814.226536,9474.636058
729.562521,-1225.752797,-0.000000,10362.883188
729.562837,0.000000,-518.144159,9474.636058
729.563153,-306.438199,518.144159,8512.368333
729.563468,-536.266849,1184.329507,8512.368333
729.563784,0.000000,-0.000000,9030.512492
729.564100,995.924147,-1332.370696,8586.388927
729.564416,0.000000,-1332.370696,9326.594869
729.564731,-459.657299,-1702.473667,10066.800811
729.565047,229.828649,-1998.556043,9844.739029
729.565363,0.000000,-962.267725,9770.718434
729.565679,-919.314598,296.082377,9844.739029
729.565994,-229.828649,-518.144159,9918.759623
729.566310,0.000000,-888.247130,9770.718434
729.566626,-689.485948,-370.102971,9622.677246
729.566941,153.219100,-666.185348,9844.739029
729.567257,229.828649,-370.102971,9030.512492
729.567573,0.000000,740.205942,8290.306550
729.567889,306.438199,518.144159,9030.512492
729.568204,1225.752797,-666.185348,8734.430116
729.568520,1225.752797,-814.226536,8882.471304
729.568836,-76.609550,-1258.350101,9844.739029
729.569151,229.828649,-2072.576638,10140.821405
729.569467,766.095498,-1332.370696,9622.677246
729.569783,-76.609550,-370.102971,9992.780217
729.570099,0.000000,-740.205942,10510.924376
729.570414,612.876398,-1036.288319,10288.862594
729.570730,153.219100,-370.102971,9622.677246
729.571046,0.000000,222.061783,9474.636058
729.571362,766.095498,-0.000000,9844.739029
729.571677,1378.971896,444.123565,8808.450710
729.571993,459.657299,1406.391290,9104.533087
729.572309,1532.190996,444.123565,9178.553681
729.572624,2068.457845,-0.000000,9030.512492
729.572940,1838.629195,148.041188,8882.471304
729.573256,1302.362347,-148.041188,9326.594869
729.573572,1608.800546,-814.226536,9548.656652
729.573887,842.705048,296.082377,9696.697840
729.574203,383.047749,-0.000000,10362.883188
729.574519,766.095498,-0.000000,9992.780217
729.574835,459.657299,518.144159,10066.800811
729.575150,306.438199,740.205942,9992.780217
729.575466,612.876398,814.226536,9770.718434
729.575782,689.485948,1702.473667,9474.636058
729.576097,306.438199,2294.638420,8512.368333
729.576413,689.485948,1110.308913,9178.553681
729.576729,1302.362347,-0.000000,9252.574275
729.577045,842.705048,-0.000000,9326.594869
729.577360,306.438199,-74.020594,9622.677246
729.577676,766.095498,-666.185348,9696.697840
729.577992,459.657299,-148.041188,9474.636058
729.578307,-306.438199,-0.000000,10066.800811
729.578623,229.828649,-592.164754,10658.965565
729.578939,612.876398,-740.205942,9918.759623
729.579255,76.609550,-0.000000,9622.677246
729.579570,0.000000,-0.000000,10140.821405
729.579886,536.266849,296.082377,9326.594869
729.580202,689.485948,1628.453072,8586.388927
729.580518,766.095498,1480.411884,8438.347739
729.580833,1072.533697,296.082377,8512.368333
729.581149,1149.143247,-666.185348,8882.471304
729.581465,0.000000,-740.205942,9622.677246
729.581780,76.609550,-1406.391290,10066.800811
729.582096,1225.752797,-1110.308913,9622.677246
729.582412,0.000000,-0.000000,9770.718434
729.582728,-459.657299,-592.164754,10066.800811
729.583043,153.219100,-1850.514855,10436.903782
729.583359,-459.657299,-740.205942,9992.780217
729.583675,-306.438199,-296.082377,10140.821405
729.583991,153.219100,-0.000000,9474.636058
729.584306,612.876398,1036.288319,8882.471304
729.584622,76.609550,1850.514855,7920.203579
729.584938,766.095498,370.102971,7920.203579
729.585253,1378.971896,-444.123565,8364.327145
729.585569,306.438199,-518.144159,8068.244768
729.585885,0.000000,-1184.329507,9474.636058
729.586201,459.657299,-1924.535449,9252.574275
729.586516,306.438199,-1406.391290,9844.739029
729.586832,-842.705048,-1110.308913,10362.883188
729.587148,-689.485948,-1776.494261,10732.986159
729.587463,-919.314598,-1406.391290,10140.821405
729.587779,-1455.581446,-962.267725,10510.924376
729.588095,-689.485948,-666.185348,9844.739029
729.588411,229.828649,222.061783,8956.491898
729.588726,0.000000,1702.473667,8586.388927
729.589042,229.828649,296.082377,8512.368333
729.589358,1378.971896,-666.185348,8512.368333
729.589674,383.047749,-1036.288319,9252.574275
729.589989,0.000000,-1036.288319,9474.636058
729.590305,766.095498,-1554.432478,9548.656652
729.590621,1072.533697,-1184.329507,9770.718434
729.590937,0.000000,-296.082377,9918.759623
729.591252,459.657299,-666.185348,10584.944971
729.591568,689.485948,-1332.370696,10140.821405
729.591884,76.609550,-222.061783,9622.677246
729.592200,0.000000,296.082377,9696.697840
729.592515,1149.143247,592.164754,9474.636058
729.592831,842.705048,1184.329507,8364.327145
729.593147,995.924147,1332.370696,8586.388927
729.593463,1838.629195,-0.000000,8660.409521
729.593778,1838.629195,-666.185348,8734.430116
729.594094,1302.362347,-518.144159,9030.512492
729.594410,1532.190996,-962.267725,9400.615463
729.594726,1762.019645,-740.205942,9548.656652
729.595041,1072.533697,222.061783,9844.739029
729.595357,229.828649,148.041188,9770.718434
729.595673,689.485948,-444.123565,9992.780217
729.595989,612.876398,-518.144159,10214.842000
729.596304,0.000000,296.082377,9992.780217
729.596620,459.657299,814.226536,9770.718434
729.596936,766.095498,1480.411884,9326.594869
729.597252,766.095498,1924.535449,8734.430116
729.597568,995.924147,1332.370696,8808.450710
729.597883,1608.800546,370.102971,8882.471304
729.598199,536.266849,518.144159,8956.491898
729.598515,459.657299,-444.123565,9844.739029
729.598831,919.314598,-1184.329507,10288.862594
729.599146,383.047749,-370.102971,9770.718434
729.599462,-383.047749,-0.000000,10140.821405
729.599778,0.000000,-740.205942,10214.842000
729.600094,383.047749,-1110.308913,10214.842000
729.600409,-76.609550,-0.000000,10214.842000
729.600725,76.609550,518.144159,9770.718434
729.601041,995.924147,888.247130,9844.739029
729.601357,766.095498,1628.453072,8734.430116
729.601672,689.485948,1776.494261,8364.327145
729.601988,1838.629195,-296.082377,9400.615463
729.602304,1378.971896,-592.164754,8586.388927
729.602620,306.438199,-592.164754,9400.615463
729.602935,995.924147,-1406.391290,10140.821405
729.603251,842.705048,-1036.288319,9622.677246
729.603567,0.000000,-74.020594,9770.718434
729.603883,0.000000,-296.082377,10066.800811
729.604198,229.828649,-1036.288319,10214.842000
729.604514,0.000000,-296.082377,9918.759623
729.604830,-459.657299,222.061783,9844.739029
729.605146,76.609550,518.144159,9622.677246
729.605461,229.828649,1184.329507,8586.388927
729.605777,0.000000,1332.370696,8512.368333
729.606093,383.047749,222.061783,8882.471304
729.606409,689.485948,-962.267725,9178.553681
729.606724,0.000000,-888.247130,9400.615463
729.607040,0.000000,-1184.329507,9622.677246
729.607356,689.485948,-1184.329507,9770.718434
729.607672,0.000000,-518.144159,9622.677246
729.607988,-1072.533697,-296.082377,9770.718434
729.608303,-153.219100,-1110.308913,10066.800811
729.608619,153.219100,-444.123565,9400.615463
729.608935,-842.705048,148.041188,9548.656652
729.609251,-229.828649,-370.102971,9326.594869
729.609566,536.266849,-74.020594,8586.388927
729.609882,-229.828649,888.247130,8586.388927
729.610198,306.438199,-0.000000,9104.533087
729.610514,689.485948,-1036.288319,8808.450710
729.610829,229.828649,-888.247130,8586.388927
729.611145,-612.876398,-1110.308913,9696.697840
729.611461,459.657299,-1628.453072,9622.677246
729.611777,229.828649,-1184.329507,9400.615463
729.612092,-459.657299,-888.247130,9770.718434
729.612408,-995.924147,-1554.432478,10510.924376
729.612724,536.266849,-1332.370696,9696.697840
729.613040,0.000000,-74.020594,9400.615463
729.613355,459.657299,-0.000000,9474.636058
729.613671,1455.581446,-0.000000,9326.594869
729.613987,1378.971896,-0.000000,8438.347739
729.614303,459.657299,1406.391290,8956.491898
729.614618,1608.800546,-222.061783,8734.430116
729.614934,2221.676944,-740.205942,9326.594869
729.615250,842.705048,518.144159,8660.409521
729.615566,1072.533697,-888.247130,9844.739029
729.615881,2451.505594,-592.164754,9844.739029
729.616197,459.657299,-222.061783,9548.656652
729.616513,919.314598,-0.000000,9992.780217
729.616829,1302.362347,-888.247130,9548.656652
729.617144,536.266849,-0.000000,9548.656652
729.617460,536.266849,222.061783,9918.759623
729.617776,1072.533697,-0.000000,9844.739029
729.618092,842.705048,814.226536,9178.553681
729.618408,459.657299,1702.473667,9252.574275
729.618723,766.095498,666.185348,8586.388927
729.619039,1532.190996,-740.205942,9104.533087
729.619355,229.828649,-222.061783,9474.636058
729.619671,459.657299,-1110.308913,10362.883188
729.619986,1225.752797,-1628.453072,9622.677246
729.620302,536.266849,-370.102971,9770.718434
729.620618,-383.047749,148.041188,10140.821405
729.620934,689.485948,-148.041188,9844.739029
729.621249,689.485948,-296.082377,9770.718434
729.621565,-306.438199,-74.020594,10140.821405
729.621881,383.047749,-74.020594,10140.821405
729.622197,995.924147,444.123565,9178.553681
729.622512,76.609550,1332.370696,9252.574275
729.622828,383.047749,1036.288319,9918.759623
729.623144,1608.800546,-370.102971,9400.615463
729.623460,919.314598,814.226536,9178.553681
729.623775,-76.609550,-0.000000,9548.656652
729.624091,536.266849,-814.226536,10140.821405
729.624407,919.314598,-444.123565,10066.800811
729.624723,-306.438199,222.061783,9918.759623
729.625038,76.609550,-222.061783,10214.842000
729.625354,536.266849,-518.144159,9622.677246
729.625670,-306.438199,-0.000000,9548.656652
729.625986,-306.438199,-0.000000,10066.800811
729.626301,76.609550,-0.000000,9400.615463
729.626617,0.000000,962.267725,8734.430116
729.626933,-536.266849,962.267725,9030.512492
729.627249,536.266849,-222.061783,8808.450710
729.627564,0.000000,-962.267725,9326.594869
729.627880,0.000000,-814.226536,9622.677246
729.628196,229.828649,-962.267725,9326.594869
729.628512,459.657299,-1110.308913,9104.533087
729.628828,-229.828649,-148.041188,9474.636058
729.629143,0.000000,-148.041188,8882.471304
729.629459,766.095498,-666.185348,9030.512492
729.629775,-229.828649,-740.205942,9548.656652
729.630091,-612.876398,-296.082377,10214.842000
729.630406,0.000000,-222.061783,8882.471304
729.630722,76.609550,740.205942,8364.327145
729.631038,-766.095498,962.267725,8438.347739
729.631354,153.219100,-444.123565,8882.471304
729.631669,536.266849,-1110.308913,9104.533087
729.631985,-689.485948,-814.226536,9474.636058
729.632301,-306.438199,-1332.370696,10510.924376
729.632617,306.438199,-1924.535449,10214.842000
729.632932,-383.047749,-814.226536,9400.615463
729.633248,-383.047749,-148.041188,9992.780217
729.633564,229.828649,-222.061783,9400.615463
729.633880,766.095498,-666.185348,9252.574275
729.634195,153.219100,-0.000000,9622.677246
729.634511,919.314598,740.205942,8660.409521
729.634827,1685.410096,370.102971,8290.306550
729.635143,1302.362347,962.267725,8660.409521
729.635458,1685.410096,666.185348,9104.533087
729.635774,2068.457845,-370.102971,8734.430116
729.636090,1915.238745,-370.102971,9030.512492
729.636406,995.924147,-1110.308913,9918.759623
729.636721,1225.752797,-1554.432478,10214.842000
729.637037,995.924147,-1332.370696,9844.739029
729.637353,306.438199,-74.020594,10288.862594
729.637669,766.095498,-444.123565,10584.944971
729.637985,1149.143247,-592.164754,9992.780217
729.638300,612.876398,444.123565,9696.697840
729.638616,689.485948,296.082377,9770.718434
729.638932,1149.143247,222.061783,9770.718434
729.639248,1149.143247,888.247130,9030.512492
729.639563,612.876398,1184.329507,9178.553681
729.639879,1915.238745,148.041188,9400.615463
729.640195,1532.190996,-592.164754,9548.656652
729.640511,766.095498,-148.041188,9918.759623
729.640826,766.095498,-148.041188,9770.718434
729.641142,1302.362347,-888.247130,9992.780217
729.641458,229.828649,-0.000000,10066.800811
729.641774,153.219100,370.102971,9918.759623
729.642089,689.485948,-370.102971,9474.636058
729.642405,229.828649,-518.144159,9992.780217
729.642721,-229.828649,-148.041188,9992.780217
729.643037,306.438199,-444.123565,9992.780217
729.643352,306.438199,370.102971,8956.491898
729.643668,-383.047749,1036.288319,8808.450710
729.643984,153.219100,222.061783,8956.491898
729.644300,612.876398,-740.205942,8882.471304
729.644615,0.000000,-962.267725,9474.636058
729.644931,-383.047749,-1406.391290,9844.739029
729.645247,459.657299,-1702.473667,10140.821405
729.645563,153.219100,-666.185348,9844.739029
729.645878,-536.266849,222.061783,9474.636058
729.646194,306.438199,-296.082377,8956.491898
729.646510,306.438199,-592.164754,9474.636058
729.646826,-383.047749,-74.020594,9844.739029
729.647141,383.047749,-0.000000,9474.636058
729.647457,1072.533697,444.123565,8364.327145
729.647773,383.047749,1480.411884,8364.327145
729.648089,306.438199,1184.329507,8512.368333
729.648405,1072.533697,-222.061783,7994.224174
729.648720,689.485948,-666.185348,9104.533087
729.649036,0.000000,-1036.288319,9696.697840
729.649352,76.609550,-1406.391290,9622.677246
729.649668,0.000000,-1480.411884,9918.759623
729.649983,-842.705048,-962.267725,10140.821405
729.650299,-536.266849,-444.123565,10214.842000
729.650615,76.609550,-740.205942,9400.615463
729.650931,-383.047749,-0.000000,9474.636058
729.651246,-76.609550,222.061783,10066.800811
729.651562,459.657299,-222.061783,9030.512492
729.651878,76.609550,592.164754,8216.285956
729.652194,229.828649,592.164754,8808.450710
729.652509,995.924147,-222.061783,8364.327145
729.652825,1455.581446,-740.205942,9104.533087
729.653141,306.438199,-1036.288319,9104.533087
729.653457,995.924147,-962.267725,9622.677246
729.653772,536.266849,-1406.391290,9622.677246
729.654088,76.609550,-444.123565,9696.697840
729.654404,-229.828649,-148.041188,9918.759623
729.654720,536.266849,-814.226536,10436.903782
729.655035,459.657299,-74.020594,9696.697840
729.655351,0.000000,296.082377,9992.780217
729.655667,459.657299,222.061783,10214.842000
729.655983,1149.143247,666.185348,8882.471304
729.656298,766.095498,1332.370696,8586.388927
729.656614,1302.362347,1110.308913,8808.450710
729.656930,1838.629195,-148.041188,9030.512492
729.657246,1685.410096,-74.020594,9474.636058
729.657561,689.485948,-222.061783,9400.615463
729.657877,1149.143247,-518.144159,9622.677246
729.658193,1149.143247,-296.082377,10288.862594
729.658509,153.219100,296.082377,10658.965565
729.658825,536.266849,370.102971,10066.800811
729.659140,842.705048,-0.000000,9400.615463
729.659456,306.438199,148.041188,10066.800811
729.659772,766.095498,592.164754,10140.821405
729.660088,1302.362347,370.102971,9400.615463
729.660403,689.485948,1258.350101,8882.471304
729.660719,0.000000,1110.308913,9252.574275
729.661035,1302.362347,-370.102971,9178.553681
729.661351,1072.533697,-592.164754,9104.533087
729.661666,0.000000,-740.205942,9548.656652
729.661982,536.266849,-1776.494261,10066.800811
729.662298,919.314598,-1628.453072,9918.759623
729.662614,-536.266849,-444.123565,9770.718434
729.662929,-153.219100,-592.164754,10658.965565
729.663245,153.219100,-740.205942,10140.821405
729.663561,153.219100,296.082377,9474.636058
729.663877,153.219100,518.144159,9918.759623
729.664192,459.657299,-0.000000,9326.594869
729.664508,612.876398,222.061783,9178.553681
729.664824,459.657299,888.247130,9104.533087
729.665140,995.924147,296.082377,8808.450710
729.665455,766.095498,-518.144159,8216.285956
729.665771,383.047749,-370.102971,9104.533087
729.666087,306.438199,-888.247130,9474.636058
729.666403,689.485948,-1406.391290,9696.697840
729.666718,0.000000,-1258.350101,9992.780217
729.667034,-1072.533697,-740.205942,10288.862594
729.667350,-383.047749,-222.061783,9992.780217
729.667666,383.047749,-740.205942,9178.553681
729.667981,-229.828649,-0.000000,9622.677246
729.668297,0.000000,222.061783,10140.821405
729.668613,689.485948,-0.000000,8882.471304
729.668929,76.609550,1036.288319,8216.285956
729.669245,459.657299,296.082377,8216.285956
729.669560,1455.581446,-740.205942,8660.409521
729.669876,612.876398,-888.247130,9252.574275
729.670192,0.000000,-1036.288319,9326.594869
729.670508,689.485948,-1480.411884,9548.656652
729.670823,383.047749,-888.247130,9400.615463
729.671139,-459.657299,-296.082377,9622.677246
729.671455,229.828649,-1184.329507,9548.656652
729.671771,459.657299,-1036.288319,9548.656652
729.672086,0.000000,-444.123565,9918.759623
729.672402,-229.828649,-148.041188,9548.656652
729.672718,612.876398,-0.000000,8956.491898
729.673034,536.266849,1110.308913,8808.450710
729.673349,-229.828649,1332.370696,8290.306550
729.673665,842.705048,-74.020594,8290.306550
729.673981,995.924147,-962.267725,8956.491898
729.674297,0.000000,-888.247130,9400.615463
729.674612,306.438199,-1480.411884,9474.636058
729.674928,612.876398,-1776.494261,10066.800811
729.675244,-383.047749,-592.164754,9696.697840
729.675560,-766.095498,-370.102971,10066.800811
729.675875,0.000000,-666.185348,10140.821405
729.676191,0.000000,-518.144159,10510.924376
729.676507,-689.485948,518.144159,10288.862594
729.676823,0.000000,666.185348,9548.656652
729.677138,612.876398,1184.329507,9178.553681
729.677454,229.828649,1702.473667,9178.553681
729.677770,612.876398,518.144159,8512.368333
729.678086,995.924147,-444.123565,8734.430116
729.678401,689.485948,-814.226536,9400.615463
729.678717,76.609550,-888.247130,9622.677246
729.679033,536.266849,-1924.535449,10510.924376
729.679349,0.000000,-1036.288319,10066.800811
729.679665,-612.876398,-592.164754,10362.883188
729.679980,-153.219100,-1184.329507,10510.924376
729.680296,383.047749,-1036.288319,10214.842000
729.680612,229.828649,-740.205942,10510.924376
729.680928,612.876398,-814.226536,10436.903782
729.681243,995.924147,-0.000000,9326.594869
729.681559,1149.143247,-0.000000,9030.512492
729.681875,1225.752797,-148.041188,9030.512492
729.682191,2068.457845,-666.185348,8882.471304
729.682506,2068.457845,-814.226536,8808.450710
729.682822,1685.410096,-444.123565,8956.491898
729.683138,1991.848295,-370.102971,8956.491898
729.683454,2374.896044,-592.164754,8956.491898
729.683769,1532.190996,-592.164754,8734.430116
729.684085,612.876398,-1332.370696,9548.656652
729.684401,536.266849,-1924.535449,10510.924376
729.684717,0.000000,-2072.576638,10214.842000
729.685032,-995.924147,-1628.453072,10807.006753
729.685348,-459.657299,-1036.288319,10288.862594
729.685664,-612.876398,-666.185348,9548.656652
729.685980,-1072.533697,-1110.308913,9030.512492
729.686295,-1072.533697,-1036.288319,9252.574275
729.686611,-536.266849,-2368.659014,8808.450710
729.686927,-459.657299,-2516.700203,9030.512492
729.687243,-766.095498,-2516.700203,9770.718434
729.687558,-306.438199,-2590.720797,9696.697840
729.687874,-612.876398,-2442.679609,9474.636058
729.688190,-1455.581446,-2146.597232,9770.718434
729.688506,-1455.581446,-2072.576638,9474.636058
729.688821,-766.095498,-1406.391290,9030.512492
729.689137,-689.485948,-1258.350101,9474.636058
729.689453,-612.876398,-1036.288319,9252.574275
729.689769,-306.438199,-444.123565,7920.203579
729.690085,-459.657299,-592.164754,7550.100608
729.690400,-612.876398,-888.247130,7624.121203
729.690716,-1225.752797,-962.267725,7624.121203
729.691032,-1685.410096,-1554.432478,7994.224174
729.691348,-1685.410096,-2590.720797,8734.430116
729.691663,-2451.505594,-3552.988522,9548.656652
729.691979,-3370.820191,-4293.194464,9918.759623
729.692295,-3217.601092,-4589.276840,10510.924376
729.692611,-3370.820191,-4441.235652,11399.171507
729.692927,-4290.134789,-3478.967927,10807.006753
729.693242,-4366.744339,-1998.556043,9992.780217
729.693558,-3217.601092,-1036.288319,9696.697840
729.693874,-2068.457845,-814.226536,9474.636058
729.694190,-1532.190996,-592.164754,8438.347739
729.694505,-1302.362347,-740.205942,7772.162391
729.694821,-383.047749,-1554.432478,7994.224174
729.695137,-76.609550,-1998.556043,8142.265362
729.695453,153.219100,-1776.494261,7772.162391
729.695769,76.609550,-1036.288319,7105.977043
729.696084,-459.657299,-1036.288319,7920.203579
729.696400,-919.314598,-2146.597232,8956.491898
729.696716,-1762.019645,-3108.864956,9696.697840
729.697032,-2681.334243,-3701.029710,10436.903782
729.697347,-3524.039291,-3552.988522,11473.192101
729.697663,-3370.820191,-3404.947333,11547.212695
729.697979,-3524.039291,-2590.720797,11843.295072
729.698295,-3830.477490,-1332.370696,11325.150913
729.698611,-4136.915689,-222.061783,10066.800811
729.698926,-2757.943793,-518.144159,9918.759623
729.699242,-2068.457845,-1480.411884,9622.677246
729.699558,-1378.971896,-1480.411884,8956.491898
729.699874,-919.314598,-1924.535449,8660.409521
729.700189,0.000000,-2368.659014,9474.636058
729.700505,459.657299,-2368.659014,8882.471304
729.700821,536.266849,-1554.432478,9400.615463
729.701137,0.000000,-666.185348,9474.636058
729.701453,-536.266849,-222.061783,9178.553681
729.701768,-766.095498,-1110.308913,9474.636058
729.702084,-306.438199,-1184.329507,9178.553681
729.702400,-459.657299,-1332.370696,10288.862594
729.702716,-1225.752797,-1628.453072,10510.924376
729.703031,-1762.019645,-2220.617826,10807.006753
729.703347,-1532.190996,-2368.659014,10732.986159
729.703663,-1302.362347,-2368.659014,10732.986159
729.703979,-995.924147,-1628.453072,10288.862594
729.704295,-1149.143247,-962.267725,9474.636058
729.704610,-1302.362347,-962.267725,8364.327145
729.704926,-306.438199,-1406.391290,8216.285956
729.705242,0.000000,-1406.391290,7846.182985
729.705558,-153.219100,-2368.659014,7772.162391
729.705873,-842.705048,-3034.844362,9252.574275
729.706189,-1302.362347,-3849.070898,10214.842000
729.706505,-1991.848295,-3330.926739,10436.903782
729.706821,-2298.286494,-2368.659014,11029.068536
729.707137,-2681.334243,-2072.576638,10955.047942
729.707452,-2068.457845,-2442.679609,10510.924376
729.707768,-1991.848295,-2294.638420,9696.697840
729.708084,-1608.800546,-1628.453072,9252.574275
729.708400,-689.485948,-1628.453072,8142.265362
729.708715,-459.657299,-1924.535449,7698.141797
729.709031,-229.828649,-2664.741391,7328.038826
729.709347,-766.095498,-3478.967927,7698.141797
729.709663,-1225.752797,-3256.906145,8438.347739
729.709979,-2068.457845,-3552.988522,9178.553681
729.710294,-2681.334243,-3923.091493,9696.697840
729.710610,-2834.553343,-3701.029710,10214.842000
729.710926,-2374.896044,-3478.967927,10288.862594
729.711242,-2911.162892,-3182.885551,10140.821405
729.711557,-2604.724693,-2664.741391,10066.800811
729.711873,-2757.943793,-2220.617826,9548.656652
729.712189,-2451.505594,-1924.535449,9104.533087
729.712505,-1762.019645,-1776.494261,8660.409521
729.712821,-1915.238745,-2146.597232,8290.306550
729.713136,-1991.848295,-2368.659014,8068.244768
729.713452,-1685.410096,-3182.885551,8512.368333
729.713768,-1455.581446,-3701.029710,8660.409521
729.714084,-1991.848295,-3775.050304,8956.491898
729.714399,-2757.943793,-3552.988522,9696.697840
729.714715,-2604.724693,-3552.988522,10288.862594
729.715031,-3140.991542,-3182.885551,10510.924376
729.715347,-3370.820191,-2664.741391,10584.944971
729.715663,-3217.601092,-2146.597232,10510.924376
729.715978,-2834.553343,-1406.391290,9918.759623
729.716294,-2451.505594,-888.247130,9400.615463
729.716610,-919.314598,-740.205942,9030.512492
729.716926,-995.924147,-740.205942,7846.182985
729.717241,-383.047749,-666.185348,7624.121203
729.717557,-306.438199,-1184.329507,7402.059420
729.717873,-459.657299,-1628.453072,7476.080014
729.718189,-995.924147,-2294.638420,8216.285956
729.718505,-1838.629195,-3034.844362,9252.574275
729.718820,-2604.724693,-4293.194464,10436.903782
729.719136,-3830.477490,-4737.318029,11547.212695
729.719452,-4749.792088,-5181.441594,12139.377449
729.719768,-4826.401637,-5625.565159,12953.603985
729.720083,-4060.306139,-4441.235652,12879.583391
729.720399,-3677.258390,-2886.803174,11991.336260
729.720715,-2834.553343,-1776.494261,11177.109724
729.721031,-1225.752797,-592.164754,9622.677246
729.721347,153.219100,296.082377,8290.306550
729.721662,1991.848295,296.082377,7105.977043
729.721978,2911.162892,444.123565,6365.771101
729.722294,3677.258390,-0.000000,6217.729913
729.722610,3830.477490,-518.144159,5995.668130
729.722925,3447.429741,-1184.329507,6883.915261
729.723241,2298.286494,-1998.556043,7994.224174
729.723557,919.314598,-2886.803174,9548.656652
729.723873,-689.485948,-3478.967927,10658.965565
729.724189,-2451.505594,-3182.885551,11843.295072
729.724504,-3370.820191,-3034.844362,12065.356855
729.724820,-3677.258390,-2516.700203,11991.336260
729.725136,-3907.087040,-2072.576638,11695.253884
729.725452,-3983.696590,-2072.576638,11399.171507
729.725767,-3753.867940,-1776.494261,10510.924376
729.726083,-3064.381992,-2368.659014,9696.697840
729.726399,-2451.505594,-2368.659014,9178.553681
729.726715,-1838.629195,-2072.576638,8512.368333
729.727031,-766.095498,-1776.494261,7624.121203
729.727346,-995.924147,-1628.453072,7772.162391
729.727662,-689.485948,-1332.370696,7920.203579
729.727978,-536.266849,-1702.473667,8586.388927
729.728294,-766.095498,-2220.617826,9104.533087
729.728609,-1225.752797,-2146.597232,9696.697840
729.728925,-1685.410096,-1998.556043,9918.759623
729.729241,-1915.238745,-1480.411884,9844.739029
729.729557,-2145.067394,-962.267725,10288.862594
729.729873,-2145.067394,-1258.350101,10288.862594
729.730188,-2451.505594,-1480.411884,9918.759623
729.730504,-2145.067394,-2146.597232,9252.574275
729.730820,-1915.238745,-2220.617826,9178.553681
729.731136,-1838.629195,-2738.761985,9030.512492
729.731451,-1378.971896,-2886.803174,9030.512492
729.731767,-689.485948,-3034.844362,8882.471304
729.732083,-919.314598,-3330.926739,9030.512492
729.732399,-1532.190996,-2812.782580,9178.553681
729.732715,-1455.581446,-3478.967927,9696.697840
729.733030,-995.924147,-3182.885551,10214.842000
729.733346,-1302.362347,-2146.597232,9548.656652
729.733662,-919.314598,-1554.432478,9548.656652
729.733978,-229.828649,-962.267725,9474.636058
729.734293,229.828649,-962.267725,8808.450710
729.734609,459.657299,-592.164754,8512.368333
729.734925,1225.752797,-518.144159,8068.244768
729.735241,536.266849,-962.267725,8068.244768
729.735557,612.876398,-1110.308913,8142.265362
729.735872,306.438199,-1702.473667,7920.203579
729.736188,-153.219100,-2294.638420,8512.368333
729.736504,-919.314598,-2590.720797,9326.594869
729.736820,-1915.238745,-2738.761985,9696.697840
729.737135,-2604.724693,-2664.741391,10362.883188
729.737451,-3370.820191,-2220.617826,10658.965565
729.737767,-3753.867940,-1702.473667,10658.965565
729.738083,-3370.820191,-1184.329507,11103.089130
729.738399,-3370.820191,-592.164754,10214.842000
729.738714,-2987.772442,-370.102971,9770.718434
729.739030,-2068.457845,-592.164754,9918.759623
729.739346,-1378.971896,-1110.308913,9326.594869
729.739662,-766.095498,-1406.391290,8734.430116
729.739977,-459.657299,-1258.350101,8882.471304
729.740293,-612.876398,-1332.370696,8660.409521
729.740609,-689.485948,-1554.432478,8734.430116
729.740925,-689.485948,-1628.453072,9400.615463
729.741241,-1225.752797,-1702.473667,9474.636058
729.741556,-2145.067394,-1924.535449,9696.697840
729.741872,-2528.115143,-2294.638420,9844.739029
729.742188,-3140.991542,-2516.700203,10362.883188
729.742504,-2757.943793,-2812.782580,10732.986159
729.742819,-4366.744339,-3404.947333,10066.800811
729.743135,-4136.915689,-2960.823768,10732.986159
729.743451,-3983.696590,-3404.947333,10584.944971
729.743767,-3907.087040,-4219.173869,10510.924376
729.744083,-3140.991542,-4219.173869,10288.862594
729.744398,-2834.553343,-4515.256246,9770.718434
729.744714,-2298.286494,-4219.173869,9400.615463
729.745030,-1685.410096,-3923.091493,9178.553681
729.745346,-1378.971896,-4071.132681,8882.471304
729.745661,-1225.752797,-3849.070898,9104.533087
729.745977,-1225.752797,-4145.153275,9030.512492
729.746293,-1685.410096,-3775.050304,9252.574275
729.746609,-1455.581446,-3849.070898,9548.656652
729.746925,-1762.019645,-3775.050304,9474.636058
729.747240,-1608.800546,-3404.947333,9474.636058
