#time,accel_x,accel_y,accel_z
1036.948795,-612.876398,-370.102971,10140.821405
1036.949111,-689.485948,-74.020594,10140.821405
1036.949426,0.000000,-0.000000,10066.800811
1036.949742,153.219100,666.185348,9918.759623
1036.950058,995.924147,1110.308913,9178.553681
1036.950373,842.705048,1258.350101,8956.491898
1036.950689,1225.752797,1554.432478,8956.491898
1036.951005,1455.581446,1702.473667,8808.450710
1036.951320,1532.190996,1480.411884,8956.491898
1036.951636,1455.581446,1184.329507,9104.533087
1036.951952,1149.143247,888.247130,9252.574275
1036.952267,612.876398,666.185348,9770.718434
1036.952583,383.047749,518.144159,9844.739029
1036.952899,459.657299,148.041188,10436.903782
1036.953214,0.000000,592.164754,10288.862594
1036.953530,-76.609550,962.267725,10066.800811
1036.953846,0.000000,666.185348,9918.759623
1036.954161,229.828649,592.164754,9770.718434
1036.954477,842.705048,444.123565,9548.656652
1036.954793,306.438199,740.205942,9770.718434
1036.955108,76.609550,814.226536,9622.677246
1036.955424,383.047749,740.205942,9548.656652
1036.955739,383.047749,814.226536,9326.594869
1036.956055,153.219100,740.205942,9326.594869
1036.956371,-306.438199,814.226536,9696.697840
1036.956686,-459.657299,592.164754,9474.636058
1036.957002,-383.047749,296.082377,9548.656652
1036.957318,-536.266849,-0.000000,9844.739029
1036.957633,-1149.143247,-296.082377,10066.800811
1036.957949,-995.924147,-296.082377,9992.780217
1036.958265,-995.924147,-518.144159,10066.800811
1036.958580,-766.095498,-444.123565,9918.759623
1036.958896,-612.876398,-74.020594,9992.780217
1036.959212,-459.657299,-74.020594,9622.677246
1036.959527,0.000000,-74.020594,9326.594869
1036.959843,76.609550,-0.000000,9030.512492
1036.960159,459.657299,-222.061783,9104.533087
1036.960474,766.095498,-74.020594,8882.471304
1036.960790,536.266849,-296.082377,9252.574275
1036.961106,842.705048,222.061783,9178.553681
1036.961421,612.876398,-222.061783,8956.491898
1036.961737,766.095498,-0.000000,9030.512492
1036.962053,536.266849,-0.000000,9104.533087
1036.962368,153.219100,-0.000000,9252.574275
1036.962684,0.000000,222.061783,9178.553681
1036.963000,0.000000,-74.020594,8956.491898
1036.963315,229.828649,222.061783,9400.615463
1036.963631,-383.047749,-296.082377,9252.574275
1036.963947,-459.657299,-74.020594,9474.636058
1036.964262,-306.438199,-666.185348,9474.636058
1036.964578,-306.438199,-370.102971,9474.636058
1036.964894,0.000000,-296.082377,9474.636058
1036.965209,-153.219100,-148.041188,9400.615463
1036.965525,-153.219100,-74.020594,9326.594869
1036.965841,0.000000,-0.000000,9400.615463
1036.966156,0.000000,-296.082377,9178.553681
1036.966472,229.828649,-296.082377,9474.636058
1036.966788,229.828649,-0.000000,9474.636058
1036.967103,76.609550,-148.041188,9326.594869
1036.967419,612.876398,-296.082377,9326.594869
1036.967734,842.705048,-222.061783,9326.594869
1036.968050,612.876398,-444.123565,9326.594869
1036.968366,842.705048,-222.061783,9326.594869
1036.968681,689.485948,-740.205942,9622.677246
1036.968997,689.485948,-740.205942,9622.677246
1036.969313,612.876398,-296.082377,10140.821405
1036.969628,1302.362347,-592.164754,9992.780217
1036.969944,995.924147,-444.123565,10140.821405
1036.970260,1149.143247,-370.102971,9622.677246
1036.970575,1302.362347,-148.041188,9622.677246
1036.970891,1149.143247,-0.000000,9548.656652
1036.971207,1455.581446,-0.000000,9770.718434
1036.971522,1455.581446,-74.020594,9474.636058
1036.971838,1455.581446,-0.000000,9474.636058
1036.972154,995.924147,-0.000000,9474.636058
1036.972469,536.266849,-148.041188,9548.656652
1036.972785,1302.362347,-370.102971,9622.677246
1036.973101,612.876398,-370.102971,9696.697840
1036.973416,383.047749,-592.164754,9918.759623
1036.973732,383.047749,-222.061783,9844.739029
1036.974048,76.609550,-444.123565,9844.739029
1036.974363,306.438199,-592.164754,9622.677246
1036.974679,0.000000,-222.061783,9474.636058
1036.974995,0.000000,-0.000000,9252.574275
1036.975310,153.219100,-0.000000,9400.615463
1036.975626,383.047749,-74.020594,9326.594869
1036.975942,0.000000,-0.000000,9696.697840
1036.976257,0.000000,-296.082377,9548.656652
1036.976573,76.609550,-74.020594,9326.594869
1036.976889,306.438199,-222.061783,9178.553681
1036.977204,383.047749,-148.041188,9252.574275
1036.977520,383.047749,-518.144159,9474.636058
1036.977836,306.438199,-0.000000,9252.574275
1036.978151,153.219100,-148.041188,9178.553681
1036.978467,0.000000,-0.000000,9400.615463
1036.978782,-229.828649,-148.041188,9326.594869
1036.979098,0.000000,-222.061783,9474.636058
1036.979414,0.000000,-222.061783,9548.656652
1036.979729,0.000000,-0.000000,9474.636058
1036.980045,0.000000,-296.082377,9400.615463
1036.980361,0.000000,-444.123565,9400.615463
1036.980676,842.705048,-296.082377,9400.615463
1036.980992,459.657299,-444.123565,9178.553681
1036.981308,383.047749,-296.082377,9400.615463
1036.981623,612.876398,-222.061783,9326.594869
1036.981939,459.657299,-148.041188,9474.636058
1036.982255,383.047749,-740.205942,9252.574275
1036.982570,766.095498,-296.082377,9474.636058
1036.982886,766.095498,-444.123565,9474.636058
1036.983202,842.705048,-444.123565,9400.615463
1036.983517,919.314598,-296.082377,9178.553681
1036.983833,1302.362347,-296.082377,9030.512492
1036.984148,1072.533697,-74.020594,9326.594869
1036.984464,612.876398,-74.020594,9252.574275
1036.984779,612.876398,-296.082377,9548.656652
1036.985095,842.705048,-148.041188,9696.697840
1036.985411,383.047749,-370.102971,9622.677246
1036.985726,612.876398,-222.061783,9400.615463
1036.986042,689.485948,-222.061783,9474.636058
1036.986357,689.485948,-0.000000,9622.677246
1036.986673,1072.533697,-0.000000,9770.718434
1036.986988,842.705048,-0.000000,9474.636058
1036.987304,459.657299,222.061783,9548.656652
1036.987620,689.485948,148.041188,9548.656652
1036.987935,536.266849,222.061783,9548.656652
1036.988251,766.095498,296.082377,9474.636058
1036.988566,766.095498,222.061783,9696.697840
1036.988882,459.657299,-74.020594,9474.636058
1036.989197,536.266849,-0.000000,9548.656652
1036.989513,306.438199,-0.000000,9622.677246
1036.989828,612.876398,-222.061783,9326.594869
1036.990144,766.095498,-74.020594,9622.677246
1036.990460,612.876398,-148.041188,9548.656652
1036.990775,536.266849,-0.000000,9474.636058
1036.991091,536.266849,-0.000000,9400.615463
1036.991406,459.657299,-296.082377,9474.636058
1036.991722,306.438199,-148.041188,9548.656652
1036.992037,459.657299,-0.000000,9474.636058
1036.992353,383.047749,-222.061783,9474.636058
1036.992668,153.219100,-148.041188,9548.656652
1036.992984,766.095498,-0.000000,9622.677246
1036.993300,306.438199,-148.041188,9474.636058
1036.993615,229.828649,-74.020594,9622.677246
1036.993931,153.219100,-296.082377,9474.636058
1036.994246,153.219100,-370.102971,9474.636058
1036.994562,689.485948,-222.061783,9326.594869
1036.994877,306.438199,-148.041188,9622.677246
1036.995193,306.438199,-74.020594,9474.636058
1036.995509,306.438199,-370.102971,9548.656652
1036.995824,153.219100,-370.102971,9474.636058
1036.996140,-306.438199,-444.123565,9548.656652
1036.996455,0.000000,-296.082377,9474.636058
1036.996771,229.828649,-370.102971,9474.636058
1036.997086,383.047749,-296.082377,9548.656652
1036.997402,383.047749,-370.102971,9474.636058
1036.997717,459.657299,-0.000000,9400.615463
1036.998033,76.609550,-222.061783,9548.656652
1036.998349,306.438199,-0.000000,9326.594869
1036.998664,536.266849,-222.061783,9326.594869
1036.998980,459.657299,-148.041188,9252.574275
1036.999295,689.485948,-444.123565,9030.512492
1036.999611,689.485948,-148.041188,9326.594869
1036.999926,842.705048,-74.020594,9326.594869
1037.000242,612.876398,-74.020594,9252.574275
1037.000558,536.266849,-0.000000,9474.636058
1037.000873,766.095498,-370.102971,9252.574275
1037.001189,536.266849,-222.061783,9252.574275
1037.001504,536.266849,-74.020594,9252.574275
1037.001820,76.609550,-148.041188,9252.574275
1037.002135,306.438199,-296.082377,9400.615463
1037.002451,383.047749,-370.102971,9400.615463
1037.002766,459.657299,-0.000000,9326.594869
1037.003082,153.219100,-370.102971,9400.615463
1037.003398,306.438199,-296.082377,9326.594869
1037.003713,459.657299,-370.102971,9400.615463
1037.004029,76.609550,-296.082377,9918.759623
1037.004344,306.438199,-148.041188,9474.636058
1037.004660,459.657299,-222.061783,9252.574275
1037.004975,153.219100,-148.041188,9474.636058
1037.005291,76.609550,-148.041188,9622.677246
1037.005606,459.657299,-222.061783,9622.677246
1037.005922,229.828649,-370.102971,9474.636058
1037.006238,229.828649,-148.041188,9474.636058
1037.006553,153.219100,-370.102971,9474.636058
1037.006869,383.047749,-296.082377,9474.636058
1037.007184,306.438199,-0.000000,9770.718434
1037.007500,229.828649,-296.082377,9400.615463
1037.007815,76.609550,-148.041188,9548.656652
1037.008131,229.828649,-370.102971,9474.636058
1037.008447,919.314598,-74.020594,9548.656652
1037.008762,306.438199,-222.061783,9474.636058
1037.009078,459.657299,-74.020594,9548.656652
1037.009393,459.657299,-74.020594,9622.677246
1037.009709,306.438199,-222.061783,9474.636058
1037.010024,459.657299,-222.061783,9548.656652
1037.010340,229.828649,-222.061783,9696.697840
1037.010655,229.828649,-222.061783,9918.759623
1037.010971,153.219100,-296.082377,9474.636058
1037.011287,306.438199,-148.041188,9474.636058
1037.011602,306.438199,-518.144159,9696.697840
1037.011918,229.828649,-148.041188,9548.656652
1037.012233,229.828649,-222.061783,9474.636058
1037.012549,306.438199,-74.020594,9474.636058
1037.012864,459.657299,-148.041188,9474.636058
1037.013180,766.095498,-0.000000,9770.718434
1037.013495,229.828649,-0.000000,9474.636058
1037.013811,306.438199,-0.000000,9696.697840
1037.014127,383.047749,-0.000000,9474.636058
1037.014442,383.047749,-0.000000,9474.636058
1037.014758,459.657299,-148.041188,9548.656652
1037.015073,383.047749,-222.061783,9474.636058
1037.015389,383.047749,-222.061783,9548.656652
1037.015704,536.266849,-148.041188,9474.636058
1037.016020,689.485948,-296.082377,9770.718434
1037.016336,229.828649,-444.123565,9474.636058
1037.016651,612.876398,-148.041188,9548.656652
1037.016967,689.485948,-222.061783,9178.553681
1037.017282,459.657299,-148.041188,9400.615463
1037.017598,459.657299,-222.061783,9474.636058
1037.017913,459.657299,-148.041188,9178.553681
1037.018229,536.266849,-148.041188,9326.594869
1037.018544,536.266849,-222.061783,9474.636058
1037.018860,536.266849,-74.020594,9326.594869
1037.019176,306.438199,-74.020594,9474.636058
1037.019491,766.095498,-0.000000,9474.636058
1037.019807,536.266849,-222.061783,9400.615463
1037.020122,689.485948,-0.000000,9474.636058
1037.020438,612.876398,-222.061783,9474.636058
1037.020753,459.657299,-222.061783,9548.656652
1037.021069,459.657299,-148.041188,9474.636058
1037.021385,383.047749,-148.041188,9622.677246
1037.021700,612.876398,-296.082377,9326.594869
1037.022016,536.266849,-74.020594,9622.677246
1037.022331,612.876398,-74.020594,9326.594869
1037.022647,459.657299,-74.020594,9400.615463
1037.022962,383.047749,-0.000000,9474.636058
1037.023278,229.828649,-222.061783,9548.656652
1037.023593,383.047749,-148.041188,9474.636058
1037.023909,459.657299,-222.061783,9474.636058
1037.024225,383.047749,-148.041188,9548.656652
1037.024540,383.047749,-148.041188,9696.697840
1037.024856,229.828649,-222.061783,9622.677246
1037.025171,229.828649,-518.144159,9622.677246
1037.025487,76.609550,-444.123565,9548.656652
1037.025802,229.828649,-0.000000,9622.677246
1037.026118,459.657299,-74.020594,9474.636058
1037.026433,0.000000,-222.061783,9548.656652
1037.026749,306.438199,-74.020594,9548.656652
1037.027065,536.266849,-222.061783,9548.656652
1037.027380,612.876398,-148.041188,9400.615463
1037.027696,536.266849,-222.061783,9474.636058
1037.028011,459.657299,-370.102971,9770.718434
1037.028327,459.657299,-222.061783,9474.636058
1037.028642,459.657299,-74.020594,9474.636058
1037.028958,536.266849,-74.020594,9548.656652
1037.029274,612.876398,-148.041188,9326.594869
1037.029589,766.095498,-0.000000,9696.697840
1037.029905,689.485948,222.061783,9622.677246
1037.030220,612.876398,-74.020594,9474.636058
1037.030536,612.876398,-296.082377,9252.574275
1037.030851,689.485948,-148.041188,9474.636058
1037.031167,766.095498,370.102971,9622.677246
1037.031482,536.266849,-0.000000,9400.615463
1037.031798,536.266849,-74.020594,9474.636058
1037.032114,689.485948,-148.041188,9326.594869
1037.032429,689.485948,-222.061783,9622.677246
1037.032745,153.219100,-444.123565,9474.636058
1037.033060,689.485948,-0.000000,9474.636058
1037.033376,612.876398,-0.000000,9474.636058
1037.033691,612.876398,-148.041188,9400.615463
1037.034007,612.876398,-222.061783,9474.636058
1037.034323,842.705048,-74.020594,9844.739029
1037.034638,689.485948,-370.102971,9178.553681
1037.034954,612.876398,-0.000000,9474.636058
1037.035269,612.876398,-222.061783,9474.636058
1037.035585,689.485948,-592.164754,9326.594869
1037.035900,0.000000,-444.123565,9474.636058
1037.036216,536.266849,-666.185348,9400.615463
1037.036531,383.047749,-222.061783,9474.636058
1037.036847,383.047749,-370.102971,9400.615463
1037.037163,612.876398,-444.123565,9400.615463
1037.037478,536.266849,-148.041188,9770.718434
1037.037794,459.657299,-370.102971,9400.615463
1037.038109,229.828649,-222.061783,9400.615463
1037.038425,383.047749,-296.082377,9474.636058
1037.038740,229.828649,-370.102971,9474.636058
1037.039056,229.828649,-814.226536,9400.615463
1037.039371,536.266849,-296.082377,9326.594869
1037.039687,153.219100,-444.123565,9474.636058
1037.040003,229.828649,-222.061783,9548.656652
1037.040318,153.219100,-222.061783,9400.615463
1037.040634,229.828649,-74.020594,9622.677246
1037.040949,229.828649,-222.061783,9400.615463
1037.041265,153.219100,-74.020594,9400.615463
1037.041580,306.438199,-74.020594,9474.636058
1037.041896,459.657299,-444.123565,9474.636058
1037.042212,-229.828649,-148.041188,9622.677246
1037.042527,229.828649,-370.102971,9474.636058
1037.042843,383.047749,-370.102971,9400.615463
1037.043158,536.266849,-74.020594,9474.636058
1037.043474,459.657299,-74.020594,9474.636058
1037.043789,612.876398,-222.061783,9474.636058
1037.044105,536.266849,-148.041188,9548.656652
1037.044420,383.047749,-0.000000,9548.656652
1037.044736,306.438199,148.041188,9474.636058
1037.045052,383.047749,-74.020594,9400.615463
1037.045367,689.485948,-222.061783,9474.636058
1037.045683,536.266849,-0.000000,9622.677246
1037.045998,306.438199,-0.000000,9474.636058
1037.046314,459.657299,-74.020594,9326.594869
1037.046629,383.047749,-148.041188,9548.656652
1037.046945,536.266849,-0.000000,9844.739029
1037.047260,459.657299,-148.041188,9400.615463
1037.047576,536.266849,-0.000000,9696.697840
1037.047892,383.047749,-0.000000,9474.636058
1037.048207,536.266849,-0.000000,9474.636058
1037.048523,383.047749,-148.041188,9474.636058
1037.048838,383.047749,-222.061783,9400.615463
1037.049154,383.047749,-148.041188,9696.697840
1037.049469,306.438199,-148.041188,9548.656652
1037.049785,459.657299,-222.061783,9548.656652
1037.050101,229.828649,-370.102971,9548.656652
1037.050416,153.219100,-222.061783,9474.636058
1037.050732,459.657299,-0.000000,9622.677246
1037.051047,229.828649,-0.000000,9474.636058
1037.051363,383.047749,-148.041188,9474.636058
1037.051678,306.438199,-74.020594,9696.697840
1037.051994,229.828649,-148.041188,9474.636058
1037.052309,306.438199,-148.041188,9474.636058
1037.052625,229.828649,-74.020594,9474.636058
1037.052941,383.047749,-666.185348,9474.636058
1037.053256,229.828649,-74.020594,9474.636058
1037.053572,459.657299,-74.020594,9474.636058
1037.053887,306.438199,-148.041188,9400.615463
1037.054203,306.438199,-148.041188,9252.574275
1037.054518,383.047749,-222.061783,9548.656652
1037.054834,306.438199,-74.020594,9474.636058
1037.055150,536.266849,-0.000000,9252.574275
1037.055465,459.657299,-0.000000,9474.636058
1037.055781,306.438199,-74.020594,9474.636058
1037.056096,229.828649,-444.123565,9474.636058
1037.056412,229.828649,-222.061783,9548.656652
1037.056727,229.828649,-74.020594,9474.636058
1037.057043,229.828649,-74.020594,9400.615463
1037.057358,153.219100,-148.041188,9474.636058
1037.057674,383.047749,-0.000000,9622.677246
1037.057990,612.876398,-74.020594,9252.574275
1037.058305,383.047749,-148.041188,9474.636058
1037.058621,306.438199,-222.061783,9400.615463
1037.058936,459.657299,-222.061783,9252.574275
1037.059252,612.876398,-370.102971,9474.636058
1037.059567,306.438199,-222.061783,9474.636058
1037.059883,306.438199,-296.082377,9474.636058
1037.060198,383.047749,-148.041188,9474.636058
1037.060514,459.657299,-148.041188,9548.656652
1037.060830,995.924147,-148.041188,9548.656652
1037.061145,612.876398,-0.000000,9622.677246
1037.061461,612.876398,-74.020594,9474.636058
1037.061776,459.657299,-0.000000,9548.656652
1037.062092,459.657299,-148.041188,9474.636058
1037.062407,612.876398,-148.041188,9548.656652
1037.062723,536.266849,-0.000000,9474.636058
1037.063039,459.657299,-222.061783,9474.636058
1037.063354,229.828649,-148.041188,9696.697840
1037.063670,459.657299,-148.041188,9622.677246
1037.063985,536.266849,-148.041188,9548.656652
1037.064301,536.266849,-0.000000,9548.656652
1037.064616,153.219100,-0.000000,9622.677246
1037.064932,536.266849,-222.061783,9474.636058
1037.065247,306.438199,-148.041188,9622.677246
1037.065563,536.266849,-222.061783,9548.656652
1037.065879,383.047749,-74.020594,9400.615463
1037.066194,153.219100,-148.041188,9326.594869
1037.066510,459.657299,-148.041188,9622.677246
1037.066825,229.828649,-592.164754,9474.636058
1037.067141,153.219100,-148.041188,9474.636058
1037.067456,383.047749,-222.061783,9326.594869
1037.067772,383.047749,-222.061783,9696.697840
1037.068087,459.657299,-222.061783,9326.594869
1037.068403,689.485948,-148.041188,9474.636058
1037.068719,229.828649,-370.102971,9474.636058
1037.069034,229.828649,-74.020594,9474.636058
1037.069350,459.657299,-148.041188,9548.656652
1037.069665,383.047749,-296.082377,9400.615463
1037.069981,306.438199,-222.061783,9474.636058
1037.070296,536.266849,-296.082377,9474.636058
1037.070612,383.047749,-74.020594,9474.636058
1037.070928,383.047749,-444.123565,9474.636058
1037.071243,229.828649,-296.082377,9252.574275
1037.071559,689.485948,-444.123565,9622.677246
1037.071874,229.828649,-370.102971,9474.636058
1037.072190,383.047749,-296.082377,9548.656652
1037.072505,459.657299,-370.102971,9326.594869
1037.072821,536.266849,-296.082377,9474.636058
1037.073136,383.047749,-296.082377,9474.636058
1037.073452,229.828649,-74.020594,9548.656652
1037.073768,766.095498,-296.082377,9178.553681
1037.074083,459.657299,-370.102971,9474.636058
1037.074399,536.266849,-370.102971,9474.636058
1037.074714,995.924147,-592.164754,9474.636058
1037.075030,536.266849,-222.061783,9474.636058
1037.075345,383.047749,-444.123565,9474.636058
1037.075661,612.876398,-370.102971,9400.615463
1037.075977,306.438199,-222.061783,9474.636058
1037.076292,536.266849,-444.123565,9474.636058
1037.076608,766.095498,-370.102971,9252.574275
1037.076923,536.266849,-444.123565,9548.656652
1037.077239,383.047749,-222.061783,9548.656652
1037.077554,842.705048,-74.020594,9474.636058
1037.077870,612.876398,-370.102971,9770.718434
1037.078185,459.657299,-74.020594,9400.615463
1037.078501,612.876398,-370.102971,9474.636058
1037.078817,306.438199,-222.061783,9548.656652
1037.079132,766.095498,-370.102971,9548.656652
1037.079448,766.095498,-296.082377,9474.636058
1037.079763,459.657299,-370.102971,9474.636058
1037.080079,306.438199,-148.041188,9474.636058
1037.080394,536.266849,-74.020594,9474.636058
1037.080710,612.876398,-0.000000,9474.636058
1037.081025,766.095498,-0.000000,9548.656652
1037.081341,689.485948,-74.020594,9474.636058
1037.081657,459.657299,-148.041188,9474.636058
1037.081972,459.657299,-148.041188,9622.677246
1037.082288,229.828649,-74.020594,9474.636058
1037.082604,536.266849,-0.000000,9474.636058
1037.082919,306.438199,-0.000000,9474.636058
1037.083235,536.266849,-296.082377,9548.656652
1037.083551,383.047749,74.020594,9474.636058
1037.083866,689.485948,-444.123565,9548.656652
1037.084182,383.047749,-74.020594,9474.636058
1037.084498,229.828649,-74.020594,9474.636058
1037.084813,383.047749,-222.061783,9474.636058
1037.085129,689.485948,-148.041188,9474.636058
1037.085445,689.485948,-222.061783,9770.718434
1037.085760,383.047749,-148.041188,9622.677246
1037.086076,459.657299,-0.000000,9548.656652
1037.086392,995.924147,-0.000000,9474.636058
1037.086707,459.657299,-74.020594,9474.636058
1037.087023,306.438199,-666.185348,9696.697840
1037.087338,459.657299,-148.041188,9474.636058
1037.087654,459.657299,-0.000000,9548.656652
1037.087970,306.438199,-148.041188,9474.636058
1037.088285,229.828649,-148.041188,9548.656652
1037.088601,0.000000,-296.082377,9622.677246
1037.088917,153.219100,-148.041188,9474.636058
1037.089232,229.828649,-222.061783,9474.636058
1037.089548,306.438199,-74.020594,9400.615463
1037.089864,229.828649,-148.041188,9474.636058
1037.090179,459.657299,-222.061783,9474.636058
1037.090495,536.266849,-0.000000,9474.636058
1037.090811,536.266849,-148.041188,9474.636058
1037.091126,459.657299,-74.020594,9474.636058
1037.091442,306.438199,-296.082377,9326.594869
1037.091758,306.438199,-0.000000,9474.636058
1037.092073,229.828649,-444.123565,9400.615463
1037.092389,383.047749,-148.041188,9622.677246
1037.092704,383.047749,-222.061783,9696.697840
1037.093020,229.828649,-148.041188,9252.574275
1037.093336,459.657299,-0.000000,9548.656652
1037.093651,459.657299,-0.000000,9474.636058
1037.093967,689.485948,444.123565,9622.677246
1037.094283,306.438199,-148.041188,9474.636058
1037.094598,612.876398,148.041188,9474.636058
1037.094914,383.047749,518.144159,9400.615463
1037.095230,306.438199,444.123565,9252.574275
1037.095545,842.705048,444.123565,9400.615463
1037.095861,766.095498,518.144159,9548.656652
1037.096177,919.314598,444.123565,9548.656652
1037.096492,0.000000,296.082377,9400.615463
1037.096808,306.438199,-0.000000,9326.594869
1037.097124,229.828649,148.041188,9696.697840
1037.097439,536.266849,296.082377,9548.656652
1037.097755,0.000000,814.226536,9400.615463
1037.098071,229.828649,666.185348,9548.656652
1037.098386,153.219100,888.247130,9400.615463
1037.098702,229.828649,962.267725,9178.553681
1037.099017,536.266849,1110.308913,9326.594869
1037.099333,0.000000,1184.329507,9474.636058
1037.099649,153.219100,1332.370696,9030.512492
1037.099964,0.000000,1184.329507,9178.553681
1037.100280,-306.438199,1258.350101,9252.574275
1037.100596,-536.266849,1628.453072,9326.594869
1037.100911,-766.095498,1406.391290,9178.553681
1037.101227,-1225.752797,1258.350101,9400.615463
1037.101543,-1225.752797,1332.370696,9474.636058
1037.101858,-1685.410096,1480.411884,9474.636058
1037.102174,-1532.190996,1110.308913,9474.636058
1037.102490,-1838.629195,1554.432478,9770.718434
1037.102805,-2068.457845,1554.432478,9622.677246
1037.103121,-2221.676944,1850.514855,9696.697840
1037.103437,-2145.067394,1998.556043,9696.697840
1037.103752,-2528.115143,1702.473667,9696.697840
1037.104068,-2145.067394,2072.576638,9474.636058
1037.104384,-1991.848295,2220.617826,9178.553681
1037.104699,-2221.676944,2146.597232,9400.615463
1037.105015,-1991.848295,1998.556043,9400.615463
1037.105330,-1762.019645,1924.535449,9992.780217
1037.105646,-2221.676944,1776.494261,9696.697840
1037.105962,-2145.067394,1776.494261,10066.800811
1037.106277,-1915.238745,1776.494261,9770.718434
1037.106593,-1762.019645,1998.556043,9918.759623
1037.106909,-1685.410096,2072.576638,9844.739029
1037.107224,-1378.971896,2368.659014,9622.677246
1037.107540,-1532.190996,2442.679609,9548.656652
1037.107856,-1455.581446,2368.659014,9474.636058
1037.108171,-1225.752797,2146.597232,9326.594869
1037.108487,-1302.362347,2516.700203,9474.636058
1037.108803,-1608.800546,1998.556043,9400.615463
1037.109118,-1762.019645,1924.535449,9622.677246
1037.109434,-1685.410096,1776.494261,9696.697840
1037.109750,-1915.238745,1702.473667,9622.677246
1037.110065,-1762.019645,1776.494261,9696.697840
1037.110381,-2221.676944,1480.411884,9918.759623
1037.110696,-2451.505594,1332.370696,9992.780217
1037.111012,-2451.505594,1036.288319,10066.800811
1037.111328,-2451.505594,1036.288319,10140.821405
1037.111643,-2145.067394,1110.308913,9844.739029
1037.111959,-2451.505594,1332.370696,9992.780217
1037.112275,-2221.676944,1332.370696,9474.636058
1037.112590,-1915.238745,1628.453072,9178.553681
1037.112906,-2145.067394,2146.597232,9104.533087
1037.113222,-2068.457845,2442.679609,8882.471304
1037.113537,-1915.238745,2516.700203,8808.450710
1037.113853,-2068.457845,2368.659014,8956.491898
1037.114169,-2374.896044,1850.514855,8956.491898
1037.114484,-2145.067394,1110.308913,9474.636058
1037.114800,-2145.067394,444.123565,9844.739029
1037.115116,-2374.896044,-74.020594,10214.842000
1037.115431,-2145.067394,-148.041188,10510.924376
1037.115747,-1762.019645,-0.000000,10362.883188
1037.116063,-1685.410096,370.102971,9844.739029
1037.116378,-842.705048,888.247130,9844.739029
1037.116694,-689.485948,1554.432478,9178.553681
1037.117009,0.000000,2220.617826,8586.388927
1037.117325,229.828649,2516.700203,8142.265362
1037.117641,0.000000,2516.700203,8068.244768
1037.117956,383.047749,2664.741391,8290.306550
1037.118272,0.000000,2294.638420,8364.327145
1037.118588,-383.047749,1850.514855,8290.306550
1037.118903,-842.705048,1702.473667,8956.491898
1037.119219,-1149.143247,1110.308913,9622.677246
1037.119535,-1915.238745,666.185348,9918.759623
1037.119850,-2528.115143,518.144159,10214.842000
1037.120166,-2834.553343,666.185348,10066.800811
1037.120482,-2911.162892,666.185348,10362.883188
1037.120797,-2451.505594,518.144159,10584.944971
1037.121113,-1915.238745,370.102971,10066.800811
1037.121429,-1378.971896,740.205942,9696.697840
1037.121744,-612.876398,592.164754,9474.636058
1037.122060,0.000000,740.205942,9252.574275
1037.122376,229.828649,1332.370696,9326.594869
1037.122691,153.219100,1628.453072,8512.368333
1037.123007,306.438199,2368.659014,8586.388927
1037.123322,153.219100,2590.720797,8512.368333
1037.123638,0.000000,2812.782580,8512.368333
1037.123954,-1072.533697,3034.844362,8290.306550
1037.124269,-1608.800546,2738.761985,8586.388927
1037.124585,-2298.286494,2146.597232,9326.594869
1037.124901,-3217.601092,1406.391290,9918.759623
1037.125216,-3907.087040,-148.041188,11103.089130
1037.125532,-4290.134789,-370.102971,11399.171507
1037.125848,-4443.353888,-1036.288319,11547.212695
1037.126163,-3830.477490,-1628.453072,11399.171507
1037.126479,-3753.867940,-1776.494261,11621.233289
1037.126795,-2451.505594,-1110.308913,11473.192101
1037.127110,-1762.019645,-148.041188,10584.944971
1037.127426,-306.438199,1332.370696,9326.594869
1037.127742,229.828649,2886.803174,8290.306550
1037.128057,995.924147,3923.091493,7179.997637
1037.128373,995.924147,4441.235652,7031.956449
1037.128688,995.924147,4663.297435,6883.915261
1037.129004,306.438199,4145.153275,7328.038826
1037.129320,-383.047749,2886.803174,8364.327145
1037.129635,-1225.752797,1332.370696,9326.594869
1037.129951,-2145.067394,-222.061783,10732.986159
1037.130267,-3294.210641,-1258.350101,11695.253884
1037.130582,-3140.991542,-2368.659014,12139.377449
1037.130898,-2911.162892,-2146.597232,12287.418637
1037.131214,-2298.286494,-1554.432478,11843.295072
1037.131529,-1532.190996,-444.123565,11399.171507
1037.131845,-306.438199,518.144159,10140.821405
1037.132161,536.266849,2368.659014,8364.327145
1037.132476,1608.800546,4145.153275,7476.080014
1037.132792,2451.505594,4367.215058,6735.874072
1037.133108,2451.505594,4071.132681,7179.997637
1037.133423,2451.505594,3108.864956,7624.121203
1037.133739,1762.019645,1554.432478,7920.203579
1037.134055,766.095498,-148.041188,9326.594869
1037.134370,306.438199,-1776.494261,10436.903782
1037.134686,76.609550,-1924.535449,11251.130318
1037.135001,-306.438199,-1480.411884,11473.192101
1037.135317,-842.705048,-740.205942,10955.047942
1037.135633,-689.485948,-518.144159,10288.862594
1037.135948,-383.047749,-0.000000,9696.697840
1037.136264,0.000000,888.247130,9474.636058
1037.136580,306.438199,1110.308913,8438.347739
1037.136895,383.047749,1036.288319,8290.306550
1037.137211,459.657299,370.102971,8586.388927
1037.137527,536.266849,-518.144159,9030.512492
1037.137842,612.876398,-814.226536,9474.636058
1037.138158,536.266849,-888.247130,9696.697840
1037.138474,383.047749,-814.226536,9992.780217
1037.138789,76.609550,-444.123565,9844.739029
1037.139105,153.219100,-222.061783,9696.697840
1037.139421,612.876398,-0.000000,9844.739029
1037.139736,995.924147,-148.041188,9770.718434
1037.140052,1149.143247,-666.185348,9400.615463
1037.140368,1378.971896,-1110.308913,9030.512492
1037.140683,1608.800546,-1702.473667,9326.594869
1037.140999,2068.457845,-1628.453072,9548.656652
1037.141314,2604.724693,-1184.329507,9030.512492
1037.141630,2374.896044,-518.144159,8586.388927
1037.141946,2451.505594,666.185348,7920.203579
1037.142261,2451.505594,1258.350101,7994.224174
1037.142577,1991.848295,1036.288319,8512.368333
1037.142893,1532.190996,1036.288319,9030.512492
1037.143208,919.314598,814.226536,8734.430116
1037.143524,153.219100,-0.000000,9104.533087
1037.143840,-306.438199,-1332.370696,10214.842000
1037.144155,-995.924147,-2590.720797,11103.089130
1037.144471,-995.924147,-3182.885551,11769.274478
1037.144787,-689.485948,-2590.720797,11621.233289
1037.145102,-766.095498,-1924.535449,10140.821405
1037.145418,-536.266849,-1036.288319,9696.697840
1037.145734,306.438199,-0.000000,9474.636058
1037.146049,1225.752797,962.267725,8734.430116
1037.146365,1225.752797,1998.556043,7994.224174
1037.146680,1378.971896,2146.597232,7476.080014
1037.146996,1608.800546,1776.494261,7476.080014
1037.147312,766.095498,518.144159,8808.450710
1037.147627,1149.143247,-666.185348,9548.656652
1037.147943,536.266849,-1332.370696,10066.800811
1037.148259,-536.266849,-1184.329507,10362.883188
1037.148574,-1532.190996,-1110.308913,10288.862594
1037.148890,-1838.629195,-1258.350101,10807.006753
1037.149206,-2374.896044,-888.247130,11251.130318
1037.149521,-1532.190996,-592.164754,11029.068536
1037.149837,-1608.800546,-444.123565,10140.821405
1037.150153,-1149.143247,-74.020594,9696.697840
1037.150468,-612.876398,-592.164754,9696.697840
1037.150784,76.609550,-1110.308913,9622.677246
1037.151100,919.314598,-814.226536,9400.615463
1037.151415,1302.362347,-0.000000,8660.409521
1037.151731,1225.752797,888.247130,7698.141797
1037.152047,995.924147,962.267725,7846.182985
1037.152362,536.266849,1480.411884,8734.430116
1037.152678,842.705048,1628.453072,8734.430116
1037.152993,612.876398,1776.494261,9178.553681
1037.153309,-153.219100,1332.370696,9030.512492
1037.153625,-766.095498,-0.000000,9474.636058
1037.153940,-306.438199,-1332.370696,10288.862594
1037.154256,0.000000,-1850.514855,10732.986159
1037.154572,0.000000,-1554.432478,10510.924376
1037.154887,76.609550,-888.247130,9992.780217
1037.155203,0.000000,-74.020594,9400.615463
1037.155519,536.266849,666.185348,9844.739029
1037.155834,1378.971896,1924.535449,9770.718434
1037.156150,1378.971896,3034.844362,8512.368333
1037.156466,1532.190996,2516.700203,8512.368333
1037.156781,1685.410096,1998.556043,8438.347739
1037.157097,2298.286494,592.164754,8956.491898
1037.157413,2451.505594,-0.000000,9474.636058
1037.157728,2145.067394,-148.041188,9326.594869
1037.158044,1762.019645,-148.041188,9622.677246
1037.158360,919.314598,-0.000000,9474.636058
1037.158675,766.095498,222.061783,9844.739029
1037.158991,689.485948,148.041188,9992.780217
1037.159306,612.876398,592.164754,10362.883188
1037.159622,306.438199,444.123565,9252.574275
1037.159938,383.047749,-296.082377,9474.636058
1037.160253,689.485948,-1258.350101,10214.842000
1037.160569,995.924147,-1480.411884,10140.821405
1037.160885,1149.143247,-1406.391290,10066.800811
1037.161200,995.924147,-1036.288319,9178.553681
1037.161516,306.438199,-592.164754,9474.636058
1037.161832,536.266849,-370.102971,9474.636058
1037.162147,76.609550,-0.000000,9548.656652
1037.162463,459.657299,888.247130,9548.656652
1037.162779,0.000000,888.247130,9104.533087
1037.163094,-229.828649,-0.000000,9326.594869
1037.163410,306.438199,-1776.494261,9918.759623
1037.163726,383.047749,-2294.638420,10436.903782
1037.164041,842.705048,-2294.638420,10066.800811
1037.164357,766.095498,-1850.514855,9474.636058
1037.164672,459.657299,-1628.453072,9326.594869
1037.164988,153.219100,-962.267725,9696.697840
1037.165304,536.266849,-148.041188,9770.718434
1037.165619,536.266849,740.205942,9178.553681
1037.165935,0.000000,1258.350101,9178.553681
1037.166251,-383.047749,518.144159,8586.388927
1037.166566,153.219100,-592.164754,9030.512492
1037.166882,383.047749,-1110.308913,9696.697840
1037.167198,689.485948,-1776.494261,9622.677246
1037.167513,459.657299,-1628.453072,9252.574275
1037.167829,0.000000,-1110.308913,9252.574275
1037.168145,-153.219100,-1036.288319,9326.594869
1037.168460,0.000000,-74.020594,9474.636058
1037.168776,0.000000,666.185348,9326.594869
1037.169092,-306.438199,814.226536,8956.491898
1037.169407,-153.219100,-0.000000,8956.491898
1037.169723,76.609550,-592.164754,9178.553681
1037.170039,383.047749,-1628.453072,9474.636058
1037.170354,842.705048,-1776.494261,9474.636058
1037.170670,766.095498,-1258.350101,9326.594869
1037.170985,612.876398,-666.185348,8808.450710
1037.171301,153.219100,-518.144159,9104.533087
1037.171617,153.219100,-0.000000,9252.574275
1037.171932,0.000000,296.082377,9474.636058
1037.172248,-229.828649,740.205942,9400.615463
1037.172564,-459.657299,222.061783,9548.656652
1037.172879,-229.828649,-444.123565,9622.677246
1037.173195,459.657299,-1332.370696,10066.800811
1037.173511,1378.971896,-1628.453072,9844.739029
1037.173826,1532.190996,-1480.411884,9400.615463
1037.174142,1378.971896,-1036.288319,9104.533087
1037.174458,1225.752797,-666.185348,8956.491898
1037.174773,1302.362347,-0.000000,9104.533087
1037.175089,1149.143247,814.226536,9548.656652
1037.175405,919.314598,1184.329507,9178.553681
1037.175720,612.876398,1406.391290,8882.471304
1037.176036,383.047749,888.247130,9030.512492
1037.176352,383.047749,-0.000000,9696.697840
1037.176667,995.924147,-888.247130,10140.821405
1037.176983,842.705048,-1480.411884,10066.800811
1037.177298,689.485948,-1184.329507,9918.759623
1037.177614,153.219100,-592.164754,9770.718434
1037.177930,229.828649,-148.041188,9770.718434
1037.178245,153.219100,666.185348,10362.883188
1037.178561,536.266849,1480.411884,9770.718434
1037.178877,229.828649,1480.411884,9326.594869
1037.179192,76.609550,1110.308913,9178.553681
1037.179508,153.219100,370.102971,9474.636058
1037.179824,995.924147,-296.082377,9622.677246
1037.180139,1762.019645,-592.164754,9326.594869
1037.180455,1532.190996,-74.020594,8808.450710
1037.180771,919.314598,-74.020594,9178.553681
1037.181086,536.266849,370.102971,9474.636058
1037.181402,383.047749,1258.350101,9474.636058
1037.181718,229.828649,2146.597232,9622.677246
1037.182033,-229.828649,2072.576638,9178.553681
1037.182349,-766.095498,1406.391290,9474.636058
1037.182664,-612.876398,-0.000000,9918.759623
1037.182980,-229.828649,-962.267725,10362.883188
1037.183296,536.266849,-1332.370696,10214.842000
1037.183611,459.657299,-962.267725,9770.718434
1037.183927,-153.219100,-296.082377,9548.656652
1037.184242,-229.828649,-0.000000,9400.615463
1037.184558,-306.438199,740.205942,9622.677246
1037.184873,0.000000,1332.370696,9992.780217
1037.185189,-459.657299,1702.473667,8882.471304
1037.185505,-459.657299,1184.329507,9178.553681
1037.185820,-612.876398,222.061783,9326.594869
1037.186136,536.266849,-1702.473667,9474.636058
1037.186451,766.095498,-1628.453072,9992.780217
1037.186767,766.095498,-1554.432478,9400.615463
1037.187083,383.047749,-962.267725,9030.512492
1037.187398,153.219100,-592.164754,8956.491898
1037.187714,0.000000,-740.205942,9770.718434
1037.188029,229.828649,-0.000000,9400.615463
1037.188345,-383.047749,518.144159,9030.512492
1037.188660,-383.047749,222.061783,9030.512492
1037.188976,-842.705048,-814.226536,9400.615463
1037.189292,0.000000,-1036.288319,9622.677246
1037.189607,612.876398,-1628.453072,9622.677246
1037.189923,536.266849,-1628.453072,9622.677246
1037.190238,459.657299,-1110.308913,9326.594869
1037.190554,-229.828649,-1258.350101,9178.553681
1037.190869,153.219100,-666.185348,9548.656652
1037.191185,689.485948,-0.000000,9622.677246
1037.191501,612.876398,740.205942,9326.594869
1037.191816,229.828649,740.205942,8734.430116
1037.192132,-153.219100,-0.000000,9326.594869
1037.192447,995.924147,-814.226536,9622.677246
1037.192763,1838.629195,-1332.370696,9844.739029
1037.193079,1838.629195,-1184.329507,9548.656652
1037.193394,1915.238745,-962.267725,9104.533087
1037.193710,1608.800546,-592.164754,8734.430116
1037.194025,1378.971896,-222.061783,9030.512492
1037.194341,1072.533697,370.102971,9548.656652
1037.194656,842.705048,1258.350101,9104.533087
1037.194972,306.438199,1332.370696,9104.533087
1037.195288,-153.219100,444.123565,9178.553681
1037.195603,76.609550,-370.102971,9548.656652
1037.195919,689.485948,-1480.411884,10066.800811
1037.196234,766.095498,-1628.453072,9992.780217
1037.196550,459.657299,-1554.432478,9622.677246
1037.196866,536.266849,-1332.370696,9622.677246
1037.197181,153.219100,-888.247130,9696.697840
1037.197497,306.438199,-222.061783,9918.759623
1037.197812,383.047749,740.205942,9474.636058
1037.198128,153.219100,962.267725,9178.553681
1037.198443,-153.219100,666.185348,9400.615463
1037.198759,383.047749,-222.061783,9474.636058
1037.199075,919.314598,-518.144159,9474.636058
1037.199390,1149.143247,-666.185348,9844.739029
1037.199706,459.657299,-962.267725,8956.491898
1037.200021,0.000000,-518.144159,9326.594869
1037.200337,229.828649,-0.000000,9622.677246
1037.200653,0.000000,518.144159,10066.800811
1037.200968,-229.828649,962.267725,9622.677246
1037.201284,-536.266849,1332.370696,9992.780217
1037.201599,-689.485948,592.164754,9548.656652
1037.201915,-536.266849,-370.102971,9474.636058
1037.202230,-153.219100,-962.267725,10140.821405
1037.202546,306.438199,-1554.432478,10288.862594
1037.202862,536.266849,-1702.473667,9992.780217
1037.203177,229.828649,-814.226536,9474.636058
1037.203493,229.828649,-222.061783,9474.636058
1037.203808,383.047749,148.041188,9548.656652
1037.204124,536.266849,962.267725,9548.656652
1037.204440,153.219100,1850.514855,9400.615463
1037.204755,383.047749,1554.432478,8734.430116
1037.205071,459.657299,592.164754,8956.491898
1037.205386,612.876398,-296.082377,9474.636058
1037.205702,1302.362347,-1258.350101,9918.759623
1037.206017,1685.410096,-1554.432478,9622.677246
1037.206333,1072.533697,-1110.308913,8808.450710
1037.206649,689.485948,-666.185348,9326.594869
1037.206964,842.705048,-148.041188,9770.718434
1037.207280,1072.533697,814.226536,9844.739029
1037.207595,536.266849,1554.432478,9252.574275
1037.207911,0.000000,1332.370696,8956.491898
1037.208226,0.000000,370.102971,8956.491898
1037.208542,689.485948,-296.082377,9622.677246
1037.208858,1072.533697,-1480.411884,9844.739029
1037.209173,995.924147,-1258.350101,10214.842000
1037.209489,689.485948,-1036.288319,9474.636058
1037.209804,536.266849,-444.123565,9178.553681
1037.210120,383.047749,-148.041188,9474.636058
1037.210436,689.485948,740.205942,10214.842000
1037.210751,306.438199,1036.288319,9400.615463
1037.211067,76.609550,888.247130,9104.533087
1037.211382,0.000000,-0.000000,9104.533087
1037.211698,229.828649,-962.267725,9622.677246
1037.212013,1378.971896,-1628.453072,10214.842000
1037.212329,1072.533697,-1406.391290,9400.615463
1037.212645,842.705048,-1332.370696,9252.574275
1037.212960,612.876398,-740.205942,9104.533087
1037.213276,383.047749,-296.082377,9030.512492
1037.213591,229.828649,222.061783,9696.697840
1037.213907,306.438199,962.267725,9178.553681
1037.214223,-306.438199,1184.329507,8734.430116
1037.214538,-383.047749,-0.000000,9030.512492
1037.214854,-459.657299,-1110.308913,9770.718434
1037.215169,383.047749,-1554.432478,10288.862594
1037.215485,612.876398,-1480.411884,10066.800811
1037.215800,306.438199,-1184.329507,9548.656652
1037.216116,153.219100,-740.205942,9252.574275
1037.216432,153.219100,-962.267725,9326.594869
1037.216747,153.219100,222.061783,9696.697840
1037.217063,153.219100,1184.329507,9474.636058
1037.217378,153.219100,1258.350101,9104.533087
1037.217694,0.000000,1110.308913,9104.533087
1037.218010,76.609550,-0.000000,9474.636058
1037.218325,612.876398,-444.123565,9400.615463
1037.218641,842.705048,-666.185348,9622.677246
1037.218956,1225.752797,-888.247130,9474.636058
1037.219272,536.266849,-740.205942,9252.574275
1037.219587,153.219100,-888.247130,9622.677246
1037.219903,306.438199,-0.000000,9918.759623
1037.220219,383.047749,666.185348,9474.636058
1037.220534,153.219100,1184.329507,9178.553681
1037.220850,153.219100,888.247130,8956.491898
1037.221165,-383.047749,-148.041188,9622.677246
1037.221481,229.828649,-1036.288319,10214.842000
1037.221797,842.705048,-1406.391290,10214.842000
1037.222112,995.924147,-1702.473667,9548.656652
1037.222428,459.657299,-1406.391290,9622.677246
1037.222743,229.828649,-888.247130,9400.615463
1037.223059,306.438199,-370.102971,9770.718434
1037.223374,536.266849,518.144159,10066.800811
1037.223690,153.219100,1480.411884,8956.491898
1037.224006,306.438199,962.267725,8660.409521
1037.224321,383.047749,148.041188,9178.553681
1037.224637,919.314598,-888.247130,9844.739029
1037.224952,1378.971896,-1332.370696,9844.739029
1037.225268,1455.581446,-962.267725,9474.636058
1037.225583,1072.533697,-888.247130,9400.615463
1037.225899,842.705048,-592.164754,9252.574275
1037.226215,766.095498,-0.000000,9400.615463
1037.226530,612.876398,1258.350101,9474.636058
1037.226846,229.828649,1776.494261,9252.574275
1037.227161,76.609550,1184.329507,9178.553681
1037.227477,0.000000,518.144159,9178.553681
1037.227793,0.000000,-296.082377,9474.636058
1037.228108,536.266849,-1258.350101,10140.821405
1037.228424,919.314598,-1702.473667,9770.718434
1037.228739,383.047749,-740.205942,9252.574275
1037.229055,0.000000,-666.185348,9178.553681
1037.229370,383.047749,-222.061783,9474.636058
1037.229686,-153.219100,888.247130,9326.594869
1037.230002,229.828649,1332.370696,9030.512492
1037.230317,306.438199,740.205942,8808.450710
1037.230633,0.000000,740.205942,9326.594869
1037.230948,0.000000,-370.102971,8882.471304
1037.231264,1149.143247,-888.247130,9918.759623
1037.231580,1762.019645,-518.144159,9770.718434
1037.231895,689.485948,-814.226536,9104.533087
1037.232211,689.485948,-296.082377,8956.491898
1037.232526,0.000000,-148.041188,9474.636058
1037.232842,76.609550,296.082377,9622.677246
1037.233157,153.219100,740.205942,9622.677246
1037.233473,-383.047749,888.247130,8882.471304
1037.233789,-766.095498,222.061783,9400.615463
1037.234104,-459.657299,-592.164754,9770.718434
1037.234420,383.047749,-1628.453072,9918.759623
1037.234735,842.705048,-1554.432478,10140.821405
1037.235051,459.657299,-1110.308913,9622.677246
1037.235367,536.266849,-1184.329507,9400.615463
1037.235682,306.438199,-370.102971,9400.615463
1037.235998,612.876398,148.041188,9844.739029
1037.236313,689.485948,888.247130,9474.636058
1037.236629,536.266849,1332.370696,9178.553681
1037.236944,0.000000,814.226536,8956.491898
1037.237260,0.000000,-148.041188,9474.636058
1037.237576,1225.752797,-888.247130,9844.739029
1037.237891,1378.971896,-814.226536,9696.697840
1037.238207,1302.362347,-1184.329507,9992.780217
1037.238522,842.705048,-592.164754,9252.574275
1037.238838,612.876398,-222.061783,9030.512492
1037.239154,766.095498,-0.000000,9844.739029
1037.239469,459.657299,666.185348,9992.780217
1037.239785,459.657299,1406.391290,9252.574275
1037.240100,0.000000,888.247130,9030.512492
1037.240416,0.000000,-222.061783,9548.656652
1037.240731,612.876398,-1554.432478,10066.800811
1037.241047,766.095498,-2072.576638,10140.821405
1037.241363,689.485948,-1628.453072,9992.780217
1037.241678,689.485948,-1480.411884,9622.677246
1037.241994,459.657299,-888.247130,8956.491898
1037.242309,459.657299,-74.020594,9696.697840
1037.242625,842.705048,518.144159,9770.718434
1037.242940,919.314598,962.267725,9104.533087
1037.243256,383.047749,962.267725,8512.368333
1037.243572,459.657299,518.144159,8808.450710
1037.243887,1149.143247,-1036.288319,9770.718434
1037.244203,1072.533697,-1258.350101,9400.615463
1037.244518,1225.752797,-962.267725,9326.594869
1037.244834,995.924147,-1480.411884,9104.533087
1037.245150,459.657299,-592.164754,9326.594869
1037.245465,459.657299,-370.102971,9474.636058
1037.245781,536.266849,222.061783,9918.759623
1037.246096,76.609550,962.267725,9400.615463
1037.246412,-919.314598,888.247130,9104.533087
1037.246727,-229.828649,148.041188,9400.615463
1037.247043,0.000000,-666.185348,9622.677246
1037.247359,383.047749,-740.205942,9844.739029
1037.247674,612.876398,-1258.350101,9548.656652
1037.247990,306.438199,-1332.370696,9474.636058
1037.248305,306.438199,-592.164754,9326.594869
1037.248621,383.047749,-74.020594,9400.615463
1037.248937,536.266849,370.102971,9474.636058
1037.249252,383.047749,1480.411884,9548.656652
1037.249568,229.828649,1776.494261,8956.491898
1037.249883,0.000000,1258.350101,9104.533087
1037.250199,76.609550,-74.020594,9548.656652
1037.250514,1149.143247,-666.185348,9918.759623
1037.250830,1225.752797,-814.226536,9474.636058
1037.251146,1072.533697,-1110.308913,9326.594869
1037.251461,995.924147,-814.226536,9326.594869
1037.251777,0.000000,-222.061783,9400.615463
1037.252092,306.438199,296.082377,9770.718434
1037.252408,76.609550,1036.288319,9548.656652
1037.252724,0.000000,1332.370696,9474.636058
1037.253039,-306.438199,814.226536,9400.615463
1037.253355,-306.438199,-518.144159,9770.718434
1037.253670,689.485948,-962.267725,10288.862594
1037.253986,842.705048,-1776.494261,9992.780217
1037.254301,766.095498,-1554.432478,9474.636058
1037.254617,689.485948,-1258.350101,9548.656652
1037.254933,306.438199,-666.185348,9400.615463
1037.255248,383.047749,148.041188,9918.759623
1037.255564,842.705048,592.164754,9548.656652
1037.255879,689.485948,962.267725,9030.512492
1037.256195,306.438199,592.164754,9400.615463
1037.256511,229.828649,-444.123565,9252.574275
1037.256826,1149.143247,-888.247130,9844.739029
1037.257142,1455.581446,-1184.329507,9770.718434
1037.257457,1685.410096,-888.247130,9030.512492
1037.257773,919.314598,-518.144159,8956.491898
1037.258088,229.828649,-444.123565,9104.533087
1037.258404,229.828649,-296.082377,9548.656652
1037.258720,153.219100,370.102971,9992.780217
1037.259035,0.000000,888.247130,9030.512492
1037.259351,-689.485948,444.123565,9474.636058
1037.259666,-689.485948,-0.000000,9474.636058
1037.259982,-153.219100,-962.267725,9622.677246
1037.260297,153.219100,-1036.288319,10066.800811
1037.260613,459.657299,-1332.370696,9770.718434
1037.260929,383.047749,-888.247130,9474.636058
1037.261244,0.000000,-222.061783,8956.491898
1037.261560,229.828649,-296.082377,9104.533087
1037.261875,383.047749,444.123565,9548.656652
1037.262191,153.219100,1258.350101,9326.594869
1037.262507,-306.438199,1332.370696,8956.491898
1037.262822,0.000000,370.102971,8808.450710
1037.263138,153.219100,-518.144159,9178.553681
1037.263453,612.876398,-296.082377,9696.697840
1037.263769,842.705048,-962.267725,9548.656652
1037.264084,536.266849,-1110.308913,9252.574275
1037.264400,0.000000,-666.185348,9474.636058
1037.264716,0.000000,-444.123565,9770.718434
1037.265031,-229.828649,-222.061783,9844.739029
1037.265347,0.000000,962.267725,9770.718434
1037.265662,-459.657299,1184.329507,9178.553681
1037.265978,-689.485948,-0.000000,9326.594869
1037.266294,76.609550,-814.226536,9770.718434
1037.266609,612.876398,-1406.391290,10362.883188
1037.266925,1378.971896,-1258.350101,9696.697840
1037.267240,919.314598,-1110.308913,9178.553681
1037.267556,612.876398,-444.123565,9104.533087
1037.267871,689.485948,-592.164754,9474.636058
1037.268187,919.314598,518.144159,9474.636058
1037.268503,1072.533697,962.267725,9104.533087
1037.268818,459.657299,740.205942,9104.533087
1037.269134,459.657299,-0.000000,9104.533087
1037.269449,766.095498,-444.123565,9326.594869
1037.269765,1072.533697,-1110.308913,10066.800811
1037.270081,1685.410096,-1184.329507,9918.759623
1037.270396,1455.581446,-518.144159,9474.636058
1037.270712,919.314598,-74.020594,9178.553681
1037.271027,689.485948,-222.061783,9622.677246
1037.271343,612.876398,-0.000000,9918.759623
1037.271658,536.266849,962.267725,9844.739029
1037.271974,383.047749,1184.329507,9400.615463
1037.272290,0.000000,444.123565,9326.594869
1037.272605,0.000000,-148.041188,9622.677246
1037.272921,459.657299,-962.267725,9918.759623
1037.273236,995.924147,-962.267725,10288.862594
1037.273552,766.095498,-740.205942,9844.739029
1037.273868,612.876398,-370.102971,9326.594869
1037.274183,459.657299,-296.082377,9400.615463
1037.274499,612.876398,-0.000000,9844.739029
1037.274814,842.705048,962.267725,9696.697840
1037.275130,689.485948,1184.329507,9104.533087
1037.275445,306.438199,814.226536,9104.533087
1037.275761,536.266849,-0.000000,9252.574275
1037.276077,612.876398,-962.267725,9622.677246
1037.276392,1302.362347,-888.247130,9918.759623
1037.276708,1149.143247,-814.226536,9326.594869
1037.277023,612.876398,-740.205942,8956.491898
1037.277339,459.657299,-518.144159,9252.574275
1037.277655,536.266849,-296.082377,9474.636058
1037.277970,306.438199,296.082377,9770.718434
1037.278286,229.828649,814.226536,8660.409521
1037.278601,-536.266849,518.144159,9326.594869
1037.278917,-612.876398,-148.041188,9474.636058
1037.279232,-459.657299,-1036.288319,9696.697840
1037.279548,153.219100,-1184.329507,9770.718434
1037.279864,229.828649,-1406.391290,9474.636058
1037.280179,153.219100,-1258.350101,8956.491898
1037.280495,0.000000,-740.205942,9104.533087
1037.280810,76.609550,-0.000000,9326.594869
1037.281126,76.609550,814.226536,9474.636058
1037.281441,153.219100,1702.473667,9178.553681
1037.281757,-153.219100,1480.411884,9030.512492
1037.282073,-459.657299,444.123565,9252.574275
1037.282388,0.000000,-666.185348,9474.636058
1037.282704,383.047749,-1110.308913,9918.759623
1037.283019,1072.533697,-1184.329507,9548.656652
1037.283335,689.485948,-518.144159,9696.697840
1037.283651,153.219100,222.061783,9104.533087
1037.283967,229.828649,370.102971,8882.471304
1037.284282,229.828649,962.267725,9548.656652
1037.284598,153.219100,1332.370696,9474.636058
1037.284914,-153.219100,1702.473667,8882.471304
1037.285229,-459.657299,814.226536,9326.594869
1037.285545,-153.219100,-666.185348,9844.739029
1037.285861,459.657299,-1184.329507,9992.780217
1037.286177,689.485948,-1480.411884,10066.800811
1037.286492,459.657299,-1406.391290,9696.697840
1037.286808,76.609550,-740.205942,9474.636058
1037.287124,306.438199,-370.102971,9622.677246
1037.287440,612.876398,370.102971,10362.883188
1037.287755,612.876398,1480.411884,9696.697840
1037.288071,459.657299,1554.432478,9178.553681
1037.288387,459.657299,518.144159,8956.491898
1037.288702,766.095498,-592.164754,9622.677246
1037.289018,1455.581446,-1702.473667,9696.697840
1037.289334,1532.190996,-1406.391290,9992.780217
1037.289650,1532.190996,-1036.288319,9622.677246
1037.289965,1072.533697,-740.205942,9252.574275
1037.290281,919.314598,-0.000000,9104.533087
1037.290597,536.266849,296.082377,9844.739029
1037.290913,689.485948,740.205942,9622.677246
1037.291228,0.000000,1184.329507,9104.533087
1037.291544,-153.219100,592.164754,9252.574275
1037.291860,-153.219100,-370.102971,9696.697840
1037.292175,153.219100,-1480.411884,9992.780217
1037.292491,689.485948,-1554.432478,9770.718434
1037.292807,612.876398,-1554.432478,9844.739029
1037.293123,76.609550,-1480.411884,9548.656652
1037.293438,229.828649,-1110.308913,9400.615463
1037.293754,536.266849,-296.082377,9548.656652
1037.294070,229.828649,444.123565,9844.739029
1037.294386,229.828649,1258.350101,9252.574275
1037.294701,153.219100,740.205942,8512.368333
1037.295017,-383.047749,222.061783,9030.512492
1037.295333,689.485948,-740.205942,9474.636058
1037.295648,1378.971896,-1184.329507,9252.574275
1037.295964,995.924147,-1110.308913,9474.636058
1037.296280,612.876398,-1258.350101,9326.594869
1037.296596,306.438199,-666.185348,9326.594869
1037.296911,0.000000,-0.000000,9474.636058
1037.297227,229.828649,740.205942,9400.615463
1037.297543,0.000000,1110.308913,9474.636058
1037.297859,0.000000,592.164754,9030.512492
1037.298174,-536.266849,-444.123565,9178.553681
1037.298490,0.000000,-1480.411884,9696.697840
1037.298806,766.095498,-2146.597232,9844.739029
1037.299121,536.266849,-1554.432478,9474.636058
1037.299437,689.485948,-1332.370696,9474.636058
1037.299753,383.047749,-888.247130,9252.574275
1037.300069,383.047749,-518.144159,9326.594869
1037.300384,383.047749,444.123565,9696.697840
1037.300700,536.266849,962.267725,9252.574275
1037.301016,459.657299,814.226536,8734.430116
1037.301332,229.828649,-0.000000,8956.491898
1037.301647,459.657299,-1036.288319,9474.636058
1037.301963,1378.971896,-1776.494261,9918.759623
1037.302279,1455.581446,-1332.370696,9696.697840
1037.302594,842.705048,-1258.350101,9474.636058
1037.302910,459.657299,-666.185348,9326.594869
1037.303226,383.047749,-0.000000,9622.677246
1037.303542,459.657299,296.082377,9696.697840
1037.303857,766.095498,1184.329507,9622.677246
1037.304173,383.047749,518.144159,9030.512492
1037.304489,0.000000,-0.000000,9326.594869
1037.304805,76.609550,-444.123565,9992.780217
1037.305120,689.485948,-1036.288319,9770.718434
1037.305436,995.924147,-888.247130,9622.677246
1037.305752,612.876398,-592.164754,9400.615463
1037.306067,536.266849,-370.102971,9030.512492
1037.306383,459.657299,-296.082377,9622.677246
1037.306699,612.876398,-0.000000,9992.780217
1037.307015,919.314598,1480.411884,9474.636058
1037.307330,689.485948,962.267725,8956.491898
1037.307646,306.438199,444.123565,8882.471304
1037.307962,536.266849,-148.041188,9696.697840
1037.308278,1149.143247,-740.205942,9770.718434
1037.308593,1302.362347,-814.226536,9844.739029
1037.308909,919.314598,-740.205942,9918.759623
1037.309225,766.095498,-296.082377,9400.615463
1037.309540,306.438199,-74.020594,9548.656652
1037.309856,76.609550,592.164754,9696.697840
1037.310172,153.219100,1184.329507,9770.718434
1037.310488,-229.828649,1332.370696,9178.553681
1037.310803,-306.438199,740.205942,9326.594869
1037.311119,-459.657299,-0.000000,9474.636058
1037.311435,0.000000,-1036.288319,9622.677246
1037.311751,229.828649,-1258.350101,9992.780217
1037.312066,766.095498,-1332.370696,9844.739029
1037.312382,229.828649,-740.205942,9178.553681
1037.312698,0.000000,-370.102971,9474.636058
1037.313013,0.000000,-0.000000,9548.656652
1037.313329,229.828649,1036.288319,9326.594869
1037.313645,459.657299,1702.473667,9104.533087
1037.313961,76.609550,1406.391290,9252.574275
1037.314276,153.219100,444.123565,8734.430116
1037.314592,689.485948,-148.041188,9696.697840
1037.314908,995.924147,-296.082377,9400.615463
1037.315224,1149.143247,-1036.288319,9104.533087
1037.315539,536.266849,-740.205942,9474.636058
1037.315855,76.609550,-222.061783,9252.574275
1037.316171,0.000000,148.041188,9622.677246
1037.316486,383.047749,962.267725,9992.780217
1037.316802,-306.438199,1554.432478,9400.615463
1037.317118,-383.047749,1184.329507,9252.574275
1037.317434,-383.047749,518.144159,9474.636058
1037.317749,0.000000,-222.061783,9696.697840
1037.318065,689.485948,-888.247130,10214.842000
1037.318381,1072.533697,-962.267725,9918.759623
1037.318697,689.485948,-666.185348,9400.615463
1037.319012,612.876398,-592.164754,9326.594869
1037.319328,612.876398,-148.041188,9918.759623
1037.319644,536.266849,222.061783,9696.697840
1037.319959,842.705048,666.185348,9178.553681
1037.320275,919.314598,1406.391290,8882.471304
1037.320591,459.657299,592.164754,9030.512492
1037.320907,919.314598,-666.185348,9622.677246
1037.321222,1225.752797,-1110.308913,9696.697840
1037.321538,1225.752797,-1850.514855,9474.636058
1037.321854,1225.752797,-1776.494261,9474.636058
1037.322169,1072.533697,-1110.308913,9622.677246
1037.322485,612.876398,-814.226536,9474.636058
1037.322801,766.095498,-148.041188,9770.718434
1037.323117,536.266849,518.144159,9326.594869
1037.323432,0.000000,814.226536,8808.450710
1037.323748,-306.438199,-148.041188,9030.512492
1037.324064,0.000000,-1036.288319,9770.718434
1037.324380,383.047749,-1332.370696,10066.800811
1037.324695,842.705048,-1628.453072,9696.697840
1037.325011,612.876398,-1184.329507,8882.471304
1037.325327,306.438199,-1110.308913,9104.533087
1037.325642,0.000000,-666.185348,9252.574275
1037.325958,383.047749,-370.102971,9844.739029
1037.326274,306.438199,370.102971,9474.636058
1037.326590,306.438199,370.102971,9474.636058
1037.326905,76.609550,592.164754,9178.553681
1037.327221,153.219100,-518.144159,9178.553681
1037.327537,536.266849,-962.267725,9696.697840
1037.327853,1072.533697,-962.267725,9844.739029
1037.328168,1225.752797,-814.226536,9104.533087
1037.328484,689.485948,-740.205942,8586.388927
1037.328800,229.828649,-444.123565,9030.512492
1037.329115,536.266849,-444.123565,9326.594869
1037.329431,306.438199,666.185348,9844.739029
1037.329747,0.000000,1110.308913,9104.533087
1037.330063,-689.485948,444.123565,9104.533087
1037.330378,-612.876398,-370.102971,9548.656652
1037.330694,0.000000,-1406.391290,10066.800811
1037.331010,229.828649,-1332.370696,9918.759623
1037.331326,612.876398,-1258.350101,9474.636058
1037.331641,76.609550,-888.247130,9178.553681
1037.331957,0.000000,-666.185348,9400.615463
1037.332273,536.266849,-222.061783,9696.697840
1037.332588,383.047749,296.082377,9548.656652
1037.332904,76.609550,888.247130,9400.615463
1037.333220,229.828649,444.123565,9178.553681
1037.333536,229.828649,-370.102971,9474.636058
1037.333851,383.047749,-1184.329507,10066.800811
1037.334167,1149.143247,-888.247130,10066.800811
1037.334483,1455.581446,-814.226536,9400.615463
1037.334799,1302.362347,-370.102971,9178.553681
1037.335114,1072.533697,-0.000000,8734.430116
1037.335430,919.314598,-74.020594,9252.574275
1037.335746,1072.533697,370.102971,9844.739029
1037.336061,689.485948,962.267725,9400.615463
1037.336377,0.000000,592.164754,9104.533087
1037.336693,-383.047749,-0.000000,9696.697840
1037.337009,76.609550,-814.226536,9992.780217
1037.337324,842.705048,-1332.370696,9992.780217
1037.337640,612.876398,-888.247130,9548.656652
1037.337956,459.657299,-666.185348,9474.636058
1037.338272,383.047749,-518.144159,9474.636058
1037.338587,459.657299,-0.000000,9548.656652
1037.338903,689.485948,444.123565,9696.697840
1037.339219,842.705048,1110.308913,9474.636058
1037.339534,459.657299,888.247130,9252.574275
1037.339850,229.828649,592.164754,9326.594869
1037.340166,612.876398,-0.000000,9844.739029
1037.340482,1149.143247,-592.164754,9326.594869
1037.340797,1608.800546,-666.185348,9474.636058
1037.341113,1455.581446,-444.123565,9030.512492
1037.341429,842.705048,-296.082377,8956.491898
1037.341745,612.876398,-148.041188,9178.553681
1037.342060,306.438199,592.164754,9696.697840
1037.342376,153.219100,1554.432478,9770.718434
1037.342692,0.000000,1554.432478,9252.574275
1037.343007,-536.266849,666.185348,9252.574275
1037.343323,-612.876398,-592.164754,10066.800811
1037.343639,0.000000,-1184.329507,10362.883188
1037.343955,229.828649,-1110.308913,10066.800811
1037.344270,153.219100,-962.267725,9696.697840
1037.344586,229.828649,-666.185348,9474.636058
1037.344902,76.609550,-518.144159,9696.697840
1037.345218,0.000000,-0.000000,9548.656652
1037.345533,306.438199,1184.329507,9770.718434
1037.345849,229.828649,1258.350101,8956.491898
1037.346165,0.000000,888.247130,8660.409521
1037.346480,459.657299,-74.020594,9178.553681
1037.346796,1072.533697,-1110.308913,9548.656652
1037.347112,995.924147,-814.226536,9844.739029
1037.347428,1072.533697,-666.185348,9252.574275
1037.347743,612.876398,-518.144159,9474.636058
1037.348059,0.000000,-962.267725,9326.594869
1037.348375,229.828649,-0.000000,9696.697840
1037.348691,0.000000,740.205942,9696.697840
1037.349006,-383.047749,1332.370696,9474.636058
1037.349322,-612.876398,518.144159,9252.574275
1037.349638,-842.705048,-592.164754,9622.677246
1037.349953,-459.657299,-1184.329507,10140.821405
1037.350269,383.047749,-1406.391290,10436.903782
1037.350585,842.705048,-1406.391290,9844.739029
1037.350901,536.266849,-814.226536,9548.656652
1037.351216,612.876398,-148.041188,9474.636058
1037.351532,383.047749,-296.082377,9844.739029
1037.351848,1378.971896,740.205942,9474.636058
1037.352164,1072.533697,1628.453072,8956.491898
1037.352479,842.705048,1036.288319,8586.388927
1037.352795,612.876398,148.041188,9104.533087
1037.353111,842.705048,-666.185348,9622.677246
1037.353426,1225.752797,-962.267725,9844.739029
1037.353742,1225.752797,-1036.288319,9696.697840
1037.354058,1149.143247,-814.226536,9030.512492
1037.354374,459.657299,-962.267725,9326.594869
1037.354689,459.657299,-370.102971,9696.697840
1037.355005,459.657299,296.082377,9918.759623
1037.355321,383.047749,888.247130,9178.553681
1037.355637,-536.266849,814.226536,9252.574275
1037.355952,-306.438199,-148.041188,9252.574275
1037.356268,-153.219100,-1184.329507,9400.615463
1037.356584,229.828649,-1776.494261,10066.800811
1037.356899,459.657299,-1924.535449,9918.759623
1037.357215,306.438199,-1554.432478,9548.656652
1037.357531,76.609550,-1110.308913,9252.574275
1037.357847,383.047749,-814.226536,9400.615463
1037.358162,612.876398,-0.000000,9770.718434
1037.358478,842.705048,592.164754,9178.553681
1037.358794,383.047749,518.144159,8882.471304
1037.359110,383.047749,-0.000000,8956.491898
1037.359425,536.266849,-592.164754,9030.512492
1037.359741,1072.533697,-1110.308913,9622.677246
1037.360057,1608.800546,-1258.350101,9326.594869
1037.360372,1532.190996,-888.247130,8882.471304
1037.360688,612.876398,-444.123565,9178.553681
1037.361004,153.219100,-222.061783,9252.574275
1037.361320,306.438199,444.123565,9622.677246
1037.361635,0.000000,1184.329507,9326.594869
1037.361951,-383.047749,962.267725,9474.636058
1037.362267,-842.705048,-0.000000,9548.656652
1037.362583,-919.314598,-740.205942,10214.842000
1037.362898,-459.657299,-1258.350101,10436.903782
1037.363214,383.047749,-1406.391290,10066.800811
1037.363530,153.219100,-444.123565,9400.615463
1037.363845,229.828649,-444.123565,8882.471304
1037.364161,459.657299,-518.144159,9178.553681
1037.364477,612.876398,370.102971,9548.656652
1037.364793,919.314598,1184.329507,9548.656652
1037.365108,919.314598,1406.391290,9030.512492
1037.365424,689.485948,666.185348,9030.512492
1037.365740,536.266849,296.082377,9252.574275
1037.366056,1072.533697,-666.185348,9622.677246
1037.366371,2068.457845,-814.226536,9770.718434
1037.366687,1225.752797,-814.226536,9844.739029
1037.367003,536.266849,-592.164754,9326.594869
1037.367318,612.876398,-370.102971,9400.615463
1037.367634,153.219100,-74.020594,9548.656652
1037.367950,612.876398,740.205942,9548.656652
1037.368266,383.047749,1258.350101,9622.677246
1037.368581,0.000000,518.144159,9400.615463
1037.368897,0.000000,-74.020594,9696.697840
1037.369213,459.657299,-1258.350101,9992.780217
1037.369529,842.705048,-1110.308913,9844.739029
1037.369844,1072.533697,-1184.329507,9918.759623
1037.370160,766.095498,-962.267725,9326.594869
1037.370476,383.047749,-370.102971,9400.615463
1037.370791,459.657299,-444.123565,9696.697840
1037.371107,842.705048,740.205942,9696.697840
1037.371423,766.095498,1184.329507,9326.594869
1037.371739,459.657299,1480.411884,8660.409521
1037.372054,229.828649,444.123565,8882.471304
1037.372370,612.876398,-740.205942,9326.594869
1037.372686,1072.533697,-962.267725,9844.739029
1037.373001,1302.362347,-1036.288319,9770.718434
1037.373317,689.485948,-444.123565,8808.450710
1037.373633,459.657299,-592.164754,9400.615463
1037.373949,-306.438199,-148.041188,9548.656652
1037.374264,0.000000,296.082377,9696.697840
1037.374580,0.000000,1184.329507,9548.656652
1037.374896,-536.266849,1332.370696,9030.512492
1037.375212,-842.705048,-148.041188,9326.594869
1037.375527,-612.876398,-888.247130,9770.718434
1037.375843,0.000000,-1258.350101,10214.842000
1037.376159,306.438199,-1110.308913,9918.759623
1037.376474,306.438199,-888.247130,9326.594869
1037.376790,383.047749,-666.185348,8956.491898
1037.377106,306.438199,-74.020594,8882.471304
1037.377422,383.047749,370.102971,9400.615463
1037.377737,766.095498,1036.288319,9252.574275
1037.378053,536.266849,1036.288319,8734.430116
1037.378369,306.438199,592.164754,9030.512492
1037.378685,383.047749,-370.102971,9474.636058
1037.379000,842.705048,-1110.308913,9844.739029
1037.379316,995.924147,-962.267725,9770.718434
1037.379632,842.705048,-1036.288319,9696.697840
1037.379947,229.828649,-1184.329507,9252.574275
1037.380263,306.438199,-444.123565,9474.636058
1037.380579,76.609550,222.061783,9918.759623
1037.380895,306.438199,962.267725,9548.656652
1037.381210,612.876398,1332.370696,9030.512492
1037.381526,-76.609550,592.164754,8956.491898
1037.381842,76.609550,-518.144159,9548.656652
1037.382158,459.657299,-1258.350101,10066.800811
1037.382473,842.705048,-1406.391290,10140.821405
1037.382789,1149.143247,-1702.473667,9992.780217
1037.383105,995.924147,-1258.350101,9400.615463
1037.383420,766.095498,-518.144159,9400.615463
1037.383736,689.485948,296.082377,9696.697840
1037.384052,1302.362347,962.267725,9622.677246
1037.384368,1149.143247,1406.391290,9548.656652
1037.384683,459.657299,1036.288319,8882.471304
1037.384999,306.438199,-0.000000,9400.615463
1037.385315,995.924147,-962.267725,9844.739029
1037.385630,1378.971896,-1258.350101,10214.842000
1037.385946,842.705048,-1184.329507,10066.800811
1037.386262,612.876398,-814.226536,9548.656652
1037.386577,153.219100,-592.164754,9326.594869
1037.386893,383.047749,-222.061783,9622.677246
1037.387209,229.828649,148.041188,9474.636058
1037.387524,612.876398,370.102971,9252.574275
1037.387840,-383.047749,666.185348,8956.491898
1037.388156,-459.657299,-222.061783,9474.636058
1037.388472,0.000000,-1110.308913,9844.739029
1037.388787,76.609550,-1480.411884,9548.656652
1037.389103,0.000000,-1998.556043,9474.636058
1037.389419,153.219100,-1628.453072,9548.656652
1037.389734,-306.438199,-1702.473667,9400.615463
1037.390050,-229.828649,-592.164754,9622.677246
1037.390366,0.000000,222.061783,9622.677246
1037.390681,76.609550,518.144159,8734.430116
1037.390997,-229.828649,740.205942,8956.491898
1037.391313,-153.219100,444.123565,8956.491898
1037.391628,229.828649,-518.144159,9326.594869
1037.391944,919.314598,-814.226536,9844.739029
1037.392260,1455.581446,-1036.288319,9252.574275
1037.392575,995.924147,-148.041188,9178.553681
1037.392891,536.266849,-74.020594,8956.491898
1037.393207,536.266849,-0.000000,9030.512492
1037.393522,383.047749,518.144159,9474.636058
1037.393838,306.438199,1480.411884,9104.533087
1037.394154,0.000000,962.267725,8808.450710
1037.394470,-383.047749,222.061783,9400.615463
1037.394785,-229.828649,-592.164754,9548.656652
1037.395101,229.828649,-1258.350101,10066.800811
1037.395417,536.266849,-1184.329507,9474.636058
1037.395732,153.219100,-1332.370696,9622.677246
1037.396048,229.828649,-740.205942,9400.615463
1037.396364,-306.438199,-666.185348,9474.636058
1037.396679,0.000000,-0.000000,10066.800811
1037.396995,0.000000,962.267725,9548.656652
1037.397311,153.219100,1036.288319,9178.553681
1037.397626,0.000000,740.205942,9178.553681
1037.397942,229.828649,-444.123565,9770.718434
1037.398258,1378.971896,-1184.329507,10066.800811
1037.398573,1455.581446,-1036.288319,10140.821405
1037.398889,1685.410096,-444.123565,9104.533087
1037.399205,1455.581446,-444.123565,9178.553681
1037.399520,1225.752797,-0.000000,9400.615463
1037.399836,612.876398,370.102971,9992.780217
1037.400152,919.314598,1258.350101,9622.677246
1037.400468,766.095498,1480.411884,9252.574275
1037.400783,536.266849,962.267725,9178.553681
1037.401099,0.000000,-222.061783,9844.739029
1037.401415,459.657299,-1406.391290,9918.759623
1037.401730,995.924147,-1480.411884,10362.883188
1037.402046,1302.362347,-1110.308913,9622.677246
1037.402362,612.876398,-888.247130,9474.636058
1037.402677,0.000000,-1110.308913,9548.656652
1037.402993,229.828649,-592.164754,9844.739029
1037.403309,459.657299,148.041188,9696.697840
1037.403624,459.657299,740.205942,9326.594869
1037.403940,76.609550,888.247130,8956.491898
1037.404256,689.485948,-148.041188,9400.615463
1037.404571,1072.533697,-740.205942,9474.636058
1037.404887,1455.581446,-1110.308913,9548.656652
1037.405203,1915.238745,-1036.288319,9400.615463
1037.405518,1225.752797,-888.247130,9030.512492
1037.405834,1225.752797,-666.185348,8734.430116
1037.406150,842.705048,-148.041188,9252.574275
1037.406466,612.876398,888.247130,9252.574275
1037.406781,229.828649,1776.494261,9030.512492
1037.407097,-459.657299,1332.370696,8808.450710
1037.407413,0.000000,-0.000000,9326.594869
1037.407728,-842.705048,-1036.288319,9770.718434
1037.408044,0.000000,-1924.535449,10066.800811
1037.408360,0.000000,-1850.514855,9844.739029
1037.408675,-229.828649,-962.267725,9548.656652
1037.408991,-612.876398,-888.247130,9326.594869
1037.409307,-229.828649,-222.061783,9696.697840
1037.409622,0.000000,518.144159,9770.718434
1037.409938,0.000000,1258.350101,9400.615463
1037.410254,0.000000,666.185348,9326.594869
1037.410569,0.000000,592.164754,9252.574275
1037.410885,689.485948,-0.000000,9326.594869
1037.411201,995.924147,-666.185348,9326.594869
1037.411516,1532.190996,-814.226536,9474.636058
1037.411832,1072.533697,-814.226536,9030.512492
1037.412148,306.438199,-592.164754,9178.553681
1037.412464,229.828649,-296.082377,9548.656652
1037.412779,153.219100,-0.000000,9844.739029
1037.413095,0.000000,518.144159,9622.677246
1037.413411,-536.266849,1258.350101,9400.615463
1037.413726,-689.485948,592.164754,9622.677246
1037.414042,-612.876398,-296.082377,9918.759623
1037.414358,76.609550,-1110.308913,9918.759623
1037.414673,919.314598,-1406.391290,10066.800811
1037.414989,612.876398,-1258.350101,9844.739029
1037.415305,612.876398,-814.226536,9178.553681
1037.415620,229.828649,-296.082377,9844.739029
1037.415936,459.657299,222.061783,9992.780217
1037.416252,995.924147,1480.411884,9474.636058
1037.416567,536.266849,1776.494261,9104.533087
1037.416883,383.047749,962.267725,9030.512492
1037.417199,612.876398,-370.102971,9696.697840
1037.417515,1302.362347,-962.267725,9844.739029
1037.417830,1838.629195,-962.267725,10066.800811
1037.418146,1762.019645,-444.123565,9326.594869
1037.418462,1225.752797,-74.020594,9104.533087
1037.418777,766.095498,148.041188,9252.574275
1037.419093,766.095498,888.247130,9548.656652
1037.419409,766.095498,1332.370696,9326.594869
1037.419724,306.438199,1480.411884,8808.450710
1037.420040,-383.047749,444.123565,9400.615463
1037.420356,-306.438199,-518.144159,9844.739029
1037.420671,0.000000,-1258.350101,9992.780217
1037.420987,0.000000,-1924.535449,10214.842000
1037.421303,0.000000,-1480.411884,9696.697840
1037.421618,0.000000,-1184.329507,9696.697840
1037.421934,76.609550,-518.144159,9400.615463
1037.422250,76.609550,-74.020594,9696.697840
1037.422565,766.095498,740.205942,9326.594869
1037.422881,536.266849,1110.308913,9030.512492
1037.423197,383.047749,740.205942,9030.512492
1037.423513,459.657299,-74.020594,9252.574275
1037.423828,1225.752797,-592.164754,9400.615463
1037.424144,1455.581446,-1110.308913,9252.574275
1037.424460,1838.629195,-518.144159,9104.533087
1037.424775,1455.581446,-518.144159,8808.450710
1037.425091,766.095498,-0.000000,8660.409521
1037.425407,536.266849,-0.000000,9104.533087
1037.425722,459.657299,-0.000000,9918.759623
1037.426038,0.000000,814.226536,9104.533087
1037.426354,-229.828649,370.102971,9474.636058
1037.426669,-766.095498,-222.061783,9252.574275
1037.426985,-459.657299,-1332.370696,9992.780217
1037.427301,153.219100,-1554.432478,10288.862594
1037.427616,153.219100,-1110.308913,9400.615463
1037.427932,383.047749,-1406.391290,9474.636058
1037.428248,0.000000,-1036.288319,9474.636058
1037.428563,-153.219100,-666.185348,9696.697840
1037.428879,153.219100,-444.123565,9548.656652
1037.429195,536.266849,444.123565,9474.636058
1037.429511,383.047749,888.247130,8660.409521
1037.429826,76.609550,222.061783,8808.450710
1037.430142,689.485948,-962.267725,9696.697840
1037.430458,1455.581446,-1406.391290,10140.821405
1037.430773,1838.629195,-1110.308913,9548.656652
1037.431089,1608.800546,-962.267725,9178.553681
1037.431405,1149.143247,-888.247130,9252.574275
1037.431720,1149.143247,-518.144159,9178.553681
1037.432036,919.314598,666.185348,9696.697840
1037.432352,766.095498,1036.288319,9252.574275
1037.432667,229.828649,1110.308913,9252.574275
1037.432983,-229.828649,518.144159,9178.553681
1037.433299,-536.266849,-888.247130,9622.677246
1037.433614,0.000000,-1480.411884,11251.130318
1037.433930,612.876398,-2294.638420,10066.800811
1037.434246,229.828649,-1554.432478,9474.636058
1037.434561,0.000000,-1184.329507,9548.656652
1037.434877,153.219100,-814.226536,9622.677246
1037.435193,153.219100,222.061783,9844.739029
1037.435509,536.266849,1184.329507,9622.677246
1037.435824,842.705048,1332.370696,8956.491898
1037.436140,536.266849,1036.288319,8808.450710
1037.436456,306.438199,-148.041188,8808.450710
1037.436771,1532.190996,-888.247130,9770.718434
1037.437087,1915.238745,-1036.288319,9474.636058
1037.437403,1378.971896,-814.226536,8808.450710
1037.437718,1072.533697,-666.185348,9104.533087
1037.438034,689.485948,-74.020594,9104.533087
1037.438350,536.266849,370.102971,9474.636058
1037.438665,766.095498,1554.432478,9252.574275
1037.438981,76.609550,1776.494261,8956.491898
1037.439297,-383.047749,814.226536,9030.512492
1037.439612,-689.485948,-74.020594,9474.636058
1037.439928,-995.924147,-1332.370696,9918.759623
1037.440244,76.609550,-1554.432478,10140.821405
1037.440559,-229.828649,-1406.391290,9918.759623
1037.440875,-229.828649,-1110.308913,9770.718434
1037.441191,-383.047749,-518.144159,9252.574275
1037.441507,0.000000,-74.020594,9622.677246
1037.441822,536.266849,888.247130,9548.656652
1037.442138,536.266849,1480.411884,9326.594869
1037.442454,459.657299,1332.370696,8882.471304
1037.442769,919.314598,666.185348,8808.450710
1037.443085,842.705048,-518.144159,9474.636058
1037.443401,1762.019645,-518.144159,9622.677246
1037.443716,1838.629195,-444.123565,9252.574275
1037.444032,1455.581446,-222.061783,9252.574275
1037.444348,536.266849,-148.041188,8882.471304
1037.444663,306.438199,-0.000000,9474.636058
1037.444979,459.657299,666.185348,9770.718434
1037.445295,76.609550,1332.370696,9548.656652
1037.445610,-229.828649,1332.370696,9252.574275
1037.445926,-153.219100,148.041188,9474.636058
1037.446242,-919.314598,-962.267725,10288.862594
1037.446557,0.000000,-1184.329507,10362.883188
1037.446873,306.438199,-1110.308913,9918.759623
1037.447189,0.000000,-962.267725,9474.636058
1037.447505,0.000000,-962.267725,9474.636058
1037.447820,306.438199,-0.000000,9696.697840
1037.448136,536.266849,518.144159,9918.759623
1037.448452,612.876398,1184.329507,9474.636058
1037.448767,536.266849,1406.391290,8808.450710
1037.449083,612.876398,888.247130,8956.491898
1037.449399,612.876398,-370.102971,9474.636058
1037.449714,1378.971896,-592.164754,9696.697840
1037.450030,1762.019645,-296.082377,9696.697840
1037.450346,1455.581446,-444.123565,9104.533087
1037.450661,1302.362347,-222.061783,9178.553681
1037.450977,612.876398,-296.082377,9474.636058
1037.451293,536.266849,296.082377,9622.677246
1037.451608,229.828649,1036.288319,9326.594869
1037.451924,0.000000,1036.288319,9400.615463
1037.452240,-459.657299,148.041188,9474.636058
1037.452555,-536.266849,-592.164754,9622.677246
1037.452871,-76.609550,-1332.370696,10214.842000
1037.453187,383.047749,-1776.494261,9696.697840
1037.453503,153.219100,-1702.473667,9548.656652
1037.453818,0.000000,-1406.391290,9844.739029
1037.454134,-536.266849,-1110.308913,9622.677246
1037.454450,-306.438199,-444.123565,9696.697840
1037.454765,153.219100,444.123565,9622.677246
1037.455081,306.438199,888.247130,8808.450710
1037.455397,612.876398,1184.329507,8956.491898
1037.455712,306.438199,-148.041188,8956.491898
1037.456028,1302.362347,-1406.391290,9474.636058
1037.456344,1608.800546,-1332.370696,9474.636058
1037.456659,1762.019645,-962.267725,9030.512492
1037.456975,1225.752797,-814.226536,9178.553681
1037.457291,689.485948,-888.247130,9326.594869
1037.457606,612.876398,-296.082377,9252.574275
1037.457922,383.047749,1036.288319,9326.594869
1037.458238,306.438199,1406.391290,9474.636058
1037.458554,-153.219100,666.185348,9178.553681
1037.458869,-459.657299,-444.123565,9400.615463
1037.459185,76.609550,-1406.391290,10140.821405
1037.459501,306.438199,-2072.576638,10362.883188
1037.459816,153.219100,-1850.514855,9844.739029
1037.460132,383.047749,-1258.350101,9474.636058
1037.460448,153.219100,-1110.308913,9474.636058
1037.460763,306.438199,-370.102971,9548.656652
1037.461079,689.485948,444.123565,9548.656652
1037.461395,919.314598,962.267725,9252.574275
1037.461710,383.047749,518.144159,8734.430116
1037.462026,383.047749,-222.061783,9252.574275
1037.462342,995.924147,-814.226536,9474.636058
1037.462657,1685.410096,-1332.370696,9844.739029
1037.462973,1762.019645,-1110.308913,9326.594869
1037.463289,1685.410096,-444.123565,9030.512492
1037.463604,1149.143247,-222.061783,8882.471304
1037.463920,766.095498,-0.000000,9474.636058
1037.464236,1532.190996,666.185348,9696.697840
1037.464552,1455.581446,1184.329507,9252.574275
1037.464867,306.438199,1184.329507,8956.491898
1037.465183,0.000000,518.144159,9474.636058
1037.465499,-306.438199,-962.267725,9918.759623
1037.465814,76.609550,-1332.370696,10362.883188
1037.466130,459.657299,-1184.329507,10510.924376
1037.466446,0.000000,-814.226536,9548.656652
1037.466761,-153.219100,-740.205942,9696.697840
1037.467077,-459.657299,-592.164754,9992.780217
1037.467393,0.000000,-74.020594,10066.800811
1037.467708,459.657299,814.226536,9474.636058
1037.468024,0.000000,1036.288319,8956.491898
1037.468340,0.000000,592.164754,9178.553681
1037.468655,306.438199,-148.041188,9474.636058
1037.468971,1149.143247,-888.247130,9918.759623
1037.469287,1762.019645,-518.144159,9252.574275
1037.469602,1455.581446,-74.020594,8660.409521
1037.469918,995.924147,-0.000000,8808.450710
1037.470234,919.314598,-74.020594,8956.491898
1037.470550,919.314598,518.144159,9178.553681
1037.470865,689.485948,1480.411884,9030.512492
1037.471181,383.047749,1480.411884,8956.491898
1037.471497,-766.095498,888.247130,8808.450710
1037.471812,-842.705048,-222.061783,9622.677246
1037.472128,-536.266849,-1480.411884,10436.903782
1037.472444,0.000000,-1406.391290,10436.903782
1037.472759,-153.219100,-962.267725,9548.656652
1037.473075,-383.047749,-740.205942,9696.697840
1037.473391,-459.657299,-370.102971,9918.759623
1037.473706,-383.047749,-0.000000,10140.821405
1037.474022,306.438199,1110.308913,9326.594869
1037.474338,76.609550,1628.453072,9104.533087
1037.474653,0.000000,1110.308913,9178.553681
1037.474969,-306.438199,-0.000000,9030.512492
1037.475285,689.485948,-444.123565,9548.656652
1037.475600,1225.752797,-518.144159,9548.656652
1037.475916,1532.190996,-148.041188,9030.512492
1037.476232,1378.971896,-74.020594,8956.491898
1037.476548,766.095498,-0.000000,9252.574275
1037.476863,995.924147,444.123565,9252.574275
1037.477179,689.485948,962.267725,9474.636058
1037.477495,766.095498,1554.432478,9178.553681
1037.477810,-229.828649,666.185348,9326.594869
1037.478126,-306.438199,370.102971,9474.636058
1037.478442,0.000000,-666.185348,10140.821405
1037.478757,459.657299,-1332.370696,10436.903782
1037.479073,383.047749,-962.267725,9992.780217
1037.479389,153.219100,-1332.370696,9400.615463
1037.479704,-153.219100,-1036.288319,9918.759623
1037.480020,0.000000,-740.205942,9992.780217
1037.480336,459.657299,370.102971,9844.739029
1037.480651,1072.533697,1036.288319,9326.594869
1037.480967,842.705048,888.247130,9030.512492
1037.481283,459.657299,-74.020594,9474.636058
1037.481598,766.095498,-814.226536,9770.718434
1037.481914,1532.190996,-1702.473667,9844.739029
1037.482230,1838.629195,-1184.329507,9326.594869
1037.482546,1991.848295,-1036.288319,9030.512492
1037.482861,1685.410096,-740.205942,9030.512492
1037.483177,1149.143247,-296.082377,9400.615463
1037.483493,1302.362347,148.041188,9474.636058
1037.483808,1149.143247,1184.329507,9400.615463
1037.484124,306.438199,814.226536,9252.574275
1037.484440,-229.828649,-0.000000,9326.594869
1037.484755,-459.657299,-1110.308913,9770.718434
1037.485071,229.828649,-1924.535449,10214.842000
1037.485387,536.266849,-1776.494261,9918.759623
1037.485703,229.828649,-1554.432478,9992.780217
1037.486018,-153.219100,-1258.350101,9252.574275
1037.486334,-306.438199,-666.185348,9548.656652
1037.486650,0.000000,-74.020594,9770.718434
1037.486966,459.657299,296.082377,9178.553681
1037.487281,-306.438199,814.226536,8808.450710
1037.487597,0.000000,222.061783,9104.533087
1037.487913,153.219100,-518.144159,9252.574275
1037.488229,689.485948,-814.226536,9548.656652
1037.488544,1302.362347,-1184.329507,9252.574275
1037.488860,1072.533697,-740.205942,9104.533087
1037.489176,766.095498,-740.205942,8882.471304
1037.489492,229.828649,-518.144159,9178.553681
1037.489807,612.876398,-0.000000,9474.636058
1037.490123,0.000000,962.267725,9400.615463
1037.490439,-229.828649,1406.391290,8956.491898
1037.490755,-229.828649,222.061783,9030.512492
1037.491070,-229.828649,-148.041188,9548.656652
1037.491386,-229.828649,-1110.308913,9474.636058
1037.491702,229.828649,-1258.350101,10066.800811
1037.492018,383.047749,-1628.453072,9770.718434
1037.492333,-153.219100,-1332.370696,9474.636058
1037.492649,0.000000,-814.226536,9696.697840
1037.492965,-306.438199,-370.102971,9918.759623
1037.493281,153.219100,148.041188,9696.697840
1037.493596,0.000000,814.226536,8956.491898
1037.493912,153.219100,740.205942,8882.471304
1037.494228,842.705048,-222.061783,9252.574275
1037.494544,919.314598,-740.205942,9474.636058
1037.494859,1762.019645,-962.267725,9844.739029
1037.495175,1838.629195,-1036.288319,9548.656652
1037.495491,1455.581446,-222.061783,8808.450710
1037.495807,1378.971896,-222.061783,9104.533087
1037.496122,1225.752797,370.102971,9326.594869
1037.496438,766.095498,1036.288319,9400.615463
1037.496754,306.438199,1406.391290,9400.615463
1037.497070,383.047749,740.205942,9326.594869
1037.497385,0.000000,-148.041188,9548.656652
1037.497701,76.609550,-962.267725,9844.739029
1037.498017,612.876398,-1332.370696,10140.821405
1037.498333,1072.533697,-1110.308913,10288.862594
1037.498648,383.047749,-370.102971,9326.594869
1037.498964,0.000000,-148.041188,9252.574275
1037.499280,0.000000,-296.082377,9844.739029
1037.499596,229.828649,222.061783,10140.821405
1037.499911,153.219100,962.267725,9030.512492
1037.500227,0.000000,888.247130,9622.677246
1037.500543,306.438199,148.041188,9548.656652
1037.500859,383.047749,-148.041188,10140.821405
1037.501174,1072.533697,-444.123565,9844.739029
1037.501490,1685.410096,-518.144159,9030.512492
1037.501806,1378.971896,-0.000000,9030.512492
1037.502122,995.924147,-0.000000,9104.533087
1037.502437,842.705048,148.041188,9474.636058
1037.502753,995.924147,592.164754,9326.594869
1037.503069,1302.362347,1554.432478,9104.533087
1037.503385,0.000000,1406.391290,9030.512492
1037.503700,-459.657299,370.102971,9400.615463
1037.504016,-459.657299,-370.102971,9992.780217
1037.504332,-306.438199,-1110.308913,10584.944971
1037.504648,-229.828649,-1036.288319,10436.903782
1037.504963,153.219100,-962.267725,9548.656652
1037.505279,-229.828649,-592.164754,9474.636058
1037.505595,-536.266849,-888.247130,9548.656652
1037.505911,0.000000,-0.000000,9992.780217
1037.506226,383.047749,666.185348,9622.677246
1037.506542,0.000000,1554.432478,9252.574275
1037.506858,-459.657299,740.205942,8882.471304
1037.507174,76.609550,-296.082377,9400.615463
1037.507489,612.876398,-962.267725,9844.739029
1037.507805,1378.971896,-1184.329507,9474.636058
1037.508121,1378.971896,-814.226536,9030.512492
1037.508437,995.924147,-444.123565,9104.533087
1037.508752,536.266849,-148.041188,9104.533087
1037.509068,383.047749,370.102971,9400.615463
1037.509384,995.924147,1258.350101,9474.636058
1037.509700,76.609550,888.247130,9548.656652
1037.510015,-306.438199,148.041188,9474.636058
1037.510331,-153.219100,-666.185348,9696.697840
1037.510647,153.219100,-1406.391290,9992.780217
1037.510963,842.705048,-1480.411884,10214.842000
1037.511278,995.924147,-1332.370696,9622.677246
1037.511594,766.095498,-1036.288319,9474.636058
1037.511910,612.876398,-370.102971,9326.594869
1037.512226,766.095498,-370.102971,9326.594869
1037.512541,1225.752797,888.247130,9770.718434
1037.512857,1225.752797,1406.391290,9178.553681
1037.513173,306.438199,592.164754,8808.450710
1037.513489,536.266849,-222.061783,9474.636058
1037.513804,612.876398,-1332.370696,9770.718434
1037.514120,1378.971896,-1184.329507,9770.718434
1037.514436,1302.362347,-1110.308913,9178.553681
1037.514752,689.485948,-1184.329507,8956.491898
1037.515067,383.047749,-888.247130,9178.553681
1037.515383,689.485948,-518.144159,9622.677246
1037.515699,459.657299,296.082377,9696.697840
1037.516015,76.609550,962.267725,9104.533087
1037.516330,-383.047749,814.226536,9104.533087
1037.516646,-459.657299,-148.041188,9104.533087
1037.516962,0.000000,-1036.288319,9548.656652
1037.517278,306.438199,-1924.535449,9992.780217
1037.517593,459.657299,-1184.329507,9918.759623
1037.517909,76.609550,-1110.308913,9474.636058
1037.518225,0.000000,-962.267725,9104.533087
1037.518541,76.609550,-666.185348,10066.800811
1037.518856,-229.828649,148.041188,9474.636058
1037.519172,0.000000,1184.329507,9252.574275
1037.519488,0.000000,1110.308913,9030.512492
1037.519804,-153.219100,222.061783,9178.553681
1037.520119,306.438199,-592.164754,9622.677246
1037.520435,995.924147,-740.205942,9696.697840
1037.520751,1455.581446,-666.185348,9252.574275
1037.521067,1378.971896,-444.123565,8956.491898
1037.521382,919.314598,-74.020594,8734.430116
1037.521698,459.657299,222.061783,8882.471304
1037.522014,76.609550,518.144159,9548.656652
1037.522330,76.609550,888.247130,9474.636058
1037.522645,0.000000,962.267725,9326.594869
1037.522961,-536.266849,-0.000000,9252.574275
1037.523277,-306.438199,-666.185348,9992.780217
1037.523593,0.000000,-1258.350101,10362.883188
1037.523908,153.219100,-1332.370696,9992.780217
1037.524224,153.219100,-740.205942,9696.697840
1037.524540,76.609550,-666.185348,9326.594869
1037.524856,0.000000,-222.061783,9474.636058
1037.525171,383.047749,-0.000000,9992.780217
1037.525487,536.266849,518.144159,9844.739029
1037.525803,536.266849,1258.350101,9178.553681
1037.526119,306.438199,888.247130,8956.491898
1037.526435,383.047749,-74.020594,9474.636058
1037.526750,1149.143247,-666.185348,9918.759623
1037.527066,1455.581446,-962.267725,9918.759623
1037.527382,1532.190996,-666.185348,9474.636058
1037.527698,1302.362347,-592.164754,9548.656652
1037.528013,842.705048,-370.102971,9400.615463
1037.528329,1149.143247,-0.000000,9400.615463
1037.528645,766.095498,1258.350101,9474.636058
1037.528961,766.095498,1850.514855,9252.574275
1037.529276,306.438199,1184.329507,9104.533087
1037.529592,0.000000,518.144159,9918.759623
1037.529908,229.828649,-888.247130,9918.759623
1037.530224,842.705048,-1406.391290,10214.842000
1037.530539,1072.533697,-1406.391290,9844.739029
1037.530855,459.657299,-1036.288319,9696.697840
1037.531171,383.047749,-370.102971,9918.759623
1037.531487,383.047749,-148.041188,9548.656652
1037.531802,459.657299,666.185348,9548.656652
1037.532118,612.876398,1628.453072,9326.594869
1037.532434,306.438199,1110.308913,8734.430116
1037.532750,383.047749,-148.041188,9030.512492
1037.533065,459.657299,-962.267725,9474.636058
1037.533381,995.924147,-1332.370696,9696.697840
1037.533697,1378.971896,-1036.288319,9400.615463
1037.534013,1302.362347,-666.185348,9030.512492
1037.534328,459.657299,-296.082377,8808.450710
1037.534644,229.828649,-0.000000,9474.636058
1037.534960,689.485948,518.144159,9178.553681
1037.535276,383.047749,1258.350101,9104.533087
1037.535591,-383.047749,740.205942,8512.368333
1037.535907,-842.705048,-296.082377,9104.533087
1037.536223,-689.485948,-888.247130,9622.677246
1037.536539,0.000000,-1258.350101,9844.739029
1037.536854,76.609550,-1110.308913,9548.656652
1037.537170,0.000000,-592.164754,9400.615463
1037.537486,-306.438199,-814.226536,9400.615463
1037.537802,-459.657299,-370.102971,9474.636058
1037.538117,0.000000,148.041188,9622.677246
1037.538433,229.828649,1036.288319,9252.574275
1037.538749,766.095498,1332.370696,8956.491898
1037.539065,-229.828649,444.123565,8956.491898
1037.539380,76.609550,-148.041188,9474.636058
1037.539696,766.095498,-740.205942,9548.656652
1037.540012,1072.533697,-296.082377,9400.615463
1037.540328,995.924147,-518.144159,9252.574275
1037.540643,689.485948,-518.144159,8956.491898
1037.540959,383.047749,-0.000000,9474.636058
1037.541275,229.828649,518.144159,9844.739029
1037.541591,306.438199,1406.391290,9548.656652
1037.541906,459.657299,1258.350101,9326.594869
1037.542222,-689.485948,666.185348,9474.636058
1037.542538,-459.657299,-592.164754,9770.718434
1037.542854,76.609550,-1258.350101,10510.924376
1037.543169,459.657299,-1036.288319,10140.821405
1037.543485,842.705048,-1406.391290,9770.718434
1037.543801,0.000000,-666.185348,9770.718434
1037.544117,536.266849,-370.102971,9474.636058
1037.544432,459.657299,-0.000000,10066.800811
1037.544748,919.314598,1110.308913,9770.718434
1037.545064,766.095498,1480.411884,8882.471304
1037.545380,919.314598,962.267725,9030.512492
1037.545695,1149.143247,-222.061783,9548.656652
1037.546011,1608.800546,-740.205942,9918.759623
1037.546327,2451.505594,-962.267725,9696.697840
1037.546643,2145.067394,-666.185348,9252.574275
1037.546958,1608.800546,-222.061783,8956.491898
1037.547274,919.314598,-148.041188,9178.553681
1037.547590,612.876398,-0.000000,9474.636058
1037.547906,383.047749,1110.308913,9770.718434
1037.548221,383.047749,1036.288319,9844.739029
1037.548537,-153.219100,148.041188,9474.636058
1037.548853,-612.876398,-222.061783,9326.594869
1037.549169,-229.828649,-1406.391290,9918.759623
1037.549484,383.047749,-1628.453072,10510.924376
1037.549800,383.047749,-1554.432478,9992.780217
1037.550116,76.609550,-1184.329507,9548.656652
1037.550432,153.219100,-962.267725,9548.656652
1037.550747,459.657299,-296.082377,9548.656652
1037.551063,153.219100,370.102971,9178.553681
1037.551379,689.485948,1554.432478,8956.491898
1037.551695,689.485948,1258.350101,8216.285956
1037.552010,842.705048,666.185348,8956.491898
1037.552326,1149.143247,-370.102971,9104.533087
1037.552642,1608.800546,-962.267725,9252.574275
1037.552958,1149.143247,-1036.288319,9104.533087
1037.553273,612.876398,-1258.350101,9104.533087
1037.553589,0.000000,-1036.288319,9178.553681
1037.553905,0.000000,-592.164754,9622.677246
1037.554221,-536.266849,-0.000000,9548.656652
1037.554536,-689.485948,444.123565,9474.636058
1037.554852,-842.705048,444.123565,9252.574275
1037.555168,-1149.143247,-444.123565,9696.697840
1037.555484,-995.924147,-1258.350101,9992.780217
1037.555799,229.828649,-1628.453072,9844.739029
1037.556115,689.485948,-1776.494261,9474.636058
1037.556431,612.876398,-1406.391290,9474.636058
1037.556747,229.828649,-962.267725,8956.491898
1037.557062,229.828649,-444.123565,9178.553681
1037.557378,612.876398,296.082377,9178.553681
1037.557694,612.876398,1184.329507,9030.512492
1037.558010,612.876398,888.247130,8956.491898
1037.558325,229.828649,296.082377,9474.636058
1037.558641,306.438199,-740.205942,9474.636058
1037.558957,919.314598,-1406.391290,9696.697840
1037.559273,1378.971896,-1110.308913,9770.718434
1037.559588,1225.752797,-814.226536,9326.594869
1037.559904,1225.752797,-740.205942,9104.533087
1037.560220,383.047749,-370.102971,9770.718434
1037.560536,766.095498,-0.000000,9696.697840
1037.560851,689.485948,814.226536,9548.656652
1037.561167,383.047749,962.267725,9252.574275
1037.561483,0.000000,666.185348,9400.615463
1037.561799,0.000000,-592.164754,9696.697840
1037.562114,536.266849,-1036.288319,9918.759623
1037.562430,1149.143247,-1036.288319,10288.862594
1037.562746,1455.581446,-666.185348,9474.636058
1037.563062,229.828649,-666.185348,8660.409521
1037.563377,229.828649,-518.144159,9844.739029
1037.563693,536.266849,-0.000000,9844.739029
1037.564009,995.924147,888.247130,9622.677246
1037.564325,919.314598,1184.329507,9178.553681
1037.564640,536.266849,740.205942,9474.636058
1037.564956,766.095498,-0.000000,9252.574275
1037.565272,1225.752797,-740.205942,9770.718434
1037.565588,1762.019645,-1184.329507,9696.697840
1037.565903,1685.410096,-592.164754,9252.574275
1037.566219,1072.533697,-370.102971,9326.594869
1037.566535,612.876398,-518.144159,9104.533087
1037.566851,306.438199,666.185348,9770.718434
1037.567166,689.485948,1184.329507,9326.594869
1037.567482,306.438199,1406.391290,9178.553681
1037.567798,-306.438199,740.205942,9178.553681
1037.568114,-689.485948,-296.082377,9400.615463
1037.568429,-153.219100,-1110.308913,10066.800811
1037.568745,229.828649,-1184.329507,10214.842000
1037.569061,383.047749,-1184.329507,9622.677246
1037.569377,229.828649,-592.164754,9548.656652
1037.569693,229.828649,-370.102971,9474.636058
1037.570008,76.609550,-0.000000,9844.739029
1037.570324,842.705048,1184.329507,9252.574275
1037.570640,459.657299,1776.494261,8734.430116
1037.570956,76.609550,1258.350101,9104.533087
1037.571271,0.000000,148.041188,9030.512492
1037.571587,383.047749,-444.123565,9474.636058
1037.571903,766.095498,-888.247130,9992.780217
1037.572219,1302.362347,-962.267725,9474.636058
1037.572534,766.095498,-296.082377,9178.553681
1037.572850,459.657299,-148.041188,9104.533087
1037.573166,0.000000,-74.020594,9696.697840
1037.573482,0.000000,814.226536,9696.697840
1037.573797,-459.657299,1628.453072,9474.636058
1037.574113,-383.047749,1258.350101,9178.553681
1037.574429,-689.485948,296.082377,9178.553681
1037.574745,-229.828649,-814.226536,9474.636058
1037.575060,0.000000,-1480.411884,10214.842000
1037.575376,383.047749,-1406.391290,9918.759623
1037.575692,229.828649,-962.267725,9326.594869
1037.576008,153.219100,-1110.308913,9178.553681
1037.576323,0.000000,-592.164754,9548.656652
1037.576639,383.047749,-0.000000,10288.862594
1037.576955,766.095498,1258.350101,9252.574275
1037.577271,383.047749,1628.453072,8882.471304
1037.577586,76.609550,296.082377,9104.533087
1037.577902,306.438199,-666.185348,9326.594869
1037.578218,766.095498,-1258.350101,9770.718434
1037.578534,1608.800546,-1036.288319,9770.718434
1037.578849,995.924147,-1036.288319,9622.677246
1037.579165,689.485948,-592.164754,9104.533087
1037.579481,612.876398,-296.082377,9622.677246
1037.579797,536.266849,-0.000000,9622.677246
1037.580112,536.266849,1036.288319,9474.636058
1037.580428,153.219100,1036.288319,9400.615463
1037.580744,-383.047749,370.102971,9400.615463
1037.581060,0.000000,-592.164754,9548.656652
1037.581375,383.047749,-1258.350101,10066.800811
1037.581691,842.705048,-1554.432478,9844.739029
1037.582007,689.485948,-1258.350101,9770.718434
1037.582323,536.266849,-444.123565,9104.533087
1037.582638,0.000000,-518.144159,9400.615463
1037.582954,229.828649,-518.144159,9622.677246
1037.583270,459.657299,296.082377,9622.677246
1037.583586,306.438199,1184.329507,9104.533087
1037.583901,76.609550,518.144159,8882.471304
1037.584217,153.219100,-518.144159,9474.636058
1037.584533,383.047749,-1110.308913,9770.718434
1037.584849,1378.971896,-1332.370696,9992.780217
1037.585164,1608.800546,-962.267725,9474.636058
1037.585480,1072.533697,-148.041188,9104.533087
1037.585796,612.876398,-296.082377,8956.491898
1037.586112,1378.971896,-222.061783,9696.697840
1037.586427,1225.752797,592.164754,9474.636058
1037.586743,766.095498,1332.370696,8882.471304
1037.587059,459.657299,888.247130,8882.471304
1037.587375,0.000000,-296.082377,9252.574275
1037.587691,153.219100,-1184.329507,9622.677246
1037.588006,842.705048,-1258.350101,9844.739029
1037.588322,919.314598,-1480.411884,9548.656652
1037.588638,459.657299,-888.247130,9252.574275
1037.588954,383.047749,-740.205942,9770.718434
1037.589270,229.828649,-962.267725,10362.883188
1037.589585,153.219100,296.082377,9696.697840
1037.589901,229.828649,1036.288319,9252.574275
1037.590217,76.609550,888.247130,8956.491898
1037.590533,153.219100,-74.020594,9178.553681
1037.590849,459.657299,-1480.411884,9548.656652
1037.591164,995.924147,-1332.370696,9844.739029
1037.591480,1455.581446,-1110.308913,9474.636058
1037.591796,1072.533697,-740.205942,9030.512492
1037.592112,153.219100,-666.185348,9104.533087
1037.592428,459.657299,-296.082377,9474.636058
1037.592743,383.047749,444.123565,9548.656652
1037.593059,459.657299,1332.370696,8956.491898
1037.593375,153.219100,1258.350101,8586.388927
1037.593691,-306.438199,-0.000000,9178.553681
1037.594007,-306.438199,-888.247130,9844.739029
1037.594323,153.219100,-1184.329507,10362.883188
1037.594638,766.095498,-740.205942,9696.697840
1037.594954,766.095498,-444.123565,9326.594869
1037.595270,229.828649,-1036.288319,9400.615463
1037.595586,-306.438199,-444.123565,10066.800811
1037.595902,76.609550,-0.000000,9992.780217
1037.596217,229.828649,1110.308913,9474.636058
1037.596533,0.000000,1702.473667,9030.512492
1037.596849,0.000000,888.247130,9030.512492
1037.597165,-76.609550,-0.000000,9548.656652
1037.597481,306.438199,-370.102971,9918.759623
1037.597796,536.266849,-592.164754,9770.718434
1037.598112,766.095498,-518.144159,9252.574275
1037.598428,383.047749,-592.164754,9400.615463
1037.598744,76.609550,-222.061783,9474.636058
1037.599060,229.828649,222.061783,9918.759623
1037.599375,306.438199,1036.288319,9548.656652
1037.599691,229.828649,1406.391290,8956.491898
1037.600007,-383.047749,740.205942,9252.574275
1037.600323,0.000000,-74.020594,9474.636058
1037.600639,0.000000,-1036.288319,10140.821405
1037.600954,995.924147,-888.247130,9918.759623
1037.601270,1608.800546,-1110.308913,9474.636058
1037.601586,766.095498,-444.123565,9252.574275
1037.601902,229.828649,-370.102971,9400.615463
1037.602218,766.095498,-74.020594,9474.636058
1037.602533,766.095498,592.164754,9696.697840
1037.602849,766.095498,1332.370696,9474.636058
1037.603165,229.828649,1184.329507,9178.553681
1037.603481,306.438199,370.102971,9030.512492
1037.603797,689.485948,-666.185348,9696.697840
1037.604112,1225.752797,-740.205942,9992.780217
1037.604428,1225.752797,-444.123565,9474.636058
1037.604744,842.705048,-592.164754,9326.594869
1037.605060,229.828649,-518.144159,9178.553681
1037.605376,76.609550,-148.041188,9696.697840
1037.605691,229.828649,592.164754,9548.656652
1037.606007,229.828649,888.247130,9252.574275
1037.606323,-306.438199,740.205942,9400.615463
1037.606639,-689.485948,-0.000000,9548.656652
1037.606955,-306.438199,-592.164754,10066.800811
1037.607270,919.314598,-1628.453072,10510.924376
1037.607586,1225.752797,-1036.288319,9696.697840
1037.607902,766.095498,-1184.329507,9178.553681
1037.608218,612.876398,-888.247130,9178.553681
1037.608534,383.047749,-518.144159,9474.636058
1037.608850,766.095498,296.082377,9770.718434
1037.609165,1072.533697,1258.350101,9400.615463
1037.609481,919.314598,1332.370696,8512.368333
1037.609797,536.266849,740.205942,8882.471304
1037.610113,612.876398,-740.205942,9474.636058
1037.610429,1378.971896,-1332.370696,9770.718434
1037.610744,1455.581446,-1110.308913,9770.718434
1037.611060,1378.971896,-666.185348,9104.533087
1037.611376,842.705048,-740.205942,8956.491898
1037.611692,-229.828649,-888.247130,9400.615463
1037.612008,229.828649,-74.020594,9696.697840
1037.612323,0.000000,814.226536,9400.615463
1037.612639,-536.266849,592.164754,9474.636058
1037.612955,-995.924147,-74.020594,9400.615463
1037.613271,-842.705048,-962.267725,9992.780217
1037.613587,-459.657299,-1554.432478,10288.862594
1037.613902,76.609550,-1406.391290,9622.677246
1037.614218,153.219100,-1406.391290,9400.615463
1037.614534,0.000000,-1110.308913,9178.553681
1037.614850,-459.657299,-888.247130,9622.677246
1037.615166,0.000000,-148.041188,9770.718434
1037.615481,306.438199,518.144159,9770.718434
1037.615797,306.438199,814.226536,9252.574275
1037.616113,0.000000,370.102971,8882.471304
1037.616429,306.438199,-74.020594,9548.656652
1037.616745,766.095498,-1258.350101,9844.739029
1037.617060,1072.533697,-888.247130,9844.739029
1037.617376,1378.971896,-370.102971,9030.512492
1037.617692,995.924147,-296.082377,8586.388927
1037.618008,459.657299,-222.061783,9030.512492
1037.618324,229.828649,-0.000000,9548.656652
1037.618639,383.047749,592.164754,9696.697840
1037.618955,0.000000,740.205942,9474.636058
1037.619271,-612.876398,518.144159,9548.656652
1037.619587,-153.219100,-592.164754,9770.718434
1037.619903,-76.609550,-1110.308913,9844.739029
1037.620218,459.657299,-1184.329507,10140.821405
1037.620534,689.485948,-1110.308913,9696.697840
1037.620850,459.657299,-740.205942,9400.615463
1037.621166,612.876398,-740.205942,9326.594869
1037.621482,612.876398,-370.102971,9474.636058
1037.621797,919.314598,740.205942,9474.636058
1037.622113,766.095498,1702.473667,9178.553681
1037.622429,1072.533697,962.267725,9326.594869
1037.622745,1302.362347,-0.000000,9030.512492
1037.623061,1149.143247,-296.082377,9622.677246
1037.623376,1915.238745,-740.205942,9770.718434
1037.623692,1685.410096,-444.123565,9696.697840
1037.624008,1378.971896,-888.247130,9326.594869
1037.624324,919.314598,-592.164754,9326.594869
1037.624640,995.924147,-370.102971,9770.718434
1037.624956,612.876398,740.205942,9622.677246
1037.625271,612.876398,1258.350101,9622.677246
1037.625587,76.609550,1110.308913,9400.615463
1037.625903,-536.266849,370.102971,9400.615463
1037.626219,0.000000,-666.185348,9844.739029
1037.626535,153.219100,-1258.350101,10066.800811
1037.626850,766.095498,-1110.308913,9918.759623
1037.627166,536.266849,-814.226536,9622.677246
1037.627482,0.000000,-740.205942,9474.636058
1037.627798,76.609550,-222.061783,9992.780217
1037.628114,383.047749,518.144159,9770.718434
1037.628429,612.876398,1480.411884,9252.574275
1037.628745,459.657299,1554.432478,9104.533087
1037.629061,0.000000,666.185348,8956.491898
1037.629377,76.609550,-74.020594,9474.636058
1037.629693,766.095498,-962.267725,9844.739029
1037.630008,919.314598,-666.185348,9474.636058
1037.630324,459.657299,-666.185348,9030.512492
1037.630640,0.000000,-740.205942,9178.553681
1037.630956,-459.657299,-592.164754,9474.636058
1037.631272,-229.828649,-0.000000,9918.759623
1037.631587,-459.657299,1036.288319,9474.636058
1037.631903,-842.705048,888.247130,9104.533087
1037.632219,-1072.533697,-0.000000,9548.656652
1037.632535,-995.924147,-1110.308913,9696.697840
1037.632851,0.000000,-1258.350101,10066.800811
1037.633166,383.047749,-1184.329507,9770.718434
1037.633482,459.657299,-814.226536,9474.636058
1037.633798,383.047749,-814.226536,9104.533087
1037.634114,536.266849,-666.185348,9030.512492
1037.634430,766.095498,-0.000000,9474.636058
1037.634745,1072.533697,888.247130,9548.656652
1037.635061,766.095498,1554.432478,8956.491898
1037.635377,306.438199,888.247130,8956.491898
1037.635693,612.876398,-0.000000,8882.471304
1037.636009,842.705048,-592.164754,9696.697840
1037.636324,1149.143247,-888.247130,9696.697840
1037.636640,1225.752797,-518.144159,9474.636058
1037.636956,766.095498,-740.205942,9178.553681
1037.637272,76.609550,-592.164754,9548.656652
1037.637588,0.000000,-0.000000,9622.677246
1037.637903,0.000000,518.144159,9696.697840
1037.638219,0.000000,1480.411884,9326.594869
1037.638535,-383.047749,1110.308913,9252.574275
1037.638851,-383.047749,-74.020594,9696.697840
1037.639167,76.609550,-1036.288319,9844.739029
1037.639483,689.485948,-1036.288319,10066.800811
1037.639798,1225.752797,-1036.288319,9474.636058
1037.640114,842.705048,-888.247130,9178.553681
1037.640430,536.266849,-962.267725,9400.615463
1037.640746,1378.971896,-592.164754,9844.739029
1037.641062,1378.971896,592.164754,9474.636058
1037.641377,1302.362347,1480.411884,8882.471304
1037.641693,689.485948,1406.391290,8956.491898
1037.642009,919.314598,296.082377,9178.553681
1037.642325,1072.533697,-444.123565,9622.677246
1037.642641,1532.190996,-740.205942,9696.697840
1037.642956,2145.067394,-666.185348,9474.636058
1037.643272,1149.143247,-888.247130,9178.553681
1037.643588,689.485948,-1110.308913,9696.697840
1037.643904,153.219100,-962.267725,9918.759623
1037.644220,153.219100,-0.000000,9770.718434
1037.644535,0.000000,814.226536,9770.718434
1037.644851,-459.657299,592.164754,9252.574275
1037.645167,-536.266849,-148.041188,9104.533087
1037.645483,-306.438199,-1036.288319,9770.718434
1037.645799,306.438199,-1110.308913,10066.800811
1037.646114,995.924147,-962.267725,9400.615463
1037.646430,919.314598,-1184.329507,9252.574275
1037.646746,-229.828649,-1110.308913,9400.615463
1037.647062,536.266849,-444.123565,9474.636058
1037.647378,536.266849,370.102971,9548.656652
1037.647693,536.266849,814.226536,9326.594869
1037.648009,0.000000,1184.329507,8956.491898
1037.648325,306.438199,-0.000000,8956.491898
1037.648641,0.000000,-518.144159,9400.615463
1037.648957,459.657299,-888.247130,9622.677246
1037.649272,919.314598,-1258.350101,9548.656652
1037.649588,689.485948,-814.226536,9252.574275
1037.649904,0.000000,-740.205942,8956.491898
1037.650220,-306.438199,-666.185348,9326.594869
1037.650536,0.000000,-0.000000,9844.739029
1037.650851,0.000000,444.123565,9474.636058
1037.651167,-536.266849,1184.329507,9326.594869
1037.651483,-766.095498,-0.000000,9474.636058
1037.651799,-612.876398,-592.164754,9696.697840
1037.652115,229.828649,-1480.411884,9992.780217
1037.652430,612.876398,-1406.391290,9474.636058
1037.652746,1072.533697,-1036.288319,9474.636058
1037.653062,612.876398,-888.247130,9030.512492
1037.653378,383.047749,-592.164754,9104.533087
1037.653694,536.266849,148.041188,9548.656652
1037.654010,842.705048,740.205942,9252.574275
1037.654325,1072.533697,1184.329507,9178.553681
1037.654641,536.266849,444.123565,9104.533087
1037.654957,383.047749,-222.061783,9326.594869
1037.655273,1225.752797,-1110.308913,9770.718434
1037.655589,1455.581446,-1406.391290,9992.780217
1037.655904,1455.581446,-740.205942,9474.636058
1037.656220,842.705048,-740.205942,9326.594869
1037.656536,612.876398,-740.205942,9474.636058
1037.656852,766.095498,-74.020594,9992.780217
1037.657168,612.876398,814.226536,9548.656652
1037.657483,306.438199,1480.411884,9030.512492
1037.657799,0.000000,370.102971,8956.491898
1037.658115,-306.438199,-222.061783,9622.677246
1037.658431,383.047749,-1036.288319,9992.780217
1037.658747,842.705048,-1406.391290,10214.842000
1037.659062,995.924147,-1110.308913,9696.697840
1037.659378,995.924147,-444.123565,9548.656652
1037.659694,766.095498,-518.144159,9622.677246
1037.660010,536.266849,-0.000000,10140.821405
1037.660326,995.924147,888.247130,9770.718434
1037.660641,1302.362347,1480.411884,9104.533087
1037.660957,383.047749,1628.453072,8956.491898
1037.661273,459.657299,370.102971,9252.574275
1037.661589,689.485948,-666.185348,9474.636058
1037.661905,1149.143247,-962.267725,9622.677246
1037.662220,1302.362347,-740.205942,9474.636058
1037.662536,689.485948,-814.226536,9252.574275
1037.662852,153.219100,-296.082377,9474.636058
1037.663168,306.438199,-0.000000,9474.636058
1037.663484,0.000000,666.185348,9770.718434
1037.663799,0.000000,1258.350101,9252.574275
1037.664115,-536.266849,1184.329507,9178.553681
1037.664431,-689.485948,-0.000000,9474.636058
1037.664747,-766.095498,-1110.308913,9918.759623
1037.665063,0.000000,-1480.411884,10214.842000
1037.665378,383.047749,-1184.329507,9622.677246
1037.665694,229.828649,-1036.288319,9770.718434
1037.666010,-153.219100,-962.267725,9400.615463
1037.666326,-383.047749,-518.144159,9696.697840
1037.666642,0.000000,370.102971,9400.615463
1037.666957,536.266849,1406.391290,8956.491898
1037.667273,536.266849,1480.411884,8512.368333
1037.667589,153.219100,1036.288319,9030.512492
1037.667905,0.000000,-148.041188,9030.512492
1037.668221,612.876398,-888.247130,9696.697840
1037.668537,919.314598,-592.164754,9548.656652
1037.668852,995.924147,-888.247130,8956.491898
1037.669168,229.828649,-740.205942,9252.574275
1037.669484,0.000000,-444.123565,9474.636058
1037.669800,153.219100,-0.000000,9844.739029
1037.670116,229.828649,1036.288319,9474.636058
1037.670431,-612.876398,1184.329507,8956.491898
1037.670747,-689.485948,592.164754,9326.594869
1037.671063,-229.828649,-222.061783,9474.636058
1037.671379,76.609550,-1184.329507,9918.759623
1037.671695,766.095498,-1480.411884,9992.780217
1037.672010,1225.752797,-1332.370696,9696.697840
1037.672326,689.485948,-962.267725,9326.594869
1037.672642,306.438199,-814.226536,9548.656652
1037.672958,919.314598,-0.000000,9548.656652
1037.673274,1378.971896,1258.350101,9400.615463
1037.673589,689.485948,1998.556043,9178.553681
1037.673905,612.876398,814.226536,8882.471304
1037.674221,306.438199,-148.041188,9326.594869
1037.674537,919.314598,-666.185348,9918.759623
1037.674853,1378.971896,-1036.288319,9992.780217
1037.675168,1685.410096,-1036.288319,9770.718434
1037.675484,995.924147,-1036.288319,9326.594869
1037.675800,306.438199,-962.267725,9400.615463
1037.676116,689.485948,-444.123565,9918.759623
1037.676432,766.095498,666.185348,9844.739029
1037.676747,306.438199,1184.329507,9252.574275
1037.677063,-383.047749,1110.308913,9326.594869
1037.677379,-383.047749,-0.000000,9474.636058
1037.677695,0.000000,-814.226536,9770.718434
1037.678011,459.657299,-1036.288319,9918.759623
1037.678326,536.266849,-1702.473667,9548.656652
1037.678642,306.438199,-1406.391290,9474.636058
1037.678958,0.000000,-1332.370696,9474.636058
1037.679274,306.438199,-666.185348,9770.718434
1037.679590,229.828649,222.061783,9770.718434
1037.679905,459.657299,1036.288319,9252.574275
1037.680221,153.219100,962.267725,8882.471304
1037.680537,153.219100,222.061783,8882.471304
1037.680853,459.657299,-518.144159,9252.574275
1037.681169,1149.143247,-962.267725,9474.636058
1037.681484,766.095498,-740.205942,9548.656652
1037.681800,766.095498,-1258.350101,9104.533087
1037.682116,459.657299,-1036.288319,9030.512492
1037.682432,0.000000,-814.226536,9548.656652
1037.682748,-229.828649,-296.082377,9696.697840
1037.683064,0.000000,888.247130,9918.759623
1037.683379,-383.047749,888.247130,9326.594869
1037.683695,-766.095498,444.123565,8808.450710
1037.684011,-536.266849,-222.061783,9622.677246
1037.684327,229.828649,-1332.370696,9992.780217
1037.684643,842.705048,-1480.411884,9770.718434
1037.684958,459.657299,-1480.411884,9548.656652
1037.685274,383.047749,-1332.370696,9030.512492
1037.685590,459.657299,-592.164754,9252.574275
1037.685906,459.657299,-0.000000,9326.594869
1037.686222,842.705048,1258.350101,9104.533087
1037.686537,536.266849,1554.432478,8512.368333
1037.686853,229.828649,444.123565,9104.533087
1037.687169,383.047749,-222.061783,9178.553681
1037.687483,842.705048,-1332.370696,9770.718434
1037.687799,1685.410096,-1628.453072,9770.718434
1037.688115,1225.752797,-1480.411884,9474.636058
1037.688431,842.705048,-962.267725,9474.636058
1037.688746,459.657299,-888.247130,9474.636058
1037.689062,612.876398,-592.164754,9622.677246
1037.689378,536.266849,740.205942,9770.718434
1037.689694,0.000000,1406.391290,9400.615463
1037.690009,0.000000,888.247130,9178.553681
1037.690325,76.609550,-0.000000,9770.718434
1037.690641,383.047749,-740.205942,10362.883188
1037.690957,1072.533697,-962.267725,9992.780217
1037.691272,1149.143247,-962.267725,9474.636058
1037.691588,919.314598,-740.205942,9400.615463
1037.691904,536.266849,-592.164754,9622.677246
1037.692220,612.876398,-74.020594,9696.697840
1037.692535,1378.971896,666.185348,9770.718434
1037.692851,689.485948,1406.391290,9474.636058
1037.693167,383.047749,1110.308913,9178.553681
1037.693483,306.438199,296.082377,9326.594869
1037.693798,842.705048,-444.123565,9548.656652
1037.694114,1378.971896,-740.205942,9844.739029
1037.694430,1149.143247,-962.267725,9622.677246
1037.694746,919.314598,-740.205942,9252.574275
1037.695061,76.609550,-518.144159,9178.553681
1037.695377,76.609550,-148.041188,9548.656652
1037.695693,612.876398,296.082377,9696.697840
1037.696009,-153.219100,1036.288319,9696.697840
1037.696324,-612.876398,1036.288319,9400.615463
1037.696640,-612.876398,-0.000000,9548.656652
1037.696956,0.000000,-592.164754,10140.821405
1037.697272,0.000000,-1110.308913,9992.780217
1037.697588,536.266849,-1036.288319,9474.636058
1037.697903,459.657299,-888.247130,9252.574275
1037.698219,0.000000,-814.226536,9326.594869
1037.698535,383.047749,-222.061783,9474.636058
1037.698851,76.609550,148.041188,9548.656652
1037.699166,229.828649,1332.370696,8882.471304
1037.699482,76.609550,1924.535449,8734.430116
1037.699798,-153.219100,962.267725,8808.450710
1037.700114,153.219100,-0.000000,9326.594869
1037.700429,459.657299,-592.164754,9992.780217
1037.700745,995.924147,-740.205942,9770.718434
1037.701061,689.485948,-962.267725,9474.636058
1037.701377,0.000000,-592.164754,9326.594869
1037.701692,-306.438199,-370.102971,9548.656652
1037.702008,229.828649,592.164754,10066.800811
1037.702324,612.876398,1480.411884,9178.553681
1037.702640,-306.438199,1850.514855,8882.471304
1037.702955,-459.657299,814.226536,9400.615463
1037.703271,0.000000,-370.102971,9918.759623
1037.703587,153.219100,-962.267725,10066.800811
1037.703903,919.314598,-962.267725,9696.697840
1037.704218,842.705048,-1036.288319,9400.615463
1037.704534,536.266849,-962.267725,9474.636058
1037.704850,689.485948,-1184.329507,9474.636058
1037.705166,612.876398,-148.041188,9474.636058
1037.705481,766.095498,888.247130,9696.697840
1037.705797,306.438199,1480.411884,9104.533087
1037.706113,383.047749,518.144159,9252.574275
1037.706429,306.438199,-518.144159,9844.739029
1037.706745,842.705048,-1110.308913,10066.800811
1037.707060,1532.190996,-1036.288319,9622.677246
1037.707376,1532.190996,-1258.350101,9178.553681
1037.707692,919.314598,-962.267725,9178.553681
1037.708008,766.095498,-370.102971,9548.656652
1037.708323,536.266849,-74.020594,9696.697840
1037.708639,842.705048,1036.288319,9622.677246
1037.708955,76.609550,1628.453072,9030.512492
1037.709271,-306.438199,962.267725,9252.574275
1037.709586,-383.047749,-148.041188,9918.759623
1037.709902,0.000000,-1406.391290,9992.780217
1037.710218,612.876398,-1332.370696,10288.862594
1037.710534,689.485948,-1332.370696,9696.697840
1037.710849,306.438199,-1332.370696,9474.636058
1037.711165,229.828649,-1332.370696,9548.656652
1037.711481,229.828649,-592.164754,9992.780217
1037.711797,766.095498,814.226536,9474.636058
1037.712112,536.266849,1628.453072,9400.615463
1037.712428,459.657299,1406.391290,8882.471304
1037.712744,0.000000,148.041188,8956.491898
1037.713060,612.876398,-740.205942,9400.615463
1037.713375,842.705048,-888.247130,9252.574275
1037.713691,1149.143247,-1036.288319,9178.553681
1037.714007,919.314598,-1036.288319,9474.636058
1037.714323,459.657299,-1110.308913,9474.636058
1037.714638,306.438199,-666.185348,9474.636058
1037.714954,76.609550,296.082377,9252.574275
1037.715270,-153.219100,888.247130,9104.533087
1037.715586,-459.657299,592.164754,9474.636058
1037.715902,-766.095498,-370.102971,9622.677246
1037.716217,-459.657299,-1258.350101,9918.759623
1037.716533,0.000000,-1702.473667,10214.842000
1037.716849,459.657299,-1776.494261,9918.759623
1037.717165,383.047749,-1258.350101,9400.615463
1037.717480,76.609550,-1258.350101,9326.594869
1037.717796,306.438199,-740.205942,9992.780217
1037.718112,689.485948,222.061783,9622.677246
1037.718428,689.485948,1184.329507,9178.553681
1037.718743,459.657299,1406.391290,8882.471304
1037.719059,612.876398,296.082377,9178.553681
1037.719375,689.485948,-592.164754,9474.636058
1037.719691,1455.581446,-888.247130,9696.697840
1037.720006,1838.629195,-1332.370696,9622.677246
1037.720322,1455.581446,-1036.288319,9178.553681
1037.720638,995.924147,-888.247130,9400.615463
1037.720954,1149.143247,-370.102971,9474.636058
1037.721269,995.924147,222.061783,9622.677246
1037.721585,1149.143247,1258.350101,9622.677246
1037.721901,383.047749,1184.329507,9104.533087
1037.722217,-459.657299,518.144159,9474.636058
1037.722532,-459.657299,-296.082377,9918.759623
1037.722848,766.095498,-1184.329507,10436.903782
1037.723164,612.876398,-1554.432478,9770.718434
1037.723480,612.876398,-888.247130,9548.656652
1037.723795,306.438199,-888.247130,9548.656652
1037.724111,76.609550,-740.205942,9770.718434
1037.724427,459.657299,-296.082377,9992.780217
1037.724743,536.266849,1036.288319,9400.615463
1037.725058,612.876398,1480.411884,8734.430116
1037.725374,306.438199,888.247130,9104.533087
1037.725690,229.828649,-74.020594,9474.636058
1037.726006,995.924147,-888.247130,9992.780217
1037.726322,1685.410096,-370.102971,9474.636058
1037.726637,1378.971896,-74.020594,8956.491898
1037.726953,1072.533697,-222.061783,8956.491898
1037.727269,459.657299,-444.123565,9474.636058
1037.727585,383.047749,296.082377,9992.780217
1037.727900,229.828649,1184.329507,9696.697840
1037.728216,76.609550,1628.453072,8956.491898
1037.728532,-536.266849,888.247130,9252.574275
1037.728848,-1072.533697,-666.185348,10214.842000
1037.729163,-383.047749,-1332.370696,10362.883188
1037.729479,76.609550,-1110.308913,10214.842000
1037.729795,383.047749,-740.205942,9696.697840
1037.730111,153.219100,-518.144159,9400.615463
1037.730426,153.219100,-888.247130,9326.594869
1037.730742,383.047749,-0.000000,9474.636058
1037.731058,766.095498,1036.288319,9696.697840
1037.731374,459.657299,1702.473667,8808.450710
1037.731689,153.219100,1332.370696,8808.450710
1037.732005,0.000000,-0.000000,9178.553681
1037.732321,612.876398,-814.226536,9696.697840
1037.732637,1225.752797,-962.267725,9696.697840
1037.732952,1149.143247,-962.267725,9548.656652
1037.733268,689.485948,-518.144159,9400.615463
1037.733584,76.609550,-370.102971,9474.636058
1037.733900,0.000000,-148.041188,9622.677246
1037.734215,306.438199,814.226536,9992.780217
1037.734531,153.219100,1184.329507,9252.574275
1037.734847,0.000000,1110.308913,9030.512492
1037.735163,-612.876398,444.123565,9104.533087
1037.735479,-459.657299,-740.205942,9622.677246
1037.735794,306.438199,-1554.432478,9844.739029
1037.736110,612.876398,-1258.350101,9992.780217
1037.736426,536.266849,-1332.370696,9326.594869
1037.736742,306.438199,-962.267725,9548.656652
1037.737057,383.047749,-444.123565,9770.718434
1037.737373,459.657299,296.082377,9696.697840
1037.737689,766.095498,888.247130,9252.574275
1037.738005,612.876398,1110.308913,8956.491898
1037.738320,459.657299,222.061783,9178.553681
1037.738636,536.266849,-814.226536,9474.636058
1037.738952,1149.143247,-1036.288319,9992.780217
1037.739268,1762.019645,-814.226536,9548.656652
1037.739583,1762.019645,-518.144159,8956.491898
1037.739899,689.485948,-592.164754,9104.533087
1037.740215,766.095498,-296.082377,9548.656652
1037.740531,612.876398,-0.000000,9400.615463
1037.740846,536.266849,888.247130,9400.615463
1037.741162,76.609550,666.185348,9252.574275
1037.741478,-306.438199,-0.000000,9252.574275
1037.741794,-689.485948,-444.123565,9622.677246
1037.742109,-306.438199,-1554.432478,9844.739029
1037.742425,383.047749,-1776.494261,9992.780217
1037.742741,766.095498,-1702.473667,9474.636058
1037.743057,0.000000,-1036.288319,9326.594869
1037.743372,0.000000,-814.226536,9474.636058
1037.743688,76.609550,-148.041188,9770.718434
1037.744004,383.047749,740.205942,9104.533087
1037.744320,612.876398,1554.432478,9030.512492
1037.744636,0.000000,888.247130,9178.553681
1037.744951,153.219100,-0.000000,9326.594869
1037.745267,612.876398,-592.164754,9474.636058
1037.745583,1378.971896,-518.144159,9400.615463
1037.745899,1378.971896,-740.205942,8956.491898
1037.746214,536.266849,-740.205942,9178.553681
1037.746530,383.047749,-444.123565,9474.636058
1037.746846,0.000000,-148.041188,9918.759623
1037.747162,306.438199,666.185348,9548.656652
1037.747477,76.609550,1554.432478,9400.615463
1037.747793,-766.095498,814.226536,9548.656652
1037.748109,-612.876398,-0.000000,9326.594869
1037.748425,0.000000,-1110.308913,10066.800811
1037.748740,766.095498,-1184.329507,9770.718434
1037.749056,766.095498,-1554.432478,10066.800811
1037.749372,383.047749,-1110.308913,9400.615463
1037.749688,229.828649,-518.144159,9548.656652
1037.750003,229.828649,-0.000000,9548.656652
1037.750319,842.705048,814.226536,9252.574275
1037.750635,459.657299,1628.453072,9474.636058
1037.750951,383.047749,814.226536,8734.430116
1037.751266,689.485948,-148.041188,9474.636058
1037.751582,1225.752797,-888.247130,9918.759623
1037.751898,1762.019645,-1702.473667,9918.759623
1037.752214,1838.629195,-1628.453072,9474.636058
1037.752529,1685.410096,-962.267725,9326.594869
1037.752845,1302.362347,-296.082377,9326.594869
1037.753161,1302.362347,148.041188,9548.656652
1037.753477,995.924147,1036.288319,9400.615463
1037.753793,1072.533697,1406.391290,9178.553681
1037.754108,383.047749,888.247130,9104.533087
1037.754424,76.609550,-74.020594,9474.636058
1037.754740,459.657299,-740.205942,10066.800811
