#time,accel_x,accel_y,accel_z
585.608509,3140.991542,1480.411884,8512.368333
585.608825,3983.696590,1850.514855,8216.285956
585.609141,3830.477490,1924.535449,8290.306550
585.609456,3830.477490,1776.494261,8438.347739
585.609772,3524.039291,1850.514855,8586.388927
585.610088,2987.772442,1628.453072,8882.471304
585.610404,2374.896044,1406.391290,9770.718434
585.610720,1685.410096,1628.453072,9548.656652
585.611035,995.924147,1702.473667,9918.759623
585.611351,229.828649,1554.432478,9992.780217
585.611667,-229.828649,1406.391290,10288.862594
585.611983,0.000000,592.164754,10140.821405
585.612299,-689.485948,518.144159,10732.986159
585.612615,-612.876398,-0.000000,10362.883188
585.612930,-229.828649,-0.000000,10510.924376
585.613246,76.609550,-0.000000,10436.903782
585.613562,536.266849,-0.000000,10288.862594
585.613878,1225.752797,666.185348,10214.842000
585.614194,1915.238745,1184.329507,9622.677246
585.614509,2604.724693,1480.411884,9252.574275
585.614825,3217.601092,2072.576638,8734.430116
585.615141,3983.696590,2442.679609,8808.450710
585.615457,4443.353888,2738.761985,8290.306550
585.615773,4519.963438,2960.823768,8216.285956
585.616088,4903.011187,2738.761985,8142.265362
585.616404,4366.744339,2368.659014,8438.347739
585.616720,4903.011187,1924.535449,8956.491898
585.617036,3524.039291,1332.370696,9178.553681
585.617352,3753.867940,962.267725,9474.636058
585.617667,3140.991542,518.144159,9918.759623
585.617983,2528.115143,222.061783,9992.780217
585.618299,2451.505594,296.082377,10288.862594
585.618615,1991.848295,666.185348,10510.924376
585.618931,1991.848295,1110.308913,10214.842000
585.619246,2298.286494,2072.576638,9992.780217
585.619562,2911.162892,2368.659014,9548.656652
585.619878,3217.601092,2516.700203,9474.636058
585.620194,3524.039291,2886.803174,8882.471304
585.620510,4519.963438,2812.782580,8512.368333
585.620825,4749.792088,2590.720797,8512.368333
585.621141,5209.449386,2590.720797,8734.430116
585.621457,5132.839837,2738.761985,8808.450710
585.621773,4979.620737,2738.761985,8734.430116
585.622089,4366.744339,2886.803174,8956.491898
585.622404,3907.087040,2812.782580,9252.574275
585.622720,3140.991542,2664.741391,9474.636058
585.623036,2145.067394,2812.782580,9178.553681
585.623352,1455.581446,2368.659014,9622.677246
585.623668,689.485948,2072.576638,9844.739029
585.623984,-383.047749,1776.494261,10140.821405
585.624299,-1072.533697,1480.411884,10584.944971
585.624615,-1838.629195,592.164754,10510.924376
585.624931,-2068.457845,-0.000000,10881.027347
585.625247,-2221.676944,-518.144159,11029.068536
585.625563,-1915.238745,-592.164754,11177.109724
585.625878,-1455.581446,-888.247130,11547.212695
585.626194,-1532.190996,-592.164754,11029.068536
585.626510,-383.047749,-370.102971,11029.068536
585.626826,229.828649,-296.082377,10288.862594
585.627142,995.924147,370.102971,9992.780217
585.627457,1838.629195,1110.308913,9178.553681
585.627773,2298.286494,1480.411884,8734.430116
585.628089,2757.943793,1776.494261,8068.244768
585.628405,3370.820191,1924.535449,7772.162391
585.628721,3140.991542,2220.617826,7476.080014
585.629036,2987.772442,1998.556043,7624.121203
585.629352,2374.896044,1332.370696,7698.141797
585.629668,2068.457845,-0.000000,8364.327145
585.629984,766.095498,-666.185348,9104.533087
585.630300,0.000000,-1184.329507,9992.780217
585.630615,-766.095498,-2442.679609,10658.965565
585.630931,-1608.800546,-2812.782580,11103.089130
585.631247,-2681.334243,-2368.659014,11325.150913
585.631563,-2911.162892,-2442.679609,11251.130318
585.631879,-3447.429741,-1998.556043,10807.006753
585.632194,-3140.991542,-1702.473667,10288.862594
585.632510,-2451.505594,-1036.288319,9844.739029
585.632826,-1838.629195,-740.205942,9178.553681
585.633142,-1225.752797,-1036.288319,8882.471304
585.633458,-459.657299,-1480.411884,8882.471304
585.633774,76.609550,-1184.329507,8808.450710
585.634089,459.657299,-1332.370696,8808.450710
585.634405,1072.533697,-1110.308913,8660.409521
585.634721,1455.581446,-666.185348,9104.533087
585.635037,1532.190996,-370.102971,9104.533087
585.635353,1838.629195,-74.020594,8734.430116
585.635668,1991.848295,296.082377,8660.409521
585.635984,1915.238745,444.123565,8438.347739
585.636300,2068.457845,370.102971,8660.409521
585.636616,1455.581446,222.061783,8660.409521
585.636932,1455.581446,-0.000000,8586.388927
585.637247,1302.362347,-296.082377,8586.388927
585.637563,306.438199,-888.247130,8882.471304
585.637879,459.657299,-1184.329507,9548.656652
585.638195,-153.219100,-1702.473667,9622.677246
585.638511,-766.095498,-1480.411884,10140.821405
585.638827,-919.314598,-1184.329507,10214.842000
585.639143,-766.095498,-1480.411884,10066.800811
585.639459,-919.314598,-1184.329507,10362.883188
585.639774,-766.095498,-888.247130,9918.759623
585.640090,-306.438199,-814.226536,9770.718434
585.640406,-306.438199,-1036.288319,9400.615463
585.640722,229.828649,-740.205942,9252.574275
585.641038,536.266849,-444.123565,9400.615463
585.641354,1149.143247,-444.123565,9400.615463
585.641670,1915.238745,-74.020594,9400.615463
585.641986,2145.067394,-222.061783,9178.553681
585.642302,2221.676944,370.102971,9622.677246
585.642617,2604.724693,888.247130,9178.553681
585.642933,2528.115143,888.247130,9326.594869
585.643249,2681.334243,1258.350101,9178.553681
585.643565,2757.943793,1554.432478,9400.615463
585.643881,2374.896044,1776.494261,9030.512492
585.644197,1608.800546,1554.432478,9104.533087
585.644513,1225.752797,1554.432478,9178.553681
585.644829,612.876398,1480.411884,9474.636058
585.645144,383.047749,1184.329507,9474.636058
585.645460,-229.828649,1110.308913,9770.718434
585.645776,-766.095498,518.144159,10066.800811
585.646092,-1302.362347,518.144159,10140.821405
585.646408,-1302.362347,296.082377,10214.842000
585.646724,-1455.581446,296.082377,10436.903782
585.647040,-1762.019645,-0.000000,10807.006753
585.647356,-1685.410096,-222.061783,10658.965565
585.647671,-1915.238745,-148.041188,10807.006753
585.647987,-1149.143247,-0.000000,10362.883188
585.648303,-689.485948,-0.000000,10510.924376
585.648619,-689.485948,148.041188,10436.903782
585.648935,-76.609550,518.144159,9770.718434
585.649251,306.438199,1332.370696,9474.636058
585.649567,766.095498,1480.411884,8956.491898
585.649883,1378.971896,1998.556043,8512.368333
585.650199,1991.848295,1924.535449,8216.285956
585.650514,2068.457845,1628.453072,7920.203579
585.650830,2068.457845,1184.329507,8216.285956
585.651146,1991.848295,1036.288319,8734.430116
585.651462,1072.533697,-0.000000,8882.471304
585.651778,536.266849,-0.000000,9400.615463
585.652094,76.609550,-148.041188,9548.656652
585.652410,-766.095498,-666.185348,10140.821405
585.652726,-1608.800546,-1036.288319,10807.006753
585.653041,-1762.019645,-1480.411884,10510.924376
585.653357,-2221.676944,-1184.329507,10510.924376
585.653673,-2374.896044,-1406.391290,10584.944971
585.653989,-1991.848295,-1110.308913,10140.821405
585.654305,-1302.362347,-1332.370696,9622.677246
585.654621,-1225.752797,-1554.432478,9474.636058
585.654937,-1225.752797,-1702.473667,9548.656652
585.655253,-306.438199,-1702.473667,9400.615463
585.655568,459.657299,-1776.494261,9770.718434
585.655884,766.095498,-2146.597232,9326.594869
585.656200,1608.800546,-1554.432478,9474.636058
585.656516,2068.457845,-962.267725,9178.553681
585.656832,2374.896044,-370.102971,8956.491898
585.657148,2834.553343,296.082377,8364.327145
585.657464,3217.601092,222.061783,7920.203579
585.657780,2987.772442,814.226536,8142.265362
585.658096,2757.943793,518.144159,8438.347739
585.658411,2604.724693,296.082377,8290.306550
585.658727,2221.676944,-148.041188,8142.265362
585.659043,1608.800546,-740.205942,8882.471304
585.659359,842.705048,-1184.329507,9326.594869
585.659675,306.438199,-1702.473667,9548.656652
585.659991,-153.219100,-1702.473667,9992.780217
585.660307,-612.876398,-1924.535449,10066.800811
585.660623,-1149.143247,-1850.514855,10362.883188
585.660938,-1608.800546,-1776.494261,10288.862594
585.661254,-1302.362347,-1628.453072,10436.903782
585.661570,-1608.800546,-1702.473667,10288.862594
585.661886,-842.705048,-1998.556043,10288.862594
585.662202,-995.924147,-1480.411884,9696.697840
585.662518,-383.047749,-1332.370696,9548.656652
585.662834,689.485948,-1184.329507,9622.677246
585.663150,1149.143247,-592.164754,9104.533087
585.663465,2374.896044,-444.123565,8808.450710
585.663781,2451.505594,444.123565,8290.306550
585.664097,2604.724693,888.247130,8068.244768
585.664413,3140.991542,1480.411884,7994.224174
585.664729,3140.991542,1258.350101,7846.182985
585.665045,2757.943793,1110.308913,7994.224174
585.665361,2374.896044,740.205942,8364.327145
585.665677,1455.581446,444.123565,8956.491898
585.665993,842.705048,-0.000000,9474.636058
585.666308,229.828649,-666.185348,9992.780217
585.666624,-612.876398,-666.185348,10288.862594
585.666940,-1608.800546,-888.247130,10807.006753
585.667256,-2145.067394,-740.205942,10955.047942
585.667572,-2374.896044,-666.185348,11029.068536
585.667888,-2374.896044,-666.185348,10732.986159
585.668204,-2068.457845,-592.164754,10584.944971
585.668520,-1685.410096,-370.102971,10362.883188
585.668835,-1072.533697,-148.041188,10066.800811
585.669151,-153.219100,-296.082377,9696.697840
585.669467,76.609550,-0.000000,9548.656652
585.669783,842.705048,222.061783,9622.677246
585.670099,1302.362347,666.185348,9770.718434
585.670415,1685.410096,814.226536,9474.636058
585.670731,2298.286494,1184.329507,9400.615463
585.671047,2221.676944,1850.514855,9104.533087
585.671362,2451.505594,2220.617826,8808.450710
585.671678,2681.334243,2294.638420,8734.430116
585.671994,2604.724693,1924.535449,8586.388927
585.672310,2604.724693,1480.411884,8882.471304
585.672626,1991.848295,1406.391290,8882.471304
585.672942,1608.800546,1036.288319,8808.450710
585.673258,1149.143247,666.185348,9474.636058
585.673574,842.705048,-74.020594,9474.636058
585.673890,0.000000,-222.061783,9992.780217
585.674205,-689.485948,-148.041188,10214.842000
585.674521,-1149.143247,-222.061783,9918.759623
585.674837,-1532.190996,-74.020594,10288.862594
585.675153,-1685.410096,-296.082377,10436.903782
585.675469,-1762.019645,-888.247130,10881.027347
585.675785,-1762.019645,-1110.308913,10510.924376
585.676101,-1149.143247,-888.247130,9992.780217
585.676417,-689.485948,-888.247130,9770.718434
585.676732,229.828649,-666.185348,9844.739029
585.677048,919.314598,-296.082377,9770.718434
585.677364,1532.190996,-0.000000,9400.615463
585.677680,2221.676944,444.123565,8734.430116
585.677996,2681.334243,666.185348,8364.327145
585.678312,2911.162892,1258.350101,7920.203579
585.678628,3447.429741,1184.329507,8068.244768
585.678944,3217.601092,1184.329507,7920.203579
585.679259,3217.601092,740.205942,8290.306550
585.679575,2298.286494,222.061783,8512.368333
585.679891,1762.019645,-518.144159,8734.430116
585.680207,1302.362347,-518.144159,9474.636058
585.680523,612.876398,-1036.288319,9918.759623
585.680839,-383.047749,-1554.432478,10584.944971
585.681155,-919.314598,-1628.453072,10732.986159
585.681471,-1532.190996,-1554.432478,10732.986159
585.681787,-1838.629195,-1850.514855,10436.903782
585.682102,-1915.238745,-1702.473667,10288.862594
585.682418,-1685.410096,-1776.494261,10066.800811
585.682734,-1225.752797,-1850.514855,10140.821405
585.683050,-766.095498,-1850.514855,10066.800811
585.683366,-153.219100,-1776.494261,9252.574275
585.683682,0.000000,-1554.432478,9474.636058
585.683998,766.095498,-1184.329507,9548.656652
585.684314,1302.362347,-962.267725,9326.594869
585.684629,1302.362347,-962.267725,9326.594869
585.684945,2221.676944,-148.041188,8734.430116
585.685261,2298.286494,296.082377,8512.368333
585.685577,2528.115143,518.144159,8512.368333
585.685893,2604.724693,592.164754,8290.306550
585.686209,2528.115143,296.082377,7846.182985
585.686525,1915.238745,296.082377,8512.368333
585.686841,1455.581446,-222.061783,8734.430116
585.687156,995.924147,-444.123565,8808.450710
585.687472,383.047749,-740.205942,9178.553681
585.687788,-229.828649,-592.164754,9770.718434
585.688104,-1149.143247,-888.247130,10066.800811
585.688420,-1532.190996,-1258.350101,9918.759623
585.688736,-2068.457845,-888.247130,10140.821405
585.689052,-2374.896044,-1036.288319,10066.800811
585.689368,-2298.286494,-1332.370696,10214.842000
585.689683,-2221.676944,-1258.350101,10584.944971
585.689999,-1762.019645,-1258.350101,10362.883188
585.690315,-1762.019645,-1332.370696,10066.800811
585.690631,-842.705048,-814.226536,9770.718434
585.690947,-153.219100,-666.185348,9844.739029
585.691263,842.705048,-222.061783,9400.615463
585.691579,1455.581446,444.123565,9178.553681
585.691895,2068.457845,888.247130,8586.388927
585.692211,2145.067394,962.267725,8660.409521
585.692526,2681.334243,1850.514855,8364.327145
585.692842,3064.381992,1702.473667,8364.327145
585.693158,3064.381992,1850.514855,8216.285956
585.693474,2451.505594,1554.432478,8808.450710
585.693790,1915.238745,962.267725,8586.388927
585.694106,1072.533697,740.205942,9104.533087
585.694422,689.485948,296.082377,9622.677246
585.694738,0.000000,-296.082377,9918.759623
585.695053,-842.705048,-444.123565,10436.903782
585.695369,-995.924147,-666.185348,11103.089130
585.695685,-1838.629195,-444.123565,10881.027347
585.696001,-1608.800546,-370.102971,10510.924376
585.696317,-1608.800546,-148.041188,10362.883188
585.696633,-1302.362347,-370.102971,10066.800811
585.696949,-612.876398,-296.082377,10288.862594
585.697265,-612.876398,-296.082377,9696.697840
585.697580,0.000000,-222.061783,9474.636058
585.697896,383.047749,-148.041188,9474.636058
585.698212,1225.752797,-518.144159,9400.615463
585.698528,1685.410096,-0.000000,9326.594869
585.698844,1838.629195,962.267725,9104.533087
585.699160,2298.286494,1036.288319,8882.471304
585.699476,2374.896044,1480.411884,8586.388927
585.699792,2528.115143,1332.370696,8882.471304
585.700108,2451.505594,1406.391290,8438.347739
585.700423,2374.896044,1258.350101,8808.450710
585.700739,1838.629195,962.267725,9104.533087
585.701055,1532.190996,592.164754,8882.471304
585.701371,1225.752797,222.061783,8882.471304
585.701687,536.266849,-222.061783,9474.636058
585.702003,76.609550,-148.041188,9992.780217
585.702319,-306.438199,-666.185348,10288.862594
585.702635,-995.924147,-962.267725,10140.821405
585.702950,-1455.581446,-1110.308913,10510.924376
585.703266,-1762.019645,-1110.308913,10288.862594
585.703582,-1685.410096,-888.247130,10584.944971
585.703898,-1991.848295,-1184.329507,10510.924376
585.704214,-1608.800546,-1258.350101,10658.965565
585.704530,-1225.752797,-962.267725,10066.800811
585.704846,-383.047749,-1184.329507,9844.739029
585.705162,306.438199,-740.205942,9696.697840
585.705477,1072.533697,-666.185348,9474.636058
585.705793,2221.676944,-370.102971,9474.636058
585.706109,1991.848295,148.041188,8956.491898
585.706425,2298.286494,666.185348,8290.306550
585.706741,2604.724693,1258.350101,8068.244768
585.707057,2834.553343,962.267725,7920.203579
585.707373,2374.896044,518.144159,8364.327145
585.707689,2221.676944,370.102971,8586.388927
585.708005,1378.971896,-74.020594,8882.471304
585.708320,919.314598,-888.247130,9030.512492
585.708636,459.657299,-1184.329507,9474.636058
585.708952,-306.438199,-1258.350101,10140.821405
585.709268,-1149.143247,-1258.350101,10436.903782
585.709584,-1608.800546,-1554.432478,10510.924376
585.709900,-1838.629195,-1628.453072,10066.800811
585.710216,-1762.019645,-1554.432478,10288.862594
585.710532,-1685.410096,-1332.370696,10140.821405
585.710847,-1685.410096,-1184.329507,9918.759623
585.711163,-1302.362347,-1258.350101,9622.677246
585.711479,-383.047749,-1480.411884,9400.615463
585.711795,-153.219100,-1332.370696,8956.491898
585.712111,536.266849,-814.226536,9474.636058
585.712427,1149.143247,-1036.288319,9104.533087
585.712743,1532.190996,-518.144159,9104.533087
585.713059,1915.238745,-74.020594,9252.574275
585.713374,1991.848295,222.061783,8808.450710
585.713690,2145.067394,740.205942,8660.409521
585.714006,2221.676944,962.267725,8660.409521
585.714322,2374.896044,1184.329507,8586.388927
585.714638,2221.676944,740.205942,8734.430116
585.714954,2068.457845,518.144159,9178.553681
585.715270,1378.971896,-0.000000,9030.512492
585.715586,1225.752797,-0.000000,9104.533087
585.715902,842.705048,-296.082377,9400.615463
585.716217,0.000000,-444.123565,9992.780217
585.716533,-306.438199,-814.226536,10214.842000
585.716849,-919.314598,-666.185348,10066.800811
585.717165,-1225.752797,-518.144159,10140.821405
585.717481,-1455.581446,-592.164754,10436.903782
585.717797,-1225.752797,-888.247130,10214.842000
585.718113,-995.924147,-592.164754,10436.903782
585.718429,-1149.143247,-814.226536,10288.862594
585.718744,-383.047749,-518.144159,10140.821405
585.719060,0.000000,-296.082377,9992.780217
585.719376,919.314598,-148.041188,9622.677246
585.719692,1378.971896,-0.000000,9400.615463
585.720008,1915.238745,814.226536,9252.574275
585.720324,2374.896044,1036.288319,8956.491898
585.720640,2528.115143,1406.391290,8586.388927
585.720956,2604.724693,1702.473667,8808.450710
585.721271,2834.553343,1554.432478,8068.244768
585.721587,2451.505594,1406.391290,8142.265362
585.721903,2221.676944,1258.350101,8882.471304
585.722219,1838.629195,814.226536,8956.491898
585.722535,919.314598,370.102971,9178.553681
585.722851,536.266849,-74.020594,9770.718434
585.723167,0.000000,-370.102971,9918.759623
585.723483,-995.924147,-444.123565,10658.965565
585.723799,-1302.362347,-814.226536,10732.986159
585.724114,-1762.019645,-814.226536,10510.924376
585.724430,-1608.800546,-444.123565,10510.924376
585.724746,-1608.800546,-444.123565,10066.800811
585.725062,-1532.190996,-814.226536,10288.862594
585.725378,-1149.143247,-962.267725,10066.800811
585.725694,-1072.533697,-888.247130,9918.759623
585.726010,-383.047749,-666.185348,9548.656652
585.726326,383.047749,-666.185348,9474.636058
585.726641,766.095498,-222.061783,9326.594869
585.726957,1072.533697,-296.082377,9474.636058
585.727273,1762.019645,-74.020594,9252.574275
585.727589,1838.629195,296.082377,8660.409521
585.727905,1915.238745,592.164754,8956.491898
585.728221,2298.286494,888.247130,8660.409521
585.728537,2374.896044,740.205942,8660.409521
585.728853,2298.286494,592.164754,8808.450710
585.729168,1762.019645,370.102971,8734.430116
585.729484,1378.971896,-0.000000,8808.450710
585.729800,842.705048,-222.061783,9104.533087
585.730116,383.047749,-518.144159,9474.636058
585.730432,-612.876398,-1036.288319,9992.780217
585.730748,-842.705048,-962.267725,10214.842000
585.731064,-1225.752797,-962.267725,9918.759623
585.731380,-1455.581446,-962.267725,10066.800811
585.731696,-1455.581446,-1406.391290,10214.842000
585.732011,-1685.410096,-1406.391290,10436.903782
585.732327,-1608.800546,-1258.350101,10510.924376
585.732643,-1378.971896,-1332.370696,9992.780217
585.732959,-612.876398,-1036.288319,9474.636058
585.733275,-689.485948,-1258.350101,9548.656652
585.733591,612.876398,-740.205942,9696.697840
585.733907,1378.971896,-370.102971,9178.553681
585.734223,1762.019645,-148.041188,8956.491898
585.734538,2298.286494,296.082377,8660.409521
585.734854,2604.724693,444.123565,8512.368333
585.735170,2987.772442,888.247130,8290.306550
585.735486,2681.334243,1184.329507,8290.306550
585.735802,2681.334243,888.247130,8364.327145
585.736118,2068.457845,148.041188,8734.430116
585.736434,1455.581446,296.082377,9030.512492
585.736750,1378.971896,-0.000000,9104.533087
585.737065,383.047749,-518.144159,9474.636058
585.737381,-229.828649,-1036.288319,10066.800811
585.737697,-689.485948,-1480.411884,10807.006753
585.738013,-1378.971896,-1406.391290,10510.924376
585.738329,-1915.238745,-1258.350101,10436.903782
585.738644,-1838.629195,-1184.329507,10288.862594
585.738960,-1915.238745,-1110.308913,10288.862594
585.739276,-1608.800546,-962.267725,10288.862594
585.739591,-1378.971896,-1036.288319,9918.759623
585.739907,-612.876398,-814.226536,9770.718434
585.740222,0.000000,-814.226536,9474.636058
585.740538,383.047749,-518.144159,9548.656652
585.740854,919.314598,-0.000000,9474.636058
585.741169,1302.362347,-0.000000,9326.594869
585.741485,1915.238745,518.144159,9030.512492
585.741801,2068.457845,1110.308913,8882.471304
585.742116,2528.115143,1110.308913,8586.388927
585.742432,2068.457845,1184.329507,8808.450710
585.742747,2374.896044,1258.350101,8290.306550
585.743063,2298.286494,1184.329507,8734.430116
585.743379,1685.410096,1036.288319,8882.471304
585.743694,1685.410096,592.164754,9030.512492
585.744010,536.266849,-0.000000,9178.553681
585.744326,0.000000,-148.041188,9622.677246
585.744641,-689.485948,-518.144159,10214.842000
585.744957,-1302.362347,-518.144159,10436.903782
585.745272,-1762.019645,-592.164754,10362.883188
585.745588,-1685.410096,-740.205942,10288.862594
585.745904,-1685.410096,-666.185348,10214.842000
585.746219,-1915.238745,-666.185348,10584.944971
585.746535,-1608.800546,-814.226536,10288.862594
585.746851,-1149.143247,-592.164754,10140.821405
585.747166,-612.876398,-518.144159,9770.718434
585.747482,0.000000,-370.102971,9622.677246
585.747797,536.266849,-222.061783,9622.677246
585.748113,1455.581446,-296.082377,9548.656652
585.748429,1915.238745,296.082377,9178.553681
585.748744,2145.067394,962.267725,8586.388927
585.749060,2451.505594,1258.350101,8438.347739
585.749376,2681.334243,1406.391290,8364.327145
585.749691,2451.505594,1110.308913,8512.368333
585.750007,2221.676944,962.267725,8734.430116
585.750322,1532.190996,666.185348,8808.450710
585.750638,1302.362347,296.082377,9178.553681
585.750954,689.485948,-148.041188,9252.574275
585.751269,0.000000,-444.123565,9548.656652
585.751585,-383.047749,-888.247130,9992.780217
585.751901,-1225.752797,-1258.350101,10362.883188
585.752216,-1455.581446,-1332.370696,10362.883188
585.752532,-1685.410096,-1258.350101,10140.821405
585.752847,-1532.190996,-888.247130,10288.862594
585.753163,-1838.629195,-1110.308913,10140.821405
585.753479,-1685.410096,-1258.350101,10140.821405
585.753794,-995.924147,-1184.329507,9992.780217
585.754110,-612.876398,-1110.308913,9474.636058
585.754426,-306.438199,-1036.288319,9400.615463
585.754741,306.438199,-1036.288319,9622.677246
585.755057,995.924147,-814.226536,9474.636058
585.755372,1378.971896,-370.102971,9326.594869
585.755688,1838.629195,-0.000000,9030.512492
585.756004,2451.505594,370.102971,8734.430116
585.756319,2451.505594,1184.329507,8438.347739
585.756635,2681.334243,1110.308913,8438.347739
585.756951,2604.724693,1184.329507,8512.368333
585.757266,2987.772442,888.247130,8364.327145
585.757582,2298.286494,370.102971,8364.327145
585.757897,1455.581446,-0.000000,8808.450710
585.758213,1378.971896,-296.082377,9030.512492
585.758529,459.657299,-518.144159,9400.615463
585.758844,0.000000,-1332.370696,9918.759623
585.759160,-459.657299,-740.205942,9844.739029
585.759475,-1378.971896,-1110.308913,10066.800811
585.759791,-1455.581446,-1036.288319,10362.883188
585.760107,-1915.238745,-1184.329507,10584.944971
585.760422,-1915.238745,-1776.494261,10510.924376
585.760738,-1991.848295,-1628.453072,10658.965565
585.761054,-1149.143247,-1184.329507,10288.862594
585.761369,-842.705048,-962.267725,9844.739029
585.761685,-306.438199,-814.226536,9918.759623
585.762000,306.438199,-740.205942,9696.697840
585.762316,1149.143247,-148.041188,9326.594869
585.762632,1608.800546,74.020594,9104.533087
585.762947,2068.457845,666.185348,8512.368333
585.763263,2681.334243,1406.391290,8290.306550
585.763579,2528.115143,1702.473667,7994.224174
585.763894,2911.162892,1628.453072,8068.244768
585.764210,2834.553343,1480.411884,8142.265362
585.764525,2298.286494,962.267725,8438.347739
585.764841,2451.505594,444.123565,8586.388927
585.765157,1378.971896,148.041188,9326.594869
585.765472,612.876398,-222.061783,9770.718434
585.765788,-383.047749,-962.267725,10214.842000
585.766104,-1072.533697,-1110.308913,10658.965565
585.766419,-1532.190996,-962.267725,10510.924376
585.766735,-1991.848295,-1036.288319,10362.883188
585.767050,-2145.067394,-666.185348,10510.924376
585.767366,-2068.457845,-888.247130,10436.903782
585.767682,-1915.238745,-1184.329507,10510.924376
585.767997,-1608.800546,-1258.350101,10214.842000
585.768313,-995.924147,-962.267725,9770.718434
585.768629,0.000000,-518.144159,9622.677246
585.768944,459.657299,-592.164754,9622.677246
585.769260,1225.752797,-296.082377,9400.615463
585.769575,1991.848295,-222.061783,9030.512492
585.769891,2298.286494,888.247130,8660.409521
585.770207,2681.334243,1332.370696,8438.347739
585.770522,3140.991542,1480.411884,8438.347739
585.770838,2987.772442,1406.391290,8290.306550
585.771154,2451.505594,1184.329507,8660.409521
585.771469,2604.724693,1036.288319,8734.430116
585.771785,2374.896044,1036.288319,8438.347739
585.772100,1685.410096,814.226536,8734.430116
585.772416,995.924147,296.082377,9252.574275
585.772732,229.828649,-148.041188,9770.718434
585.773047,-306.438199,-666.185348,10288.862594
585.773363,-1149.143247,-888.247130,10214.842000
585.773679,-1685.410096,-1110.308913,10288.862594
585.773994,-1991.848295,-1184.329507,10436.903782
585.774310,-2068.457845,-1258.350101,10732.986159
585.774625,-1762.019645,-962.267725,10436.903782
585.774941,-1608.800546,-1110.308913,10436.903782
585.775257,-995.924147,-1110.308913,10066.800811
585.775572,-459.657299,-1036.288319,9844.739029
585.775888,306.438199,-814.226536,9844.739029
585.776204,919.314598,-370.102971,9696.697840
585.776519,1685.410096,-148.041188,9400.615463
585.776835,1991.848295,370.102971,9104.533087
585.777150,2757.943793,1184.329507,8142.265362
585.777466,3064.381992,1628.453072,8142.265362
585.777782,3217.601092,1628.453072,7994.224174
585.778097,2911.162892,1332.370696,7994.224174
585.778413,2528.115143,1110.308913,8438.347739
585.778729,2374.896044,518.144159,8660.409521
585.779044,1302.362347,-0.000000,8882.471304
585.779360,842.705048,-370.102971,9474.636058
585.779675,0.000000,-740.205942,9992.780217
585.779991,-1532.190996,-1184.329507,10584.944971
585.780307,-1532.190996,-1702.473667,10955.047942
585.780622,-2068.457845,-1110.308913,10658.965565
585.780938,-2068.457845,-1332.370696,10436.903782
585.781254,-2145.067394,-1184.329507,10658.965565
585.781569,-1685.410096,-1258.350101,10584.944971
585.781885,-1608.800546,-1184.329507,10214.842000
585.782200,-1225.752797,-1110.308913,9844.739029
585.782516,-612.876398,-962.267725,9474.636058
585.782832,153.219100,-666.185348,9474.636058
585.783147,1149.143247,-814.226536,9474.636058
585.783463,1455.581446,-148.041188,9252.574275
585.783779,2145.067394,-0.000000,9030.512492
585.784094,2145.067394,370.102971,8586.388927
585.784410,2451.505594,962.267725,8660.409521
585.784725,2604.724693,888.247130,8512.368333
585.785041,2451.505594,1258.350101,8438.347739
585.785357,2451.505594,888.247130,8660.409521
585.785672,1991.848295,370.102971,8808.450710
585.785988,1225.752797,148.041188,8956.491898
585.786303,1149.143247,-296.082377,9030.512492
585.786619,306.438199,-518.144159,9474.636058
585.786935,-459.657299,-888.247130,9844.739029
585.787250,-1072.533697,-1184.329507,10214.842000
585.787566,-1608.800546,-1332.370696,10362.883188
585.787882,-1991.848295,-1184.329507,10288.862594
585.788197,-2374.896044,-888.247130,10214.842000
585.788513,-2298.286494,-1184.329507,10436.903782
585.788828,-1991.848295,-1406.391290,10436.903782
585.789144,-1455.581446,-1184.329507,10214.842000
585.789460,-1149.143247,-1184.329507,9918.759623
585.789775,-612.876398,-962.267725,9548.656652
585.790091,76.609550,-814.226536,9622.677246
585.790407,1149.143247,-296.082377,9474.636058
585.790722,1685.410096,-0.000000,9400.615463
585.791038,2068.457845,666.185348,8364.327145
585.791353,2528.115143,1332.370696,8364.327145
585.791669,2604.724693,1628.453072,8068.244768
585.791985,2834.553343,1776.494261,7772.162391
585.792300,3140.991542,1332.370696,8068.244768
585.792616,2451.505594,1110.308913,8438.347739
585.792932,1915.238745,740.205942,8734.430116
585.793247,1225.752797,148.041188,9030.512492
585.793563,842.705048,-74.020594,9770.718434
585.793878,-229.828649,-296.082377,10510.924376
585.794194,-919.314598,-740.205942,10436.903782
585.794510,-1455.581446,-962.267725,10955.047942
585.794825,-1915.238745,-888.247130,10584.944971
585.795141,-2068.457845,-888.247130,10584.944971
585.795457,-2068.457845,-962.267725,10436.903782
585.795772,-1838.629195,-814.226536,10362.883188
585.796088,-1455.581446,-1258.350101,10214.842000
585.796403,-995.924147,-1036.288319,9918.759623
585.796719,-306.438199,-666.185348,9696.697840
585.797035,76.609550,-592.164754,9770.718434
585.797350,689.485948,-296.082377,9770.718434
585.797666,1685.410096,-0.000000,9400.615463
585.797982,1915.238745,444.123565,9030.512492
585.798297,2221.676944,740.205942,8808.450710
585.798613,2451.505594,1258.350101,8586.388927
585.798928,2604.724693,1184.329507,8364.327145
585.799244,2604.724693,1184.329507,8290.306550
585.799560,2451.505594,740.205942,8586.388927
585.799875,2221.676944,592.164754,8512.368333
585.800191,1378.971896,444.123565,8734.430116
585.800507,1072.533697,74.020594,9030.512492
585.800822,229.828649,-222.061783,9622.677246
585.801138,-306.438199,-740.205942,9918.759623
585.801453,-689.485948,-1036.288319,10510.924376
585.801769,-1225.752797,-888.247130,10140.821405
585.802085,-1685.410096,-888.247130,10288.862594
585.802400,-1991.848295,-814.226536,10214.842000
585.802716,-2068.457845,-1480.411884,10436.903782
585.803032,-2068.457845,-1628.453072,10584.944971
585.803347,-1455.581446,-1332.370696,10066.800811
585.803663,-1072.533697,-962.267725,10066.800811
585.803978,-306.438199,-962.267725,9770.718434
585.804294,536.266849,-444.123565,9622.677246
585.804610,1302.362347,-74.020594,9474.636058
585.804925,1762.019645,148.041188,9104.533087
585.805241,2298.286494,962.267725,8660.409521
585.805557,2451.505594,1184.329507,8142.265362
585.805872,3294.210641,1554.432478,8142.265362
585.806188,3064.381992,1406.391290,8068.244768
585.806503,2681.334243,1258.350101,8142.265362
585.806819,2374.896044,888.247130,8364.327145
585.807135,1685.410096,592.164754,8512.368333
585.807450,1149.143247,-148.041188,9178.553681
585.807766,536.266849,-370.102971,9844.739029
585.808082,-536.266849,-888.247130,10066.800811
585.808397,-1149.143247,-1332.370696,10732.986159
585.808713,-1149.143247,-1554.432478,10881.027347
585.809028,-2298.286494,-1480.411884,10881.027347
585.809344,-2145.067394,-1184.329507,10510.924376
585.809660,-1915.238745,-1036.288319,10584.944971
585.809975,-1762.019645,-1258.350101,10066.800811
585.810291,-1225.752797,-1110.308913,9918.759623
585.810607,-842.705048,-1036.288319,9696.697840
585.810922,0.000000,-1036.288319,9548.656652
585.811238,612.876398,-814.226536,9548.656652
585.811553,1072.533697,-444.123565,9474.636058
585.811869,1915.238745,-222.061783,9178.553681
585.812185,1991.848295,222.061783,9400.615463
585.812500,2374.896044,888.247130,8956.491898
585.812816,2681.334243,1184.329507,8512.368333
585.813131,2987.772442,1480.411884,8438.347739
585.813447,2757.943793,1406.391290,8586.388927
585.813763,2528.115143,1406.391290,8660.409521
585.814078,2221.676944,962.267725,8512.368333
585.814394,1532.190996,740.205942,8586.388927
585.814710,1225.752797,148.041188,9104.533087
585.815025,766.095498,-296.082377,9474.636058
585.815341,153.219100,-592.164754,9844.739029
585.815656,-459.657299,-1036.288319,10362.883188
585.815972,-1608.800546,-518.144159,10362.883188
585.816288,-1685.410096,-666.185348,10362.883188
585.816603,-1991.848295,-1110.308913,10807.006753
585.816919,-1991.848295,-740.205942,10732.986159
585.817235,-2068.457845,-1258.350101,10436.903782
585.817550,-1685.410096,-1036.288319,10436.903782
585.817866,-1149.143247,-1258.350101,10362.883188
585.818181,-229.828649,-740.205942,10066.800811
585.818497,842.705048,-370.102971,9548.656652
585.818813,1149.143247,-0.000000,9326.594869
585.819128,1991.848295,444.123565,9178.553681
585.819444,2451.505594,1110.308913,8586.388927
585.819760,2834.553343,1332.370696,8216.285956
585.820075,2911.162892,1554.432478,8142.265362
585.820391,2987.772442,1480.411884,7920.203579
585.820706,3370.820191,1110.308913,8216.285956
585.821022,2528.115143,666.185348,8512.368333
585.821338,1762.019645,370.102971,8734.430116
585.821653,1149.143247,-222.061783,9252.574275
585.821969,383.047749,-592.164754,9770.718434
585.822285,0.000000,-1184.329507,10288.862594
585.822600,-1072.533697,-1332.370696,10510.924376
585.822916,-1915.238745,-1628.453072,10807.006753
585.823231,-2221.676944,-1258.350101,10584.944971
585.823547,-2068.457845,-1406.391290,10732.986159
585.823863,-1991.848295,-1480.411884,10362.883188
585.824178,-1838.629195,-1258.350101,10436.903782
585.824494,-1225.752797,-1480.411884,9770.718434
585.824810,-766.095498,-888.247130,9622.677246
585.825125,0.000000,-888.247130,9474.636058
585.825441,612.876398,-888.247130,9104.533087
585.825756,919.314598,-666.185348,9252.574275
585.826072,1685.410096,-74.020594,9178.553681
585.826388,2145.067394,222.061783,8734.430116
585.826703,2145.067394,740.205942,8586.388927
585.827019,2604.724693,888.247130,8586.388927
585.827335,2451.505594,1184.329507,8512.368333
585.827650,2451.505594,1110.308913,8364.327145
585.827966,2451.505594,814.226536,8512.368333
585.828281,1991.848295,740.205942,8734.430116
585.828597,1532.190996,-0.000000,8808.450710
585.828913,919.314598,-370.102971,9178.553681
585.829228,153.219100,-74.020594,9548.656652
585.829544,-536.266849,-888.247130,9918.759623
585.829860,-919.314598,-888.247130,10140.821405
585.830175,-1532.190996,-740.205942,10140.821405
585.830491,-2145.067394,-962.267725,10436.903782
585.830806,-2068.457845,-1184.329507,10436.903782
585.831122,-1915.238745,-1184.329507,10584.944971
585.831438,-1838.629195,-1406.391290,10584.944971
585.831753,-1455.581446,-1258.350101,10288.862594
585.832069,-153.219100,-1110.308913,9992.780217
585.832385,76.609550,-740.205942,9918.759623
585.832700,919.314598,-444.123565,9696.697840
585.833016,1762.019645,-592.164754,9252.574275
585.833331,2374.896044,444.123565,8956.491898
585.833647,2528.115143,962.267725,8586.388927
585.833963,2987.772442,1258.350101,8216.285956
585.834278,2834.553343,1776.494261,7994.224174
585.834594,2911.162892,1480.411884,7846.182985
585.834910,2604.724693,1110.308913,8142.265362
585.835225,1915.238745,666.185348,8586.388927
585.835541,1302.362347,-0.000000,8882.471304
585.835856,766.095498,-296.082377,9474.636058
585.836172,0.000000,-666.185348,9844.739029
585.836488,-919.314598,-962.267725,10510.924376
585.836803,-1532.190996,-962.267725,10658.965565
585.837119,-2068.457845,-962.267725,10732.986159
585.837434,-2068.457845,-1110.308913,10362.883188
585.837750,-2298.286494,-962.267725,10436.903782
585.838066,-2145.067394,-1110.308913,10288.862594
585.838381,-2068.457845,-1184.329507,10288.862594
585.838697,-1302.362347,-888.247130,9770.718434
585.839013,-612.876398,-740.205942,9474.636058
585.839328,-306.438199,-444.123565,9622.677246
585.839644,536.266849,-222.061783,9474.636058
585.839959,1302.362347,-222.061783,9104.533087
585.840275,1532.190996,296.082377,9104.533087
585.840591,1991.848295,1036.288319,8882.471304
585.840906,2374.896044,1110.308913,8734.430116
585.841222,2604.724693,1406.391290,8586.388927
585.841537,2834.553343,1332.370696,8290.306550
585.841853,2604.724693,1258.350101,8364.327145
585.842169,2451.505594,296.082377,8882.471304
585.842484,1838.629195,814.226536,8734.430116
585.842800,1378.971896,370.102971,8882.471304
585.843115,995.924147,148.041188,9030.512492
585.843431,229.828649,-222.061783,9622.677246
585.843747,0.000000,-296.082377,10510.924376
585.844062,-919.314598,-666.185348,10140.821405
585.844378,-1608.800546,-888.247130,10214.842000
585.844694,-1838.629195,-666.185348,10288.862594
585.845009,-1838.629195,-1110.308913,10436.903782
585.845325,-1915.238745,-1628.453072,10584.944971
585.845640,-1838.629195,-1184.329507,10807.006753
585.845956,-1608.800546,-1258.350101,10214.842000
585.846272,-766.095498,-962.267725,10140.821405
585.846587,536.266849,-740.205942,10066.800811
585.846903,919.314598,-444.123565,9844.739029
585.847218,1685.410096,-0.000000,9178.553681
585.847534,2221.676944,666.185348,8956.491898
585.847850,2528.115143,1332.370696,8216.285956
585.848165,3600.648841,1776.494261,7994.224174
585.848481,3140.991542,1776.494261,7920.203579
585.848797,3370.820191,1406.391290,7846.182985
585.849112,2757.943793,1258.350101,8290.306550
585.849428,1915.238745,666.185348,8586.388927
585.849743,1225.752797,-0.000000,9030.512492
585.850059,536.266849,-370.102971,9770.718434
585.850375,-383.047749,-740.205942,10436.903782
585.850690,-995.924147,-1036.288319,10881.027347
585.851006,-1532.190996,-1332.370696,11177.109724
585.851321,-2145.067394,-1480.411884,11029.068536
585.851637,-2451.505594,-1258.350101,10955.047942
585.851953,-2145.067394,-1258.350101,10658.965565
585.852268,-1991.848295,-1184.329507,10436.903782
585.852584,-1455.581446,-1258.350101,10214.842000
585.852899,-1072.533697,-1332.370696,9770.718434
585.853215,-229.828649,-740.205942,9548.656652
585.853531,766.095498,-666.185348,9474.636058
585.853846,1302.362347,-370.102971,9400.615463
585.854162,1455.581446,-222.061783,9104.533087
585.854478,2145.067394,296.082377,9030.512492
585.854793,2451.505594,518.144159,8660.409521
585.855109,2681.334243,888.247130,8586.388927
585.855424,2834.553343,740.205942,8290.306550
585.855740,2757.943793,1332.370696,8512.368333
585.856056,2374.896044,888.247130,8660.409521
585.856371,2221.676944,592.164754,8808.450710
585.856687,1608.800546,222.061783,8512.368333
585.857002,689.485948,-74.020594,8882.471304
585.857318,229.828649,-518.144159,9326.594869
585.857634,-229.828649,-1036.288319,9696.697840
585.857949,-919.314598,-1258.350101,10214.842000
585.858265,-1608.800546,-1258.350101,10066.800811
585.858581,-2298.286494,-1332.370696,9992.780217
585.858896,-1991.848295,-1184.329507,10288.862594
585.859212,-1991.848295,-1110.308913,10510.924376
585.859527,-1991.848295,-1332.370696,10214.842000
585.859843,-1532.190996,-1258.350101,10288.862594
585.860159,-1072.533697,-1036.288319,9770.718434
585.860474,-229.828649,-740.205942,9770.718434
585.860790,459.657299,-444.123565,9400.615463
585.861105,1378.971896,-74.020594,9326.594869
585.861421,1991.848295,148.041188,9030.512492
585.861737,2451.505594,962.267725,8734.430116
585.862052,2757.943793,1036.288319,7994.224174
585.862368,2834.553343,1628.453072,8068.244768
585.862683,2911.162892,1554.432478,7920.203579
585.862999,2757.943793,1036.288319,8364.327145
585.863315,2298.286494,518.144159,8660.409521
585.863630,1378.971896,444.123565,8734.430116
585.863946,689.485948,-74.020594,9400.615463
585.864262,153.219100,-370.102971,9918.759623
585.864577,-383.047749,-814.226536,10436.903782
585.864893,-995.924147,-1036.288319,11103.089130
585.865208,-1455.581446,-1258.350101,10955.047942
585.865524,-1915.238745,-1036.288319,10510.924376
585.865840,-1991.848295,-962.267725,10510.924376
585.866155,-1302.362347,-1036.288319,10362.883188
585.866471,-1532.190996,-814.226536,10362.883188
585.866786,-995.924147,-888.247130,10140.821405
585.867102,-536.266849,-888.247130,9696.697840
585.867418,76.609550,-814.226536,9474.636058
585.867733,76.609550,-666.185348,9770.718434
585.868049,1149.143247,-74.020594,9400.615463
585.868364,1608.800546,-0.000000,9400.615463
585.868680,2068.457845,370.102971,9400.615463
585.868996,2374.896044,962.267725,9030.512492
585.869311,2604.724693,1036.288319,8956.491898
585.869627,2528.115143,1184.329507,8586.388927
585.869943,2604.724693,1184.329507,8290.306550
585.870258,2374.896044,1184.329507,8734.430116
585.870574,2068.457845,888.247130,8660.409521
585.870889,1685.410096,-0.000000,8438.347739
585.871205,1149.143247,-0.000000,9178.553681
585.871521,383.047749,-222.061783,9474.636058
585.871836,-229.828649,-740.205942,9992.780217
585.872152,-842.705048,-1036.288319,10288.862594
585.872467,-1455.581446,-1110.308913,9844.739029
585.872783,-1838.629195,-1184.329507,10288.862594
585.873099,-2068.457845,-1258.350101,10362.883188
585.873414,-1838.629195,-1036.288319,10362.883188
585.873730,-1685.410096,-962.267725,10584.944971
585.874046,-1378.971896,-1184.329507,10436.903782
585.874361,-919.314598,-740.205942,9992.780217
585.874677,0.000000,-592.164754,9770.718434
585.874992,766.095498,-444.123565,9548.656652
585.875308,1532.190996,-222.061783,9400.615463
585.875624,2374.896044,-0.000000,8734.430116
585.875939,2528.115143,740.205942,8364.327145
585.876255,2757.943793,1184.329507,8068.244768
585.876570,2834.553343,1480.411884,7994.224174
585.876886,3064.381992,1332.370696,7846.182985
585.877202,2528.115143,888.247130,8290.306550
585.877517,2068.457845,370.102971,8512.368333
585.877833,1455.581446,148.041188,8734.430116
585.878148,612.876398,-296.082377,9474.636058
585.878464,0.000000,-814.226536,9918.759623
585.878780,-919.314598,-1184.329507,10140.821405
585.879095,-1608.800546,-1406.391290,10881.027347
585.879411,-1838.629195,-1258.350101,10658.965565
585.879727,-2068.457845,-1110.308913,10362.883188
585.880042,-2221.676944,-1110.308913,10066.800811
585.880358,-1608.800546,-962.267725,9918.759623
585.880673,-1532.190996,-1036.288319,9918.759623
585.880989,-842.705048,-1036.288319,9918.759623
585.881305,-306.438199,-888.247130,9474.636058
585.881620,459.657299,-592.164754,9326.594869
585.881936,689.485948,-444.123565,9770.718434
585.882251,1302.362347,-148.041188,9474.636058
585.882567,1685.410096,-0.000000,9178.553681
585.882883,2145.067394,814.226536,9030.512492
585.883198,2068.457845,888.247130,8808.450710
585.883514,2221.676944,962.267725,8734.430116
585.883830,2145.067394,962.267725,8512.368333
585.884145,2451.505594,962.267725,8660.409521
585.884461,1991.848295,296.082377,9252.574275
585.884776,1302.362347,296.082377,9104.533087
585.885092,612.876398,518.144159,9104.533087
585.885408,919.314598,-222.061783,9548.656652
585.885723,153.219100,-370.102971,9622.677246
585.886039,0.000000,-592.164754,10214.842000
585.886354,-1302.362347,-962.267725,10436.903782
585.886670,-1532.190996,-814.226536,10288.862594
585.886986,-1915.238745,-666.185348,10436.903782
585.887301,-1762.019645,-888.247130,10288.862594
585.887617,-1762.019645,-740.205942,10436.903782
585.887932,-1225.752797,-592.164754,10214.842000
585.888248,-612.876398,-740.205942,10066.800811
585.888564,-229.828649,-740.205942,9622.677246
585.888879,76.609550,-592.164754,9696.697840
585.889195,766.095498,-740.205942,9844.739029
585.889511,1532.190996,-74.020594,9326.594869
585.889826,1915.238745,296.082377,9104.533087
585.890142,2068.457845,888.247130,8586.388927
585.890457,2374.896044,814.226536,8438.347739
585.890773,2068.457845,1554.432478,8438.347739
585.891089,2221.676944,1258.350101,8364.327145
585.891404,2298.286494,888.247130,8660.409521
585.891720,1455.581446,592.164754,8956.491898
585.892035,995.924147,-0.000000,9178.553681
585.892351,612.876398,-148.041188,9548.656652
585.892667,153.219100,-592.164754,9844.739029
585.892982,-612.876398,-1036.288319,10288.862594
585.893298,-1225.752797,-1332.370696,10436.903782
585.893614,-1149.143247,-1184.329507,10362.883188
585.893929,-1762.019645,-1258.350101,10140.821405
585.894245,-1685.410096,-814.226536,10066.800811
585.894560,-1378.971896,-1110.308913,9918.759623
585.894876,-1072.533697,-1110.308913,9548.656652
585.895192,-842.705048,-814.226536,9770.718434
585.895507,-536.266849,-814.226536,9474.636058
585.895823,0.000000,-518.144159,9474.636058
585.896138,612.876398,-740.205942,9326.594869
585.896454,919.314598,-296.082377,9474.636058
585.896770,1532.190996,-222.061783,9326.594869
585.897085,1762.019645,222.061783,9178.553681
585.897401,2221.676944,518.144159,8808.450710
585.897716,1838.629195,962.267725,8808.450710
585.898032,2068.457845,1184.329507,8512.368333
585.898348,2451.505594,962.267725,8586.388927
585.898663,2145.067394,814.226536,8808.450710
585.898979,1838.629195,740.205942,8734.430116
585.899295,1762.019645,370.102971,8808.450710
585.899610,842.705048,-74.020594,9104.533087
585.899926,229.828649,-222.061783,9474.636058
585.900241,-153.219100,-518.144159,9918.759623
585.900557,-612.876398,-666.185348,10140.821405
585.900873,-1608.800546,-888.247130,10066.800811
585.901188,-1762.019645,-1332.370696,10214.842000
585.901504,-2068.457845,-1184.329507,10584.944971
585.901819,-1762.019645,-1332.370696,10510.924376
585.902135,-1302.362347,-1036.288319,10584.944971
585.902451,-536.266849,-1110.308913,10140.821405
585.902766,-689.485948,-1110.308913,9844.739029
585.903082,153.219100,-740.205942,9622.677246
585.903398,689.485948,-592.164754,9474.636058
585.903713,1378.971896,-148.041188,9178.553681
585.904029,1991.848295,296.082377,8956.491898
585.904344,2451.505594,666.185348,8290.306550
585.904660,2374.896044,1110.308913,8438.347739
585.904976,2681.334243,1406.391290,8142.265362
585.905291,2451.505594,1258.350101,8364.327145
585.905607,2451.505594,814.226536,8660.409521
585.905922,1685.410096,370.102971,8808.450710
585.906238,1225.752797,148.041188,8956.491898
585.906554,536.266849,-222.061783,9474.636058
585.906869,0.000000,-592.164754,9992.780217
585.907185,0.000000,-962.267725,10658.965565
585.907500,-1378.971896,-1258.350101,10658.965565
585.907816,-1685.410096,-888.247130,10584.944971
585.908132,-1608.800546,-740.205942,10362.883188
585.908447,-1608.800546,-740.205942,10288.862594
585.908763,-995.924147,-814.226536,9992.780217
585.909079,-1072.533697,-814.226536,9696.697840
585.909394,-689.485948,-1036.288319,9696.697840
585.909710,76.609550,-814.226536,9474.636058
585.910025,459.657299,-740.205942,9474.636058
585.910341,842.705048,-370.102971,9474.636058
585.910657,1685.410096,-74.020594,9178.553681
585.910972,1991.848295,296.082377,9252.574275
585.911288,2221.676944,666.185348,8882.471304
585.911603,2451.505594,814.226536,8882.471304
585.911919,2604.724693,962.267725,8734.430116
585.912235,2451.505594,1036.288319,8734.430116
585.912550,2374.896044,962.267725,8956.491898
585.912866,2298.286494,962.267725,8882.471304
585.913182,1838.629195,666.185348,8660.409521
585.913497,1072.533697,-0.000000,9104.533087
585.913813,689.485948,-74.020594,9548.656652
585.914128,536.266849,-444.123565,9622.677246
585.914444,-383.047749,-740.205942,9992.780217
585.914760,-536.266849,-888.247130,9992.780217
585.915075,-1302.362347,-814.226536,9844.739029
585.915391,-1608.800546,-888.247130,10288.862594
585.915706,-1302.362347,-962.267725,10362.883188
585.916022,-1608.800546,-814.226536,10214.842000
585.916338,-1225.752797,-1332.370696,10288.862594
585.916653,-1149.143247,-888.247130,9844.739029
585.916969,-383.047749,-444.123565,9918.759623
585.917284,459.657299,-518.144159,9770.718434
585.917600,995.924147,-518.144159,9400.615463
585.917916,1302.362347,-74.020594,9474.636058
585.918231,2068.457845,444.123565,8882.471304
585.918547,2145.067394,962.267725,8512.368333
585.918863,2298.286494,1332.370696,8290.306550
585.919178,2298.286494,1258.350101,8438.347739
585.919494,1991.848295,1184.329507,8512.368333
585.919809,2221.676944,740.205942,8808.450710
585.920125,1378.971896,518.144159,9030.512492
585.920441,995.924147,-0.000000,9178.553681
585.920756,536.266849,-444.123565,9696.697840
585.921072,0.000000,-666.185348,10066.800811
585.921387,-536.266849,-888.247130,10436.903782
585.921703,-919.314598,-814.226536,10510.924376
585.922019,-1608.800546,-1036.288319,10436.903782
585.922334,-1455.581446,-740.205942,9992.780217
585.922650,-1225.752797,-814.226536,10288.862594
585.922966,-1302.362347,-888.247130,10066.800811
585.923281,-1072.533697,-814.226536,9992.780217
585.923597,-842.705048,-814.226536,9622.677246
585.923912,0.000000,-962.267725,9178.553681
585.924228,0.000000,-888.247130,9252.574275
585.924544,536.266849,-962.267725,9622.677246
585.924859,995.924147,-666.185348,9770.718434
585.925175,1608.800546,-222.061783,9696.697840
585.925490,1915.238745,740.205942,9104.533087
585.925806,2221.676944,1036.288319,8882.471304
585.926122,2451.505594,1110.308913,8586.388927
585.926437,2451.505594,1184.329507,8364.327145
585.926753,2068.457845,1258.350101,8660.409521
585.927068,2145.067394,740.205942,8586.388927
585.927384,1915.238745,370.102971,8586.388927
585.927700,1455.581446,-0.000000,9252.574275
585.928015,1225.752797,-222.061783,9400.615463
585.928331,153.219100,-740.205942,9696.697840
585.928647,-536.266849,-444.123565,10066.800811
585.928962,-1149.143247,-666.185348,10214.842000
585.929278,-1532.190996,-592.164754,10140.821405
585.929593,-1685.410096,-814.226536,10362.883188
585.929909,-1991.848295,-740.205942,10066.800811
585.930225,-1991.848295,-962.267725,10584.944971
585.930540,-1915.238745,-1110.308913,10510.924376
585.930856,-1149.143247,-1332.370696,9844.739029
585.931171,-536.266849,-1258.350101,10066.800811
585.931487,76.609550,-962.267725,9770.718434
585.931803,689.485948,-444.123565,9548.656652
585.932118,1378.971896,-0.000000,9400.615463
585.932434,1991.848295,592.164754,9030.512492
585.932750,2374.896044,1332.370696,8586.388927
585.933065,2911.162892,1554.432478,8068.244768
585.933381,3064.381992,1702.473667,7624.121203
585.933696,3140.991542,1184.329507,8142.265362
585.934012,2757.943793,814.226536,8364.327145
585.934328,1838.629195,-0.000000,8512.368333
585.934643,1225.752797,-74.020594,8956.491898
585.934959,766.095498,-444.123565,9622.677246
585.935274,76.609550,-814.226536,10066.800811
585.935590,-612.876398,-1036.288319,10214.842000
585.935906,-1378.971896,-1184.329507,10807.006753
585.936221,-2068.457845,-1258.350101,10584.944971
585.936537,-1991.848295,-962.267725,10584.944971
585.936852,-2145.067394,-1036.288319,10436.903782
585.937168,-1685.410096,-1184.329507,10214.842000
585.937484,-1378.971896,-1110.308913,9992.780217
585.937800,-919.314598,-1036.288319,9622.677246
585.938115,-459.657299,-888.247130,9474.636058
585.938431,0.000000,-962.267725,9622.677246
585.938747,689.485948,-962.267725,9696.697840
585.939063,383.047749,-518.144159,9326.594869
585.939378,1455.581446,-74.020594,9252.574275
585.939694,1991.848295,592.164754,8882.471304
585.940010,2145.067394,1184.329507,8512.368333
585.940326,3064.381992,814.226536,8586.388927
585.940641,2681.334243,1332.370696,8512.368333
585.940957,2528.115143,1332.370696,8438.347739
585.941273,2068.457845,740.205942,8364.327145
585.941589,1608.800546,666.185348,8808.450710
585.941904,1532.190996,-0.000000,8808.450710
585.942220,459.657299,-148.041188,9178.553681
585.942536,-306.438199,-592.164754,9622.677246
585.942851,-919.314598,-740.205942,10140.821405
585.943167,-1685.410096,-666.185348,10140.821405
585.943483,-1991.848295,-518.144159,10362.883188
585.943799,-2145.067394,-814.226536,10658.965565
585.944114,-2221.676944,-1036.288319,10732.986159
585.944430,-1991.848295,-1332.370696,10584.944971
585.944746,-1532.190996,-1184.329507,10140.821405
585.945062,-1225.752797,-1110.308913,9918.759623
585.945377,-612.876398,-888.247130,10066.800811
585.945693,459.657299,-444.123565,9770.718434
585.946009,1225.752797,-222.061783,9474.636058
585.946325,1991.848295,518.144159,9030.512492
585.946640,2451.505594,666.185348,8438.347739
585.946956,2987.772442,1258.350101,8290.306550
585.947272,3140.991542,1702.473667,7994.224174
585.947588,3140.991542,1628.453072,7994.224174
585.947903,2757.943793,1184.329507,8068.244768
585.948219,2528.115143,740.205942,8660.409521
585.948535,1762.019645,370.102971,8882.471304
585.948850,766.095498,-74.020594,9326.594869
585.949166,306.438199,-518.144159,9918.759623
585.949482,-459.657299,-740.205942,10362.883188
585.949798,-1225.752797,-888.247130,10955.047942
585.950113,-1685.410096,-1184.329507,10732.986159
585.950429,-2221.676944,-888.247130,10584.944971
585.950745,-2145.067394,-962.267725,10584.944971
585.951061,-1608.800546,-1258.350101,10436.903782
585.951376,-1915.238745,-1332.370696,10214.842000
585.951692,-1302.362347,-962.267725,10214.842000
585.952008,-919.314598,-1036.288319,9770.718434
585.952324,-306.438199,-962.267725,9622.677246
585.952639,459.657299,-814.226536,9548.656652
585.952955,995.924147,-518.144159,9252.574275
585.953271,1685.410096,-0.000000,9104.533087
585.953587,2221.676944,592.164754,8956.491898
585.953902,2451.505594,1036.288319,8438.347739
585.954218,2834.553343,1332.370696,8216.285956
585.954534,2528.115143,1258.350101,8068.244768
585.954850,2987.772442,1332.370696,8290.306550
585.955165,2604.724693,888.247130,8438.347739
585.955481,2068.457845,666.185348,8512.368333
585.955797,1608.800546,-0.000000,8660.409521
585.956112,842.705048,-370.102971,9104.533087
585.956428,153.219100,-740.205942,9622.677246
585.956744,-383.047749,-888.247130,10214.842000
585.957060,-1302.362347,-1184.329507,10288.862594
585.957375,-1762.019645,-1036.288319,10362.883188
585.957691,-1991.848295,-888.247130,10362.883188
585.958007,-1915.238745,-1036.288319,10288.862594
585.958323,-1991.848295,-1184.329507,10362.883188
585.958638,-1685.410096,-962.267725,10288.862594
585.958954,-995.924147,-962.267725,10066.800811
585.959270,-612.876398,-1036.288319,9696.697840
585.959586,153.219100,-814.226536,9622.677246
585.959901,612.876398,-592.164754,9548.656652
585.960217,1762.019645,-222.061783,9252.574275
585.960533,1991.848295,518.144159,9252.574275
585.960849,2374.896044,1110.308913,8438.347739
585.961164,2834.553343,1554.432478,8216.285956
585.961480,2834.553343,1628.453072,8142.265362
585.961796,2834.553343,1258.350101,8142.265362
585.962111,2451.505594,888.247130,8586.388927
585.962427,1991.848295,296.082377,9030.512492
585.962743,1225.752797,-222.061783,9104.533087
585.963059,383.047749,-740.205942,9400.615463
585.963374,0.000000,-814.226536,9844.739029
585.963690,-383.047749,-1110.308913,10140.821405
585.964006,-612.876398,-1184.329507,10658.965565
585.964322,-1455.581446,-1036.288319,10584.944971
585.964637,-1608.800546,-1110.308913,10288.862594
585.964953,-1608.800546,-1110.308913,10510.924376
585.965269,-1532.190996,-1184.329507,10214.842000
585.965585,-1225.752797,-1184.329507,10362.883188
585.965900,-995.924147,-962.267725,9992.780217
585.966216,-306.438199,-962.267725,9548.656652
585.966532,0.000000,-814.226536,9474.636058
585.966848,459.657299,-740.205942,9548.656652
585.967163,1225.752797,-370.102971,9400.615463
585.967479,1532.190996,296.082377,9400.615463
585.967795,1838.629195,444.123565,9030.512492
585.968110,2298.286494,962.267725,8882.471304
585.968426,2528.115143,1184.329507,8660.409521
585.968742,2528.115143,1332.370696,8290.306550
585.969058,2451.505594,1036.288319,8364.327145
585.969373,2298.286494,1036.288319,8660.409521
585.969689,1915.238745,592.164754,8660.409521
585.970005,1378.971896,296.082377,8882.471304
585.970321,689.485948,-296.082377,9252.574275
585.970636,383.047749,-296.082377,9622.677246
585.970952,-459.657299,-518.144159,9918.759623
585.971268,-1072.533697,-740.205942,10140.821405
585.971584,-1608.800546,-740.205942,10066.800811
585.971899,-1991.848295,-962.267725,10140.821405
585.972215,-2374.896044,-1110.308913,10362.883188
585.972531,-1991.848295,-1036.288319,10362.883188
585.972847,-1762.019645,-1110.308913,10436.903782
585.973162,-1225.752797,-1036.288319,9992.780217
585.973478,-536.266849,-888.247130,10288.862594
585.973794,76.609550,-1036.288319,9770.718434
585.974109,689.485948,-296.082377,9696.697840
585.974425,1455.581446,-74.020594,9400.615463
585.974741,2145.067394,518.144159,9104.533087
585.975057,2374.896044,1036.288319,8586.388927
585.975372,2834.553343,1184.329507,8512.368333
585.975688,2834.553343,1480.411884,8216.285956
585.976004,2834.553343,1406.391290,8142.265362
585.976320,2604.724693,962.267725,8438.347739
585.976635,1838.629195,444.123565,8660.409521
585.976951,1149.143247,148.041188,9178.553681
585.977267,842.705048,-148.041188,9474.636058
585.977583,229.828649,-592.164754,9770.718434
585.977898,-459.657299,-1036.288319,10436.903782
585.978214,-1225.752797,-1110.308913,10658.965565
585.978530,-1455.581446,-1110.308913,10510.924376
585.978846,-1762.019645,-1110.308913,10584.944971
585.979161,-1991.848295,-1110.308913,10288.862594
585.979477,-1838.629195,-1184.329507,10362.883188
585.979793,-1685.410096,-1258.350101,10140.821405
585.980109,-919.314598,-1036.288319,10288.862594
585.980424,-919.314598,-962.267725,9770.718434
585.980740,-306.438199,-962.267725,9622.677246
585.981056,536.266849,-888.247130,9474.636058
585.981371,995.924147,-74.020594,9474.636058
585.981687,1302.362347,-0.000000,9252.574275
585.982003,2068.457845,518.144159,8586.388927
585.982319,2528.115143,740.205942,8438.347739
585.982634,2604.724693,1184.329507,8586.388927
585.982950,2528.115143,1184.329507,8290.306550
585.983266,2834.553343,1184.329507,8290.306550
585.983582,2451.505594,1036.288319,8586.388927
585.983897,1915.238745,962.267725,8512.368333
585.984213,1532.190996,296.082377,8734.430116
585.984529,919.314598,-74.020594,9474.636058
585.984845,153.219100,-444.123565,9844.739029
585.985160,-766.095498,-666.185348,10140.821405
585.985476,-1455.581446,-814.226536,10362.883188
585.985792,-1838.629195,-888.247130,10510.924376
585.986108,-2221.676944,-962.267725,10362.883188
585.986423,-1991.848295,-740.205942,10510.924376
585.986739,-1991.848295,-1110.308913,10362.883188
585.987055,-1838.629195,-1110.308913,10436.903782
585.987370,-995.924147,-888.247130,9992.780217
585.987686,-459.657299,-814.226536,9548.656652
585.988002,153.219100,-592.164754,9622.677246
585.988318,995.924147,-222.061783,9474.636058
585.988633,1455.581446,-0.000000,9252.574275
585.988949,2221.676944,814.226536,8438.347739
585.989265,2451.505594,1258.350101,8142.265362
585.989581,2681.334243,1332.370696,8068.244768
585.989896,2834.553343,1776.494261,8216.285956
585.990212,2757.943793,1480.411884,8068.244768
585.990528,2451.505594,1110.308913,8660.409521
585.990844,1762.019645,666.185348,8734.430116
585.991159,1149.143247,-0.000000,8956.491898
585.991475,919.314598,-296.082377,9474.636058
585.991791,-153.219100,-740.205942,9918.759623
585.992107,-1072.533697,-740.205942,10732.986159
585.992422,-1608.800546,-962.267725,10807.006753
585.992738,-1915.238745,-888.247130,10436.903782
585.993054,-2221.676944,-1036.288319,10584.944971
585.993369,-2221.676944,-1036.288319,10584.944971
585.993685,-1608.800546,-1110.308913,10510.924376
585.994001,-1838.629195,-1036.288319,10362.883188
585.994317,-1225.752797,-1036.288319,9696.697840
585.994632,-536.266849,-666.185348,9474.636058
585.994948,76.609550,-592.164754,9548.656652
585.995264,919.314598,-888.247130,9548.656652
585.995580,1225.752797,-0.000000,9178.553681
585.995895,1915.238745,370.102971,8956.491898
585.996211,2145.067394,740.205942,8808.450710
585.996527,2681.334243,1036.288319,8808.450710
585.996843,2681.334243,962.267725,8512.368333
585.997158,2757.943793,1258.350101,8364.327145
585.997474,2528.115143,1110.308913,8660.409521
585.997790,2145.067394,592.164754,8734.430116
585.998106,1608.800546,222.061783,8808.450710
585.998421,842.705048,-148.041188,9030.512492
585.998737,306.438199,-296.082377,9548.656652
585.999053,-229.828649,-740.205942,10214.842000
585.999368,-919.314598,-888.247130,10436.903782
585.999684,-919.314598,-1036.288319,10510.924376
586.000000,-1608.800546,-1110.308913,10732.986159
586.000316,-1915.238745,-1036.288319,10658.965565
586.000631,-1685.410096,-1258.350101,10658.965565
586.000947,-1685.410096,-1258.350101,10436.903782
586.001263,-1378.971896,-666.185348,10436.903782
586.001579,-383.047749,-740.205942,9770.718434
586.001894,0.000000,-518.144159,9252.574275
586.002210,842.705048,-518.144159,9400.615463
586.002526,1378.971896,-222.061783,9178.553681
586.002842,2068.457845,-222.061783,9178.553681
586.003157,2068.457845,518.144159,8734.430116
586.003473,2528.115143,888.247130,8216.285956
586.003789,2681.334243,1184.329507,8216.285956
586.004105,2604.724693,1184.329507,8290.306550
586.004420,2451.505594,814.226536,8364.327145
586.004736,2068.457845,444.123565,8586.388927
586.005052,1378.971896,222.061783,8586.388927
586.005368,919.314598,-296.082377,9104.533087
586.005683,306.438199,-740.205942,9696.697840
586.005999,-153.219100,-1110.308913,9918.759623
586.006315,-1225.752797,-1184.329507,10362.883188
586.006630,-1685.410096,-1480.411884,10584.944971
586.006946,-1838.629195,-1406.391290,10214.842000
586.007262,-1991.848295,-888.247130,10288.862594
586.007578,-1838.629195,-1184.329507,10214.842000
586.007893,-1149.143247,-1036.288319,9844.739029
586.008209,-1149.143247,-962.267725,10066.800811
586.008525,-766.095498,-740.205942,9696.697840
586.008841,-306.438199,-592.164754,9474.636058
586.009156,153.219100,-666.185348,9474.636058
586.009472,766.095498,-592.164754,9474.636058
586.009788,1302.362347,-0.000000,9252.574275
586.010104,2221.676944,-0.000000,9252.574275
586.010419,2145.067394,814.226536,8808.450710
586.010735,2298.286494,962.267725,8808.450710
586.011051,2451.505594,1110.308913,8586.388927
586.011367,2451.505594,1036.288319,8512.368333
586.011682,2298.286494,814.226536,9030.512492
586.011998,1838.629195,666.185348,8734.430116
586.012314,1302.362347,222.061783,9030.512492
586.012629,919.314598,-0.000000,9326.594869
586.012945,306.438199,-296.082377,9474.636058
586.013261,-229.828649,-740.205942,9918.759623
586.013577,-766.095498,-1036.288319,10140.821405
586.013892,-1149.143247,-1184.329507,10288.862594
586.014208,-1685.410096,-1110.308913,10288.862594
586.014524,-1685.410096,-962.267725,10584.944971
586.014840,-2374.896044,-1258.350101,10288.862594
586.015155,-1378.971896,-888.247130,10288.862594
586.015471,-1149.143247,-1110.308913,10140.821405
586.015787,-766.095498,-814.226536,9770.718434
586.016103,0.000000,-666.185348,10066.800811
586.016418,689.485948,-444.123565,9696.697840
586.016734,1225.752797,-222.061783,9178.553681
586.017050,1915.238745,148.041188,9104.533087
586.017366,2298.286494,740.205942,8734.430116
586.017681,2834.553343,1110.308913,8216.285956
586.017997,2987.772442,1554.432478,7994.224174
586.018313,2528.115143,1184.329507,7920.203579
586.018628,2681.334243,1258.350101,8364.327145
586.018944,2221.676944,962.267725,8512.368333
586.019260,1532.190996,370.102971,9030.512492
586.019576,919.314598,222.061783,9474.636058
586.019891,306.438199,-296.082377,9918.759623
586.020207,-383.047749,-888.247130,10140.821405
586.020523,-1149.143247,-1110.308913,10807.006753
586.020839,-1378.971896,-1184.329507,10288.862594
586.021154,-1685.410096,-740.205942,10214.842000
586.021470,-1762.019645,-666.185348,10214.842000
586.021786,-1685.410096,-962.267725,10362.883188
586.022102,-1455.581446,-1110.308913,10066.800811
586.022417,-766.095498,-1480.411884,9992.780217
586.022733,-383.047749,-1036.288319,9770.718434
586.023049,0.000000,-888.247130,9474.636058
586.023365,689.485948,-888.247130,9548.656652
586.023680,1149.143247,-518.144159,9622.677246
586.023996,1532.190996,-0.000000,9474.636058
586.024312,1762.019645,444.123565,9326.594869
586.024627,2374.896044,1036.288319,8586.388927
586.024943,2451.505594,1332.370696,8586.388927
586.025259,2528.115143,1258.350101,8290.306550
586.025575,2604.724693,1110.308913,8290.306550
586.025890,2451.505594,814.226536,8586.388927
586.026206,1991.848295,444.123565,8512.368333
586.026522,1225.752797,296.082377,8734.430116
586.026838,1072.533697,-0.000000,9030.512492
586.027153,76.609550,-518.144159,10066.800811
586.027469,-536.266849,-962.267725,9844.739029
586.027785,-1225.752797,-1036.288319,10362.883188
586.028101,-1915.238745,-1110.308913,10436.903782
586.028416,-1532.190996,-1036.288319,10214.842000
586.028732,-1838.629195,-888.247130,10288.862594
586.029048,-1762.019645,-740.205942,10362.883188
586.029364,-1455.581446,-666.185348,10214.842000
586.029679,-995.924147,-888.247130,9696.697840
586.029995,-459.657299,-740.205942,9770.718434
586.030311,229.828649,-444.123565,9326.594869
586.030627,766.095498,-592.164754,9400.615463
586.030942,1378.971896,-0.000000,9400.615463
586.031258,1685.410096,-0.000000,9178.553681
586.031574,2068.457845,592.164754,8882.471304
586.031889,2221.676944,1184.329507,8660.409521
586.032205,2298.286494,1480.411884,8438.347739
586.032521,2374.896044,1332.370696,8438.347739
586.032837,2221.676944,962.267725,8882.471304
586.033152,1991.848295,814.226536,9474.636058
586.033468,1072.533697,148.041188,9030.512492
586.033784,689.485948,-370.102971,9622.677246
586.034100,0.000000,-740.205942,9844.739029
586.034415,0.000000,-1110.308913,10288.862594
586.034731,-1149.143247,-1480.411884,10732.986159
586.035047,-1608.800546,-1184.329507,10584.944971
586.035363,-1608.800546,-1258.350101,10658.965565
586.035678,-1915.238745,-1036.288319,10510.924376
586.035994,-1991.848295,-1036.288319,10288.862594
586.036310,-1685.410096,-1406.391290,10214.842000
586.036626,-1302.362347,-1332.370696,9992.780217
586.036941,-536.266849,-888.247130,9548.656652
586.037257,0.000000,-962.267725,9474.636058
586.037573,842.705048,-666.185348,9474.636058
586.037888,919.314598,-518.144159,9474.636058
586.038204,1532.190996,-222.061783,9178.553681
586.038520,2298.286494,-0.000000,8660.409521
586.038836,2451.505594,592.164754,8734.430116
586.039151,2681.334243,888.247130,8216.285956
586.039467,2604.724693,1036.288319,8068.244768
586.039783,2604.724693,1184.329507,8438.347739
586.040099,2604.724693,962.267725,8586.388927
586.040414,1991.848295,740.205942,8586.388927
586.040730,1302.362347,-0.000000,8660.409521
586.041046,383.047749,-74.020594,9178.553681
586.041362,229.828649,-296.082377,9770.718434
586.041677,-459.657299,-666.185348,10362.883188
586.041993,-995.924147,-1036.288319,10436.903782
586.042309,-1532.190996,-444.123565,10214.842000
586.042625,-1762.019645,-518.144159,10362.883188
586.042940,-2068.457845,-592.164754,10436.903782
586.043256,-1762.019645,-666.185348,10362.883188
586.043572,-1378.971896,-962.267725,10066.800811
586.043887,-1149.143247,-962.267725,9992.780217
586.044203,-536.266849,-814.226536,9696.697840
586.044519,306.438199,-740.205942,9696.697840
586.044835,689.485948,-814.226536,9326.594869
586.045150,1225.752797,-296.082377,9326.594869
586.045466,1762.019645,444.123565,9178.553681
586.045782,2374.896044,1036.288319,8734.430116
586.046098,2528.115143,1258.350101,8512.368333
586.046413,2911.162892,1406.391290,8438.347739
586.046729,2604.724693,1628.453072,8142.265362
586.047045,2221.676944,962.267725,8216.285956
586.047361,1915.238745,740.205942,8808.450710
586.047676,1302.362347,296.082377,9178.553681
586.047992,995.924147,-518.144159,9474.636058
586.048308,0.000000,-666.185348,9770.718434
586.048624,-689.485948,-814.226536,10510.924376
586.048939,-1378.971896,-1110.308913,10658.965565
586.049255,-1685.410096,-1110.308913,10732.986159
586.049571,-1532.190996,-1110.308913,10658.965565
586.049886,-1915.238745,-740.205942,10362.883188
586.050202,-1608.800546,-962.267725,10214.842000
586.050518,-1532.190996,-1110.308913,10288.862594
586.050834,-1225.752797,-962.267725,9992.780217
586.051149,-612.876398,-888.247130,9400.615463
586.051465,0.000000,-518.144159,9474.636058
586.051781,919.314598,-444.123565,9474.636058
586.052097,1532.190996,-0.000000,9474.636058
586.052412,1838.629195,222.061783,9030.512492
586.052728,2221.676944,444.123565,8586.388927
586.053044,2528.115143,1036.288319,8364.327145
586.053360,2834.553343,1406.391290,8438.347739
586.053675,2757.943793,1332.370696,8216.285956
586.053991,2451.505594,1110.308913,8586.388927
586.054307,2145.067394,888.247130,8808.450710
586.054623,1532.190996,370.102971,8882.471304
586.054938,1149.143247,-74.020594,9252.574275
586.055254,536.266849,-444.123565,9548.656652
586.055570,0.000000,-888.247130,9918.759623
586.055886,-689.485948,-1258.350101,10288.862594
586.056201,-1302.362347,-1110.308913,10066.800811
586.056517,-1762.019645,-888.247130,10214.842000
586.056833,-1762.019645,-814.226536,10362.883188
586.057148,-1225.752797,-962.267725,10214.842000
586.057464,-1455.581446,-1184.329507,10066.800811
586.057780,-995.924147,-1110.308913,10140.821405
586.058096,-536.266849,-1036.288319,9622.677246
586.058411,76.609550,-814.226536,9474.636058
586.058727,842.705048,-518.144159,9474.636058
586.059043,1532.190996,-222.061783,9622.677246
586.059359,1838.629195,-222.061783,9178.553681
586.059674,2221.676944,296.082377,8956.491898
586.059990,2451.505594,888.247130,8438.347739
586.060306,3217.601092,1036.288319,7994.224174
586.060622,2757.943793,1406.391290,8216.285956
586.060937,2528.115143,1110.308913,8216.285956
586.061253,2221.676944,814.226536,8438.347739
586.061569,1838.629195,370.102971,8438.347739
586.061885,1302.362347,-296.082377,8586.388927
586.062200,689.485948,-518.144159,9252.574275
586.062516,0.000000,-962.267725,9844.739029
586.062832,-995.924147,-1258.350101,10362.883188
586.063147,-1608.800546,-1406.391290,10658.965565
586.063463,-2221.676944,-1480.411884,10807.006753
586.063779,-2145.067394,-962.267725,10732.986159
586.064095,-1762.019645,-1036.288319,10288.862594
586.064410,-1762.019645,-666.185348,10066.800811
586.064726,-1532.190996,-1184.329507,9992.780217
586.065042,-536.266849,-962.267725,9548.656652
586.065358,-153.219100,-444.123565,9474.636058
586.065673,612.876398,-592.164754,9178.553681
586.065989,995.924147,-296.082377,9400.615463
586.066305,1608.800546,-0.000000,9326.594869
586.066621,1915.238745,444.123565,9104.533087
586.066936,2298.286494,814.226536,8956.491898
586.067252,2298.286494,1110.308913,8882.471304
586.067568,2298.286494,1258.350101,8586.388927
586.067884,2528.115143,1480.411884,8290.306550
586.068199,2068.457845,1036.288319,9104.533087
586.068515,1762.019645,888.247130,8956.491898
586.068831,1378.971896,222.061783,8808.450710
586.069146,459.657299,-148.041188,9474.636058
586.069462,76.609550,-518.144159,9844.739029
586.069778,-459.657299,-814.226536,10140.821405
586.070094,-995.924147,-888.247130,10510.924376
586.070409,-1455.581446,-592.164754,10288.862594
586.070725,-1838.629195,-740.205942,10362.883188
586.071041,-1762.019645,-814.226536,10066.800811
586.071357,-1072.533697,-592.164754,10288.862594
586.071672,-1378.971896,-740.205942,10066.800811
586.071988,-766.095498,-888.247130,9992.780217
586.072304,-536.266849,-592.164754,9770.718434
586.072620,0.000000,-518.144159,9844.739029
586.072935,612.876398,-518.144159,9474.636058
586.073251,1225.752797,-148.041188,9326.594869
586.073567,1915.238745,-0.000000,9178.553681
586.073883,2221.676944,370.102971,8808.450710
586.074198,2374.896044,962.267725,8290.306550
586.074514,2451.505594,888.247130,8364.327145
586.074830,2374.896044,1184.329507,8512.368333
586.075145,2298.286494,814.226536,8586.388927
586.075461,1838.629195,518.144159,8882.471304
586.075777,1532.190996,222.061783,8808.450710
586.076093,1072.533697,-74.020594,9252.574275
586.076408,383.047749,-518.144159,9622.677246
586.076724,-153.219100,-962.267725,9992.780217
586.077040,-1072.533697,-1184.329507,10658.965565
586.077356,-1378.971896,-1184.329507,10658.965565
586.077671,-1838.629195,-1110.308913,10362.883188
586.077987,-1302.362347,-962.267725,10288.862594
586.078303,-1378.971896,-962.267725,10214.842000
586.078619,-1762.019645,-1332.370696,9992.780217
586.078934,-919.314598,-962.267725,9770.718434
586.079250,-459.657299,-666.185348,9548.656652
586.079566,0.000000,-518.144159,9326.594869
586.079882,229.828649,-592.164754,9326.594869
586.080197,689.485948,-592.164754,9474.636058
586.080513,1378.971896,-148.041188,9326.594869
586.080829,1532.190996,-148.041188,8956.491898
586.081144,1762.019645,518.144159,8808.450710
586.081460,2221.676944,740.205942,8660.409521
586.081776,2221.676944,888.247130,8512.368333
586.082092,2145.067394,962.267725,8808.450710
586.082407,2145.067394,518.144159,8734.430116
586.082723,1762.019645,296.082377,8734.430116
586.083039,1685.410096,-74.020594,8586.388927
586.083355,689.485948,-296.082377,9178.553681
586.083670,0.000000,-222.061783,9474.636058
586.083986,0.000000,-444.123565,9844.739029
586.084302,-383.047749,-814.226536,10066.800811
586.084618,-1302.362347,-740.205942,10066.800811
586.084933,-1532.190996,-740.205942,10140.821405
586.085249,-1378.971896,-1110.308913,10066.800811
586.085565,-1532.190996,-888.247130,10214.842000
586.085881,-1762.019645,-1184.329507,10584.944971
586.086196,-1225.752797,-962.267725,10140.821405
586.086512,-766.095498,-592.164754,9992.780217
586.086828,-383.047749,-666.185348,9696.697840
586.087144,612.876398,-518.144159,9622.677246
586.087459,1378.971896,-444.123565,9844.739029
586.087775,1532.190996,-222.061783,9474.636058
586.088091,2145.067394,518.144159,9030.512492
586.088406,2145.067394,888.247130,8512.368333
586.088722,2451.505594,1332.370696,8364.327145
586.089038,2911.162892,1554.432478,8068.244768
586.089354,2757.943793,1036.288319,8290.306550
586.089669,2298.286494,814.226536,8660.409521
586.089985,1762.019645,592.164754,8734.430116
586.090301,1378.971896,296.082377,9326.594869
586.090617,995.924147,-444.123565,9474.636058
586.090932,-383.047749,-814.226536,9992.780217
586.091248,-766.095498,-888.247130,10584.944971
586.091564,-1378.971896,-962.267725,10658.965565
586.091880,-1838.629195,-1110.308913,10436.903782
586.092195,-1762.019645,-814.226536,10288.862594
586.092511,-1608.800546,-888.247130,10362.883188
586.092827,-1608.800546,-962.267725,10140.821405
586.093143,-1225.752797,-1036.288319,9992.780217
586.093458,-612.876398,-888.247130,9474.636058
586.093774,0.000000,-962.267725,9474.636058
586.094090,306.438199,-740.205942,9474.636058
586.094405,766.095498,-444.123565,9400.615463
586.094721,1302.362347,-0.000000,9474.636058
586.095037,1532.190996,-0.000000,9104.533087
586.095353,2374.896044,740.205942,8512.368333
586.095668,2451.505594,1184.329507,8512.368333
586.095984,2604.724693,1406.391290,8438.347739
586.096300,2451.505594,1110.308913,8364.327145
586.096616,2451.505594,1110.308913,8734.430116
586.096931,1991.848295,888.247130,8586.388927
586.097247,1532.190996,592.164754,8734.430116
586.097563,842.705048,-148.041188,9252.574275
586.097879,153.219100,-518.144159,9696.697840
586.098194,-459.657299,-962.267725,10214.842000
586.098510,-1149.143247,-814.226536,10288.862594
586.098826,-1302.362347,-740.205942,10362.883188
586.099142,-1762.019645,-740.205942,10214.842000
586.099457,-1838.629195,-962.267725,10510.924376
586.099773,-1608.800546,-1036.288319,10066.800811
586.100089,-1455.581446,-1258.350101,10584.944971
586.100404,-1149.143247,-740.205942,10066.800811
586.100720,-842.705048,-814.226536,9770.718434
586.101036,76.609550,-888.247130,9622.677246
586.101352,995.924147,-888.247130,10140.821405
586.101667,1455.581446,-296.082377,9548.656652
586.101983,1685.410096,-0.000000,9104.533087
586.102299,2221.676944,740.205942,8734.430116
586.102615,2374.896044,1110.308913,8586.388927
586.102930,2987.772442,1332.370696,8364.327145
586.103246,2681.334243,1332.370696,8364.327145
586.103562,2681.334243,1480.411884,8586.388927
586.103878,2298.286494,814.226536,8512.368333
586.104193,1532.190996,222.061783,8734.430116
586.104509,919.314598,-222.061783,9326.594869
586.104825,383.047749,-814.226536,9844.739029
586.105141,-612.876398,-1036.288319,10362.883188
586.105456,-1072.533697,-1480.411884,10510.924376
586.105772,-1762.019645,-1332.370696,10584.944971
586.106088,-1762.019645,-1258.350101,10362.883188
586.106403,-2068.457845,-962.267725,10362.883188
586.106719,-1762.019645,-1110.308913,10140.821405
586.107035,-1455.581446,-1036.288319,10288.862594
586.107351,-1149.143247,-1480.411884,9992.780217
586.107666,-689.485948,-1036.288319,9474.636058
586.107982,76.609550,-888.247130,9474.636058
586.108298,766.095498,-740.205942,9400.615463
586.108614,1302.362347,-518.144159,9326.594869
586.108929,1838.629195,-148.041188,8956.491898
586.109245,2068.457845,518.144159,8882.471304
586.109561,2528.115143,1036.288319,8438.347739
586.109877,2604.724693,1110.308913,8660.409521
586.110192,2604.724693,1184.329507,8438.347739
586.110508,2987.772442,888.247130,8586.388927
586.110824,2374.896044,740.205942,8808.450710
586.111140,1838.629195,592.164754,8956.491898
586.111455,1302.362347,-0.000000,9030.512492
586.111771,612.876398,-296.082377,9474.636058
586.112087,383.047749,-740.205942,9770.718434
586.112402,-383.047749,-888.247130,10362.883188
586.112718,-1072.533697,-1110.308913,10288.862594
586.113034,-1149.143247,-518.144159,10288.862594
586.113350,-1455.581446,-518.144159,10066.800811
586.113665,-1608.800546,-666.185348,9992.780217
586.113981,-1608.800546,-740.205942,10066.800811
586.114297,-1225.752797,-962.267725,9992.780217
586.114613,-919.314598,-888.247130,9622.677246
586.114928,0.000000,-592.164754,9548.656652
586.115244,306.438199,-740.205942,9622.677246
586.115560,536.266849,-296.082377,9622.677246
586.115876,1378.971896,-0.000000,9474.636058
586.116191,1762.019645,296.082377,9178.553681
586.116507,1838.629195,1036.288319,9030.512492
586.116823,2374.896044,1332.370696,8438.347739
586.117139,2451.505594,1406.391290,8290.306550
586.117454,2604.724693,1480.411884,8216.285956
586.117770,2374.896044,1258.350101,8364.327145
586.118086,1762.019645,962.267725,8438.347739
586.118402,1225.752797,370.102971,8808.450710
586.118717,459.657299,-370.102971,9326.594869
586.119033,0.000000,-444.123565,9918.759623
586.119349,-612.876398,-888.247130,10510.924376
586.119664,-1072.533697,-1110.308913,10955.047942
586.119980,-1685.410096,-1036.288319,10732.986159
586.120296,-1991.848295,-888.247130,10807.006753
586.120612,-1838.629195,-740.205942,10732.986159
586.120927,-1532.190996,-1036.288319,10436.903782
586.121243,-1532.190996,-1110.308913,10066.800811
586.121559,-1149.143247,-666.185348,10288.862594
586.121875,-383.047749,-444.123565,9696.697840
586.122190,76.609550,-666.185348,9474.636058
586.122506,153.219100,-518.144159,9844.739029
586.122822,1378.971896,-222.061783,9474.636058
586.123138,1838.629195,-0.000000,9178.553681
586.123453,2298.286494,888.247130,8808.450710
586.123769,2451.505594,1110.308913,8438.347739
586.124085,3064.381992,1332.370696,8586.388927
586.124401,2834.553343,1184.329507,8290.306550
586.124716,2834.553343,962.267725,8586.388927
586.125032,2374.896044,592.164754,8956.491898
586.125348,1685.410096,296.082377,9178.553681
586.125663,1149.143247,-0.000000,9178.553681
586.125979,766.095498,-296.082377,9400.615463
586.126295,0.000000,-296.082377,9548.656652
586.126611,-383.047749,-888.247130,10066.800811
586.126926,-1072.533697,-888.247130,10066.800811
586.127242,-1225.752797,-666.185348,10140.821405
586.127558,-1455.581446,-814.226536,9992.780217
586.127874,-1532.190996,-962.267725,10140.821405
586.128189,-1608.800546,-1036.288319,10288.862594
586.128505,-1302.362347,-1184.329507,10140.821405
586.128821,-995.924147,-1184.329507,9918.759623
586.129137,-306.438199,-666.185348,9918.759623
586.129452,306.438199,-740.205942,9548.656652
586.129768,995.924147,-518.144159,9400.615463
586.130084,1532.190996,-0.000000,9252.574275
586.130400,1685.410096,370.102971,8808.450710
586.130715,2221.676944,1406.391290,8364.327145
586.131031,2451.505594,1406.391290,8142.265362
586.131347,2987.772442,1406.391290,7846.182985
586.131662,2528.115143,1480.411884,7920.203579
586.131978,2221.676944,1036.288319,8364.327145
586.132294,1455.581446,222.061783,8660.409521
586.132610,1072.533697,-296.082377,8956.491898
586.132925,459.657299,-740.205942,9548.656652
586.133241,-229.828649,-814.226536,10066.800811
586.133557,-919.314598,-1036.288319,10510.924376
586.133873,-1455.581446,-1258.350101,10584.944971
586.134188,-1915.238745,-888.247130,10584.944971
586.134504,-2221.676944,-814.226536,10510.924376
586.134820,-1838.629195,-1406.391290,10214.842000
586.135136,-1838.629195,-1184.329507,10140.821405
586.135451,-1302.362347,-1036.288319,9992.780217
586.135767,-766.095498,-1184.329507,9844.739029
586.136083,0.000000,-888.247130,9178.553681
586.136399,229.828649,-740.205942,9548.656652
586.136714,995.924147,-370.102971,9400.615463
586.137030,1608.800546,-0.000000,8956.491898
586.137346,1915.238745,518.144159,9104.533087
586.137661,2298.286494,740.205942,8660.409521
586.137977,2374.896044,1036.288319,8734.430116
586.138293,2604.724693,1110.308913,8290.306550
586.138609,2451.505594,1184.329507,8512.368333
586.138924,1991.848295,888.247130,8808.450710
586.139240,2068.457845,222.061783,9252.574275
586.139556,1302.362347,222.061783,9178.553681
586.139872,995.924147,-148.041188,9474.636058
586.140187,306.438199,-296.082377,9622.677246
586.140503,-229.828649,-666.185348,9770.718434
586.140819,-689.485948,-1258.350101,9622.677246
586.141135,-1072.533697,-814.226536,10140.821405
586.141450,-1532.190996,-962.267725,10288.862594
586.141766,-1532.190996,-814.226536,10140.821405
586.142082,-1608.800546,-814.226536,9918.759623
586.142398,-1455.581446,-1258.350101,9992.780217
586.142713,-1378.971896,-1110.308913,10140.821405
586.143029,-995.924147,-888.247130,9918.759623
586.143345,0.000000,-962.267725,9918.759623
586.143661,229.828649,-518.144159,9918.759623
586.143976,842.705048,-666.185348,9326.594869
586.144292,1378.971896,-0.000000,9252.574275
586.144608,2145.067394,518.144159,8808.450710
586.144924,2451.505594,1036.288319,8438.347739
586.145239,2604.724693,1406.391290,8068.244768
586.145555,2987.772442,1480.411884,8068.244768
586.145871,2681.334243,1036.288319,8216.285956
586.146186,2298.286494,666.185348,8586.388927
586.146502,1608.800546,148.041188,8734.430116
586.146818,1072.533697,-222.061783,9030.512492
586.147134,766.095498,-518.144159,9474.636058
586.147449,-76.609550,-814.226536,9918.759623
586.147765,-842.705048,-1036.288319,10436.903782
586.148081,-1302.362347,-1184.329507,10510.924376
586.148397,-1455.581446,-1184.329507,10658.965565
586.148712,-1915.238745,-962.267725,10436.903782
586.149028,-1762.019645,-1258.350101,10214.842000
586.149344,-1532.190996,-1110.308913,10214.842000
586.149660,-1225.752797,-1480.411884,10066.800811
586.149975,-689.485948,-1258.350101,9770.718434
586.150291,-76.609550,-814.226536,9400.615463
586.150607,459.657299,-740.205942,9326.594869
586.150923,1225.752797,-444.123565,9400.615463
586.151238,1685.410096,-222.061783,9178.553681
586.151554,1991.848295,296.082377,8882.471304
586.151870,2374.896044,592.164754,8586.388927
586.152186,2528.115143,1036.288319,8512.368333
586.152501,2528.115143,1258.350101,8364.327145
586.152817,2298.286494,1184.329507,8364.327145
586.153133,2298.286494,740.205942,8734.430116
586.153449,1532.190996,814.226536,8734.430116
586.153764,995.924147,-0.000000,8882.471304
586.154080,459.657299,-222.061783,9474.636058
586.154396,459.657299,-518.144159,9770.718434
586.154712,-612.876398,-740.205942,10214.842000
586.155027,-1149.143247,-1184.329507,10288.862594
586.155343,-1762.019645,-888.247130,10214.842000
586.155659,-1915.238745,-814.226536,10288.862594
586.155974,-1762.019645,-1110.308913,10362.883188
586.156290,-1685.410096,-814.226536,10288.862594
586.156606,-1685.410096,-814.226536,10140.821405
586.156922,-1378.971896,-1036.288319,9992.780217
586.157237,-536.266849,-814.226536,9696.697840
586.157553,153.219100,-222.061783,9918.759623
586.157869,919.314598,-222.061783,9622.677246
586.158185,1532.190996,222.061783,9252.574275
586.158500,2145.067394,592.164754,8956.491898
586.158816,2528.115143,1036.288319,8660.409521
586.159132,2757.943793,1406.391290,8512.368333
586.159448,2987.772442,1554.432478,8364.327145
586.159763,2987.772442,1554.432478,8290.306550
586.160079,2604.724693,1258.350101,8586.388927
586.160395,2451.505594,814.226536,8734.430116
586.160711,1608.800546,518.144159,8734.430116
586.161026,842.705048,-0.000000,9400.615463
586.161342,0.000000,-444.123565,9918.759623
586.161658,-383.047749,-962.267725,10362.883188
586.161974,-919.314598,-1702.473667,10881.027347
586.162289,-1838.629195,-1480.411884,11029.068536
586.162605,-1838.629195,-1554.432478,11029.068536
586.162921,-1762.019645,-1036.288319,10658.965565
586.163237,-1532.190996,-962.267725,10362.883188
586.163552,-1149.143247,-1036.288319,10140.821405
586.163868,-766.095498,-962.267725,10066.800811
586.164184,-383.047749,-888.247130,9252.574275
586.164499,229.828649,-740.205942,9326.594869
586.164815,1225.752797,-370.102971,9104.533087
586.165131,1532.190996,-370.102971,9104.533087
586.165447,1991.848295,-0.000000,9030.512492
586.165762,2068.457845,370.102971,8882.471304
586.166078,2374.896044,740.205942,8734.430116
586.166394,2298.286494,444.123565,8734.430116
586.166710,2451.505594,1036.288319,8734.430116
586.167025,2221.676944,814.226536,8586.388927
586.167341,1762.019645,444.123565,8734.430116
586.167657,1225.752797,518.144159,8808.450710
586.167973,842.705048,-0.000000,9030.512492
586.168288,536.266849,-148.041188,9326.594869
586.168604,0.000000,-370.102971,9696.697840
586.168920,-612.876398,-740.205942,9992.780217
586.169236,-1455.581446,-814.226536,10510.924376
586.169551,-1072.533697,-814.226536,9992.780217
586.169867,-1532.190996,-592.164754,9992.780217
586.170183,-1455.581446,-1036.288319,9992.780217
586.170499,-1532.190996,-888.247130,10362.883188
586.170814,-1302.362347,-888.247130,10066.800811
586.171130,-383.047749,-888.247130,9918.759623
586.171446,-383.047749,-592.164754,9696.697840
586.171762,76.609550,-370.102971,9696.697840
586.172077,766.095498,-370.102971,9622.677246
586.172393,1302.362347,-74.020594,9178.553681
586.172709,2221.676944,-148.041188,8956.491898
586.173024,2221.676944,740.205942,8438.347739
586.173340,2451.505594,888.247130,8512.368333
586.173656,2604.724693,1258.350101,8216.285956
586.173972,2681.334243,1332.370696,8142.265362
586.174287,2298.286494,1036.288319,8216.285956
586.174603,1915.238745,518.144159,8734.430116
586.174919,1149.143247,148.041188,9104.533087
586.175235,459.657299,-296.082377,9400.615463
586.175550,0.000000,-888.247130,9992.780217
586.175866,-229.828649,-962.267725,10584.944971
586.176182,-1608.800546,-1332.370696,10807.006753
586.176498,-1762.019645,-1628.453072,10807.006753
586.176813,-2145.067394,-1332.370696,10362.883188
586.177129,-1685.410096,-1036.288319,10584.944971
586.177445,-1685.410096,-888.247130,10436.903782
586.177761,-995.924147,-814.226536,9918.759623
586.178076,-842.705048,-814.226536,9622.677246
586.178392,-306.438199,-592.164754,9474.636058
586.178708,306.438199,-592.164754,9030.512492
586.179024,842.705048,-592.164754,9400.615463
586.179339,1685.410096,-0.000000,9178.553681
586.179655,1762.019645,-74.020594,9326.594869
586.179971,1991.848295,296.082377,9030.512492
586.180287,2221.676944,592.164754,9178.553681
586.180602,2451.505594,1110.308913,8512.368333
586.180918,2451.505594,1110.308913,8808.450710
586.181234,2451.505594,1110.308913,8882.471304
586.181550,2221.676944,518.144159,8882.471304
586.181865,1762.019645,666.185348,8882.471304
586.182181,1072.533697,148.041188,9252.574275
586.182497,995.924147,-74.020594,9474.636058
586.182812,0.000000,-444.123565,9696.697840
586.183128,-383.047749,-444.123565,10214.842000
586.183444,-612.876398,-518.144159,10362.883188
586.183760,-1302.362347,-518.144159,9918.759623
586.184075,-1302.362347,-518.144159,10066.800811
586.184391,-1378.971896,-740.205942,9992.780217
586.184707,-1072.533697,-888.247130,10140.821405
586.185023,-689.485948,-962.267725,10288.862594
586.185338,-919.314598,-1110.308913,9770.718434
586.185654,-536.266849,-592.164754,9770.718434
586.185970,153.219100,-740.205942,9548.656652
586.186286,689.485948,-296.082377,9474.636058
586.186601,1532.190996,-148.041188,9622.677246
586.186917,1608.800546,370.102971,9474.636058
586.187233,2145.067394,1036.288319,8734.430116
586.187549,2451.505594,1332.370696,8290.306550
586.187864,2681.334243,1554.432478,7994.224174
586.188180,2528.115143,1554.432478,8068.244768
586.188496,2451.505594,1036.288319,8290.306550
586.188812,1915.238745,296.082377,8660.409521
586.189127,995.924147,148.041188,9030.512492
586.189443,0.000000,-666.185348,9622.677246
586.189759,0.000000,-888.247130,9918.759623
586.190075,-1149.143247,-1332.370696,10658.965565
586.190390,-1532.190996,-1554.432478,10732.986159
586.190706,-2068.457845,-1480.411884,10807.006753
586.191022,-2298.286494,-1480.411884,10732.986159
586.191337,-2145.067394,-1332.370696,10658.965565
586.191653,-1838.629195,-1184.329507,10066.800811
586.191969,-1378.971896,-1036.288319,9770.718434
586.192285,-689.485948,-1036.288319,9548.656652
586.192600,-766.095498,-370.102971,9474.636058
586.192916,306.438199,-370.102971,9326.594869
586.193232,1072.533697,-444.123565,9030.512492
586.193548,1378.971896,-148.041188,9030.512492
586.193863,1685.410096,-0.000000,9474.636058
586.194179,2145.067394,592.164754,9030.512492
586.194495,2451.505594,962.267725,8882.471304
586.194811,2604.724693,1110.308913,8660.409521
586.195126,2451.505594,1110.308913,8512.368333
586.195442,2987.772442,888.247130,8660.409521
586.195758,1991.848295,814.226536,9030.512492
586.196074,1608.800546,444.123565,9030.512492
586.196389,1072.533697,148.041188,9252.574275
586.196705,689.485948,-0.000000,9622.677246
586.197021,0.000000,-518.144159,10066.800811
586.197337,-153.219100,-518.144159,10288.862594
586.197652,-995.924147,-740.205942,9992.780217
586.197968,-1225.752797,-518.144159,9844.739029
586.198284,-1225.752797,-592.164754,9918.759623
586.198600,-1302.362347,-740.205942,9992.780217
586.198915,-1225.752797,-962.267725,10288.862594
586.199231,-919.314598,-1184.329507,10066.800811
586.199547,-842.705048,-814.226536,9844.739029
586.199863,0.000000,-740.205942,9548.656652
586.200178,306.438199,-666.185348,9474.636058
586.200494,1225.752797,-296.082377,9474.636058
586.200810,1455.581446,-222.061783,9326.594869
586.201125,1915.238745,222.061783,9252.574275
586.201441,2298.286494,740.205942,8586.388927
586.201757,2528.115143,888.247130,8438.347739
586.202073,2604.724693,1258.350101,8142.265362
586.202388,2451.505594,1110.308913,7994.224174
586.202704,2221.676944,962.267725,8438.347739
586.203020,1608.800546,592.164754,8660.409521
586.203336,995.924147,-0.000000,8882.471304
586.203651,229.828649,-518.144159,9400.615463
586.203967,-306.438199,-888.247130,10140.821405
586.204283,-919.314598,-1184.329507,10732.986159
586.204599,-1532.190996,-1258.350101,11029.068536
586.204914,-1762.019645,-1184.329507,10436.903782
586.205230,-1991.848295,-666.185348,10510.924376
586.205546,-1838.629195,-666.185348,10214.842000
586.205862,-1455.581446,-666.185348,10288.862594
586.206177,-995.924147,-444.123565,9992.780217
586.206493,-306.438199,-370.102971,9696.697840
586.206809,-229.828649,-518.144159,9252.574275
586.207125,536.266849,-666.185348,9252.574275
586.207440,995.924147,-0.000000,9918.759623
586.207756,1532.190996,-148.041188,9400.615463
586.208072,1762.019645,370.102971,9252.574275
586.208388,2145.067394,888.247130,8882.471304
586.208703,2221.676944,962.267725,9030.512492
586.209019,2374.896044,1406.391290,9030.512492
586.209335,2451.505594,1184.329507,8586.388927
586.209650,2145.067394,962.267725,8956.491898
586.209966,1838.629195,740.205942,8882.471304
586.210282,1149.143247,518.144159,9030.512492
586.210598,1072.533697,296.082377,9400.615463
586.210913,612.876398,-148.041188,9474.636058
586.211229,-229.828649,-814.226536,9844.739029
586.211545,-766.095498,-666.185348,9992.780217
586.211861,-995.924147,-592.164754,10140.821405
586.212176,-1225.752797,-740.205942,9918.759623
586.212492,-1455.581446,-666.185348,10066.800811
586.212808,-1532.190996,-740.205942,10214.842000
586.213124,-1378.971896,-1258.350101,10362.883188
586.213439,-1072.533697,-1332.370696,9992.780217
586.213755,-1149.143247,-1036.288319,9992.780217
586.214071,-459.657299,-888.247130,9696.697840
586.214387,383.047749,-666.185348,9770.718434
586.214702,919.314598,-444.123565,9622.677246
586.215018,1762.019645,-0.000000,9326.594869
586.215334,1838.629195,888.247130,9030.512492
586.215650,2451.505594,1184.329507,8364.327145
586.215965,2604.724693,1480.411884,7920.203579
586.216281,2528.115143,1480.411884,8142.265362
586.216597,2757.943793,888.247130,8068.244768
586.216913,2221.676944,666.185348,8808.450710
586.217228,1685.410096,222.061783,8660.409521
586.217544,842.705048,-444.123565,9178.553681
586.217860,229.828649,-740.205942,9918.759623
586.218176,-459.657299,-962.267725,10510.924376
586.218491,-1302.362347,-1332.370696,10807.006753
586.218807,-1762.019645,-1480.411884,10807.006753
586.219123,-1915.238745,-1332.370696,10436.903782
586.219438,-1838.629195,-1258.350101,10362.883188
586.219754,-2145.067394,-1406.391290,10288.862594
586.220070,-1072.533697,-962.267725,10066.800811
586.220386,-1072.533697,-1110.308913,9696.697840
586.220701,-383.047749,-814.226536,9400.615463
586.221017,306.438199,-814.226536,9030.512492
586.221333,459.657299,-1036.288319,9326.594869
586.221649,1225.752797,-444.123565,9030.512492
586.221964,1608.800546,-296.082377,9252.574275
586.222280,2068.457845,-0.000000,9104.533087
586.222596,2068.457845,518.144159,8808.450710
586.222912,1685.410096,740.205942,8882.471304
586.223227,2374.896044,1184.329507,8734.430116
586.223543,2145.067394,740.205942,8586.388927
586.223859,1915.238745,666.185348,8808.450710
586.224175,1762.019645,518.144159,8956.491898
586.224490,1302.362347,-0.000000,9104.533087
586.224806,689.485948,-74.020594,9178.553681
586.225122,459.657299,-666.185348,9474.636058
586.225438,-306.438199,-740.205942,9622.677246
586.225753,-1149.143247,-814.226536,9992.780217
586.226069,-1378.971896,-740.205942,10362.883188
586.226385,-1762.019645,-888.247130,9918.759623
586.226701,-1915.238745,-962.267725,10362.883188
586.227016,-1991.848295,-1036.288319,10510.924376
586.227332,-1685.410096,-1184.329507,10658.965565
586.227648,-1302.362347,-1184.329507,10362.883188
586.227963,-1149.143247,-740.205942,9992.780217
586.228279,-459.657299,-518.144159,9770.718434
586.228595,536.266849,-444.123565,9622.677246
586.228911,1072.533697,-0.000000,9252.574275
586.229226,1608.800546,222.061783,8808.450710
586.229542,2298.286494,740.205942,8660.409521
586.229858,2604.724693,1406.391290,8364.327145
586.230174,2834.553343,1628.453072,8068.244768
586.230489,2987.772442,1332.370696,8438.347739
586.230805,2834.553343,1184.329507,8142.265362
586.231121,2451.505594,962.267725,8660.409521
586.231437,1685.410096,222.061783,9030.512492
586.231752,766.095498,-74.020594,9696.697840
586.232068,229.828649,-518.144159,9992.780217
586.232384,-306.438199,-666.185348,10510.924376
586.232700,-1225.752797,-1036.288319,10807.006753
586.233015,-1378.971896,-1258.350101,10955.047942
586.233331,-1378.971896,-1110.308913,10436.903782
586.233647,-1532.190996,-1110.308913,10288.862594
586.233963,-1225.752797,-592.164754,9918.759623
586.234278,-842.705048,-814.226536,9844.739029
586.234594,-459.657299,-740.205942,9548.656652
586.234910,0.000000,-666.185348,9252.574275
586.235226,919.314598,-1036.288319,8956.491898
586.235541,842.705048,-592.164754,9326.594869
586.235857,1455.581446,-0.000000,9474.636058
586.236173,1838.629195,-0.000000,9326.594869
586.236488,1685.410096,592.164754,8882.471304
586.236804,1991.848295,962.267725,8808.450710
586.237120,2221.676944,1406.391290,8956.491898
586.237436,2451.505594,1036.288319,8956.491898
586.237751,1838.629195,1036.288319,8734.430116
586.238067,1838.629195,666.185348,8956.491898
586.238383,1378.971896,518.144159,8956.491898
586.238699,1455.581446,-0.000000,8660.409521
586.239014,459.657299,-74.020594,9178.553681
586.239330,0.000000,-296.082377,9400.615463
586.239646,-383.047749,-444.123565,9770.718434
586.239962,-995.924147,-962.267725,10140.821405
586.240262,-1378.971896,-740.205942,10288.862594
586.240577,-1608.800546,-666.185348,9918.759623
586.240893,-1455.581446,-814.226536,10288.862594
586.241209,-1915.238745,-592.164754,10436.903782
586.241524,-1532.190996,-814.226536,10362.883188
586.241840,-1378.971896,-1110.308913,10066.800811
586.242156,-1072.533697,-888.247130,9622.677246
586.242472,383.047749,-740.205942,9696.697840
586.242787,536.266849,-444.123565,9696.697840
586.243103,1225.752797,-74.020594,9474.636058
586.243419,1685.410096,222.061783,9104.533087
586.243734,1991.848295,888.247130,8586.388927
586.244050,2221.676944,888.247130,8438.347739
586.244366,2757.943793,1258.350101,8068.244768
586.244681,2528.115143,1110.308913,7994.224174
586.244997,2298.286494,740.205942,8438.347739
586.245313,1838.629195,444.123565,8734.430116
586.245629,1225.752797,-0.000000,8956.491898
586.245944,459.657299,-370.102971,9474.636058
586.246260,76.609550,-962.267725,9992.780217
586.246576,-612.876398,-1110.308913,10436.903782
586.246891,-1149.143247,-1702.473667,10807.006753
586.247207,-1532.190996,-1554.432478,10658.965565
586.247523,-1608.800546,-1184.329507,10584.944971
586.247839,-1608.800546,-962.267725,10362.883188
586.248154,-1532.190996,-1036.288319,10066.800811
586.248470,-536.266849,-1184.329507,9770.718434
586.248786,-766.095498,-814.226536,9844.739029
586.249101,76.609550,-592.164754,9252.574275
586.249417,306.438199,-666.185348,9400.615463
586.249733,1072.533697,-740.205942,9326.594869
586.250048,1378.971896,-592.164754,9474.636058
586.250364,1532.190996,222.061783,9548.656652
586.250680,1838.629195,370.102971,8956.491898
586.250996,2374.896044,740.205942,8956.491898
586.251311,2374.896044,666.185348,8586.388927
586.251627,2298.286494,962.267725,8586.388927
586.251943,2298.286494,666.185348,8586.388927
586.252258,2298.286494,740.205942,9104.533087
586.252574,1685.410096,666.185348,8808.450710
586.252890,1838.629195,148.041188,8882.471304
586.253205,1225.752797,-0.000000,9178.553681
586.253521,306.438199,-296.082377,9400.615463
586.253837,-306.438199,-518.144159,9992.780217
586.254153,-766.095498,-740.205942,9918.759623
586.254468,-1532.190996,-740.205942,9992.780217
586.254784,-1838.629195,-666.185348,9992.780217
586.255100,-1608.800546,-814.226536,10214.842000
586.255415,-1685.410096,-1184.329507,10584.944971
586.255731,-1532.190996,-1110.308913,10214.842000
586.256047,-612.876398,-1110.308913,9844.739029
586.256362,-459.657299,-888.247130,9770.718434
586.256678,0.000000,-814.226536,9696.697840
586.256994,766.095498,-518.144159,9474.636058
586.257310,1378.971896,148.041188,9326.594869
586.257625,2145.067394,814.226536,8882.471304
586.257941,2221.676944,1258.350101,8438.347739
586.258257,2451.505594,1480.411884,8438.347739
586.258572,2834.553343,1554.432478,7994.224174
586.258888,2451.505594,1406.391290,7920.203579
586.259204,2374.896044,740.205942,8364.327145
586.259520,1608.800546,592.164754,8660.409521
586.259835,689.485948,-0.000000,9030.512492
586.260151,153.219100,-370.102971,9770.718434
586.260467,-459.657299,-888.247130,10436.903782
586.260782,-919.314598,-1406.391290,10955.047942
586.261098,-1685.410096,-1480.411884,10881.027347
586.261414,-1685.410096,-1332.370696,10584.944971
586.261729,-2145.067394,-1036.288319,10732.986159
586.262045,-1455.581446,-814.226536,10362.883188
586.262361,-1532.190996,-962.267725,10288.862594
586.262677,-995.924147,-740.205942,9770.718434
586.262992,-459.657299,-592.164754,9548.656652
586.263308,0.000000,-518.144159,9178.553681
586.263624,766.095498,-296.082377,9326.594869
586.263939,1455.581446,-370.102971,9252.574275
586.264255,1685.410096,-74.020594,9178.553681
586.264571,1838.629195,-0.000000,9104.533087
586.264886,2298.286494,444.123565,9104.533087
586.265202,2221.676944,1036.288319,9104.533087
586.265518,2374.896044,962.267725,9030.512492
586.265834,2451.505594,962.267725,8882.471304
586.266149,2221.676944,888.247130,8882.471304
586.266465,1838.629195,666.185348,9030.512492
586.266781,1608.800546,222.061783,8956.491898
586.267096,919.314598,-148.041188,9030.512492
586.267412,689.485948,-370.102971,9252.574275
586.267728,383.047749,-296.082377,9548.656652
586.268044,-229.828649,-518.144159,9844.739029
586.268359,-536.266849,-740.205942,10066.800811
586.268675,-1072.533697,-740.205942,9770.718434
586.268991,-1225.752797,-888.247130,9918.759623
586.269306,-1378.971896,-1036.288319,10066.800811
586.269622,-1455.581446,-962.267725,10288.862594
586.269938,-1072.533697,-888.247130,10214.842000
586.270253,-842.705048,-740.205942,9918.759623
586.270569,-306.438199,-740.205942,9474.636058
586.270885,383.047749,-814.226536,9548.656652
586.271201,1072.533697,-518.144159,9474.636058
586.271516,1302.362347,-0.000000,9326.594869
586.271832,2145.067394,518.144159,9030.512492
586.272148,2145.067394,962.267725,8438.347739
586.272463,2451.505594,1332.370696,8216.285956
586.272779,2451.505594,1184.329507,7994.224174
586.273095,2528.115143,1184.329507,8586.388927
586.273410,2374.896044,1036.288319,8512.368333
586.273726,1532.190996,518.144159,8586.388927
586.274042,766.095498,-0.000000,8956.491898
586.274358,459.657299,-0.000000,10140.821405
586.274673,0.000000,-888.247130,10140.821405
586.274989,-1072.533697,-1110.308913,10807.006753
586.275305,-1608.800546,-1258.350101,10807.006753
586.275620,-1915.238745,-1184.329507,10510.924376
586.275936,-1685.410096,-888.247130,10140.821405
586.276252,-1838.629195,-962.267725,10288.862594
586.276567,-1455.581446,-740.205942,9992.780217
586.276883,-1072.533697,-888.247130,9918.759623
586.277199,-689.485948,-814.226536,9622.677246
586.277515,383.047749,-666.185348,9696.697840
586.277830,229.828649,-740.205942,9326.594869
586.278146,689.485948,-592.164754,9622.677246
586.278462,1149.143247,-370.102971,9474.636058
586.278777,1608.800546,-0.000000,9326.594869
586.279093,1991.848295,296.082377,9030.512492
586.279409,1838.629195,814.226536,8808.450710
586.279725,1685.410096,518.144159,8734.430116
586.280040,1915.238745,592.164754,8660.409521
586.280356,2145.067394,740.205942,8808.450710
586.280672,1915.238745,296.082377,8734.430116
586.280987,1685.410096,148.041188,8660.409521
586.281303,1302.362347,-0.000000,8882.471304
586.281619,689.485948,-222.061783,9178.553681
586.281934,-153.219100,-518.144159,9548.656652
586.282250,-383.047749,-592.164754,9474.636058
586.282566,-842.705048,-814.226536,9696.697840
586.282882,-1532.190996,-814.226536,9844.739029
586.283197,-1685.410096,-888.247130,10140.821405
586.283513,-1685.410096,-1110.308913,10362.883188
586.283829,-1762.019645,-1184.329507,10510.924376
586.284144,-1608.800546,-1110.308913,10436.903782
586.284460,-1149.143247,-888.247130,10140.821405
586.284776,-383.047749,-1332.370696,9844.739029
586.285091,306.438199,-592.164754,9918.759623
586.285407,1302.362347,-222.061783,9622.677246
586.285723,1685.410096,222.061783,9178.553681
586.286039,1991.848295,666.185348,8808.450710
586.286354,2757.943793,962.267725,8216.285956
586.286670,3140.991542,1776.494261,7772.162391
586.286986,2987.772442,1628.453072,7550.100608
586.287301,2757.943793,1406.391290,8068.244768
586.287617,2451.505594,888.247130,8438.347739
586.287933,1608.800546,444.123565,8882.471304
586.288248,995.924147,-0.000000,9252.574275
586.288564,306.438199,-666.185348,9844.739029
586.288880,-459.657299,-1036.288319,10436.903782
586.289196,-1378.971896,-1406.391290,10732.986159
586.289511,-1532.190996,-1406.391290,11103.089130
586.289827,-1762.019645,-962.267725,10584.944971
586.290143,-1608.800546,-592.164754,10658.965565
586.290458,-1762.019645,-962.267725,10214.842000
586.290774,-1302.362347,-962.267725,9918.759623
586.291090,-919.314598,-1184.329507,9474.636058
586.291406,-229.828649,-888.247130,9326.594869
586.291721,0.000000,-740.205942,9400.615463
586.292037,459.657299,-592.164754,9474.636058
586.292353,1072.533697,-370.102971,9400.615463
586.292668,1608.800546,-444.123565,9474.636058
586.292984,1762.019645,-0.000000,8956.491898
586.293300,2145.067394,370.102971,8882.471304
586.293615,2068.457845,888.247130,8882.471304
586.293931,2451.505594,962.267725,8956.491898
586.294247,2298.286494,1036.288319,8586.388927
586.294563,2221.676944,1110.308913,8808.450710
586.294878,1762.019645,740.205942,8586.388927
586.295194,1455.581446,222.061783,8660.409521
586.295510,842.705048,-74.020594,9030.512492
586.295825,0.000000,-148.041188,9326.594869
586.296141,-383.047749,-740.205942,9992.780217
586.296457,-766.095498,-740.205942,10214.842000
586.296772,-1378.971896,-888.247130,10140.821405
586.297088,-1991.848295,-962.267725,10288.862594
586.297404,-2068.457845,-814.226536,10436.903782
586.297720,-2068.457845,-1036.288319,10436.903782
586.298035,-1608.800546,-962.267725,10658.965565
586.298351,-1608.800546,-1184.329507,10214.842000
586.298667,-1072.533697,-962.267725,9992.780217
586.298982,-612.876398,-814.226536,9992.780217
586.299298,306.438199,-1110.308913,9548.656652
586.299614,1072.533697,-296.082377,9622.677246
586.299929,1915.238745,296.082377,9104.533087
586.300245,2528.115143,888.247130,8512.368333
586.300561,2834.553343,1258.350101,7772.162391
586.300877,3140.991542,1776.494261,7846.182985
586.301192,3064.381992,1628.453072,7772.162391
586.301508,2681.334243,1406.391290,8290.306550
586.301824,2145.067394,666.185348,8660.409521
586.302139,1378.971896,-0.000000,8956.491898
586.302455,612.876398,-444.123565,9326.594869
586.302771,76.609550,-814.226536,10066.800811
586.303087,-766.095498,-1258.350101,10510.924376
586.303402,-1302.362347,-1406.391290,10881.027347
586.303718,-1915.238745,-1554.432478,10955.047942
586.304034,-2068.457845,-1406.391290,10881.027347
586.304349,-2221.676944,-1110.308913,10436.903782
586.304665,-1762.019645,-1110.308913,10362.883188
586.304981,-1378.971896,-962.267725,10288.862594
586.305296,-766.095498,-1110.308913,9696.697840
586.305612,-383.047749,-740.205942,9178.553681
586.305928,153.219100,-666.185348,9030.512492
586.306244,383.047749,-814.226536,9178.553681
586.306559,1225.752797,-444.123565,9178.553681
586.306875,1762.019645,-0.000000,9400.615463
586.307191,2068.457845,444.123565,9104.533087
586.307506,2374.896044,814.226536,8956.491898
586.307822,2604.724693,1036.288319,8808.450710
586.308138,2834.553343,1332.370696,8734.430116
586.308453,2834.553343,1554.432478,8512.368333
586.308769,2374.896044,1110.308913,8734.430116
586.309085,1915.238745,1036.288319,8660.409521
586.309401,1762.019645,-0.000000,8956.491898
586.309716,766.095498,-0.000000,9178.553681
586.310032,383.047749,-222.061783,9548.656652
586.310348,-383.047749,-592.164754,9992.780217
586.310663,-689.485948,-814.226536,10140.821405
586.310979,-1608.800546,-814.226536,10214.842000
586.311295,-1991.848295,-1110.308913,10732.986159
586.311611,-2145.067394,-1258.350101,10584.944971
586.311926,-2068.457845,-1184.329507,10658.965565
586.312242,-1608.800546,-1110.308913,10732.986159
586.312558,-1378.971896,-814.226536,10288.862594
586.312873,-842.705048,-740.205942,9992.780217
586.313189,0.000000,-666.185348,9770.718434
586.313505,919.314598,-592.164754,9400.615463
586.313820,1762.019645,-0.000000,9030.512492
586.314136,1762.019645,444.123565,9104.533087
586.314452,2451.505594,814.226536,8142.265362
586.314768,2528.115143,1258.350101,8068.244768
586.315083,2834.553343,1628.453072,7994.224174
586.315399,2451.505594,1332.370696,7994.224174
586.315715,2451.505594,888.247130,8364.327145
586.316030,1915.238745,370.102971,8660.409521
586.316346,1072.533697,148.041188,9030.512492
586.316662,459.657299,-518.144159,9696.697840
586.316977,0.000000,-740.205942,9992.780217
586.317293,-1225.752797,-1036.288319,10436.903782
586.317609,-1608.800546,-1258.350101,10732.986159
586.317925,-1915.238745,-1332.370696,10732.986159
586.318240,-1991.848295,-888.247130,10658.965565
586.318556,-2145.067394,-1110.308913,10214.842000
586.318872,-1532.190996,-1110.308913,10066.800811
586.319187,-1149.143247,-1036.288319,9918.759623
586.319503,-842.705048,-1036.288319,9622.677246
586.319819,-842.705048,-814.226536,9844.739029
586.320134,0.000000,-740.205942,9326.594869
586.320450,536.266849,-296.082377,9252.574275
586.320766,1149.143247,-296.082377,9030.512492
586.321082,1532.190996,-0.000000,9104.533087
586.321397,1838.629195,518.144159,8956.491898
586.321713,2374.896044,666.185348,8882.471304
586.322029,2451.505594,962.267725,8808.450710
586.322344,2298.286494,1036.288319,8586.388927
586.322660,2757.943793,1184.329507,8512.368333
586.322976,2221.676944,888.247130,8734.430116
586.323292,1685.410096,592.164754,8660.409521
586.323607,1608.800546,148.041188,8808.450710
586.323923,919.314598,-0.000000,9178.553681
586.324239,383.047749,-222.061783,9400.615463
586.324554,-306.438199,-814.226536,9918.759623
586.324870,-689.485948,-814.226536,10214.842000
586.325186,-1378.971896,-814.226536,10288.862594
586.325501,-1838.629195,-592.164754,10066.800811
586.325817,-1915.238745,-1036.288319,10510.924376
586.326133,-1991.848295,-962.267725,10436.903782
586.326449,-1532.190996,-1036.288319,10288.862594
586.326764,-1302.362347,-814.226536,10066.800811
586.327080,-1072.533697,-1036.288319,9844.739029
586.327396,306.438199,-740.205942,9696.697840
586.327711,689.485948,-666.185348,9474.636058
586.328027,1685.410096,-296.082377,9326.594869
586.328343,2145.067394,370.102971,8956.491898
586.328658,2604.724693,1110.308913,8364.327145
586.328974,2451.505594,1332.370696,8216.285956
586.329290,2681.334243,1554.432478,7920.203579
586.329606,2757.943793,1258.350101,8216.285956
586.329921,2374.896044,666.185348,8290.306550
586.330237,1762.019645,148.041188,9030.512492
586.330553,919.314598,-74.020594,9104.533087
586.330868,766.095498,-592.164754,9548.656652
586.331184,0.000000,-666.185348,9992.780217
586.331500,-842.705048,-1258.350101,10584.944971
586.331815,-1302.362347,-1332.370696,10881.027347
586.332131,-1762.019645,-1184.329507,10732.986159
586.332447,-1915.238745,-888.247130,10510.924376
586.332763,-1838.629195,-962.267725,10510.924376
586.333078,-1762.019645,-888.247130,10214.842000
586.333394,-919.314598,-1184.329507,10140.821405
586.333710,-1225.752797,-1036.288319,9918.759623
586.334025,-536.266849,-962.267725,9474.636058
586.334341,0.000000,-814.226536,9474.636058
586.334657,766.095498,-518.144159,9844.739029
586.334973,1378.971896,-222.061783,9400.615463
586.335288,1608.800546,-0.000000,9178.553681
586.335604,2145.067394,592.164754,8808.450710
586.335920,2221.676944,962.267725,8438.347739
586.336235,2911.162892,1258.350101,8512.368333
586.336551,2757.943793,1184.329507,8438.347739
586.336867,2681.334243,1110.308913,8364.327145
586.337182,2374.896044,888.247130,8660.409521
586.337498,2145.067394,444.123565,8364.327145
586.337814,1838.629195,296.082377,8808.450710
586.338130,1072.533697,-0.000000,8956.491898
586.338445,229.828649,-444.123565,9474.636058
586.338761,-536.266849,-740.205942,9992.780217
586.339077,-995.924147,-1036.288319,10288.862594
586.339392,-1838.629195,-1036.288319,10288.862594
586.339708,-1915.238745,-1110.308913,10288.862594
586.340024,-2221.676944,-1036.288319,10584.944971
586.340339,-2145.067394,-1036.288319,10436.903782
586.340655,-1762.019645,-1258.350101,10584.944971
586.340971,-1149.143247,-1110.308913,9918.759623
586.341287,-459.657299,-814.226536,10066.800811
586.341602,76.609550,-740.205942,9696.697840
586.341918,919.314598,-74.020594,9474.636058
586.342234,1685.410096,222.061783,9252.574275
586.342549,2451.505594,814.226536,8512.368333
586.342865,2681.334243,1480.411884,8216.285956
586.343181,3217.601092,1924.535449,8068.244768
586.343497,3370.820191,2146.597232,7772.162391
586.343812,2911.162892,1406.391290,8142.265362
586.344128,2528.115143,1406.391290,8586.388927
586.344444,1685.410096,740.205942,8660.409521
586.344759,1225.752797,-0.000000,9178.553681
586.345075,536.266849,-370.102971,9918.759623
586.345391,-383.047749,-888.247130,10362.883188
586.345706,-1378.971896,-1184.329507,10732.986159
586.346022,-1838.629195,-1258.350101,11103.089130
586.346338,-2145.067394,-1184.329507,10881.027347
586.346654,-2145.067394,-888.247130,10658.965565
586.346969,-2068.457845,-1258.350101,10658.965565
586.347285,-1915.238745,-1184.329507,10362.883188
586.347601,-1532.190996,-1184.329507,10214.842000
586.347916,-995.924147,-1036.288319,9918.759623
586.348232,-229.828649,-962.267725,9696.697840
586.348548,612.876398,-518.144159,9326.594869
586.348864,919.314598,-444.123565,9326.594869
586.349179,1532.190996,-74.020594,9400.615463
586.349495,2374.896044,444.123565,9030.512492
586.349811,2451.505594,740.205942,8734.430116
586.350126,2681.334243,1036.288319,8734.430116
586.350442,2757.943793,1184.329507,8364.327145
586.350758,2604.724693,1036.288319,8438.347739
586.351073,2681.334243,666.185348,8660.409521
586.351389,1991.848295,814.226536,8586.388927
586.351705,1455.581446,444.123565,8586.388927
586.352021,1149.143247,-0.000000,8956.491898
586.352336,689.485948,-518.144159,9474.636058
586.352652,0.000000,-962.267725,10066.800811
586.352968,-689.485948,-1110.308913,10066.800811
586.353283,-1685.410096,-1110.308913,10066.800811
586.353599,-1915.238745,-1184.329507,10288.862594
586.353915,-2221.676944,-1258.350101,10362.883188
586.354231,-2374.896044,-1702.473667,10510.924376
586.354546,-2068.457845,-1628.453072,10584.944971
586.354862,-1608.800546,-1332.370696,10214.842000
586.355178,-1072.533697,-888.247130,9992.780217
586.355493,0.000000,-962.267725,9770.718434
586.355809,995.924147,-518.144159,9622.677246
586.356125,1149.143247,-518.144159,9178.553681
586.356440,1991.848295,222.061783,8882.471304
586.356756,2604.724693,666.185348,8364.327145
586.357072,2911.162892,1258.350101,8068.244768
586.357388,3294.210641,1332.370696,7846.182985
586.357703,3217.601092,1924.535449,7846.182985
586.358019,2834.553343,1480.411884,7846.182985
586.358335,2451.505594,740.205942,8438.347739
586.358650,1608.800546,-0.000000,8882.471304
586.358966,842.705048,-296.082377,9252.574275
586.359282,306.438199,-370.102971,9696.697840
586.359598,-536.266849,-888.247130,10362.883188
586.359913,-1225.752797,-1332.370696,10881.027347
586.360229,-1838.629195,-1258.350101,11103.089130
586.360545,-2145.067394,-1184.329507,10658.965565
586.360860,-1838.629195,-1036.288319,10584.944971
586.361176,-1915.238745,-962.267725,10288.862594
586.361492,-1455.581446,-888.247130,10140.821405
586.361807,-1072.533697,-740.205942,9918.759623
586.362123,-459.657299,-962.267725,9548.656652
586.362439,0.000000,-518.144159,9400.615463
586.362755,612.876398,-444.123565,9178.553681
586.363070,995.924147,-222.061783,9400.615463
586.363386,1838.629195,-0.000000,9326.594869
586.363702,2068.457845,222.061783,9104.533087
586.364017,2145.067394,740.205942,8956.491898
586.364333,2374.896044,962.267725,8808.450710
586.364649,2528.115143,1110.308913,8808.450710
586.364965,2451.505594,962.267725,8734.430116
586.365280,2374.896044,1184.329507,8734.430116
586.365596,1915.238745,814.226536,8734.430116
586.365912,1378.971896,444.123565,8734.430116
586.366227,842.705048,-0.000000,9326.594869
586.366543,459.657299,-592.164754,9474.636058
586.366859,-306.438199,-962.267725,10066.800811
586.367174,-1072.533697,-1110.308913,10436.903782
586.367490,-1762.019645,-1258.350101,10288.862594
586.367806,-2221.676944,-1110.308913,10584.944971
586.368122,-2834.553343,-1184.329507,10807.006753
586.368437,-2068.457845,-1258.350101,10584.944971
586.368753,-2145.067394,-1332.370696,10584.944971
586.369069,-1532.190996,-1036.288319,10140.821405
586.369384,-766.095498,-814.226536,9992.780217
586.369700,153.219100,-0.000000,9696.697840
586.370016,766.095498,-444.123565,9474.636058
586.370332,1455.581446,-0.000000,9178.553681
586.370647,2145.067394,296.082377,9030.512492
586.370963,2604.724693,814.226536,8512.368333
586.371279,3370.820191,814.226536,8364.327145
586.371594,3140.991542,1258.350101,7846.182985
586.371910,3064.381992,1184.329507,7846.182985
586.372226,2757.943793,962.267725,8216.285956
586.372541,2068.457845,592.164754,8660.409521
586.372857,1302.362347,222.061783,8660.409521
586.373173,612.876398,-370.102971,9326.594869
586.373489,153.219100,-888.247130,9844.739029
586.373804,-689.485948,-1184.329507,10362.883188
586.374120,-1302.362347,-1554.432478,11103.089130
586.374436,-1685.410096,-1702.473667,10807.006753
586.374751,-1915.238745,-1332.370696,10362.883188
586.375067,-1762.019645,-1036.288319,10140.821405
586.375383,-1762.019645,-1110.308913,9844.739029
586.375699,-1302.362347,-1554.432478,9696.697840
586.376014,-766.095498,-1036.288319,9622.677246
586.376330,-459.657299,-1184.329507,9030.512492
586.376646,153.219100,-962.267725,9178.553681
586.376961,536.266849,-888.247130,9252.574275
586.377277,1225.752797,-740.205942,9252.574275
586.377593,1302.362347,-148.041188,9400.615463
586.377908,1838.629195,74.020594,8808.450710
586.378224,2068.457845,740.205942,8734.430116
586.378540,2145.067394,888.247130,8586.388927
586.378856,2451.505594,888.247130,8808.450710
586.379171,2374.896044,1184.329507,8660.409521
586.379487,2374.896044,962.267725,8808.450710
586.379803,1685.410096,740.205942,8734.430116
586.380118,1072.533697,148.041188,8882.471304
586.380434,1072.533697,-518.144159,9326.594869
586.380750,536.266849,-296.082377,9400.615463
586.381066,-383.047749,-666.185348,10066.800811
586.381381,-1149.143247,-814.226536,10510.924376
586.381697,-1378.971896,-814.226536,10510.924376
586.382013,-1762.019645,-888.247130,10584.944971
586.382328,-1838.629195,-888.247130,10584.944971
586.382644,-1838.629195,-1036.288319,10658.965565
586.382960,-1608.800546,-888.247130,10658.965565
586.383275,-919.314598,-888.247130,9992.780217
586.383591,-383.047749,-888.247130,9918.759623
586.383907,76.609550,-444.123565,9844.739029
586.384223,919.314598,-148.041188,9548.656652
586.384538,1378.971896,-74.020594,9474.636058
586.384854,2221.676944,-0.000000,9030.512492
586.385170,2451.505594,1110.308913,8512.368333
586.385485,2834.553343,1258.350101,8216.285956
586.385801,2911.162892,1406.391290,8068.244768
586.386117,2757.943793,1110.308913,8142.265362
586.386433,2834.553343,592.164754,8734.430116
586.386748,1608.800546,518.144159,8882.471304
586.387064,995.924147,296.082377,9030.512492
586.387380,536.266849,-296.082377,9548.656652
586.387695,0.000000,-518.144159,9918.759623
586.388011,-995.924147,-814.226536,10584.944971
586.388327,-1532.190996,-1110.308913,10807.006753
586.388642,-2068.457845,-1332.370696,10658.965565
586.388958,-1838.629195,-1184.329507,10510.924376
586.389274,-1608.800546,-1110.308913,10214.842000
586.389590,-1685.410096,-962.267725,10288.862594
586.389905,-1608.800546,-1184.329507,10214.842000
586.390221,-1149.143247,-1110.308913,9992.780217
586.390537,-306.438199,-888.247130,9400.615463
586.390852,153.219100,-518.144159,9622.677246
586.391168,766.095498,-296.082377,9252.574275
586.391484,1302.362347,-74.020594,9104.533087
586.391800,1838.629195,-0.000000,9104.533087
586.392115,1608.800546,740.205942,8660.409521
586.392431,2451.505594,962.267725,8364.327145
586.392747,2451.505594,1184.329507,8290.306550
586.393062,2987.772442,1332.370696,8290.306550
586.393378,2987.772442,1110.308913,8364.327145
586.393694,2374.896044,814.226536,8512.368333
586.394009,1685.410096,666.185348,8364.327145
586.394325,1302.362347,-0.000000,8956.491898
586.394641,842.705048,-222.061783,9400.615463
586.394957,0.000000,-592.164754,9844.739029
586.395272,-306.438199,-888.247130,10436.903782
586.395588,-1302.362347,-814.226536,10214.842000
586.395904,-1608.800546,-814.226536,10140.821405
586.396219,-1915.238745,-888.247130,10362.883188
586.396535,-2068.457845,-666.185348,10658.965565
586.396851,-1915.238745,-1184.329507,10140.821405
586.397167,-1149.143247,-1036.288319,10214.842000
586.397482,-1225.752797,-1036.288319,9992.780217
586.397798,-229.828649,-666.185348,9844.739029
586.398114,383.047749,-592.164754,9918.759623
586.398429,1149.143247,-370.102971,9474.636058
586.398745,1915.238745,-74.020594,9252.574275
586.399061,1991.848295,370.102971,8956.491898
586.399376,2451.505594,814.226536,8438.347739
586.399692,2757.943793,1036.288319,7994.224174
586.400008,2757.943793,962.267725,8290.306550
586.400324,2528.115143,1184.329507,8290.306550
586.400639,2374.896044,740.205942,8586.388927
586.400955,1608.800546,518.144159,8660.409521
586.401271,1072.533697,-0.000000,9178.553681
586.401586,306.438199,-296.082377,9548.656652
586.401902,-306.438199,-1036.288319,10214.842000
586.402218,-842.705048,-1554.432478,10807.006753
586.402534,-1532.190996,-1554.432478,11029.068536
586.402849,-1991.848295,-1258.350101,10732.986159
586.403165,-1991.848295,-1110.308913,10658.965565
586.403481,-1915.238745,-1110.308913,10288.862594
586.403796,-1762.019645,-1184.329507,10288.862594
586.404112,-1302.362347,-962.267725,10066.800811
586.404428,-459.657299,-666.185348,9844.739029
586.404743,-612.876398,-518.144159,9400.615463
586.405059,383.047749,-444.123565,9400.615463
586.405375,1149.143247,-444.123565,9252.574275
586.405691,1685.410096,-296.082377,9400.615463
586.406006,1532.190996,-0.000000,9326.594869
586.406322,2221.676944,592.164754,8882.471304
586.406638,1991.848295,814.226536,8808.450710
586.406953,2528.115143,1554.432478,8586.388927
586.407269,2451.505594,1332.370696,8512.368333
586.407585,3140.991542,666.185348,8216.285956
586.407901,2221.676944,814.226536,8512.368333
586.408216,1532.190996,592.164754,8586.388927
586.408532,1149.143247,148.041188,9030.512492
586.408848,536.266849,-222.061783,9178.553681
586.409163,229.828649,-888.247130,9474.636058
586.409479,-689.485948,-814.226536,10140.821405
586.409795,-1149.143247,-962.267725,10140.821405
586.410110,-1608.800546,-666.185348,9992.780217
