#time,accel_x,accel_y,accel_z
1078.408889,229.828649,-0.000000,9474.636058
1078.409205,306.438199,-370.102971,9474.636058
1078.409521,383.047749,-296.082377,9474.636058
1078.409837,459.657299,-296.082377,9400.615463
1078.410152,306.438199,-148.041188,9474.636058
1078.410468,383.047749,-0.000000,9178.553681
1078.410784,306.438199,-222.061783,9548.656652
1078.411100,689.485948,-0.000000,9474.636058
1078.411415,383.047749,-0.000000,9178.553681
1078.411731,459.657299,-148.041188,9474.636058
1078.412047,459.657299,-74.020594,9474.636058
1078.412363,229.828649,-222.061783,9622.677246
1078.412678,766.095498,-0.000000,9770.718434
1078.412994,459.657299,-0.000000,9696.697840
1078.413310,459.657299,-0.000000,9326.594869
1078.413626,229.828649,370.102971,9400.615463
1078.413941,229.828649,296.082377,9326.594869
1078.414257,612.876398,222.061783,9474.636058
1078.414573,766.095498,666.185348,9326.594869
1078.414889,229.828649,222.061783,8956.491898
1078.415204,459.657299,444.123565,9252.574275
1078.415520,842.705048,296.082377,9400.615463
1078.415836,842.705048,-0.000000,10066.800811
1078.416152,536.266849,370.102971,9474.636058
1078.416467,306.438199,296.082377,9474.636058
1078.416783,153.219100,222.061783,9400.615463
1078.417099,536.266849,370.102971,9622.677246
1078.417414,0.000000,740.205942,9400.615463
1078.417730,306.438199,888.247130,9326.594869
1078.418046,153.219100,1036.288319,9178.553681
1078.418362,153.219100,814.226536,9474.636058
1078.418677,229.828649,814.226536,9252.574275
1078.418993,229.828649,962.267725,9696.697840
1078.419309,0.000000,962.267725,9252.574275
1078.419625,0.000000,888.247130,9400.615463
1078.419940,-229.828649,962.267725,9400.615463
1078.420256,-383.047749,1036.288319,9474.636058
1078.420572,-612.876398,1554.432478,9474.636058
1078.420888,-766.095498,1554.432478,9104.533087
1078.421203,-842.705048,1554.432478,9030.512492
1078.421519,-1225.752797,1406.391290,9474.636058
1078.421835,-1762.019645,1554.432478,9474.636058
1078.422151,-1915.238745,1480.411884,9844.739029
1078.422466,-2068.457845,1258.350101,9622.677246
1078.422782,-2221.676944,1406.391290,9696.697840
1078.423098,-1991.848295,1480.411884,9844.739029
1078.423414,-1991.848295,1110.308913,9770.718434
1078.423729,-1915.238745,1702.473667,9770.718434
1078.424045,-1915.238745,1924.535449,9548.656652
1078.424361,-1685.410096,1776.494261,9400.615463
1078.424676,-1302.362347,1850.514855,9474.636058
1078.424992,-1608.800546,1776.494261,9474.636058
1078.425308,-1532.190996,1628.453072,9548.656652
1078.425624,-1072.533697,1702.473667,9400.615463
1078.425939,-1225.752797,1776.494261,9696.697840
1078.426255,-1225.752797,1924.535449,9770.718434
1078.426571,-1302.362347,1702.473667,9474.636058
1078.426887,-1149.143247,2146.597232,9474.636058
1078.427202,-1072.533697,2294.638420,9326.594869
1078.427518,-1072.533697,2146.597232,9400.615463
1078.427834,-1302.362347,2368.659014,9474.636058
1078.428150,-1685.410096,2072.576638,9104.533087
1078.428465,-1532.190996,1924.535449,9548.656652
1078.428781,-1608.800546,1332.370696,9474.636058
1078.429097,-1991.848295,1036.288319,9918.759623
1078.429413,-2068.457845,962.267725,9992.780217
1078.429728,-1991.848295,1036.288319,10140.821405
1078.430044,-1991.848295,1110.308913,9474.636058
1078.430360,-1991.848295,1258.350101,9548.656652
1078.430676,-2221.676944,1332.370696,9844.739029
1078.430991,-2145.067394,1554.432478,9770.718434
1078.431307,-2145.067394,1258.350101,9770.718434
1078.431623,-1915.238745,1406.391290,9474.636058
1078.431939,-1838.629195,1480.411884,9400.615463
1078.432254,-1915.238745,1702.473667,9252.574275
1078.432570,-1685.410096,1776.494261,9474.636058
1078.432886,-1991.848295,2072.576638,9252.574275
1078.433201,-2298.286494,2368.659014,8956.491898
1078.433517,-2374.896044,2294.638420,9252.574275
1078.433833,-2451.505594,2220.617826,9104.533087
1078.434149,-2757.943793,1406.391290,9326.594869
1078.434464,-2987.772442,1110.308913,9548.656652
1078.434780,-2987.772442,814.226536,9770.718434
1078.435096,-2681.334243,370.102971,9992.780217
1078.435412,-2451.505594,-0.000000,10140.821405
1078.435727,-1685.410096,444.123565,10214.842000
1078.436043,-1608.800546,370.102971,9770.718434
1078.436359,-919.314598,1258.350101,9474.636058
1078.436675,-383.047749,1702.473667,9326.594869
1078.436990,0.000000,2516.700203,8808.450710
1078.437306,0.000000,3182.885551,8068.244768
1078.437622,306.438199,3330.926739,7920.203579
1078.437938,229.828649,3404.947333,7994.224174
1078.438253,76.609550,2886.803174,8142.265362
1078.438569,-919.314598,2368.659014,8586.388927
1078.438885,-1608.800546,2220.617826,8364.327145
1078.439201,-2451.505594,1776.494261,9474.636058
1078.439516,-2834.553343,1628.453072,10140.821405
1078.439832,-3600.648841,1184.329507,10140.821405
1078.440148,-4290.134789,962.267725,10140.821405
1078.440464,-4060.306139,518.144159,10955.047942
1078.440779,-3447.429741,148.041188,10955.047942
1078.441095,-2834.553343,222.061783,11103.089130
1078.441411,-2145.067394,296.082377,10510.924376
1078.441726,-919.314598,740.205942,9918.759623
1078.442042,-306.438199,1258.350101,9030.512492
1078.442358,459.657299,2368.659014,8660.409521
1078.442674,842.705048,2664.741391,7846.182985
1078.442989,1149.143247,3775.050304,7624.121203
1078.443305,1149.143247,4737.318029,7550.100608
1078.443621,306.438199,4737.318029,7254.018232
1078.443937,-306.438199,4737.318029,7550.100608
1078.444252,-1149.143247,3923.091493,7772.162391
1078.444568,-2528.115143,3108.864956,9178.553681
1078.444884,-3447.429741,1628.453072,10362.883188
1078.445200,-4366.744339,-0.000000,11103.089130
1078.445515,-5209.449386,-666.185348,12139.377449
1078.445831,-5286.058936,-1702.473667,12731.542202
1078.446147,-5209.449386,-1924.535449,12657.521608
1078.446463,-4290.134789,-962.267725,12435.459826
1078.446778,-3217.601092,-222.061783,11621.233289
1078.447094,-1685.410096,1628.453072,10214.842000
1078.447410,76.609550,3108.864956,8734.430116
1078.447726,612.876398,4663.297435,7254.018232
1078.448041,1685.410096,5699.585753,6365.771101
1078.448357,1991.848295,5995.668130,6069.688724
1078.448673,1378.971896,5699.585753,6217.729913
1078.448988,995.924147,4737.318029,7476.080014
1078.449304,0.000000,3330.926739,8364.327145
1078.449620,-1532.190996,1258.350101,9622.677246
1078.449936,-3064.381992,-0.000000,11029.068536
1078.450251,-3907.087040,-1702.473667,12287.418637
1078.450567,-3907.087040,-1554.432478,12805.562797
1078.450883,-3983.696590,-1184.329507,12361.439231
1078.451199,-3830.477490,-370.102971,11843.295072
1078.451514,-3294.210641,370.102971,10955.047942
1078.451830,-1991.848295,1406.391290,9474.636058
1078.452146,-612.876398,2590.720797,8586.388927
1078.452462,153.219100,3701.029710,7328.038826
1078.452777,459.657299,3775.050304,6957.935855
1078.453093,766.095498,3552.988522,7402.059420
1078.453409,153.219100,2664.741391,7846.182985
1078.453725,0.000000,1628.453072,8586.388927
1078.454040,-306.438199,666.185348,9474.636058
1078.454356,-1378.971896,370.102971,9548.656652
1078.454672,-2451.505594,148.041188,10214.842000
1078.454988,-2987.772442,-296.082377,10658.965565
1078.455303,-3524.039291,-370.102971,11029.068536
1078.455619,-3370.820191,814.226536,10140.821405
1078.455935,-3753.867940,518.144159,9474.636058
1078.456251,-3524.039291,-0.000000,9992.780217
1078.456566,-2681.334243,-592.164754,9844.739029
1078.456882,-1838.629195,-518.144159,9918.759623
1078.457198,-1685.410096,296.082377,9104.533087
1078.457513,-1378.971896,888.247130,8512.368333
1078.457829,-766.095498,1258.350101,8364.327145
1078.458145,-153.219100,1036.288319,9104.533087
1078.458461,0.000000,1628.453072,9400.615463
1078.458776,-383.047749,1702.473667,9178.553681
1078.459092,-612.876398,1036.288319,9474.636058
1078.459408,0.000000,222.061783,9992.780217
1078.459724,383.047749,-222.061783,9622.677246
1078.460039,153.219100,-74.020594,9326.594869
1078.460355,153.219100,-148.041188,9252.574275
1078.460671,383.047749,-444.123565,9178.553681
1078.460987,612.876398,-444.123565,9400.615463
1078.461302,689.485948,666.185348,9104.533087
1078.461618,459.657299,888.247130,9104.533087
1078.461934,919.314598,1036.288319,9622.677246
1078.462250,1149.143247,888.247130,9178.553681
1078.462565,1302.362347,1036.288319,9030.512492
1078.462881,612.876398,1184.329507,8956.491898
1078.463197,459.657299,740.205942,8882.471304
1078.463513,459.657299,-0.000000,9622.677246
1078.463828,-76.609550,-296.082377,10214.842000
1078.464144,-689.485948,-518.144159,10066.800811
1078.464460,-612.876398,-592.164754,10584.944971
1078.464776,-306.438199,-444.123565,10362.883188
1078.465091,-383.047749,-296.082377,10066.800811
1078.465407,0.000000,-444.123565,9400.615463
1078.465723,612.876398,-518.144159,9696.697840
1078.466038,1072.533697,-0.000000,9400.615463
1078.466354,1455.581446,666.185348,8734.430116
1078.466670,1302.362347,518.144159,9104.533087
1078.466986,1302.362347,-0.000000,9400.615463
1078.467302,1455.581446,-0.000000,9770.718434
1078.467618,1378.971896,370.102971,9696.697840
1078.467933,995.924147,666.185348,9030.512492
1078.468249,995.924147,370.102971,9326.594869
1078.468565,1072.533697,592.164754,9400.615463
1078.468881,459.657299,814.226536,9548.656652
1078.469197,229.828649,444.123565,9548.656652
1078.469513,229.828649,-296.082377,10066.800811
1078.469828,-153.219100,-888.247130,10066.800811
1078.470144,-306.438199,-1332.370696,9770.718434
1078.470460,0.000000,-962.267725,9696.697840
1078.470776,383.047749,-740.205942,10066.800811
1078.471092,689.485948,-296.082377,9178.553681
1078.471407,229.828649,444.123565,9252.574275
1078.471723,383.047749,592.164754,8808.450710
1078.472039,459.657299,666.185348,9178.553681
1078.472355,689.485948,222.061783,9178.553681
1078.472671,306.438199,-0.000000,8734.430116
1078.472987,306.438199,-0.000000,8956.491898
1078.473302,842.705048,-740.205942,9030.512492
1078.473618,612.876398,-296.082377,9252.574275
1078.473934,0.000000,-74.020594,9400.615463
1078.474250,-153.219100,-148.041188,9548.656652
1078.474566,-229.828649,-444.123565,9844.739029
1078.474882,0.000000,-296.082377,9844.739029
1078.475197,0.000000,222.061783,9474.636058
1078.475513,306.438199,-666.185348,9104.533087
1078.475829,153.219100,-666.185348,9548.656652
1078.476145,536.266849,-444.123565,9844.739029
1078.476461,842.705048,-592.164754,9622.677246
1078.476777,689.485948,-0.000000,9474.636058
1078.477092,766.095498,518.144159,9252.574275
1078.477408,1072.533697,296.082377,9252.574275
1078.477724,1072.533697,-74.020594,9030.512492
1078.478040,689.485948,444.123565,8512.368333
1078.478356,1302.362347,-0.000000,8882.471304
1078.478671,612.876398,-148.041188,9474.636058
1078.478987,0.000000,-666.185348,9992.780217
1078.479303,0.000000,-518.144159,10510.924376
1078.479619,153.219100,-444.123565,10288.862594
1078.479935,-76.609550,-222.061783,9548.656652
1078.480251,0.000000,-296.082377,9252.574275
1078.480566,153.219100,-666.185348,9252.574275
1078.480882,0.000000,-1036.288319,9992.780217
1078.481198,-229.828649,-592.164754,9770.718434
1078.481514,-306.438199,-370.102971,10066.800811
1078.481830,153.219100,-518.144159,10140.821405
1078.482146,229.828649,-148.041188,9622.677246
1078.482461,1532.190996,148.041188,9104.533087
1078.482777,1302.362347,222.061783,9252.574275
1078.483093,1685.410096,-296.082377,8734.430116
1078.483409,1608.800546,222.061783,8808.450710
1078.483725,1455.581446,-148.041188,9104.533087
1078.484040,1302.362347,-222.061783,9548.656652
1078.484356,1302.362347,-0.000000,9622.677246
1078.484672,536.266849,296.082377,9178.553681
1078.484988,306.438199,148.041188,8956.491898
1078.485304,306.438199,-74.020594,9548.656652
1078.485620,919.314598,-222.061783,9548.656652
1078.485935,153.219100,-296.082377,9622.677246
1078.486251,-229.828649,-740.205942,9918.759623
1078.486567,-229.828649,-518.144159,10436.903782
1078.486883,76.609550,-444.123565,10214.842000
1078.487199,0.000000,222.061783,10140.821405
1078.487515,383.047749,370.102971,9474.636058
1078.487830,842.705048,-74.020594,9622.677246
1078.488146,995.924147,370.102971,9326.594869
1078.488462,766.095498,1036.288319,8586.388927
1078.488778,1455.581446,370.102971,9104.533087
1078.489094,1762.019645,296.082377,9474.636058
1078.489410,1838.629195,740.205942,9474.636058
1078.489725,1378.971896,1036.288319,9178.553681
1078.490041,766.095498,740.205942,8364.327145
1078.490357,459.657299,-814.226536,9770.718434
1078.490673,229.828649,-888.247130,10362.883188
1078.490989,-76.609550,222.061783,9622.677246
1078.491304,-536.266849,-370.102971,10140.821405
1078.491620,-383.047749,-518.144159,10584.944971
1078.491936,76.609550,-666.185348,10288.862594
1078.492252,0.000000,-74.020594,9696.697840
1078.492568,0.000000,-148.041188,9548.656652
1078.492884,229.828649,-148.041188,9400.615463
1078.493199,306.438199,-74.020594,9104.533087
1078.493515,0.000000,-0.000000,8882.471304
1078.493831,0.000000,-222.061783,9400.615463
1078.494147,459.657299,-222.061783,9548.656652
1078.494463,0.000000,-148.041188,8882.471304
1078.494779,-306.438199,-0.000000,9104.533087
1078.495094,0.000000,-814.226536,9622.677246
1078.495410,0.000000,-444.123565,9474.636058
1078.495726,-229.828649,-148.041188,9252.574275
1078.496042,-689.485948,-296.082377,9252.574275
1078.496358,-229.828649,-740.205942,9844.739029
1078.496673,153.219100,-1332.370696,10140.821405
1078.496989,0.000000,-222.061783,9844.739029
1078.497305,-76.609550,296.082377,8734.430116
1078.497621,306.438199,-0.000000,8660.409521
1078.497937,612.876398,-0.000000,8660.409521
1078.498253,612.876398,-0.000000,8882.471304
1078.498568,306.438199,296.082377,9400.615463
1078.498884,459.657299,-74.020594,9548.656652
1078.499200,459.657299,-444.123565,9622.677246
1078.499516,689.485948,-222.061783,9696.697840
1078.499832,689.485948,-222.061783,9326.594869
1078.500148,536.266849,-444.123565,9474.636058
1078.500463,689.485948,-148.041188,9770.718434
1078.500779,459.657299,-74.020594,9474.636058
1078.501095,383.047749,-370.102971,9770.718434
1078.501411,459.657299,-814.226536,9992.780217
1078.501727,1225.752797,-444.123565,9770.718434
1078.502043,1225.752797,-74.020594,8882.471304
1078.502358,1378.971896,-296.082377,9400.615463
1078.502674,1762.019645,-370.102971,9252.574275
1078.502990,2145.067394,370.102971,9474.636058
1078.503306,995.924147,814.226536,8586.388927
1078.503622,1072.533697,-0.000000,9474.636058
1078.503937,1302.362347,-518.144159,10066.800811
1078.504253,766.095498,-0.000000,9474.636058
1078.504569,459.657299,-296.082377,9548.656652
1078.504885,0.000000,-1110.308913,10140.821405
1078.505201,153.219100,-1480.411884,9992.780217
1078.505517,0.000000,-1184.329507,9844.739029
1078.505832,229.828649,-1110.308913,10288.862594
1078.506148,76.609550,-1628.453072,10436.903782
1078.506464,612.876398,-1036.288319,9992.780217
1078.506780,306.438199,-296.082377,9474.636058
1078.507096,842.705048,-370.102971,9030.512492
1078.507412,1072.533697,-666.185348,8956.491898
1078.507727,612.876398,-0.000000,9030.512492
1078.508043,919.314598,222.061783,8882.471304
1078.508359,995.924147,296.082377,8956.491898
1078.508675,995.924147,592.164754,9400.615463
1078.508991,459.657299,-0.000000,8956.491898
1078.509306,0.000000,-148.041188,9252.574275
1078.509622,0.000000,-666.185348,9104.533087
1078.509938,0.000000,-888.247130,9992.780217
1078.510254,0.000000,-814.226536,10066.800811
1078.510570,-536.266849,-370.102971,9844.739029
1078.510886,-383.047749,-370.102971,10658.965565
1078.511201,0.000000,-148.041188,9992.780217
1078.511517,0.000000,296.082377,9400.615463
1078.511833,306.438199,592.164754,8808.450710
1078.512149,1072.533697,-0.000000,8734.430116
1078.512465,995.924147,370.102971,8882.471304
1078.512781,995.924147,-74.020594,8808.450710
1078.513096,766.095498,592.164754,9104.533087
1078.513412,229.828649,518.144159,9178.553681
1078.513728,689.485948,888.247130,9326.594869
1078.514044,766.095498,888.247130,9178.553681
1078.514360,-383.047749,518.144159,9326.594869
1078.514676,-153.219100,-74.020594,9622.677246
1078.514991,0.000000,-814.226536,9770.718434
1078.515307,0.000000,-666.185348,9770.718434
1078.515623,-689.485948,-814.226536,9992.780217
1078.515939,-383.047749,-814.226536,10436.903782
1078.516255,76.609550,-222.061783,10436.903782
1078.516570,0.000000,-0.000000,9548.656652
1078.516886,-153.219100,1406.391290,9104.533087
1078.517202,459.657299,-74.020594,9326.594869
1078.517518,842.705048,-222.061783,9400.615463
1078.517834,0.000000,592.164754,9178.553681
1078.518150,306.438199,-296.082377,9770.718434
1078.518465,612.876398,148.041188,9770.718434
1078.518781,0.000000,-0.000000,9030.512492
1078.519097,0.000000,222.061783,9104.533087
1078.519413,306.438199,-0.000000,9622.677246
1078.519729,-306.438199,-666.185348,10140.821405
1078.520045,153.219100,-740.205942,10214.842000
1078.520360,-306.438199,-666.185348,9770.718434
1078.520676,-459.657299,-1110.308913,10214.842000
1078.520992,0.000000,-1036.288319,10584.944971
1078.521308,459.657299,-148.041188,9474.636058
1078.521624,306.438199,444.123565,8808.450710
1078.521939,459.657299,-148.041188,9252.574275
1078.522255,1225.752797,-0.000000,9326.594869
1078.522571,1149.143247,296.082377,9104.533087
1078.522887,689.485948,-74.020594,8586.388927
1078.523203,995.924147,-296.082377,9474.636058
1078.523519,995.924147,-296.082377,9770.718434
1078.523834,536.266849,-148.041188,9400.615463
1078.524150,306.438199,-0.000000,9104.533087
1078.524466,766.095498,-666.185348,9770.718434
1078.524782,842.705048,-1258.350101,9992.780217
1078.525098,153.219100,-0.000000,9178.553681
1078.525414,1072.533697,-1036.288319,10288.862594
1078.525729,1149.143247,-1406.391290,9844.739029
1078.526045,1072.533697,-518.144159,9918.759623
1078.526361,1532.190996,-814.226536,9326.594869
1078.526677,1685.410096,-74.020594,8882.471304
1078.526993,1915.238745,-296.082377,9178.553681
1078.527309,1608.800546,-0.000000,8734.430116
1078.527624,1455.581446,222.061783,8734.430116
1078.527940,1072.533697,-888.247130,9104.533087
1078.528256,1378.971896,-592.164754,9992.780217
1078.528572,842.705048,-740.205942,9474.636058
1078.528888,306.438199,-444.123565,8956.491898
1078.529203,229.828649,-518.144159,9474.636058
1078.529519,612.876398,-1110.308913,9992.780217
1078.529835,383.047749,-1110.308913,9474.636058
1078.530151,0.000000,-1406.391290,9622.677246
1078.530467,0.000000,-1258.350101,9918.759623
1078.530783,153.219100,-1702.473667,9992.780217
1078.531098,383.047749,-1406.391290,9474.636058
1078.531414,153.219100,-370.102971,9178.553681
1078.531730,306.438199,-518.144159,9104.533087
1078.532046,612.876398,-0.000000,8586.388927
1078.532362,383.047749,444.123565,8068.244768
1078.532678,153.219100,-74.020594,8956.491898
1078.532993,229.828649,-666.185348,9770.718434
1078.533309,459.657299,-444.123565,9844.739029
1078.533625,0.000000,-148.041188,9326.594869
1078.533941,-153.219100,-518.144159,8512.368333
1078.534257,-229.828649,-518.144159,9474.636058
1078.534572,229.828649,-296.082377,9918.759623
1078.534888,0.000000,-74.020594,9400.615463
1078.535204,-153.219100,-0.000000,9622.677246
1078.535520,306.438199,-222.061783,9696.697840
1078.535836,383.047749,-148.041188,9548.656652
1078.536152,612.876398,740.205942,9104.533087
1078.536467,612.876398,962.267725,8956.491898
1078.536783,1072.533697,962.267725,8956.491898
1078.537099,612.876398,1184.329507,9104.533087
1078.537415,612.876398,1554.432478,8808.450710
1078.537731,153.219100,814.226536,9548.656652
1078.538047,459.657299,370.102971,9770.718434
1078.538362,459.657299,592.164754,9474.636058
1078.538678,383.047749,-0.000000,9770.718434
1078.538994,612.876398,-74.020594,10140.821405
1078.539310,766.095498,-74.020594,9622.677246
1078.539626,842.705048,444.123565,9696.697840
1078.539942,612.876398,740.205942,9474.636058
1078.540257,1072.533697,222.061783,9696.697840
1078.540573,1072.533697,740.205942,9844.739029
1078.540889,459.657299,370.102971,9696.697840
1078.541205,306.438199,444.123565,9252.574275
1078.541521,306.438199,222.061783,9326.594869
1078.541836,229.828649,148.041188,9474.636058
1078.542152,76.609550,370.102971,9770.718434
1078.542468,-229.828649,222.061783,9696.697840
1078.542784,-306.438199,-370.102971,10288.862594
1078.543100,-153.219100,-444.123565,10436.903782
1078.543416,-689.485948,-0.000000,9918.759623
1078.543731,-689.485948,-0.000000,9992.780217
1078.544047,0.000000,-0.000000,9548.656652
1078.544363,0.000000,-592.164754,9992.780217
1078.544679,-306.438199,-666.185348,9696.697840
1078.544995,-229.828649,148.041188,9622.677246
1078.545311,229.828649,-0.000000,9918.759623
1078.545626,766.095498,-0.000000,9622.677246
1078.545942,766.095498,666.185348,8734.430116
1078.546258,766.095498,370.102971,8808.450710
1078.546574,689.485948,-0.000000,9252.574275
1078.546890,536.266849,518.144159,9104.533087
1078.547205,459.657299,666.185348,8364.327145
1078.547521,153.219100,-0.000000,9474.636058
1078.547837,0.000000,-592.164754,9992.780217
1078.548153,0.000000,-740.205942,9918.759623
1078.548469,0.000000,-666.185348,9104.533087
1078.548785,0.000000,-1258.350101,9474.636058
1078.549100,153.219100,-1850.514855,9918.759623
1078.549416,229.828649,-1406.391290,9030.512492
1078.549732,383.047749,-1628.453072,9844.739029
1078.550048,842.705048,-1480.411884,10214.842000
1078.550364,1225.752797,-592.164754,9548.656652
1078.550680,1455.581446,-518.144159,8956.491898
1078.550995,1762.019645,-148.041188,7994.224174
1078.551311,2068.457845,518.144159,8512.368333
1078.551627,2145.067394,-370.102971,8586.388927
1078.551943,1762.019645,-518.144159,8364.327145
1078.552259,689.485948,-592.164754,8882.471304
1078.552575,766.095498,-1332.370696,9548.656652
1078.552890,612.876398,-1628.453072,9548.656652
1078.553206,383.047749,-1332.370696,10066.800811
1078.553522,0.000000,-1258.350101,9178.553681
1078.553838,0.000000,-1628.453072,9844.739029
1078.554154,-383.047749,-1628.453072,10140.821405
1078.554469,-383.047749,-1776.494261,9696.697840
1078.554785,-383.047749,-1406.391290,9844.739029
1078.555101,229.828649,-1702.473667,10140.821405
1078.555417,459.657299,-1036.288319,9844.739029
1078.555733,383.047749,-222.061783,8660.409521
1078.556049,536.266849,-74.020594,8290.306550
1078.556364,1225.752797,-0.000000,8660.409521
1078.556680,536.266849,-222.061783,8808.450710
1078.556996,153.219100,-148.041188,9030.512492
1078.557312,229.828649,-0.000000,9474.636058
1078.557628,536.266849,-148.041188,9622.677246
1078.557944,459.657299,-296.082377,9770.718434
1078.558259,383.047749,-148.041188,9474.636058
1078.558575,0.000000,-666.185348,9622.677246
1078.558891,153.219100,-370.102971,9696.697840
1078.559207,0.000000,-74.020594,9548.656652
1078.559523,0.000000,-296.082377,9992.780217
1078.559838,0.000000,296.082377,10288.862594
1078.560154,612.876398,518.144159,9474.636058
1078.560470,229.828649,888.247130,9252.574275
1078.560786,612.876398,962.267725,9178.553681
1078.561102,842.705048,814.226536,9252.574275
1078.561418,1072.533697,1036.288319,9400.615463
1078.561733,612.876398,1258.350101,8956.491898
1078.562049,459.657299,814.226536,9474.636058
1078.562365,612.876398,222.061783,10140.821405
1078.562681,766.095498,518.144159,9844.739029
1078.562997,766.095498,814.226536,9696.697840
1078.563313,306.438199,148.041188,9918.759623
1078.563628,689.485948,148.041188,9326.594869
1078.563944,459.657299,444.123565,9474.636058
1078.564260,459.657299,222.061783,9474.636058
1078.564576,306.438199,-148.041188,10140.821405
1078.564892,459.657299,-444.123565,9992.780217
1078.565208,689.485948,296.082377,10066.800811
1078.565523,612.876398,370.102971,9326.594869
1078.565839,689.485948,370.102971,8734.430116
1078.566155,842.705048,888.247130,9400.615463
1078.566471,383.047749,888.247130,8882.471304
1078.566787,0.000000,148.041188,9400.615463
1078.567102,-153.219100,-0.000000,9918.759623
1078.567418,76.609550,-370.102971,9844.739029
1078.567734,0.000000,-74.020594,9622.677246
1078.568050,-536.266849,-0.000000,9400.615463
1078.568366,-459.657299,-0.000000,9326.594869
1078.568681,0.000000,-444.123565,9474.636058
1078.568997,-153.219100,-370.102971,9696.697840
1078.569313,-459.657299,-518.144159,9918.759623
1078.569629,0.000000,-222.061783,9844.739029
1078.569945,76.609550,148.041188,9770.718434
1078.570260,76.609550,444.123565,8956.491898
1078.570576,459.657299,74.020594,8734.430116
1078.570892,612.876398,222.061783,9400.615463
1078.571208,766.095498,222.061783,8808.450710
1078.571523,459.657299,-0.000000,9326.594869
1078.571839,229.828649,-222.061783,9326.594869
1078.572155,766.095498,-592.164754,9992.780217
1078.572471,766.095498,-518.144159,9696.697840
1078.572787,536.266849,-0.000000,9770.718434
1078.573102,536.266849,-518.144159,9104.533087
1078.573418,459.657299,-888.247130,9400.615463
1078.573734,995.924147,-1110.308913,9326.594869
1078.574050,689.485948,-888.247130,9548.656652
1078.574365,995.924147,-962.267725,9770.718434
1078.574681,1378.971896,-1036.288319,9844.739029
1078.574997,1149.143247,-740.205942,9178.553681
1078.575313,1455.581446,-740.205942,8734.430116
1078.575629,1532.190996,-814.226536,8956.491898
1078.575944,1225.752797,-1184.329507,9400.615463
1078.576260,1149.143247,-296.082377,9104.533087
1078.576576,459.657299,-666.185348,9474.636058
1078.576892,766.095498,-1628.453072,10881.027347
1078.577208,689.485948,-592.164754,9474.636058
1078.577523,689.485948,-740.205942,9474.636058
1078.577839,76.609550,-1036.288319,9474.636058
1078.578155,383.047749,-1480.411884,9918.759623
1078.578471,842.705048,-1184.329507,9474.636058
1078.578786,76.609550,-1110.308913,9770.718434
1078.579102,383.047749,-1332.370696,10288.862594
1078.579418,919.314598,-814.226536,10140.821405
1078.579734,536.266849,-592.164754,9474.636058
1078.580050,842.705048,444.123565,8956.491898
1078.580365,689.485948,-148.041188,8734.430116
1078.580681,1072.533697,-74.020594,8882.471304
1078.580997,842.705048,148.041188,8882.471304
1078.581313,919.314598,-222.061783,9178.553681
1078.581628,459.657299,-814.226536,9770.718434
1078.581944,229.828649,-1110.308913,9992.780217
1078.582260,229.828649,-962.267725,9696.697840
1078.582576,-383.047749,-222.061783,9104.533087
1078.582892,-153.219100,-518.144159,9696.697840
1078.583207,306.438199,-666.185348,9918.759623
1078.583523,-229.828649,-222.061783,9252.574275
1078.583839,0.000000,-0.000000,9474.636058
1078.584155,459.657299,-518.144159,9770.718434
1078.584471,995.924147,-444.123565,9548.656652
1078.584786,766.095498,518.144159,8734.430116
1078.585102,919.314598,740.205942,8956.491898
1078.585418,1378.971896,888.247130,9178.553681
1078.585734,1149.143247,1036.288319,8808.450710
1078.586049,1149.143247,1554.432478,8808.450710
1078.586365,536.266849,962.267725,9252.574275
1078.586681,612.876398,518.144159,9548.656652
1078.586997,229.828649,296.082377,9770.718434
1078.587313,-229.828649,222.061783,9992.780217
1078.587628,-153.219100,-0.000000,9622.677246
1078.587944,-153.219100,-74.020594,9474.636058
1078.588260,0.000000,-222.061783,9696.697840
1078.588576,0.000000,592.164754,9696.697840
1078.588891,0.000000,444.123565,10066.800811
1078.589207,459.657299,-0.000000,10140.821405
1078.589523,459.657299,444.123565,9844.739029
1078.589839,383.047749,740.205942,9252.574275
1078.590155,383.047749,962.267725,8734.430116
1078.590470,689.485948,740.205942,9178.553681
1078.590786,306.438199,1110.308913,8808.450710
1078.591102,229.828649,1406.391290,8882.471304
1078.591418,76.609550,592.164754,9770.718434
1078.591734,0.000000,-74.020594,10436.903782
1078.592049,-306.438199,-148.041188,10066.800811
1078.592365,-689.485948,-592.164754,9474.636058
1078.592681,-842.705048,-814.226536,9992.780217
1078.592997,-383.047749,-518.144159,9844.739029
1078.593312,-306.438199,370.102971,9474.636058
1078.593628,-842.705048,-148.041188,9548.656652
1078.593944,-459.657299,-0.000000,9844.739029
1078.594260,-383.047749,-592.164754,9696.697840
1078.594576,0.000000,-74.020594,9400.615463
1078.594891,153.219100,-296.082377,9326.594869
1078.595207,459.657299,-370.102971,9104.533087
1078.595523,919.314598,-74.020594,9030.512492
1078.595839,229.828649,370.102971,8956.491898
1078.596154,0.000000,-0.000000,9178.553681
1078.596470,306.438199,-740.205942,9474.636058
1078.596786,612.876398,-370.102971,9918.759623
1078.597102,536.266849,-222.061783,9474.636058
1078.597418,459.657299,-1184.329507,9178.553681
1078.597733,459.657299,-962.267725,9326.594869
1078.598049,919.314598,-1554.432478,9400.615463
1078.598365,995.924147,-1036.288319,9474.636058
1078.598681,1072.533697,-888.247130,9918.759623
1078.598997,1149.143247,-740.205942,9622.677246
1078.599312,1149.143247,-148.041188,9622.677246
1078.599628,1608.800546,-444.123565,9548.656652
1078.599944,1608.800546,-0.000000,9030.512492
1078.600260,1302.362347,-222.061783,9326.594869
1078.600575,842.705048,-0.000000,9400.615463
1078.600891,995.924147,-148.041188,9178.553681
1078.601207,612.876398,-666.185348,9548.656652
1078.601523,612.876398,-888.247130,10140.821405
1078.601839,229.828649,-1258.350101,9696.697840
1078.602154,229.828649,-1332.370696,9548.656652
1078.602470,459.657299,-1480.411884,10288.862594
1078.602786,1072.533697,-1850.514855,9548.656652
1078.603102,689.485948,-962.267725,9622.677246
1078.603417,383.047749,-1332.370696,9844.739029
1078.603733,689.485948,-1036.288319,9918.759623
1078.604049,1149.143247,-666.185348,9104.533087
1078.604365,919.314598,-148.041188,8734.430116
1078.604681,1302.362347,-0.000000,9178.553681
1078.604996,1225.752797,-296.082377,8956.491898
1078.605312,919.314598,-0.000000,8290.306550
1078.605628,229.828649,-666.185348,8586.388927
1078.605944,-229.828649,-888.247130,9696.697840
1078.606260,153.219100,-1480.411884,9622.677246
1078.606575,-306.438199,-814.226536,9696.697840
1078.606891,-766.095498,-296.082377,9770.718434
1078.607207,0.000000,-1258.350101,9548.656652
1078.607523,0.000000,-814.226536,9326.594869
1078.607838,0.000000,-962.267725,9474.636058
1078.608154,-306.438199,-740.205942,9548.656652
1078.608470,0.000000,-592.164754,9548.656652
1078.608786,0.000000,-370.102971,9844.739029
1078.609102,919.314598,592.164754,8882.471304
1078.609417,1072.533697,1184.329507,8142.265362
1078.609733,842.705048,1332.370696,8216.285956
1078.610049,1072.533697,1110.308913,8660.409521
1078.610365,383.047749,1184.329507,8882.471304
1078.610680,153.219100,1036.288319,8660.409521
1078.610996,153.219100,370.102971,9696.697840
1078.611312,153.219100,-0.000000,9992.780217
1078.611628,536.266849,-0.000000,9770.718434
1078.611944,-536.266849,370.102971,9770.718434
1078.612259,-612.876398,148.041188,9770.718434
1078.612575,229.828649,-666.185348,10066.800811
1078.612891,0.000000,592.164754,9844.739029
1078.613207,-306.438199,814.226536,9030.512492
1078.613523,153.219100,-666.185348,10288.862594
1078.613838,766.095498,444.123565,9770.718434
1078.614154,229.828649,518.144159,9622.677246
1078.614470,842.705048,1258.350101,9548.656652
1078.614786,1072.533697,888.247130,9252.574275
1078.615101,689.485948,1110.308913,8882.471304
1078.615417,306.438199,1406.391290,8956.491898
1078.615733,-153.219100,222.061783,9696.697840
1078.616049,76.609550,-0.000000,10510.924376
1078.616365,-306.438199,518.144159,10066.800811
1078.616680,-995.924147,370.102971,9770.718434
1078.616996,-306.438199,370.102971,9844.739029
1078.617312,-689.485948,-296.082377,9918.759623
1078.617628,-383.047749,-222.061783,10214.842000
1078.617943,-612.876398,-296.082377,10362.883188
1078.618259,-842.705048,-592.164754,10288.862594
1078.618575,0.000000,-370.102971,10140.821405
1078.618891,76.609550,-0.000000,9918.759623
1078.619207,383.047749,444.123565,9474.636058
1078.619522,689.485948,962.267725,8734.430116
1078.619838,919.314598,740.205942,9474.636058
1078.620154,459.657299,1036.288319,8882.471304
1078.620470,842.705048,1036.288319,9104.533087
1078.620786,919.314598,148.041188,9030.512492
1078.621101,1378.971896,-444.123565,9548.656652
1078.621417,919.314598,-592.164754,9696.697840
1078.621733,459.657299,-888.247130,9474.636058
1078.622049,766.095498,-1258.350101,9548.656652
1078.622364,459.657299,-1184.329507,9918.759623
1078.622680,842.705048,-1110.308913,9770.718434
1078.622996,306.438199,-1036.288319,9326.594869
1078.623312,536.266849,-888.247130,10140.821405
1078.623628,1225.752797,-518.144159,9474.636058
1078.623943,1532.190996,-740.205942,8956.491898
1078.624259,1532.190996,-740.205942,8734.430116
1078.624575,1762.019645,-814.226536,8290.306550
1078.624891,1991.848295,-370.102971,8512.368333
1078.625206,1149.143247,-444.123565,8142.265362
1078.625522,1072.533697,-1036.288319,9548.656652
1078.625838,383.047749,-1480.411884,10214.842000
1078.626154,536.266849,-1406.391290,9252.574275
1078.626470,306.438199,-1406.391290,9252.574275
1078.626785,229.828649,-1998.556043,9770.718434
1078.627101,1072.533697,-2294.638420,9696.697840
1078.627417,612.876398,-962.267725,9104.533087
1078.627733,306.438199,-1258.350101,9326.594869
1078.628049,612.876398,-1850.514855,9770.718434
1078.628364,1225.752797,-888.247130,9474.636058
1078.628680,842.705048,-518.144159,8882.471304
1078.628996,1225.752797,-0.000000,9104.533087
1078.629312,995.924147,-370.102971,8586.388927
1078.629627,842.705048,-296.082377,8882.471304
1078.629943,306.438199,-148.041188,8956.491898
1078.630259,0.000000,-740.205942,9548.656652
1078.630575,153.219100,-518.144159,9622.677246
1078.630891,0.000000,-370.102971,9770.718434
1078.631206,0.000000,-518.144159,9474.636058
1078.631522,-306.438199,-666.185348,9400.615463
1078.631838,-306.438199,-1184.329507,9622.677246
1078.632154,0.000000,-1110.308913,9696.697840
1078.632470,0.000000,-666.185348,9474.636058
1078.632785,0.000000,-148.041188,9326.594869
1078.633101,306.438199,-0.000000,9696.697840
1078.633417,153.219100,-74.020594,9104.533087
1078.633733,842.705048,666.185348,8882.471304
1078.634048,1149.143247,1110.308913,8660.409521
1078.634364,1225.752797,666.185348,8808.450710
1078.634680,995.924147,1406.391290,8364.327145
1078.634996,383.047749,1184.329507,8956.491898
1078.635312,229.828649,296.082377,10066.800811
1078.635627,383.047749,666.185348,10140.821405
1078.635943,-229.828649,518.144159,9548.656652
1078.636259,-306.438199,296.082377,9474.636058
1078.636575,0.000000,-0.000000,10288.862594
1078.636890,229.828649,-74.020594,9992.780217
1078.637206,-153.219100,518.144159,9696.697840
1078.637522,76.609550,296.082377,10288.862594
1078.637838,0.000000,-370.102971,10288.862594
1078.638154,306.438199,296.082377,9770.718434
1078.638469,842.705048,1406.391290,9474.636058
1078.638785,689.485948,1332.370696,9104.533087
1078.639101,995.924147,1184.329507,9104.533087
1078.639417,919.314598,962.267725,9400.615463
1078.639733,459.657299,1184.329507,9474.636058
1078.640048,0.000000,814.226536,9696.697840
1078.640364,0.000000,-0.000000,9992.780217
1078.640680,0.000000,-0.000000,10288.862594
1078.640996,-612.876398,518.144159,9918.759623
1078.641311,-459.657299,-0.000000,9992.780217
1078.641627,-383.047749,-370.102971,9992.780217
1078.641943,-536.266849,-0.000000,9992.780217
1078.642259,-842.705048,-0.000000,10214.842000
1078.642575,-153.219100,-814.226536,10288.862594
1078.642890,153.219100,-444.123565,10066.800811
1078.643206,383.047749,-0.000000,9622.677246
1078.643522,459.657299,-0.000000,9030.512492
1078.643838,842.705048,74.020594,9178.553681
1078.644153,766.095498,-0.000000,8956.491898
1078.644469,536.266849,888.247130,8882.471304
1078.644785,536.266849,666.185348,9178.553681
1078.645101,689.485948,296.082377,9326.594869
1078.645417,229.828649,-370.102971,9474.636058
1078.645732,0.000000,-740.205942,9400.615463
1078.646048,0.000000,-1036.288319,9474.636058
1078.646364,306.438199,-1702.473667,9918.759623
1078.646680,612.876398,-1406.391290,9622.677246
1078.646996,612.876398,-814.226536,9252.574275
1078.647311,612.876398,-888.247130,9474.636058
1078.647627,995.924147,-962.267725,9474.636058
1078.647943,1378.971896,-518.144159,9474.636058
1078.648259,612.876398,-370.102971,8586.388927
1078.648574,1225.752797,-444.123565,8660.409521
1078.648890,1685.410096,-740.205942,8734.430116
1078.649206,1685.410096,-222.061783,8290.306550
1078.649522,1149.143247,-0.000000,8438.347739
1078.649838,995.924147,-74.020594,8956.491898
1078.650153,1072.533697,-1110.308913,9474.636058
1078.650469,459.657299,-1036.288319,9548.656652
1078.650785,229.828649,-962.267725,9252.574275
1078.651101,689.485948,-2072.576638,9770.718434
1078.651416,459.657299,-2220.617826,9992.780217
1078.651732,689.485948,-1258.350101,9474.636058
1078.652048,459.657299,-962.267725,9104.533087
1078.652364,459.657299,-1406.391290,9548.656652
1078.652680,612.876398,-1628.453072,9844.739029
1078.652995,919.314598,-1110.308913,9474.636058
1078.653311,842.705048,-740.205942,8808.450710
1078.653627,995.924147,-370.102971,8586.388927
1078.653943,1072.533697,-444.123565,8660.409521
1078.654259,689.485948,-222.061783,8364.327145
1078.654574,306.438199,-0.000000,9400.615463
1078.654890,306.438199,-888.247130,9918.759623
1078.655206,76.609550,-1184.329507,9696.697840
1078.655522,-459.657299,-814.226536,9400.615463
1078.655837,-612.876398,-1184.329507,9696.697840
1078.656153,0.000000,-1776.494261,9918.759623
1078.656469,0.000000,-1628.453072,9474.636058
1078.656785,0.000000,-814.226536,9844.739029
1078.657101,0.000000,-444.123565,9622.677246
1078.657416,153.219100,-740.205942,9548.656652
1078.657732,612.876398,-0.000000,9844.739029
1078.658048,995.924147,740.205942,9252.574275
1078.658364,1072.533697,1110.308913,8882.471304
1078.658679,1532.190996,1480.411884,8808.450710
1078.658995,1378.971896,1776.494261,8586.388927
1078.659311,459.657299,1406.391290,8882.471304
1078.659627,306.438199,814.226536,9844.739029
1078.659943,459.657299,592.164754,10214.842000
1078.660258,229.828649,814.226536,10140.821405
1078.660574,-383.047749,666.185348,10066.800811
1078.660890,-153.219100,-0.000000,10214.842000
1078.661206,229.828649,74.020594,10066.800811
1078.661522,0.000000,222.061783,9918.759623
1078.661837,0.000000,370.102971,10362.883188
1078.662153,306.438199,370.102971,10510.924376
1078.662469,612.876398,592.164754,9844.739029
1078.662785,995.924147,1110.308913,9178.553681
1078.663100,689.485948,1406.391290,9326.594869
1078.663416,766.095498,1036.288319,9252.574275
1078.663732,1149.143247,592.164754,8512.368333
1078.664048,919.314598,1110.308913,9104.533087
1078.664364,0.000000,962.267725,9696.697840
1078.664679,383.047749,666.185348,9622.677246
1078.664995,0.000000,-0.000000,9770.718434
1078.665311,-383.047749,-296.082377,9992.780217
1078.665627,-459.657299,-296.082377,9770.718434
1078.665942,-306.438199,-888.247130,10066.800811
1078.666258,-306.438199,-740.205942,9844.739029
1078.666574,-383.047749,-370.102971,9696.697840
1078.666890,-306.438199,-888.247130,9918.759623
1078.667206,0.000000,-296.082377,9696.697840
1078.667521,306.438199,814.226536,9844.739029
1078.667837,459.657299,814.226536,9104.533087
1078.668153,612.876398,666.185348,8586.388927
1078.668468,842.705048,-0.000000,9252.574275
1078.668784,766.095498,-0.000000,8660.409521
1078.669099,306.438199,-0.000000,8808.450710
1078.669415,153.219100,-74.020594,9474.636058
1078.669731,459.657299,-518.144159,9548.656652
1078.670046,306.438199,-666.185348,9474.636058
1078.670362,0.000000,-296.082377,9326.594869
1078.670678,-383.047749,-1036.288319,9474.636058
1078.670993,459.657299,-1776.494261,10214.842000
1078.671309,612.876398,-1332.370696,9474.636058
1078.671625,459.657299,-1110.308913,9474.636058
1078.671940,612.876398,-1628.453072,9992.780217
1078.672256,1302.362347,-888.247130,9474.636058
1078.672572,1532.190996,-0.000000,9030.512492
1078.672887,1915.238745,370.102971,8364.327145
1078.673203,1838.629195,-0.000000,8808.450710
1078.673519,1532.190996,-0.000000,8734.430116
1078.673835,1225.752797,148.041188,8734.430116
1078.674150,842.705048,-296.082377,9400.615463
1078.674466,842.705048,-1110.308913,9992.780217
1078.674782,766.095498,-888.247130,9992.780217
1078.675097,0.000000,-1258.350101,9992.780217
1078.675413,-229.828649,-1258.350101,10436.903782
1078.675729,0.000000,-1998.556043,9992.780217
1078.676044,383.047749,-1702.473667,9992.780217
1078.676360,0.000000,-1110.308913,9992.780217
1078.676676,76.609550,-1406.391290,10510.924376
1078.676991,536.266849,-1480.411884,9770.718434
1078.677307,1072.533697,-888.247130,9696.697840
1078.677623,995.924147,-222.061783,8660.409521
1078.677938,1532.190996,-296.082377,8438.347739
1078.678254,1838.629195,-0.000000,8364.327145
1078.678570,1608.800546,-0.000000,8364.327145
1078.678886,766.095498,-0.000000,8808.450710
1078.679201,153.219100,-592.164754,9474.636058
1078.679517,153.219100,-1036.288319,9622.677246
1078.679833,-459.657299,-962.267725,9770.718434
1078.680148,-612.876398,-962.267725,9992.780217
1078.680464,-383.047749,-1406.391290,9918.759623
1078.680780,-229.828649,-1702.473667,9992.780217
1078.681095,-459.657299,-1036.288319,9770.718434
1078.681411,-383.047749,-370.102971,9326.594869
1078.681727,153.219100,-518.144159,9844.739029
1078.682042,153.219100,-296.082377,9622.677246
1078.682358,842.705048,444.123565,9178.553681
1078.682674,612.876398,962.267725,8734.430116
1078.682989,1378.971896,1480.411884,8290.306550
1078.683305,1378.971896,1702.473667,8290.306550
1078.683621,1072.533697,1332.370696,8364.327145
1078.683937,766.095498,1110.308913,9400.615463
1078.684252,995.924147,518.144159,9918.759623
1078.684568,229.828649,814.226536,9844.739029
1078.684884,153.219100,666.185348,9474.636058
1078.685199,0.000000,592.164754,9474.636058
1078.685515,76.609550,-74.020594,9992.780217
1078.685831,229.828649,222.061783,10214.842000
1078.686146,0.000000,296.082377,9844.739029
1078.686462,76.609550,-0.000000,10140.821405
1078.686778,383.047749,-0.000000,9918.759623
1078.687093,689.485948,370.102971,9252.574275
1078.687409,536.266849,740.205942,9030.512492
1078.687725,766.095498,888.247130,9104.533087
1078.688040,1762.019645,1036.288319,8586.388927
1078.688356,842.705048,1184.329507,9030.512492
1078.688672,0.000000,814.226536,8956.491898
1078.688988,0.000000,296.082377,9770.718434
1078.689303,0.000000,-74.020594,9844.739029
1078.689619,-536.266849,74.020594,9992.780217
1078.689935,-612.876398,-222.061783,9992.780217
1078.690250,-459.657299,-814.226536,9844.739029
1078.690566,-612.876398,-888.247130,10140.821405
1078.690882,-536.266849,-666.185348,10436.903782
1078.691197,-612.876398,-370.102971,10140.821405
1078.691513,0.000000,-444.123565,10214.842000
1078.691829,153.219100,-0.000000,9918.759623
1078.692144,229.828649,518.144159,9178.553681
1078.692460,383.047749,518.144159,9104.533087
1078.692776,842.705048,740.205942,8660.409521
1078.693091,612.876398,962.267725,8808.450710
1078.693407,459.657299,592.164754,8734.430116
1078.693723,0.000000,-0.000000,9474.636058
1078.694039,153.219100,-370.102971,10584.944971
1078.694354,306.438199,-740.205942,10140.821405
1078.694670,-306.438199,-740.205942,9548.656652
1078.694986,-229.828649,-888.247130,9992.780217
1078.695301,229.828649,-1850.514855,9918.759623
1078.695617,306.438199,-1184.329507,9326.594869
1078.695933,919.314598,-666.185348,9696.697840
1078.696248,306.438199,-1036.288319,9400.615463
1078.696564,1225.752797,-518.144159,9474.636058
1078.696880,1838.629195,-296.082377,9030.512492
1078.697195,1838.629195,74.020594,8586.388927
1078.697511,1762.019645,-0.000000,8734.430116
1078.697827,1838.629195,-222.061783,8882.471304
1078.698142,1762.019645,-0.000000,8364.327145
1078.698458,459.657299,-222.061783,9400.615463
1078.698774,842.705048,-888.247130,10288.862594
1078.699090,229.828649,-1110.308913,9918.759623
1078.699405,-459.657299,-1110.308913,9844.739029
1078.699721,-306.438199,-1406.391290,10140.821405
1078.700037,0.000000,-2368.659014,10288.862594
1078.700352,153.219100,-1850.514855,9844.739029
1078.700668,0.000000,-1258.350101,9474.636058
1078.700984,459.657299,-1406.391290,9548.656652
1078.701299,1149.143247,-1850.514855,10140.821405
1078.701615,1378.971896,-888.247130,9326.594869
1078.701931,1072.533697,-666.185348,8660.409521
1078.702246,1532.190996,-296.082377,8438.347739
1078.702562,1378.971896,-74.020594,8290.306550
1078.702878,1302.362347,-222.061783,8142.265362
1078.703193,612.876398,-296.082377,8956.491898
1078.703509,229.828649,-444.123565,9622.677246
1078.703825,0.000000,-666.185348,9844.739029
1078.704141,0.000000,-1036.288319,9918.759623
1078.704456,-766.095498,-1036.288319,9918.759623
1078.704772,-995.924147,-1406.391290,9992.780217
1078.705088,-612.876398,-1110.308913,9918.759623
1078.705403,-612.876398,-1406.391290,10214.842000
1078.705719,-383.047749,-444.123565,9844.739029
1078.706035,0.000000,-370.102971,9474.636058
1078.706350,1532.190996,-592.164754,9252.574275
1078.706666,919.314598,-74.020594,8882.471304
1078.706982,1072.533697,592.164754,8364.327145
1078.707297,1608.800546,962.267725,8290.306550
1078.707613,1762.019645,814.226536,8364.327145
1078.707929,1302.362347,1184.329507,8142.265362
1078.708244,689.485948,888.247130,8808.450710
1078.708560,383.047749,444.123565,9400.615463
1078.708876,153.219100,222.061783,9844.739029
1078.709192,-153.219100,444.123565,9844.739029
1078.709507,-383.047749,370.102971,9696.697840
1078.709823,0.000000,-222.061783,9844.739029
1078.710139,0.000000,-0.000000,9844.739029
1078.710454,-229.828649,148.041188,9918.759623
1078.710770,0.000000,-0.000000,9918.759623
1078.711086,0.000000,444.123565,10214.842000
1078.711401,536.266849,888.247130,10066.800811
1078.711717,459.657299,1332.370696,9104.533087
1078.712033,766.095498,1258.350101,9030.512492
1078.712348,1072.533697,1406.391290,8734.430116
1078.712664,536.266849,1110.308913,9104.533087
1078.712980,153.219100,1184.329507,8956.491898
1078.713295,153.219100,740.205942,9622.677246
1078.713611,229.828649,666.185348,9770.718434
1078.713927,0.000000,-0.000000,9770.718434
1078.714242,-306.438199,-666.185348,9844.739029
1078.714558,-459.657299,-592.164754,10362.883188
1078.714874,-383.047749,-666.185348,9770.718434
1078.715190,-383.047749,-444.123565,10214.842000
1078.715505,-842.705048,-0.000000,9918.759623
1078.715821,-383.047749,-74.020594,10214.842000
1078.716137,306.438199,370.102971,9622.677246
1078.716452,689.485948,814.226536,9474.636058
1078.716768,459.657299,592.164754,8956.491898
1078.717084,766.095498,74.020594,9030.512492
1078.717399,306.438199,296.082377,9178.553681
1078.717715,383.047749,444.123565,9474.636058
1078.718031,612.876398,-0.000000,9992.780217
1078.718346,76.609550,-0.000000,9770.718434
1078.718662,766.095498,-0.000000,9992.780217
1078.718978,306.438199,-222.061783,9696.697840
1078.719293,459.657299,-370.102971,9844.739029
1078.719609,306.438199,-518.144159,9770.718434
1078.719925,536.266849,-888.247130,9770.718434
1078.720241,383.047749,-888.247130,9770.718434
1078.720556,689.485948,-1110.308913,9844.739029
1078.720872,919.314598,-1258.350101,9844.739029
1078.721188,1149.143247,-1036.288319,9770.718434
1078.721503,1302.362347,-444.123565,9104.533087
1078.721819,1532.190996,-814.226536,9030.512492
1078.722135,1685.410096,-370.102971,8586.388927
1078.722450,1685.410096,-444.123565,8956.491898
1078.722766,1378.971896,-666.185348,8364.327145
1078.723082,1302.362347,-1110.308913,9252.574275
1078.723397,1302.362347,-1406.391290,9474.636058
1078.723713,689.485948,-1480.411884,9104.533087
1078.724029,153.219100,-1776.494261,9178.553681
1078.724344,306.438199,-2294.638420,9622.677246
1078.724660,459.657299,-1850.514855,9770.718434
1078.724976,153.219100,-1702.473667,9326.594869
1078.725292,0.000000,-1554.432478,9474.636058
1078.725607,229.828649,-1998.556043,9992.780217
1078.725923,536.266849,-1628.453072,9696.697840
1078.726239,536.266849,-518.144159,8808.450710
1078.726554,766.095498,-666.185348,8734.430116
1078.726870,1225.752797,-592.164754,8438.347739
1078.727186,842.705048,-370.102971,8438.347739
1078.727501,612.876398,-74.020594,8364.327145
1078.727817,842.705048,-888.247130,9474.636058
1078.728133,306.438199,-740.205942,9326.594869
1078.728448,0.000000,-740.205942,9326.594869
1078.728764,-229.828649,-592.164754,9178.553681
1078.729080,-229.828649,-814.226536,9030.512492
1078.729395,76.609550,-1036.288319,9326.594869
1078.729711,0.000000,-592.164754,9622.677246
1078.730027,76.609550,-370.102971,9474.636058
1078.730343,0.000000,-444.123565,9326.594869
1078.730658,153.219100,-518.144159,9918.759623
1078.730974,536.266849,148.041188,9178.553681
1078.731290,459.657299,666.185348,8956.491898
1078.731605,689.485948,962.267725,9178.553681
1078.731921,842.705048,962.267725,8956.491898
1078.732237,842.705048,1184.329507,8586.388927
1078.732552,229.828649,962.267725,9030.512492
1078.732868,229.828649,1184.329507,9622.677246
1078.733184,689.485948,888.247130,10066.800811
1078.733499,0.000000,666.185348,9992.780217
1078.733815,-383.047749,370.102971,10066.800811
1078.734131,0.000000,222.061783,10066.800811
1078.734446,0.000000,370.102971,9992.780217
1078.734762,76.609550,814.226536,9844.739029
1078.735078,-306.438199,518.144159,10140.821405
1078.735394,0.000000,148.041188,10584.944971
1078.735709,459.657299,666.185348,10436.903782
1078.736025,536.266849,1480.411884,9770.718434
1078.736341,766.095498,1554.432478,8956.491898
1078.736656,842.705048,1110.308913,9474.636058
1078.736972,1302.362347,1480.411884,9474.636058
1078.737288,689.485948,1480.411884,9474.636058
1078.737603,0.000000,1110.308913,9770.718434
1078.737919,0.000000,296.082377,9770.718434
1078.738235,0.000000,222.061783,10066.800811
1078.738550,-919.314598,148.041188,9992.780217
1078.738866,-689.485948,-0.000000,10066.800811
1078.739182,-383.047749,-148.041188,10214.842000
1078.739497,-612.876398,-74.020594,10510.924376
1078.739813,-766.095498,-222.061783,10362.883188
1078.740129,-383.047749,-444.123565,10066.800811
1078.740445,0.000000,-74.020594,10362.883188
1078.740760,383.047749,-0.000000,9918.759623
1078.741076,842.705048,592.164754,9178.553681
1078.741392,229.828649,444.123565,8734.430116
1078.741707,995.924147,592.164754,9104.533087
1078.742023,1302.362347,814.226536,8808.450710
1078.742339,842.705048,740.205942,8734.430116
1078.742654,842.705048,296.082377,9252.574275
1078.742970,919.314598,-518.144159,9696.697840
1078.743286,919.314598,-814.226536,9548.656652
1078.743601,689.485948,-518.144159,9548.656652
1078.743917,229.828649,-592.164754,9474.636058
1078.744233,1072.533697,-1184.329507,9400.615463
1078.744548,459.657299,-740.205942,9104.533087
1078.744864,306.438199,-888.247130,9474.636058
1078.745180,842.705048,-1628.453072,10288.862594
1078.745496,919.314598,-1332.370696,9474.636058
1078.745811,689.485948,-518.144159,8956.491898
1078.746127,919.314598,-1332.370696,8956.491898
1078.746443,1225.752797,-1184.329507,8512.368333
1078.746758,1608.800546,-814.226536,8512.368333
1078.747074,1149.143247,-740.205942,8882.471304
1078.747390,459.657299,-814.226536,9400.615463
1078.747705,1149.143247,-1036.288319,9178.553681
1078.748021,1072.533697,-888.247130,8882.471304
1078.748337,689.485948,-1332.370696,8956.491898
1078.748652,689.485948,-1628.453072,9400.615463
1078.748968,842.705048,-2220.617826,9252.574275
1078.749284,536.266849,-1406.391290,9400.615463
1078.749599,306.438199,-1628.453072,9622.677246
1078.749915,766.095498,-1998.556043,9696.697840
1078.750231,766.095498,-1480.411884,9474.636058
1078.750547,459.657299,-1184.329507,9474.636058
1078.750862,153.219100,-962.267725,9104.533087
1078.751178,842.705048,-814.226536,8808.450710
1078.751494,766.095498,-296.082377,8808.450710
1078.751809,306.438199,-444.123565,8956.491898
1078.752125,536.266849,-1184.329507,9104.533087
1078.752441,306.438199,-740.205942,9548.656652
1078.752756,0.000000,-888.247130,9696.697840
1078.753072,0.000000,-592.164754,9622.677246
1078.753388,-229.828649,-666.185348,9326.594869
1078.753703,-383.047749,-1036.288319,9326.594869
1078.754019,0.000000,-814.226536,9992.780217
1078.754335,0.000000,-444.123565,9474.636058
1078.754650,-153.219100,-222.061783,9770.718434
1078.754966,383.047749,-222.061783,10288.862594
1078.755282,842.705048,-0.000000,9400.615463
1078.755597,459.657299,814.226536,8882.471304
1078.755913,689.485948,962.267725,8808.450710
1078.756229,1072.533697,666.185348,9178.553681
1078.756545,995.924147,592.164754,9326.594869
1078.756860,0.000000,888.247130,9400.615463
1078.757176,76.609550,888.247130,9992.780217
1078.757492,306.438199,370.102971,10436.903782
1078.757807,0.000000,814.226536,10066.800811
1078.758123,-459.657299,1258.350101,9918.759623
1078.758439,0.000000,592.164754,9622.677246
1078.758754,229.828649,74.020594,9918.759623
1078.759070,0.000000,296.082377,9918.759623
1078.759386,0.000000,222.061783,10140.821405
1078.759701,612.876398,-0.000000,10362.883188
1078.760017,842.705048,444.123565,10288.862594
1078.760333,689.485948,1258.350101,9474.636058
1078.760648,689.485948,2294.638420,8512.368333
1078.760964,1072.533697,1406.391290,8586.388927
1078.761280,1608.800546,1480.411884,9178.553681
1078.761596,612.876398,1628.453072,9030.512492
1078.761911,153.219100,962.267725,9622.677246
1078.762227,76.609550,370.102971,10066.800811
1078.762543,-229.828649,148.041188,9844.739029
1078.762858,-306.438199,148.041188,9918.759623
1078.763174,-536.266849,-0.000000,9992.780217
1078.763490,-689.485948,-370.102971,9548.656652
1078.763805,-306.438199,-370.102971,10066.800811
1078.764121,-995.924147,-296.082377,9770.718434
1078.764437,-919.314598,-444.123565,9844.739029
1078.764752,0.000000,-74.020594,9992.780217
1078.765068,229.828649,-0.000000,9178.553681
1078.765384,153.219100,814.226536,9178.553681
1078.765699,689.485948,666.185348,8882.471304
1078.766015,1072.533697,222.061783,8956.491898
1078.766331,689.485948,-0.000000,9104.533087
1078.766647,842.705048,-0.000000,9178.553681
1078.766962,612.876398,-0.000000,9030.512492
1078.767278,536.266849,-148.041188,9548.656652
1078.767594,842.705048,-0.000000,9252.574275
1078.767909,383.047749,-0.000000,8956.491898
1078.768225,612.876398,-148.041188,9326.594869
1078.768541,842.705048,-518.144159,9178.553681
1078.768856,612.876398,-1110.308913,9252.574275
1078.769172,459.657299,-1184.329507,9992.780217
1078.769488,612.876398,-1480.411884,9918.759623
1078.769804,1072.533697,-1406.391290,9770.718434
1078.770119,1608.800546,-1036.288319,9178.553681
1078.770435,1225.752797,-888.247130,8734.430116
1078.770751,1225.752797,-1184.329507,9548.656652
1078.771067,1302.362347,-592.164754,9326.594869
1078.771382,1225.752797,-370.102971,8586.388927
1078.771698,1455.581446,-814.226536,9030.512492
1078.772014,1455.581446,-814.226536,9474.636058
1078.772330,1225.752797,-1036.288319,9474.636058
1078.772645,612.876398,-1406.391290,9400.615463
1078.772961,459.657299,-1406.391290,9326.594869
1078.773277,536.266849,-1776.494261,9844.739029
1078.773593,919.314598,-1406.391290,9400.615463
1078.773908,229.828649,-1554.432478,9548.656652
1078.774224,76.609550,-1702.473667,10066.800811
1078.774540,842.705048,-1628.453072,10807.006753
1078.774856,689.485948,-888.247130,9474.636058
1078.775171,612.876398,-0.000000,9104.533087
1078.775487,612.876398,-370.102971,8882.471304
1078.775803,919.314598,-296.082377,9030.512492
1078.776119,1072.533697,-222.061783,8882.471304
1078.776434,76.609550,-0.000000,9400.615463
1078.776750,153.219100,-592.164754,9844.739029
1078.777066,0.000000,-1036.288319,9844.739029
1078.777382,0.000000,-518.144159,9844.739029
1078.777697,-383.047749,-148.041188,9400.615463
1078.778013,0.000000,-888.247130,9696.697840
1078.778329,0.000000,-666.185348,9400.615463
1078.778645,0.000000,-370.102971,9992.780217
1078.778961,383.047749,-148.041188,9474.636058
1078.779276,229.828649,-0.000000,9326.594869
1078.779592,842.705048,-74.020594,9770.718434
1078.779908,766.095498,296.082377,9400.615463
1078.780224,612.876398,740.205942,8660.409521
1078.780539,1378.971896,888.247130,8956.491898
1078.780855,995.924147,666.185348,8882.471304
1078.781171,689.485948,888.247130,9104.533087
1078.781487,536.266849,518.144159,9178.553681
1078.781802,766.095498,296.082377,9474.636058
1078.782118,766.095498,-0.000000,10140.821405
1078.782434,229.828649,296.082377,9474.636058
1078.782750,0.000000,222.061783,9474.636058
1078.783065,306.438199,222.061783,9696.697840
1078.783381,229.828649,370.102971,9844.739029
1078.783697,-459.657299,222.061783,9474.636058
1078.784013,153.219100,148.041188,10510.924376
1078.784328,459.657299,-222.061783,9992.780217
1078.784644,229.828649,-0.000000,9844.739029
1078.784960,306.438199,740.205942,9548.656652
1078.785276,612.876398,1110.308913,9252.574275
1078.785591,995.924147,1258.350101,8808.450710
1078.785907,459.657299,1702.473667,8808.450710
1078.786223,0.000000,1258.350101,8956.491898
1078.786539,0.000000,592.164754,9548.656652
1078.786854,-306.438199,-0.000000,10584.944971
1078.787170,-536.266849,-296.082377,9696.697840
1078.787486,-995.924147,-222.061783,10510.924376
1078.787802,-306.438199,-0.000000,9548.656652
1078.788117,-306.438199,296.082377,9548.656652
1078.788433,-383.047749,148.041188,9548.656652
1078.788749,-689.485948,222.061783,9770.718434
1078.789065,-459.657299,148.041188,9770.718434
1078.789381,0.000000,296.082377,10214.842000
1078.789696,383.047749,444.123565,9622.677246
1078.790012,0.000000,518.144159,8734.430116
1078.790328,536.266849,-74.020594,9474.636058
1078.790644,612.876398,-74.020594,9326.594869
1078.790959,536.266849,592.164754,9474.636058
1078.791275,459.657299,222.061783,9104.533087
1078.791591,689.485948,-370.102971,9770.718434
1078.791907,306.438199,-148.041188,9770.718434
1078.792222,612.876398,-0.000000,9474.636058
1078.792538,995.924147,-148.041188,9474.636058
1078.792854,995.924147,-444.123565,9326.594869
1078.793170,1072.533697,-296.082377,9104.533087
1078.793485,1225.752797,-592.164754,9400.615463
1078.793801,766.095498,-1110.308913,9622.677246
1078.794117,1378.971896,-666.185348,10140.821405
1078.794433,1378.971896,-592.164754,9400.615463
1078.794748,2068.457845,-148.041188,9178.553681
1078.795064,1532.190996,-740.205942,8956.491898
1078.795380,1608.800546,-888.247130,8956.491898
1078.795696,1072.533697,-444.123565,9030.512492
1078.796011,689.485948,-518.144159,9252.574275
1078.796327,842.705048,-1258.350101,9548.656652
1078.796643,766.095498,-1554.432478,9992.780217
1078.796959,536.266849,-962.267725,9474.636058
1078.797274,459.657299,-1628.453072,9548.656652
1078.797590,383.047749,-1480.411884,9474.636058
1078.797906,0.000000,-1702.473667,9622.677246
1078.798222,76.609550,-1406.391290,9474.636058
1078.798537,76.609550,-1184.329507,9770.718434
1078.798853,536.266849,-1554.432478,9696.697840
1078.799169,919.314598,-1036.288319,9548.656652
1078.799485,919.314598,-222.061783,8808.450710
1078.799800,842.705048,-0.000000,8290.306550
1078.800116,1149.143247,-592.164754,8734.430116
1078.800432,919.314598,-592.164754,8734.430116
1078.800748,229.828649,-666.185348,9178.553681
1078.801064,-229.828649,-1480.411884,9696.697840
1078.801379,0.000000,-1036.288319,9696.697840
1078.801695,-229.828649,-740.205942,9770.718434
1078.802011,-383.047749,-518.144159,9252.574275
1078.802327,-459.657299,-814.226536,9326.594869
1078.802642,-229.828649,-1036.288319,9400.615463
1078.802958,-306.438199,-666.185348,9400.615463
1078.803274,-306.438199,-296.082377,9770.718434
1078.803590,76.609550,-592.164754,9474.636058
1078.803905,536.266849,-148.041188,9622.677246
1078.804221,689.485948,296.082377,9178.553681
1078.804537,689.485948,592.164754,8438.347739
1078.804853,842.705048,518.144159,8586.388927
1078.805168,1149.143247,518.144159,8882.471304
1078.805484,1225.752797,1258.350101,9104.533087
1078.805800,0.000000,1110.308913,9252.574275
1078.806116,459.657299,518.144159,9844.739029
1078.806431,842.705048,444.123565,9548.656652
1078.806747,306.438199,444.123565,9548.656652
1078.807063,-229.828649,-0.000000,9622.677246
1078.807379,306.438199,-222.061783,9548.656652
1078.807694,229.828649,-74.020594,9622.677246
1078.808010,-153.219100,-0.000000,9918.759623
1078.808326,0.000000,-0.000000,10214.842000
1078.808642,612.876398,-0.000000,10288.862594
1078.808957,76.609550,592.164754,9622.677246
1078.809273,306.438199,1406.391290,9252.574275
1078.809589,536.266849,444.123565,9252.574275
1078.809905,842.705048,740.205942,9104.533087
1078.810220,612.876398,518.144159,9548.656652
1078.810536,229.828649,1036.288319,9104.533087
1078.810852,0.000000,444.123565,9918.759623
1078.811168,0.000000,148.041188,10214.842000
1078.811484,-306.438199,370.102971,10214.842000
1078.811799,-383.047749,444.123565,9844.739029
1078.812115,-229.828649,148.041188,9474.636058
1078.812431,76.609550,-222.061783,9992.780217
1078.812747,383.047749,148.041188,9770.718434
1078.813062,0.000000,-0.000000,9548.656652
1078.813378,0.000000,-0.000000,10214.842000
1078.813694,612.876398,-222.061783,10436.903782
1078.814010,842.705048,592.164754,9326.594869
1078.814325,383.047749,814.226536,8660.409521
1078.814641,766.095498,-0.000000,9400.615463
1078.814957,1302.362347,-0.000000,9474.636058
1078.815273,766.095498,518.144159,8956.491898
1078.815588,536.266849,370.102971,9326.594869
1078.815904,842.705048,-370.102971,9844.739029
1078.816220,536.266849,-740.205942,9696.697840
1078.816536,229.828649,-148.041188,9474.636058
1078.816851,229.828649,-296.082377,9400.615463
1078.817167,612.876398,-740.205942,9400.615463
1078.817483,689.485948,-814.226536,9474.636058
1078.817799,766.095498,-814.226536,9474.636058
1078.818114,842.705048,-1184.329507,9992.780217
1078.818430,1149.143247,-1184.329507,10066.800811
1078.818746,1072.533697,-666.185348,9326.594869
1078.819062,1072.533697,-148.041188,8660.409521
1078.819377,1455.581446,-444.123565,8216.285956
1078.819693,1608.800546,-444.123565,8364.327145
1078.820009,1455.581446,-444.123565,8808.450710
1078.820325,995.924147,-666.185348,8882.471304
1078.820640,229.828649,-1332.370696,9770.718434
1078.820956,459.657299,-1628.453072,9622.677246
1078.821272,306.438199,-1332.370696,9548.656652
1078.821588,-306.438199,-1332.370696,9252.574275
1078.821903,229.828649,-1480.411884,9622.677246
1078.822219,766.095498,-1776.494261,9474.636058
1078.822535,76.609550,-1776.494261,9326.594869
1078.822851,0.000000,-1406.391290,9622.677246
1078.823167,536.266849,-1554.432478,9696.697840
1078.823482,919.314598,-1258.350101,9622.677246
1078.823798,919.314598,-296.082377,9030.512492
1078.824114,536.266849,-592.164754,8734.430116
1078.824430,1225.752797,-370.102971,8586.388927
1078.824745,842.705048,-296.082377,8438.347739
1078.825061,383.047749,-370.102971,8808.450710
1078.825377,76.609550,-518.144159,9696.697840
1078.825693,0.000000,-1036.288319,10140.821405
1078.826008,306.438199,-592.164754,9918.759623
1078.826324,-229.828649,-518.144159,9474.636058
1078.826640,0.000000,-1036.288319,9770.718434
1078.826956,0.000000,-888.247130,9548.656652
1078.827271,76.609550,-814.226536,9622.677246
1078.827587,-306.438199,-518.144159,10214.842000
1078.827903,76.609550,-222.061783,10214.842000
1078.828219,995.924147,-74.020594,9992.780217
1078.828534,1072.533697,666.185348,8808.450710
1078.828850,612.876398,1184.329507,8882.471304
1078.829166,919.314598,962.267725,8808.450710
1078.829482,1455.581446,1110.308913,8956.491898
1078.829797,1532.190996,1258.350101,8660.409521
1078.830113,689.485948,1258.350101,9178.553681
1078.830429,919.314598,814.226536,9474.636058
1078.830745,689.485948,370.102971,10066.800811
1078.831060,229.828649,444.123565,10436.903782
1078.831376,0.000000,740.205942,9918.759623
1078.831692,0.000000,296.082377,9770.718434
1078.832008,306.438199,-0.000000,10066.800811
1078.832323,0.000000,148.041188,10066.800811
1078.832639,76.609550,74.020594,10436.903782
1078.832955,229.828649,-0.000000,10140.821405
1078.833271,459.657299,222.061783,10140.821405
1078.833587,842.705048,888.247130,9548.656652
1078.833902,842.705048,1184.329507,9104.533087
1078.834218,842.705048,1184.329507,8808.450710
1078.834534,1455.581446,888.247130,9030.512492
1078.834850,153.219100,518.144159,9252.574275
1078.835165,-229.828649,370.102971,9696.697840
1078.835481,0.000000,-222.061783,10288.862594
1078.835797,-76.609550,-222.061783,9918.759623
1078.836113,-766.095498,-0.000000,9474.636058
1078.836428,-459.657299,-444.123565,9548.656652
1078.836744,0.000000,-888.247130,9992.780217
1078.837060,-459.657299,-1036.288319,9844.739029
1078.837376,-383.047749,-370.102971,9400.615463
1078.837691,-459.657299,-592.164754,10140.821405
1078.838007,-306.438199,-888.247130,9992.780217
1078.838323,459.657299,-0.000000,9474.636058
1078.838639,383.047749,370.102971,8956.491898
1078.838954,689.485948,518.144159,8734.430116
1078.839270,842.705048,518.144159,8882.471304
1078.839586,536.266849,518.144159,8364.327145
1078.839902,0.000000,148.041188,9104.533087
1078.840217,229.828649,-296.082377,10140.821405
1078.840533,153.219100,-296.082377,9622.677246
1078.840849,0.000000,-370.102971,9400.615463
1078.841165,0.000000,-666.185348,9400.615463
1078.841480,459.657299,-814.226536,9548.656652
1078.841796,689.485948,-666.185348,9104.533087
1078.842112,383.047749,-518.144159,9474.636058
1078.842428,766.095498,-444.123565,9696.697840
1078.842743,919.314598,-444.123565,9548.656652
1078.843059,1302.362347,-148.041188,9400.615463
1078.843375,995.924147,-0.000000,9104.533087
1078.843691,1072.533697,-148.041188,8660.409521
1078.844006,1532.190996,-592.164754,8882.471304
1078.844322,1302.362347,-592.164754,9104.533087
1078.844638,919.314598,-740.205942,9326.594869
1078.844954,459.657299,-888.247130,9326.594869
1078.845270,229.828649,-1628.453072,9622.677246
1078.845585,459.657299,-1184.329507,10510.924376
1078.845901,306.438199,-592.164754,9548.656652
1078.846217,0.000000,-666.185348,9104.533087
1078.846533,459.657299,-962.267725,9548.656652
1078.846848,689.485948,-1332.370696,9474.636058
1078.847164,306.438199,-1406.391290,9770.718434
1078.847480,536.266849,-1554.432478,9992.780217
1078.847796,689.485948,-1406.391290,10066.800811
1078.848111,612.876398,-592.164754,9326.594869
1078.848427,612.876398,-148.041188,9400.615463
1078.848743,995.924147,-0.000000,9104.533087
1078.849059,689.485948,222.061783,8882.471304
1078.849374,383.047749,370.102971,8882.471304
1078.849690,0.000000,-74.020594,9104.533087
1078.850006,306.438199,-1480.411884,9622.677246
1078.850322,306.438199,-962.267725,9770.718434
1078.850637,-306.438199,-814.226536,9696.697840
1078.850953,-459.657299,-962.267725,9474.636058
1078.851269,-229.828649,-1110.308913,9548.656652
1078.851585,0.000000,-962.267725,9918.759623
1078.851900,76.609550,-296.082377,9696.697840
1078.852216,76.609550,-74.020594,9548.656652
1078.852532,689.485948,-0.000000,9622.677246
1078.852848,842.705048,296.082377,9326.594869
1078.853163,1072.533697,962.267725,8882.471304
1078.853479,1378.971896,1036.288319,8068.244768
1078.853795,919.314598,666.185348,8216.285956
1078.854111,536.266849,814.226536,9178.553681
1078.854426,76.609550,592.164754,9326.594869
1078.854742,0.000000,-148.041188,9992.780217
1078.855058,0.000000,-0.000000,10362.883188
1078.855374,0.000000,222.061783,10436.903782
1078.855690,-306.438199,444.123565,9622.677246
1078.856005,919.314598,222.061783,9918.759623
1078.856321,919.314598,-0.000000,9474.636058
1078.856637,229.828649,296.082377,9844.739029
1078.856953,459.657299,518.144159,9474.636058
1078.857268,766.095498,-0.000000,9474.636058
1078.857584,842.705048,296.082377,9992.780217
1078.857900,612.876398,592.164754,9178.553681
1078.858216,536.266849,888.247130,9178.553681
1078.858531,1072.533697,962.267725,9326.594869
1078.858847,383.047749,666.185348,8882.471304
1078.859163,0.000000,814.226536,9400.615463
1078.859479,-383.047749,444.123565,10510.924376
1078.859794,0.000000,-222.061783,10066.800811
1078.860110,-229.828649,-0.000000,10214.842000
1078.860426,-919.314598,-296.082377,9918.759623
1078.860742,-1149.143247,-1110.308913,10436.903782
1078.861057,-306.438199,-1110.308913,10214.842000
1078.861373,-306.438199,-296.082377,9844.739029
1078.861689,-459.657299,-222.061783,9770.718434
1078.862005,-229.828649,-444.123565,9918.759623
1078.862320,612.876398,-0.000000,9696.697840
1078.862636,1072.533697,518.144159,9326.594869
1078.862952,766.095498,518.144159,8586.388927
1078.863268,1455.581446,666.185348,8660.409521
1078.863583,1302.362347,296.082377,8660.409521
1078.863899,1149.143247,-74.020594,9030.512492
1078.864215,612.876398,370.102971,9104.533087
1078.864531,383.047749,-0.000000,9622.677246
1078.864846,76.609550,-74.020594,9548.656652
1078.865162,-612.876398,-0.000000,9696.697840
1078.865478,0.000000,-666.185348,9252.574275
1078.865794,-153.219100,-962.267725,10140.821405
1078.866109,383.047749,-1332.370696,10362.883188
1078.866425,306.438199,-888.247130,9326.594869
1078.866741,383.047749,-592.164754,9696.697840
1078.867057,766.095498,-1036.288319,9918.759623
1078.867373,995.924147,-592.164754,9548.656652
1078.867688,1302.362347,296.082377,8956.491898
1078.868004,1302.362347,-0.000000,8438.347739
1078.868320,1838.629195,-74.020594,9178.553681
1078.868636,2145.067394,-148.041188,8438.347739
1078.868951,1302.362347,-0.000000,7994.224174
1078.869267,995.924147,-370.102971,9326.594869
1078.869583,842.705048,-1036.288319,9844.739029
1078.869899,1149.143247,-1036.288319,9696.697840
1078.870214,153.219100,-888.247130,9918.759623
1078.870530,0.000000,-814.226536,9770.718434
1078.870846,383.047749,-1480.411884,9622.677246
1078.871162,229.828649,-1554.432478,9696.697840
1078.871477,-306.438199,-1184.329507,10214.842000
1078.871793,0.000000,-1480.411884,10436.903782
1078.872109,306.438199,-1184.329507,9844.739029
1078.872425,383.047749,-518.144159,9696.697840
1078.872741,766.095498,-0.000000,8956.491898
1078.873056,1378.971896,-0.000000,8438.347739
1078.873372,1149.143247,-0.000000,8734.430116
1078.873688,842.705048,-74.020594,9104.533087
1078.874004,612.876398,-74.020594,8956.491898
1078.874319,459.657299,148.041188,9622.677246
1078.874635,689.485948,-0.000000,9622.677246
1078.874951,536.266849,-222.061783,9030.512492
1078.875267,-229.828649,-296.082377,9474.636058
1078.875583,-229.828649,-814.226536,9844.739029
1078.875898,459.657299,-888.247130,9696.697840
1078.876214,0.000000,-296.082377,9474.636058
1078.876530,-306.438199,-222.061783,9918.759623
1078.876846,229.828649,-296.082377,9992.780217
1078.877162,306.438199,-0.000000,9474.636058
1078.877477,0.000000,296.082377,9400.615463
1078.877793,383.047749,222.061783,8956.491898
1078.878109,459.657299,148.041188,8882.471304
1078.878425,766.095498,814.226536,8882.471304
1078.878740,536.266849,666.185348,9030.512492
1078.879056,153.219100,296.082377,9770.718434
1078.879372,306.438199,-0.000000,10140.821405
1078.879688,306.438199,518.144159,9770.718434
1078.880004,76.609550,444.123565,9548.656652
1078.880319,306.438199,444.123565,9844.739029
1078.880635,842.705048,-0.000000,9622.677246
1078.880951,536.266849,222.061783,9400.615463
1078.881267,536.266849,222.061783,9918.759623
1078.881582,612.876398,-74.020594,9622.677246
1078.881898,689.485948,-148.041188,9474.636058
1078.882214,842.705048,666.185348,9548.656652
1078.882530,842.705048,814.226536,9104.533087
1078.882846,689.485948,518.144159,9104.533087
1078.883161,842.705048,148.041188,9548.656652
1078.883477,0.000000,370.102971,9474.636058
1078.883793,-306.438199,296.082377,9548.656652
1078.884109,0.000000,-0.000000,9918.759623
1078.884424,0.000000,-74.020594,9992.780217
1078.884740,-536.266849,-148.041188,9622.677246
1078.885056,-1302.362347,-444.123565,9770.718434
1078.885372,-689.485948,-592.164754,9844.739029
1078.885688,-689.485948,-666.185348,9696.697840
1078.886003,-766.095498,-370.102971,9844.739029
1078.886319,-919.314598,-296.082377,10288.862594
1078.886635,76.609550,-740.205942,10140.821405
1078.886951,919.314598,-0.000000,9474.636058
1078.887266,995.924147,296.082377,9400.615463
1078.887582,1225.752797,148.041188,8660.409521
1078.887898,1378.971896,666.185348,8512.368333
1078.888214,1378.971896,814.226536,8882.471304
1078.888530,919.314598,740.205942,8734.430116
1078.888845,842.705048,444.123565,9400.615463
1078.889161,842.705048,-0.000000,9548.656652
1078.889477,76.609550,-1036.288319,9474.636058
1078.889793,153.219100,-740.205942,9474.636058
1078.890108,306.438199,-1110.308913,9770.718434
1078.890424,689.485948,-1036.288319,9400.615463
1078.890740,536.266849,-962.267725,9474.636058
1078.891056,306.438199,-1332.370696,9844.739029
1078.891372,306.438199,-1850.514855,10510.924376
1078.891687,842.705048,-1332.370696,9770.718434
1078.892003,766.095498,-296.082377,9104.533087
1078.892319,1072.533697,-148.041188,9104.533087
1078.892635,1991.848295,-370.102971,8956.491898
1078.892951,1991.848295,-0.000000,8512.368333
1078.893266,1608.800546,-0.000000,8956.491898
1078.893582,1149.143247,-148.041188,8734.430116
1078.893898,995.924147,-592.164754,9252.574275
1078.894214,536.266849,-1110.308913,9622.677246
1078.894529,536.266849,-1036.288319,9992.780217
1078.894845,153.219100,-1036.288319,9844.739029
1078.895161,306.438199,-1628.453072,10288.862594
1078.895477,76.609550,-1332.370696,9844.739029
1078.895793,0.000000,-1036.288319,9918.759623
1078.896108,229.828649,-1258.350101,10214.842000
1078.896424,766.095498,-814.226536,10362.883188
1078.896740,766.095498,-222.061783,9474.636058
1078.897056,842.705048,-370.102971,8290.306550
1078.897371,766.095498,-222.061783,8512.368333
1078.897687,536.266849,-518.144159,9030.512492
1078.898003,459.657299,-0.000000,9104.533087
1078.898319,76.609550,-0.000000,9030.512492
1078.898635,-459.657299,-222.061783,9770.718434
1078.898950,229.828649,-518.144159,9696.697840
1078.899266,0.000000,-370.102971,9548.656652
1078.899582,-383.047749,-518.144159,9696.697840
1078.899898,-76.609550,-962.267725,9474.636058
1078.900213,0.000000,-814.226536,9548.656652
1078.900529,229.828649,-0.000000,9474.636058
1078.900845,153.219100,-222.061783,9474.636058
1078.901161,459.657299,-296.082377,9400.615463
1078.901477,612.876398,-74.020594,9400.615463
1078.901792,459.657299,444.123565,9326.594869
1078.902108,689.485948,740.205942,8734.430116
1078.902424,995.924147,888.247130,8364.327145
1078.902740,1149.143247,740.205942,8660.409521
1078.903055,383.047749,888.247130,8586.388927
1078.903371,229.828649,148.041188,9178.553681
1078.903687,0.000000,-0.000000,10140.821405
1078.904003,76.609550,296.082377,9548.656652
1078.904319,-306.438199,370.102971,9548.656652
1078.904634,-459.657299,444.123565,9770.718434
1078.904950,-153.219100,-370.102971,10066.800811
1078.905266,0.000000,-0.000000,9622.677246
1078.905582,-153.219100,370.102971,9548.656652
1078.905897,0.000000,-0.000000,10362.883188
1078.906213,1149.143247,296.082377,10658.965565
1078.906529,1225.752797,962.267725,9696.697840
1078.906845,1072.533697,1554.432478,8956.491898
1078.907161,1072.533697,1332.370696,8660.409521
1078.907476,1378.971896,1406.391290,8364.327145
1078.907792,1149.143247,1480.411884,8882.471304
1078.908108,612.876398,666.185348,8956.491898
1078.908424,-153.219100,-148.041188,10066.800811
1078.908740,0.000000,-444.123565,10658.965565
1078.909055,-766.095498,-444.123565,10140.821405
1078.909371,-842.705048,-740.205942,9992.780217
1078.909687,-766.095498,-1036.288319,10066.800811
1078.910003,-766.095498,-740.205942,10510.924376
1078.910318,-842.705048,-444.123565,10066.800811
1078.910634,-689.485948,-74.020594,9548.656652
1078.910950,-229.828649,-1036.288319,9992.780217
1078.911266,536.266849,-296.082377,9992.780217
1078.911582,842.705048,-0.000000,8956.491898
1078.911897,766.095498,518.144159,8512.368333
1078.912213,1378.971896,296.082377,9104.533087
1078.912529,1378.971896,296.082377,9178.553681
1078.912845,919.314598,370.102971,8660.409521
1078.913160,612.876398,-0.000000,9474.636058
1078.913476,766.095498,-592.164754,9622.677246
1078.913792,1149.143247,-518.144159,9474.636058
1078.914108,306.438199,-148.041188,9474.636058
1078.914424,153.219100,-962.267725,9770.718434
1078.914739,612.876398,-1110.308913,10288.862594
1078.915055,306.438199,-1036.288319,9474.636058
1078.915371,-153.219100,-1036.288319,9844.739029
1078.915687,766.095498,-1628.453072,10140.821405
1078.916002,1225.752797,-1628.453072,9992.780217
1078.916318,1685.410096,-518.144159,9400.615463
1078.916634,1378.971896,-222.061783,8586.388927
1078.916950,1608.800546,-0.000000,8364.327145
1078.917266,1762.019645,-74.020594,8660.409521
1078.917581,1532.190996,-0.000000,8438.347739
1078.917897,1072.533697,-74.020594,8956.491898
1078.918213,306.438199,-1184.329507,9252.574275
1078.918529,383.047749,-1110.308913,9548.656652
1078.918844,229.828649,-1480.411884,9918.759623
1078.919160,-153.219100,-1554.432478,9548.656652
1078.919476,0.000000,-1332.370696,9844.739029
1078.919792,229.828649,-1924.535449,9548.656652
1078.920108,383.047749,-962.267725,9474.636058
1078.920423,306.438199,-1036.288319,9548.656652
1078.920739,536.266849,-1258.350101,9844.739029
1078.921055,919.314598,-1036.288319,9844.739029
1078.921371,995.924147,-518.144159,8956.491898
1078.921687,842.705048,-0.000000,8586.388927
1078.922002,1225.752797,-0.000000,8438.347739
1078.922318,1149.143247,-0.000000,8216.285956
1078.922634,383.047749,-0.000000,8364.327145
1078.922950,-153.219100,-592.164754,9178.553681
1078.923265,-153.219100,-1036.288319,10140.821405
1078.923581,-459.657299,-1110.308913,10140.821405
1078.923897,-919.314598,-740.205942,9696.697840
1078.924213,-842.705048,-1184.329507,9770.718434
1078.924529,-229.828649,-1480.411884,9918.759623
1078.924844,-536.266849,-962.267725,9770.718434
1078.925160,-536.266849,-666.185348,9918.759623
1078.925476,0.000000,-296.082377,9918.759623
1078.925792,689.485948,666.185348,9326.594869
1078.926107,1225.752797,592.164754,8512.368333
1078.926423,995.924147,962.267725,8364.327145
1078.926739,1378.971896,1258.350101,8882.471304
1078.927055,1455.581446,1332.370696,8512.368333
1078.927371,1072.533697,1628.453072,8438.347739
1078.927686,459.657299,1480.411884,9474.636058
1078.928002,459.657299,666.185348,9918.759623
1078.928318,0.000000,666.185348,9696.697840
1078.928634,0.000000,814.226536,9622.677246
1078.928949,-612.876398,518.144159,10510.924376
1078.929265,-689.485948,-296.082377,10140.821405
1078.929581,0.000000,-74.020594,10362.883188
1078.929897,-612.876398,296.082377,10140.821405
1078.930213,-306.438199,296.082377,10436.903782
1078.930528,919.314598,74.020594,10362.883188
1078.930844,842.705048,592.164754,9992.780217
1078.931160,766.095498,1406.391290,9474.636058
1078.931476,995.924147,1406.391290,9178.553681
1078.931791,1302.362347,1702.473667,8512.368333
1078.932107,1455.581446,1406.391290,8956.491898
1078.932423,766.095498,1332.370696,9252.574275
1078.932739,153.219100,666.185348,9474.636058
1078.933055,153.219100,370.102971,9622.677246
1078.933370,0.000000,148.041188,10066.800811
1078.933686,-383.047749,-296.082377,10140.821405
1078.934002,-612.876398,-666.185348,10510.924376
1078.934318,-536.266849,-1332.370696,10436.903782
1078.934633,-459.657299,-1036.288319,9992.780217
1078.934949,-689.485948,-814.226536,10066.800811
1078.935265,-229.828649,-1258.350101,9918.759623
1078.935581,76.609550,-592.164754,10510.924376
1078.935897,459.657299,-74.020594,9622.677246
1078.936212,383.047749,296.082377,8956.491898
1078.936528,842.705048,296.082377,8734.430116
1078.936844,1455.581446,-0.000000,8364.327145
1078.937160,995.924147,296.082377,8142.265362
1078.937476,766.095498,-0.000000,9252.574275
1078.937791,459.657299,-444.123565,9548.656652
1078.938107,1072.533697,-592.164754,9548.656652
1078.938423,536.266849,-518.144159,9178.553681
1078.938739,536.266849,-740.205942,9252.574275
1078.939054,383.047749,-1554.432478,9474.636058
1078.939370,689.485948,-1628.453072,9326.594869
1078.939686,536.266849,-1110.308913,9474.636058
1078.940002,689.485948,-1554.432478,10140.821405
1078.940318,1149.143247,-1924.535449,9696.697840
1078.940633,1225.752797,-740.205942,9104.533087
1078.940949,1149.143247,-370.102971,8956.491898
1078.941265,1685.410096,-296.082377,8364.327145
1078.941581,1685.410096,-296.082377,8882.471304
1078.941896,1455.581446,-296.082377,8512.368333
1078.942212,1225.752797,-0.000000,8808.450710
1078.942528,1072.533697,-814.226536,9474.636058
1078.942844,1225.752797,-1332.370696,9252.574275
1078.943160,459.657299,-962.267725,9844.739029
1078.943475,229.828649,-1258.350101,9918.759623
1078.943791,306.438199,-1554.432478,9770.718434
1078.944107,383.047749,-1702.473667,9548.656652
1078.944423,0.000000,-2146.597232,9844.739029
1078.944738,0.000000,-1776.494261,10436.903782
1078.945054,536.266849,-1628.453072,9548.656652
1078.945370,612.876398,-888.247130,9992.780217
1078.945686,995.924147,-74.020594,9474.636058
1078.946002,919.314598,-148.041188,8438.347739
1078.946317,1225.752797,222.061783,8364.327145
1078.946633,995.924147,-370.102971,8882.471304
1078.946949,612.876398,-666.185348,8956.491898
1078.947265,76.609550,-592.164754,9252.574275
1078.947580,229.828649,-1036.288319,9992.780217
1078.947896,0.000000,-888.247130,10140.821405
1078.948212,0.000000,-888.247130,9474.636058
1078.948528,-306.438199,-296.082377,9400.615463
1078.948844,-536.266849,-592.164754,9770.718434
1078.949159,0.000000,-962.267725,9474.636058
1078.949475,-153.219100,-444.123565,9326.594869
1078.949791,-383.047749,-444.123565,9918.759623
1078.950107,306.438199,-740.205942,9770.718434
1078.950422,919.314598,444.123565,9400.615463
1078.950738,919.314598,962.267725,9252.574275
1078.951054,1149.143247,1184.329507,8734.430116
1078.951370,1302.362347,1184.329507,8512.368333
1078.951686,1378.971896,1332.370696,8438.347739
1078.952001,842.705048,1110.308913,9474.636058
1078.952317,229.828649,1554.432478,9474.636058
1078.952633,689.485948,370.102971,9696.697840
1078.952949,689.485948,888.247130,10362.883188
1078.953265,-229.828649,814.226536,9548.656652
1078.953580,0.000000,-0.000000,9696.697840
1078.953896,459.657299,-0.000000,10140.821405
1078.954212,-383.047749,-0.000000,9992.780217
1078.954528,0.000000,666.185348,10362.883188
1078.954843,0.000000,518.144159,9918.759623
1078.955159,76.609550,592.164754,10362.883188
1078.955475,459.657299,1036.288319,9770.718434
1078.955791,459.657299,1184.329507,8956.491898
1078.956107,689.485948,1332.370696,9030.512492
1078.956422,536.266849,888.247130,9696.697840
1078.956738,229.828649,888.247130,9474.636058
1078.957054,0.000000,518.144159,9622.677246
1078.957370,0.000000,296.082377,9992.780217
1078.957685,-459.657299,-74.020594,10140.821405
1078.958001,-689.485948,-296.082377,10066.800811
1078.958317,-995.924147,-222.061783,9622.677246
1078.958633,-842.705048,-0.000000,9992.780217
1078.958949,-383.047749,-444.123565,10214.842000
1078.959264,-536.266849,-1036.288319,10140.821405
1078.959580,-689.485948,-370.102971,9844.739029
1078.959896,0.000000,-444.123565,9918.759623
1078.960212,766.095498,-296.082377,9622.677246
1078.960527,459.657299,148.041188,9326.594869
1078.960843,229.828649,-0.000000,8660.409521
1078.961159,612.876398,-148.041188,8660.409521
1078.961475,459.657299,592.164754,9030.512492
1078.961791,229.828649,740.205942,9178.553681
1078.962106,459.657299,222.061783,9474.636058
1078.962422,612.876398,-74.020594,9178.553681
1078.962738,153.219100,-148.041188,9252.574275
1078.963054,306.438199,-666.185348,9474.636058
1078.963369,536.266849,-1036.288319,9474.636058
1078.963685,689.485948,-1110.308913,9326.594869
1078.964001,229.828649,-1184.329507,9326.594869
1078.964317,842.705048,-814.226536,9474.636058
1078.964633,995.924147,-1036.288319,9770.718434
1078.964948,1225.752797,-814.226536,9622.677246
1078.965264,1149.143247,-444.123565,8956.491898
1078.965580,1608.800546,-518.144159,8956.491898
1078.965896,1991.848295,-222.061783,8512.368333
1078.966212,2221.676944,-222.061783,8438.347739
1078.966527,1838.629195,-370.102971,8734.430116
1078.966843,1455.581446,-444.123565,9548.656652
1078.967159,919.314598,-1184.329507,9844.739029
1078.967475,1225.752797,-1184.329507,9548.656652
1078.967790,536.266849,-962.267725,9548.656652
1078.968106,229.828649,-1184.329507,9548.656652
1078.968422,536.266849,-1776.494261,9770.718434
1078.968738,536.266849,-1776.494261,10140.821405
1078.969054,153.219100,-1702.473667,9844.739029
1078.969369,383.047749,-1776.494261,10214.842000
1078.969685,842.705048,-1406.391290,9622.677246
1078.970001,995.924147,-1258.350101,9548.656652
1078.970317,1072.533697,-518.144159,9030.512492
1078.970632,1225.752797,-518.144159,8512.368333
1078.970948,1378.971896,-740.205942,8956.491898
1078.971264,1302.362347,-74.020594,8512.368333
1078.971580,459.657299,-296.082377,8956.491898
1078.971896,689.485948,-1110.308913,9474.636058
1078.972211,229.828649,-518.144159,9400.615463
1078.972527,-229.828649,-222.061783,8808.450710
1078.972843,-306.438199,-592.164754,9400.615463
1078.973159,-459.657299,-888.247130,9474.636058
1078.973474,0.000000,-1258.350101,9326.594869
1078.973790,-536.266849,-888.247130,9622.677246
1078.974106,-612.876398,-814.226536,9918.759623
1078.974422,-383.047749,-1258.350101,9992.780217
1078.974737,76.609550,-222.061783,9622.677246
1078.975053,306.438199,592.164754,9400.615463
1078.975369,459.657299,888.247130,8956.491898
1078.975685,766.095498,1406.391290,8438.347739
1078.976001,919.314598,1628.453072,8438.347739
1078.976316,919.314598,1406.391290,8808.450710
1078.976632,766.095498,1258.350101,9252.574275
1078.976948,612.876398,888.247130,9622.677246
1078.977264,383.047749,814.226536,9474.636058
1078.977579,0.000000,1184.329507,9622.677246
1078.977895,-153.219100,592.164754,9474.636058
1078.978211,306.438199,444.123565,10066.800811
1078.978527,-229.828649,74.020594,10214.842000
1078.978842,-459.657299,-0.000000,10140.821405
1078.979158,-612.876398,-0.000000,10362.883188
1078.979474,306.438199,-74.020594,10436.903782
1078.979790,1072.533697,444.123565,10140.821405
1078.980106,306.438199,814.226536,9474.636058
1078.980421,689.485948,1036.288319,9030.512492
1078.980737,766.095498,518.144159,9326.594869
1078.981053,383.047749,888.247130,9474.636058
1078.981369,76.609550,666.185348,9622.677246
1078.981684,536.266849,296.082377,9770.718434
1078.982000,383.047749,222.061783,9918.759623
1078.982316,0.000000,74.020594,9770.718434
1078.982632,0.000000,-222.061783,9918.759623
1078.982947,153.219100,-148.041188,10140.821405
1078.983263,459.657299,-222.061783,10140.821405
1078.983579,229.828649,-74.020594,9474.636058
1078.983895,229.828649,-74.020594,9770.718434
1078.984211,306.438199,-296.082377,9992.780217
1078.984526,842.705048,-222.061783,9844.739029
1078.984842,383.047749,-0.000000,9252.574275
1078.985158,306.438199,-0.000000,9992.780217
1078.985474,689.485948,148.041188,9326.594869
1078.985789,842.705048,666.185348,8290.306550
1078.986105,306.438199,814.226536,8882.471304
1078.986421,459.657299,-0.000000,9474.636058
1078.986737,306.438199,-222.061783,9844.739029
1078.987052,229.828649,-0.000000,9474.636058
1078.987368,76.609550,-444.123565,9696.697840
1078.987684,153.219100,-1036.288319,9622.677246
1078.988000,229.828649,-814.226536,9844.739029
1078.988316,459.657299,-962.267725,9548.656652
1078.988631,153.219100,-1036.288319,9844.739029
1078.988947,919.314598,-1036.288319,9770.718434
1078.989263,1302.362347,-814.226536,9696.697840
1078.989579,1455.581446,-296.082377,9326.594869
1078.989894,1991.848295,-148.041188,8586.388927
1078.990210,1915.238745,-592.164754,8808.450710
1078.990526,2374.896044,-888.247130,8586.388927
1078.990842,1455.581446,-444.123565,8808.450710
1078.991157,995.924147,-814.226536,9178.553681
1078.991473,766.095498,-1184.329507,9400.615463
1078.991789,383.047749,-1332.370696,9474.636058
1078.992105,306.438199,-1184.329507,9622.677246
1078.992421,0.000000,-1554.432478,9252.574275
1078.992736,0.000000,-2368.659014,9992.780217
1078.993052,-153.219100,-2072.576638,9770.718434
1078.993368,0.000000,-1924.535449,9548.656652
1078.993684,-76.609550,-1702.473667,10066.800811
1078.993999,229.828649,-1702.473667,9918.759623
1078.994315,383.047749,-1332.370696,9548.656652
1078.994631,689.485948,-148.041188,8438.347739
1078.994947,995.924147,-74.020594,7920.203579
1078.995262,1608.800546,-0.000000,8512.368333
1078.995578,1072.533697,-74.020594,8438.347739
1078.995894,995.924147,-222.061783,8586.388927
1078.996210,536.266849,-666.185348,9252.574275
1078.996526,229.828649,-888.247130,9252.574275
1078.996841,-306.438199,-592.164754,9178.553681
1078.997157,-536.266849,-370.102971,9400.615463
1078.997473,-612.876398,-222.061783,9548.656652
1078.997789,-306.438199,-296.082377,9548.656652
1078.998104,-229.828649,-222.061783,9326.594869
1078.998420,-766.095498,-0.000000,10066.800811
1078.998736,-383.047749,-296.082377,9918.759623
1078.999052,612.876398,-518.144159,9696.697840
1078.999367,306.438199,592.164754,9474.636058
1078.999683,842.705048,888.247130,8956.491898
1078.999999,842.705048,962.267725,8956.491898
1079.000315,919.314598,1110.308913,9030.512492
1079.000630,612.876398,814.226536,9178.553681
1079.000946,689.485948,962.267725,9548.656652
1079.001262,612.876398,962.267725,9844.739029
1079.001578,842.705048,1184.329507,10214.842000
1079.001894,689.485948,888.247130,9548.656652
1079.002209,689.485948,592.164754,9548.656652
1079.002525,842.705048,740.205942,9696.697840
1079.002841,459.657299,148.041188,9918.759623
1079.003157,153.219100,-0.000000,10066.800811
1079.003472,153.219100,-0.000000,10436.903782
1079.003788,0.000000,-74.020594,10732.986159
1079.004104,459.657299,444.123565,10140.821405
1079.004420,229.828649,888.247130,9622.677246
1079.004735,306.438199,1184.329507,9326.594869
1079.005051,766.095498,1258.350101,9548.656652
1079.005367,306.438199,814.226536,9400.615463
1079.005683,306.438199,962.267725,9474.636058
1079.005999,383.047749,592.164754,9918.759623
1079.006314,383.047749,-0.000000,9992.780217
1079.006630,76.609550,148.041188,10288.862594
1079.006946,-612.876398,-74.020594,9548.656652
1079.007262,0.000000,-296.082377,9844.739029
1079.007577,0.000000,-0.000000,9696.697840
1079.007893,-306.438199,370.102971,9400.615463
1079.008209,-842.705048,-222.061783,9770.718434
1079.008525,0.000000,-444.123565,10436.903782
1079.008840,306.438199,-0.000000,9474.636058
1079.009156,229.828649,518.144159,8956.491898
1079.009472,689.485948,370.102971,9178.553681
1079.009788,459.657299,-0.000000,9252.574275
1079.010104,536.266849,-0.000000,8882.471304
1079.010419,0.000000,-0.000000,9400.615463
1079.010735,-229.828649,-370.102971,9770.718434
1079.011051,153.219100,-814.226536,9548.656652
1079.011367,306.438199,-222.061783,9548.656652
1079.011682,306.438199,-148.041188,9622.677246
1079.011998,995.924147,-518.144159,9178.553681
1079.012314,995.924147,-740.205942,8882.471304
1079.012630,1149.143247,-666.185348,9178.553681
1079.012945,766.095498,-814.226536,9400.615463
1079.013261,842.705048,-1036.288319,9474.636058
1079.013577,1149.143247,-1110.308913,9696.697840
1079.013893,1072.533697,-666.185348,9474.636058
1079.014209,1455.581446,-666.185348,8586.388927
1079.014524,1455.581446,-592.164754,8808.450710
1079.014840,1608.800546,-518.144159,8808.450710
1079.015156,1225.752797,-296.082377,9252.574275
1079.015472,995.924147,-814.226536,9178.553681
1079.015787,766.095498,-1554.432478,9548.656652
1079.016103,612.876398,-1332.370696,9696.697840
1079.016419,459.657299,-1332.370696,9696.697840
1079.016735,229.828649,-1776.494261,9474.636058
1079.017050,153.219100,-2220.617826,9918.759623
1079.017366,76.609550,-1924.535449,9770.718434
1079.017682,76.609550,-1480.411884,9622.677246
1079.017998,-153.219100,-1184.329507,9844.739029
1079.018314,612.876398,-1332.370696,9622.677246
1079.018629,689.485948,-814.226536,9178.553681
1079.018945,842.705048,-0.000000,8734.430116
1079.019261,612.876398,-148.041188,8586.388927
1079.019577,1072.533697,-518.144159,8882.471304
1079.019892,459.657299,-222.061783,9252.574275
1079.020208,383.047749,-0.000000,8808.450710
1079.020524,383.047749,-222.061783,9030.512492
1079.020840,0.000000,-518.144159,9696.697840
1079.021155,-153.219100,-740.205942,9622.677246
1079.021471,-306.438199,-370.102971,9400.615463
1079.021787,-306.438199,-444.123565,9326.594869
1079.022103,-383.047749,-444.123565,9992.780217
1079.022419,-383.047749,-444.123565,9918.759623
1079.022734,-459.657299,-296.082377,9918.759623
1079.023050,-153.219100,-222.061783,9918.759623
1079.023366,306.438199,-148.041188,10140.821405
1079.023682,306.438199,-0.000000,9474.636058
1079.023997,383.047749,592.164754,9104.533087
1079.024313,995.924147,592.164754,8956.491898
1079.024629,1378.971896,1110.308913,8734.430116
1079.024945,1225.752797,1480.411884,8734.430116
1079.025260,766.095498,1406.391290,9326.594869
1079.025576,766.095498,814.226536,10214.842000
1079.025892,689.485948,592.164754,9696.697840
1079.026208,536.266849,814.226536,9622.677246
1079.026524,306.438199,666.185348,9622.677246
1079.026839,383.047749,-0.000000,9622.677246
1079.027155,76.609550,-0.000000,9400.615463
1079.027471,0.000000,-0.000000,10066.800811
1079.027787,0.000000,-74.020594,10288.862594
1079.028102,383.047749,148.041188,10732.986159
1079.028418,766.095498,740.205942,9474.636058
1079.028734,689.485948,888.247130,9400.615463
1079.029050,612.876398,518.144159,9252.574275
1079.029365,842.705048,444.123565,9104.533087
1079.029681,995.924147,296.082377,9474.636058
1079.029997,383.047749,814.226536,9326.594869
1079.030313,0.000000,444.123565,9400.615463
1079.030629,0.000000,148.041188,9696.697840
1079.030944,153.219100,-0.000000,9918.759623
1079.031260,-612.876398,-0.000000,9770.718434
1079.031576,-153.219100,-148.041188,9918.759623
1079.031892,0.000000,-296.082377,9474.636058
1079.032207,-536.266849,-148.041188,9252.574275
1079.032523,-919.314598,-0.000000,9326.594869
1079.032839,-612.876398,-518.144159,10288.862594
1079.033155,0.000000,-0.000000,9770.718434
1079.033470,-459.657299,-0.000000,9474.636058
1079.033786,-306.438199,-0.000000,9178.553681
1079.034102,76.609550,-148.041188,9770.718434
1079.034418,536.266849,-0.000000,8956.491898
1079.034734,306.438199,370.102971,8956.491898
1079.035049,0.000000,370.102971,9030.512492
1079.035365,76.609550,-296.082377,9770.718434
1079.035681,536.266849,-444.123565,9918.759623
1079.035997,383.047749,-666.185348,9548.656652
1079.036312,383.047749,-222.061783,9400.615463
1079.036628,689.485948,-444.123565,9474.636058
1079.036944,1225.752797,-518.144159,8882.471304
1079.037260,1072.533697,-518.144159,9400.615463
1079.037575,1072.533697,-1036.288319,9844.739029
1079.037891,1455.581446,-1628.453072,9844.739029
1079.038207,1608.800546,-888.247130,9252.574275
1079.038523,1762.019645,-592.164754,8956.491898
1079.038839,1685.410096,-222.061783,8956.491898
1079.039154,1991.848295,-148.041188,9104.533087
1079.039470,1762.019645,-0.000000,8734.430116
1079.039786,919.314598,-666.185348,8808.450710
1079.040102,766.095498,-1036.288319,9474.636058
1079.040417,766.095498,-1332.370696,9770.718434
1079.040733,383.047749,-1480.411884,9696.697840
1079.041049,0.000000,-1406.391290,9770.718434
1079.041365,229.828649,-1628.453072,9918.759623
1079.041680,459.657299,-1628.453072,9696.697840
1079.041996,306.438199,-1332.370696,9474.636058
1079.042312,-306.438199,-1184.329507,9622.677246
1079.042628,383.047749,-1554.432478,9844.739029
1079.042944,612.876398,-1110.308913,9474.636058
1079.043259,536.266849,-814.226536,9400.615463
1079.043575,766.095498,-592.164754,9030.512492
1079.043891,689.485948,-444.123565,8364.327145
1079.044207,995.924147,-592.164754,9178.553681
1079.044522,383.047749,-296.082377,8882.471304
1079.044838,0.000000,-296.082377,9400.615463
1079.045154,383.047749,-666.185348,9918.759623
1079.045470,153.219100,-1110.308913,9770.718434
1079.045785,383.047749,-740.205942,9030.512492
1079.046101,0.000000,-962.267725,9474.636058
1079.046417,76.609550,-962.267725,9400.615463
1079.046733,229.828649,-370.102971,9548.656652
1079.047049,229.828649,-0.000000,9400.615463
1079.047364,306.438199,-0.000000,9400.615463
1079.047680,459.657299,222.061783,9474.636058
1079.047996,766.095498,148.041188,9030.512492
1079.048312,536.266849,444.123565,9030.512492
1079.048627,766.095498,-370.102971,9030.512492
1079.048943,1225.752797,74.020594,9696.697840
1079.049259,612.876398,444.123565,9178.553681
1079.049575,383.047749,814.226536,9474.636058
1079.049890,459.657299,740.205942,9474.636058
1079.050206,842.705048,666.185348,9474.636058
1079.050522,612.876398,592.164754,9696.697840
1079.050838,383.047749,518.144159,9326.594869
1079.051154,689.485948,-0.000000,9474.636058
1079.051469,842.705048,-0.000000,9770.718434
1079.051785,612.876398,222.061783,9548.656652
1079.052101,536.266849,148.041188,9474.636058
1079.052417,536.266849,444.123565,9992.780217
1079.052732,842.705048,888.247130,9770.718434
1079.053048,842.705048,1036.288319,9252.574275
1079.053364,459.657299,1036.288319,9252.574275
1079.053680,612.876398,740.205942,9326.594869
1079.053995,306.438199,666.185348,9326.594869
1079.054311,-306.438199,962.267725,9474.636058
1079.054627,-842.705048,-0.000000,9844.739029
1079.054943,-689.485948,-74.020594,10510.924376
1079.055259,-383.047749,-0.000000,9770.718434
1079.055574,-1378.971896,-74.020594,9474.636058
1079.055890,-1225.752797,-296.082377,10140.821405
1079.056206,-766.095498,-296.082377,10288.862594
1079.056522,-842.705048,-74.020594,10510.924376
1079.056837,-1149.143247,-0.000000,10066.800811
1079.057153,-766.095498,-518.144159,10140.821405
1079.057469,-153.219100,-296.082377,9918.759623
1079.057785,-153.219100,-518.144159,9474.636058
1079.058100,0.000000,-148.041188,9104.533087
1079.058416,842.705048,-0.000000,8882.471304
1079.058732,1302.362347,-0.000000,8956.491898
1079.059048,1072.533697,962.267725,8290.306550
1079.059364,229.828649,148.041188,9326.594869
1079.059679,1072.533697,-74.020594,9770.718434
1079.059995,1072.533697,-0.000000,9474.636058
1079.060311,689.485948,-0.000000,9252.574275
1079.060627,536.266849,-370.102971,9696.697840
1079.060942,689.485948,-1110.308913,9770.718434
1079.061258,1378.971896,-592.164754,8956.491898
1079.061574,919.314598,-296.082377,9104.533087
1079.061890,766.095498,-1184.329507,10066.800811
1079.062205,1302.362347,-962.267725,9548.656652
1079.062521,1149.143247,-592.164754,9474.636058
1079.062837,1532.190996,-444.123565,9474.636058
1079.063153,1378.971896,-518.144159,8808.450710
1079.063469,1532.190996,-444.123565,9104.533087
1079.063784,1685.410096,-518.144159,9178.553681
1079.064100,1991.848295,-592.164754,9104.533087
1079.064416,1378.971896,-370.102971,9178.553681
1079.064732,1762.019645,-666.185348,9474.636058
1079.065047,1225.752797,-888.247130,9474.636058
1079.065363,1378.971896,-1110.308913,9252.574275
1079.065679,842.705048,-1406.391290,9400.615463
1079.065995,919.314598,-1702.473667,9622.677246
1079.066310,536.266849,-1850.514855,9770.718434
1079.066626,229.828649,-962.267725,9622.677246
1079.066942,459.657299,-1406.391290,10066.800811
1079.067258,536.266849,-518.144159,9696.697840
1079.067574,536.266849,-0.000000,8956.491898
1079.067889,153.219100,-592.164754,8660.409521
1079.068205,536.266849,-1036.288319,9252.574275
1079.068521,383.047749,-1184.329507,9474.636058
1079.068837,0.000000,-1184.329507,9178.553681
1079.069152,-536.266849,-814.226536,9844.739029
1079.069468,-229.828649,-814.226536,10214.842000
1079.069784,0.000000,-444.123565,9548.656652
1079.070100,-306.438199,222.061783,9030.512492
1079.070415,-229.828649,-666.185348,8882.471304
1079.070731,76.609550,-666.185348,9622.677246
1079.071047,689.485948,-518.144159,9326.594869
1079.071363,76.609550,-0.000000,8956.491898
1079.071679,383.047749,-0.000000,9474.636058
1079.071994,689.485948,-0.000000,9252.574275
1079.072310,995.924147,518.144159,9474.636058
1079.072626,536.266849,1184.329507,9030.512492
1079.072942,229.828649,888.247130,8882.471304
1079.073258,842.705048,666.185348,8808.450710
1079.073574,842.705048,1036.288319,9326.594869
1079.073889,536.266849,444.123565,9474.636058
1079.074205,536.266849,518.144159,9918.759623
1079.074521,383.047749,-0.000000,9548.656652
1079.074837,306.438199,962.267725,9992.780217
1079.075153,-76.609550,740.205942,9696.697840
1079.075469,76.609550,-0.000000,9548.656652
1079.075785,229.828649,296.082377,9622.677246
1079.076100,0.000000,-0.000000,9918.759623
1079.076416,76.609550,-0.000000,9918.759623
1079.076732,459.657299,-0.000000,9844.739029
1079.077048,1072.533697,222.061783,9622.677246
1079.077364,766.095498,1110.308913,9622.677246
1079.077680,689.485948,1110.308913,9326.594869
1079.077996,842.705048,962.267725,9104.533087
1079.078312,1149.143247,888.247130,8882.471304
1079.078627,842.705048,1036.288319,8956.491898
1079.078943,0.000000,518.144159,9474.636058
1079.079259,0.000000,-444.123565,10288.862594
1079.079575,-153.219100,-518.144159,10288.862594
1079.079891,-766.095498,-296.082377,9918.759623
1079.080207,-689.485948,-148.041188,9992.780217
1079.080523,-766.095498,-592.164754,9918.759623
1079.080838,-612.876398,-222.061783,9696.697840
1079.081154,-1072.533697,-296.082377,9918.759623
1079.081470,-689.485948,-592.164754,10214.842000
1079.081786,0.000000,-518.144159,9844.739029
1079.082102,-306.438199,-148.041188,9474.636058
1079.082418,0.000000,-148.041188,9474.636058
1079.082734,76.609550,-0.000000,8956.491898
1079.083050,766.095498,-74.020594,9178.553681
1079.083365,383.047749,518.144159,9104.533087
1079.083681,306.438199,222.061783,9104.533087
1079.083997,689.485948,-296.082377,9178.553681
1079.084313,1072.533697,-0.000000,9548.656652
1079.084629,919.314598,-222.061783,9474.636058
1079.084945,995.924147,-0.000000,9104.533087
1079.085261,1072.533697,-370.102971,8882.471304
1079.085577,1149.143247,-1258.350101,9844.739029
1079.085892,1149.143247,-740.205942,9400.615463
1079.086208,612.876398,-518.144159,9622.677246
1079.086524,1072.533697,-962.267725,9918.759623
1079.086840,1225.752797,-888.247130,9400.615463
1079.087156,1455.581446,-444.123565,9252.574275
1079.087472,1378.971896,-888.247130,9252.574275
1079.087788,1762.019645,-1110.308913,8956.491898
1079.088103,1685.410096,-74.020594,8512.368333
1079.088419,1072.533697,148.041188,8660.409521
1079.088735,919.314598,-740.205942,8956.491898
1079.089051,995.924147,-814.226536,9696.697840
1079.089367,689.485948,-1184.329507,9474.636058
1079.089683,229.828649,-1628.453072,9622.677246
1079.089999,229.828649,-2146.597232,9992.780217
1079.090315,229.828649,-2442.679609,9770.718434
1079.090630,76.609550,-1702.473667,9400.615463
1079.090946,0.000000,-962.267725,10066.800811
1079.091262,76.609550,-962.267725,9622.677246
1079.091578,383.047749,-1036.288319,9696.697840
1079.091894,689.485948,-444.123565,9400.615463
1079.092210,383.047749,-518.144159,8808.450710
1079.092526,612.876398,-518.144159,8882.471304
1079.092841,766.095498,-296.082377,8660.409521
1079.093157,383.047749,-74.020594,8808.450710
1079.093473,76.609550,-518.144159,9252.574275
1079.093789,-306.438199,-444.123565,9696.697840
1079.094105,-306.438199,-222.061783,9622.677246
1079.094421,-612.876398,-518.144159,9326.594869
1079.094737,-766.095498,-296.082377,9474.636058
1079.095053,-229.828649,-740.205942,9770.718434
1079.095368,-153.219100,-592.164754,9918.759623
1079.095684,-153.219100,-444.123565,9548.656652
1079.096000,-306.438199,-148.041188,9696.697840
1079.096316,229.828649,-0.000000,9474.636058
1079.096632,459.657299,518.144159,8956.491898
1079.096948,842.705048,666.185348,9326.594869
1079.097264,1072.533697,518.144159,9178.553681
1079.097579,1532.190996,1036.288319,8956.491898
1079.097895,1302.362347,888.247130,8660.409521
1079.098211,919.314598,666.185348,8734.430116
1079.098527,766.095498,666.185348,9326.594869
1079.098843,1072.533697,222.061783,9918.759623
1079.099159,1149.143247,592.164754,9400.615463
1079.099475,459.657299,1036.288319,9104.533087
1079.099791,612.876398,-0.000000,9622.677246
1079.100106,995.924147,-74.020594,9474.636058
1079.100422,689.485948,-0.000000,9696.697840
1079.100738,0.000000,444.123565,9622.677246
1079.101054,383.047749,-0.000000,10288.862594
1079.101370,536.266849,296.082377,10436.903782
1079.101686,689.485948,740.205942,9770.718434
1079.102002,306.438199,1480.411884,8956.491898
1079.102317,306.438199,1036.288319,9326.594869
1079.102633,383.047749,592.164754,9252.574275
1079.102949,229.828649,666.185348,9770.718434
1079.103265,-612.876398,370.102971,9770.718434
1079.103581,-536.266849,-0.000000,10140.821405
1079.103897,-536.266849,148.041188,10288.862594
1079.104213,-612.876398,-0.000000,9770.718434
1079.104529,-995.924147,370.102971,9474.636058
1079.104844,-612.876398,-148.041188,9992.780217
1079.105160,-383.047749,-592.164754,9918.759623
1079.105476,-383.047749,-444.123565,9918.759623
1079.105792,-383.047749,-296.082377,10214.842000
1079.106108,-229.828649,-370.102971,10362.883188
1079.106424,229.828649,-0.000000,9918.759623
1079.106740,306.438199,222.061783,9326.594869
1079.107056,612.876398,370.102971,8882.471304
1079.107371,1149.143247,296.082377,9104.533087
1079.107687,919.314598,814.226536,8808.450710
1079.108003,459.657299,518.144159,9252.574275
1079.108319,919.314598,-0.000000,9622.677246
1079.108635,766.095498,-0.000000,9400.615463
1079.108951,842.705048,-74.020594,9474.636058
1079.109267,306.438199,-370.102971,9252.574275
1079.109582,229.828649,-1332.370696,9918.759623
1079.109898,306.438199,-1036.288319,9622.677246
1079.110214,306.438199,-1110.308913,9622.677246
1079.110530,383.047749,-888.247130,9474.636058
1079.110846,766.095498,-1036.288319,9992.780217
1079.111162,842.705048,-1036.288319,9696.697840
1079.111478,1072.533697,-592.164754,8956.491898
1079.111794,1225.752797,-222.061783,8512.368333
1079.112109,1608.800546,-518.144159,8734.430116
1079.112425,1762.019645,-74.020594,8808.450710
1079.112741,1378.971896,-222.061783,8512.368333
1079.113057,1072.533697,-518.144159,9030.512492
1079.113373,689.485948,-1184.329507,9326.594869
1079.113689,612.876398,-1258.350101,9844.739029
1079.114005,689.485948,-1332.370696,9400.615463
1079.114320,383.047749,-1480.411884,9474.636058
1079.114636,229.828649,-2072.576638,9918.759623
1079.114952,459.657299,-1480.411884,9770.718434
1079.115268,0.000000,-1184.329507,9474.636058
1079.115584,0.000000,-1332.370696,9770.718434
1079.115900,766.095498,-1184.329507,10140.821405
1079.116216,689.485948,-962.267725,9252.574275
1079.116532,306.438199,-518.144159,8882.471304
1079.116847,459.657299,-518.144159,8808.450710
1079.117163,1072.533697,-370.102971,8882.471304
1079.117479,842.705048,-0.000000,8734.430116
1079.117795,76.609550,222.061783,8956.491898
1079.118111,-153.219100,-814.226536,9548.656652
1079.118427,153.219100,-888.247130,9770.718434
1079.118743,0.000000,-740.205942,9474.636058
1079.119058,0.000000,-814.226536,9400.615463
1079.119374,306.438199,-592.164754,9622.677246
1079.119690,306.438199,-888.247130,9474.636058
1079.120006,153.219100,-148.041188,9696.697840
1079.120322,153.219100,148.041188,9548.656652
1079.120638,383.047749,296.082377,9548.656652
1079.120954,1149.143247,-0.000000,9548.656652
1079.121270,919.314598,666.185348,9474.636058
1079.121585,1072.533697,518.144159,9252.574275
1079.121901,842.705048,740.205942,8956.491898
1079.122217,1149.143247,518.144159,8808.450710
1079.122533,919.314598,296.082377,9474.636058
1079.122849,306.438199,962.267725,9770.718434
1079.123165,689.485948,444.123565,9548.656652
1079.123481,689.485948,814.226536,9992.780217
1079.123796,153.219100,814.226536,9770.718434
1079.124112,76.609550,74.020594,9696.697840
1079.124428,995.924147,-148.041188,9918.759623
1079.124744,536.266849,444.123565,9474.636058
1079.125060,383.047749,740.205942,9400.615463
1079.125376,536.266849,444.123565,9918.759623
1079.125692,689.485948,148.041188,9992.780217
1079.126008,689.485948,814.226536,9770.718434
1079.126323,612.876398,666.185348,9104.533087
1079.126639,536.266849,666.185348,9104.533087
1079.126955,459.657299,888.247130,9326.594869
1079.127271,536.266849,444.123565,9474.636058
1079.127587,229.828649,814.226536,9622.677246
1079.127903,-536.266849,740.205942,9696.697840
1079.128219,-306.438199,444.123565,9918.759623
1079.128535,-536.266849,-148.041188,9548.656652
1079.128850,-842.705048,-222.061783,10140.821405
1079.129166,-919.314598,-962.267725,10288.862594
1079.129482,-612.876398,-592.164754,9992.780217
1079.129798,-612.876398,-222.061783,10140.821405
1079.130114,-1072.533697,-592.164754,10140.821405
1079.130430,-229.828649,-444.123565,9918.759623
1079.130746,0.000000,-222.061783,9844.739029
1079.131061,459.657299,962.267725,9030.512492
1079.131377,995.924147,518.144159,8660.409521
1079.131693,689.485948,222.061783,8512.368333
1079.132009,1072.533697,296.082377,9178.553681
1079.132325,383.047749,370.102971,8364.327145
1079.132641,229.828649,518.144159,9326.594869
1079.132957,76.609550,-370.102971,9400.615463
1079.133273,229.828649,-592.164754,9696.697840
1079.133588,0.000000,-962.267725,9844.739029
1079.133904,-306.438199,-1554.432478,9770.718434
1079.134220,76.609550,-1406.391290,9992.780217
1079.134536,306.438199,-1184.329507,9252.574275
1079.134852,153.219100,-592.164754,9770.718434
1079.135168,689.485948,-666.185348,9474.636058
1079.135484,995.924147,-814.226536,9178.553681
1079.135799,1532.190996,-666.185348,9030.512492
1079.136115,1149.143247,-888.247130,8586.388927
1079.136431,1455.581446,-962.267725,8956.491898
1079.136747,1991.848295,-814.226536,9030.512492
1079.137063,1762.019645,-370.102971,8438.347739
1079.137379,1072.533697,-148.041188,9030.512492
1079.137695,995.924147,-1110.308913,9326.594869
1079.138011,1225.752797,-814.226536,9252.574275
1079.138326,536.266849,-888.247130,9400.615463
1079.138642,383.047749,-1332.370696,9622.677246
1079.138958,689.485948,-1702.473667,9918.759623
1079.139274,612.876398,-1258.350101,9770.718434
1079.139590,306.438199,-1258.350101,9474.636058
1079.139906,76.609550,-1406.391290,9844.739029
1079.140222,383.047749,-1480.411884,10140.821405
1079.140537,383.047749,-666.185348,9696.697840
1079.140853,689.485948,-222.061783,9400.615463
1079.141169,689.485948,-518.144159,9474.636058
1079.141485,1149.143247,-222.061783,9030.512492
1079.141801,842.705048,-0.000000,8734.430116
1079.142117,689.485948,-0.000000,9104.533087
1079.142433,459.657299,592.164754,9104.533087
1079.142749,766.095498,-222.061783,9474.636058
1079.143064,229.828649,-444.123565,9770.718434
1079.143380,-306.438199,-962.267725,10066.800811
1079.143696,-153.219100,-1258.350101,9696.697840
1079.144012,-229.828649,-1554.432478,9770.718434
1079.144328,0.000000,-444.123565,9918.759623
1079.144644,76.609550,-0.000000,9622.677246
1079.144960,306.438199,-0.000000,9622.677246
1079.145276,1225.752797,148.041188,9770.718434
1079.145591,766.095498,592.164754,9252.574275
1079.145907,1072.533697,518.144159,8660.409521
1079.146223,1532.190996,444.123565,9178.553681
1079.146539,1225.752797,740.205942,9030.512492
1079.146855,995.924147,592.164754,9178.553681
1079.147171,383.047749,1036.288319,9104.533087
1079.147487,536.266849,740.205942,9474.636058
1079.147802,229.828649,518.144159,9548.656652
1079.148118,0.000000,370.102971,9474.636058
1079.148434,76.609550,-0.000000,9770.718434
1079.148750,306.438199,-370.102971,10362.883188
1079.149066,153.219100,-0.000000,9992.780217
1079.149382,76.609550,666.185348,9770.718434
1079.149698,0.000000,222.061783,9474.636058
1079.150014,459.657299,222.061783,9548.656652
1079.150329,689.485948,814.226536,9622.677246
1079.150645,306.438199,888.247130,9030.512492
1079.150961,766.095498,518.144159,9474.636058
1079.151277,766.095498,518.144159,8956.491898
1079.151593,76.609550,962.267725,9252.574275
1079.151909,76.609550,592.164754,9178.553681
1079.152225,0.000000,666.185348,9326.594869
1079.152540,-229.828649,148.041188,9548.656652
1079.152856,-306.438199,-148.041188,9548.656652
1079.153172,-919.314598,-888.247130,9770.718434
1079.153488,-536.266849,-1184.329507,10362.883188
1079.153804,-536.266849,-814.226536,9770.718434
1079.154120,-766.095498,-370.102971,9992.780217
1079.154436,-536.266849,-0.000000,9770.718434
1079.154752,-306.438199,-148.041188,9992.780217
1079.155067,0.000000,222.061783,9844.739029
1079.155383,306.438199,222.061783,9252.574275
1079.155699,229.828649,370.102971,8734.430116
1079.156015,229.828649,-0.000000,9326.594869
1079.156331,995.924147,-148.041188,8882.471304
1079.156647,766.095498,296.082377,9030.512492
1079.156963,306.438199,370.102971,9326.594869
1079.157278,306.438199,-0.000000,9474.636058
1079.157594,459.657299,-148.041188,9326.594869
1079.157910,306.438199,-518.144159,9548.656652
1079.158226,76.609550,-814.226536,9696.697840
1079.158542,612.876398,-1406.391290,9992.780217
1079.158858,919.314598,-814.226536,9918.759623
1079.159174,689.485948,-888.247130,9474.636058
1079.159490,919.314598,-814.226536,9992.780217
1079.159805,1378.971896,-592.164754,9474.636058
1079.160121,1762.019645,-518.144159,9252.574275
1079.160437,1685.410096,-222.061783,8956.491898
1079.160753,2145.067394,-1036.288319,8882.471304
1079.161069,1991.848295,-444.123565,9104.533087
1079.161385,1608.800546,-148.041188,8734.430116
1079.161701,1302.362347,-0.000000,8734.430116
1079.162016,919.314598,-444.123565,9104.533087
1079.162332,995.924147,-962.267725,9548.656652
1079.162648,383.047749,-962.267725,9548.656652
1079.162964,306.438199,-962.267725,9400.615463
1079.163280,229.828649,-1332.370696,9548.656652
1079.163596,766.095498,-1850.514855,10140.821405
1079.163912,229.828649,-1554.432478,9548.656652
1079.164228,153.219100,-1184.329507,9548.656652
1079.164543,76.609550,-1406.391290,9844.739029
1079.164859,766.095498,-740.205942,9400.615463
1079.165175,459.657299,-148.041188,8586.388927
1079.165491,1378.971896,-444.123565,8882.471304
1079.165807,842.705048,-518.144159,8956.491898
1079.166123,919.314598,-296.082377,8882.471304
1079.166439,306.438199,-370.102971,8586.388927
1079.166755,-383.047749,-370.102971,9326.594869
1079.167070,0.000000,-814.226536,9918.759623
1079.167386,-383.047749,-814.226536,9474.636058
1079.167702,-536.266849,-592.164754,9474.636058
1079.168018,-383.047749,-814.226536,9696.697840
1079.168334,0.000000,-1184.329507,9696.697840
1079.168650,0.000000,-962.267725,9548.656652
1079.168966,0.000000,-592.164754,9548.656652
1079.169281,229.828649,-370.102971,9622.677246
1079.169597,766.095498,148.041188,9474.636058
1079.169913,1378.971896,444.123565,9104.533087
1079.170229,1072.533697,592.164754,8586.388927
1079.170545,1072.533697,740.205942,8808.450710
1079.170861,1378.971896,814.226536,8956.491898
1079.171177,919.314598,962.267725,9178.553681
1079.171493,306.438199,888.247130,9326.594869
1079.171808,229.828649,814.226536,9622.677246
1079.172124,306.438199,888.247130,9622.677246
1079.172440,0.000000,740.205942,9696.697840
1079.172756,-229.828649,-0.000000,9844.739029
1079.173072,0.000000,-74.020594,10214.842000
1079.173388,153.219100,-296.082377,9918.759623
1079.173704,0.000000,-74.020594,9844.739029
1079.174019,-229.828649,222.061783,10510.924376
1079.174335,459.657299,444.123565,10066.800811
1079.174651,995.924147,962.267725,9178.553681
1079.174967,995.924147,1480.411884,9104.533087
1079.175283,766.095498,1258.350101,9030.512492
1079.175599,1225.752797,666.185348,9104.533087
1079.175914,1608.800546,814.226536,9030.512492
1079.176230,383.047749,962.267725,9474.636058
1079.176546,0.000000,592.164754,9770.718434
1079.176862,-383.047749,296.082377,9992.780217
1079.177178,-689.485948,-74.020594,10140.821405
1079.177494,-1149.143247,-518.144159,10214.842000
1079.177809,-1149.143247,-888.247130,10288.862594
1079.178125,-919.314598,-1110.308913,10510.924376
1079.178441,-689.485948,-814.226536,10140.821405
1079.178757,-306.438199,-296.082377,9844.739029
1079.179073,-383.047749,-148.041188,9696.697840
1079.179389,229.828649,-222.061783,9992.780217
1079.179704,689.485948,222.061783,9252.574275
1079.180020,612.876398,370.102971,8586.388927
1079.180336,689.485948,-0.000000,9030.512492
1079.180652,1072.533697,-0.000000,8808.450710
1079.180968,995.924147,370.102971,8956.491898
1079.181284,766.095498,296.082377,8734.430116
1079.181599,1072.533697,-222.061783,8734.430116
1079.181915,842.705048,-444.123565,9696.697840
1079.182231,459.657299,-666.185348,9622.677246
1079.182547,153.219100,-1110.308913,9474.636058
1079.182863,306.438199,-1332.370696,9696.697840
1079.183179,612.876398,-1110.308913,9918.759623
1079.183494,612.876398,-888.247130,9548.656652
1079.183810,536.266849,-666.185348,9548.656652
1079.184126,1225.752797,-740.205942,9548.656652
1079.184442,1762.019645,-888.247130,9326.594869
1079.184758,1532.190996,-518.144159,8660.409521
1079.185074,1915.238745,-444.123565,9030.512492
1079.185389,2068.457845,-740.205942,8512.368333
1079.185705,1685.410096,-0.000000,8660.409521
1079.186021,1149.143247,222.061783,9104.533087
1079.186337,766.095498,-222.061783,9474.636058
1079.186653,612.876398,-740.205942,9326.594869
1079.186968,459.657299,-1184.329507,9474.636058
1079.187284,153.219100,-1332.370696,9622.677246
1079.187600,0.000000,-1998.556043,9992.780217
1079.187916,153.219100,-1776.494261,10510.924376
1079.188232,0.000000,-1110.308913,9918.759623
1079.188548,0.000000,-666.185348,9918.759623
1079.188863,229.828649,-740.205942,9548.656652
1079.189179,919.314598,-666.185348,9844.739029
1079.189495,536.266849,-518.144159,9326.594869
1079.189811,766.095498,-370.102971,9178.553681
1079.190127,842.705048,-444.123565,9326.594869
1079.190443,995.924147,-0.000000,8956.491898
1079.190758,536.266849,-0.000000,8586.388927
1079.191074,76.609550,-0.000000,8956.491898
1079.191390,0.000000,-296.082377,9622.677246
1079.191706,0.000000,-592.164754,9474.636058
1079.192022,-689.485948,-1036.288319,9918.759623
1079.192338,-766.095498,-1110.308913,10140.821405
1079.192653,-459.657299,-1776.494261,9548.656652
1079.192969,-153.219100,-814.226536,9622.677246
1079.193285,76.609550,-74.020594,9622.677246
1079.193601,0.000000,370.102971,9474.636058
1079.193917,459.657299,222.061783,9400.615463
1079.194233,995.924147,148.041188,8364.327145
1079.194548,1149.143247,666.185348,8364.327145
1079.194864,1378.971896,666.185348,8882.471304
1079.195180,1302.362347,666.185348,8882.471304
1079.195496,1455.581446,1332.370696,8808.450710
1079.195812,919.314598,1184.329507,9400.615463
1079.196128,689.485948,888.247130,9326.594869
1079.196443,153.219100,592.164754,9696.697840
1079.196759,229.828649,592.164754,9474.636058
1079.197075,-76.609550,-0.000000,9622.677246
1079.197391,229.828649,-740.205942,10288.862594
1079.197707,153.219100,-962.267725,10436.903782
1079.198023,153.219100,-444.123565,9918.759623
1079.198338,0.000000,222.061783,9622.677246
1079.198654,153.219100,370.102971,10066.800811
1079.198970,306.438199,370.102971,9918.759623
1079.199286,842.705048,1036.288319,8956.491898
1079.199602,689.485948,1332.370696,8956.491898
1079.199918,1149.143247,592.164754,9030.512492
1079.200233,919.314598,666.185348,9474.636058
1079.200549,306.438199,592.164754,9030.512492
1079.200865,-459.657299,370.102971,9696.697840
1079.201181,-459.657299,222.061783,10436.903782
1079.201497,-689.485948,592.164754,9474.636058
1079.201813,-1225.752797,74.020594,9474.636058
1079.202128,-1149.143247,-222.061783,10066.800811
1079.202444,-689.485948,-1258.350101,10066.800811
1079.202760,-536.266849,-592.164754,10436.903782
1079.203076,-689.485948,-74.020594,9770.718434
1079.203392,-459.657299,-0.000000,9844.739029
1079.203708,0.000000,-0.000000,9992.780217
1079.204023,689.485948,-0.000000,9178.553681
1079.204339,689.485948,148.041188,9104.533087
1079.204655,689.485948,-0.000000,9400.615463
1079.204971,1378.971896,-296.082377,8882.471304
1079.205287,1455.581446,222.061783,9326.594869
1079.205603,919.314598,740.205942,8956.491898
1079.205918,612.876398,888.247130,9104.533087
1079.206234,995.924147,222.061783,9474.636058
1079.206550,459.657299,-148.041188,9400.615463
1079.206866,0.000000,-740.205942,9844.739029
1079.207182,306.438199,-1184.329507,9770.718434
1079.207498,766.095498,-1406.391290,10066.800811
1079.207813,612.876398,-1036.288319,9918.759623
1079.208129,536.266849,-962.267725,9918.759623
1079.208445,1149.143247,-518.144159,9696.697840
1079.208761,1532.190996,-518.144159,9548.656652
1079.209077,1455.581446,-222.061783,8512.368333
1079.209393,1685.410096,-666.185348,9030.512492
1079.209708,1915.238745,-1184.329507,8734.430116
1079.210024,1915.238745,-740.205942,9252.574275
1079.210340,1455.581446,-0.000000,8734.430116
1079.210656,995.924147,-296.082377,8734.430116
1079.210972,1302.362347,-518.144159,8956.491898
1079.211288,766.095498,-740.205942,9326.594869
1079.211603,229.828649,-1184.329507,9622.677246
1079.211919,0.000000,-1776.494261,9548.656652
1079.212235,76.609550,-1924.535449,9918.759623
1079.212551,459.657299,-2220.617826,10214.842000
1079.212867,-229.828649,-1554.432478,9474.636058
1079.213183,76.609550,-962.267725,9548.656652
1079.213498,306.438199,-1036.288319,9622.677246
1079.213814,689.485948,-814.226536,9474.636058
1079.214130,536.266849,-592.164754,8808.450710
1079.214446,919.314598,-740.205942,8586.388927
1079.214762,995.924147,-592.164754,8882.471304
1079.215078,766.095498,-148.041188,8882.471304
1079.215393,689.485948,592.164754,8882.471304
1079.215709,76.609550,592.164754,8660.409521
1079.216025,229.828649,-0.000000,9104.533087
1079.216341,0.000000,-296.082377,9252.574275
