#time,accel_x,accel_y,accel_z
1033.889306,-842.705048,1110.308913,9326.594869
1033.889621,-1072.533697,1036.288319,9474.636058
1033.889937,0.000000,740.205942,9918.759623
1033.890253,-919.314598,888.247130,9548.656652
1033.890569,-766.095498,666.185348,9622.677246
1033.890884,-842.705048,1036.288319,9770.718434
1033.891200,-842.705048,962.267725,9622.677246
1033.891516,-536.266849,814.226536,9770.718434
1033.891831,-153.219100,1184.329507,9548.656652
1033.892147,-306.438199,1184.329507,9474.636058
1033.892463,0.000000,962.267725,9548.656652
1033.892779,-153.219100,1036.288319,9400.615463
1033.893094,-229.828649,1628.453072,9474.636058
1033.893410,0.000000,2072.576638,9400.615463
1033.893726,-306.438199,2146.597232,9474.636058
1033.894041,-689.485948,2072.576638,9696.697840
1033.894357,-995.924147,1924.535449,9548.656652
1033.894673,-1302.362347,1702.473667,9696.697840
1033.894989,-1915.238745,1480.411884,9918.759623
1033.895304,-2145.067394,1258.350101,10066.800811
1033.895620,-2298.286494,1110.308913,10066.800811
1033.895936,-2068.457845,1184.329507,9918.759623
1033.896251,-2451.505594,1702.473667,9992.780217
1033.896567,-2528.115143,1924.535449,9992.780217
1033.896883,-2451.505594,2072.576638,9474.636058
1033.897199,-2298.286494,2220.617826,9030.512492
1033.897514,-2528.115143,2146.597232,9400.615463
1033.897830,-2451.505594,2294.638420,9178.553681
1033.898146,-2068.457845,2220.617826,9178.553681
1033.898461,-2145.067394,2294.638420,9104.533087
1033.898777,-1838.629195,2146.597232,8956.491898
1033.899093,-2145.067394,2294.638420,9030.512492
1033.899409,-2374.896044,2590.720797,9400.615463
1033.899724,-2221.676944,2738.761985,9178.553681
1033.900040,-2604.724693,2886.803174,9104.533087
1033.900356,-2757.943793,2960.823768,8956.491898
1033.900671,-2834.553343,2960.823768,9104.533087
1033.900987,-2681.334243,2738.761985,9252.574275
1033.901303,-2757.943793,2368.659014,9178.553681
1033.901618,-2987.772442,2220.617826,9400.615463
1033.901934,-2911.162892,2368.659014,9252.574275
1033.902250,-2987.772442,2072.576638,9548.656652
1033.902566,-2757.943793,2146.597232,9770.718434
1033.902881,-2911.162892,2220.617826,9696.697840
1033.903197,-2451.505594,3108.864956,9622.677246
1033.903513,-1762.019645,3404.947333,8734.430116
1033.903828,-2298.286494,4071.132681,8734.430116
1033.904144,-2145.067394,4441.235652,8290.306550
1033.904460,-2221.676944,4589.276840,8290.306550
1033.904776,-2451.505594,4293.194464,8586.388927
1033.905091,-2451.505594,3552.988522,9030.512492
1033.905407,-2757.943793,2886.803174,9474.636058
1033.905723,-3447.429741,1998.556043,10066.800811
1033.906038,-3370.820191,1480.411884,10955.047942
1033.906354,-2987.772442,1110.308913,11251.130318
1033.906670,-3294.210641,1332.370696,11251.130318
1033.906986,-2757.943793,1480.411884,10807.006753
1033.907301,-2221.676944,2072.576638,10362.883188
1033.907617,-1532.190996,2516.700203,9918.759623
1033.907933,-459.657299,3108.864956,9770.718434
1033.908248,-76.609550,3775.050304,9030.512492
1033.908564,0.000000,3256.906145,8512.368333
1033.908880,229.828649,3256.906145,8808.450710
1033.909196,689.485948,2960.823768,9178.553681
1033.909511,76.609550,2442.679609,9104.533087
1033.909827,-229.828649,2368.659014,9326.594869
1033.910143,-766.095498,2072.576638,9622.677246
1033.910458,-1225.752797,1406.391290,10362.883188
1033.910774,-1378.971896,888.247130,10362.883188
1033.911090,-1838.629195,1258.350101,10436.903782
1033.911406,-2068.457845,296.082377,10881.027347
1033.911721,-2068.457845,296.082377,10807.006753
1033.912037,-2145.067394,-222.061783,10584.944971
1033.912353,-1685.410096,-0.000000,10807.006753
1033.912668,-919.314598,-0.000000,10362.883188
1033.912984,-536.266849,-370.102971,10140.821405
1033.913300,0.000000,-0.000000,9474.636058
1033.913616,76.609550,296.082377,9104.533087
1033.913931,612.876398,296.082377,9178.553681
1033.914247,766.095498,1036.288319,8734.430116
1033.914563,612.876398,1776.494261,8512.368333
1033.914878,536.266849,1850.514855,8142.265362
1033.915194,383.047749,1554.432478,8068.244768
1033.915510,-306.438199,740.205942,8512.368333
1033.915826,-1302.362347,296.082377,8808.450710
1033.916141,-1838.629195,-592.164754,9474.636058
1033.916457,-2451.505594,-1406.391290,9992.780217
1033.916773,-2528.115143,-2368.659014,10362.883188
1033.917089,-2911.162892,-2738.761985,10807.006753
1033.917405,-2834.553343,-2960.823768,10807.006753
1033.917720,-2451.505594,-2442.679609,10807.006753
1033.918036,-1838.629195,-1776.494261,10066.800811
1033.918352,-1072.533697,-222.061783,9030.512492
1033.918668,-306.438199,1184.329507,7772.162391
1033.918984,612.876398,2368.659014,6957.935855
1033.919300,383.047749,2590.720797,6365.771101
1033.919615,459.657299,2368.659014,6291.750507
1033.919931,229.828649,1776.494261,7476.080014
1033.920247,0.000000,370.102971,8068.244768
1033.920563,-995.924147,-888.247130,9030.512492
1033.920879,-1838.629195,-2220.617826,9918.759623
1033.921195,-1915.238745,-3034.844362,10584.944971
1033.921510,-1608.800546,-3627.009116,11029.068536
1033.921826,-1532.190996,-2368.659014,11399.171507
1033.922142,-612.876398,-1332.370696,10584.944971
1033.922458,-153.219100,-370.102971,9844.739029
1033.922774,76.609550,666.185348,8438.347739
1033.923090,306.438199,1480.411884,8142.265362
1033.923405,1149.143247,2738.761985,7254.018232
1033.923721,1455.581446,3108.864956,7105.977043
1033.924037,1455.581446,2590.720797,7624.121203
1033.924353,919.314598,1776.494261,8142.265362
1033.924669,919.314598,-0.000000,9104.533087
1033.924985,-229.828649,-740.205942,10584.944971
1033.925301,-459.657299,-1702.473667,11177.109724
1033.925616,-766.095498,-1776.494261,11917.315666
1033.925932,-1072.533697,-962.267725,11843.295072
1033.926248,-766.095498,-148.041188,11325.150913
1033.926564,-689.485948,740.205942,10807.006753
1033.926880,-229.828649,1776.494261,9770.718434
1033.927196,153.219100,2516.700203,9104.533087
1033.927511,995.924147,2812.782580,8660.409521
1033.927827,919.314598,2294.638420,8660.409521
1033.928143,1302.362347,1628.453072,8808.450710
1033.928459,1455.581446,1258.350101,8956.491898
1033.928775,1225.752797,666.185348,9992.780217
1033.929091,1608.800546,296.082377,10658.965565
1033.929406,1149.143247,740.205942,10732.986159
1033.929722,689.485948,1036.288319,10732.986159
1033.930038,612.876398,1480.411884,10658.965565
1033.930354,995.924147,1406.391290,10214.842000
1033.930670,1378.971896,1998.556043,10066.800811
1033.930986,1608.800546,1702.473667,9622.677246
1033.931302,1378.971896,1184.329507,9252.574275
1033.931617,1378.971896,592.164754,9548.656652
1033.931933,1608.800546,148.041188,9770.718434
1033.932249,1685.410096,-0.000000,9696.697840
1033.932565,1915.238745,962.267725,9178.553681
1033.932881,1378.971896,1332.370696,9104.533087
1033.933197,995.924147,1184.329507,9252.574275
1033.933512,995.924147,1480.411884,9696.697840
1033.933828,689.485948,1628.453072,9474.636058
1033.934144,536.266849,1776.494261,9474.636058
1033.934460,229.828649,962.267725,9474.636058
1033.934776,-229.828649,-296.082377,9770.718434
1033.935092,-459.657299,-1480.411884,10436.903782
1033.935407,0.000000,-2368.659014,10658.965565
1033.935723,76.609550,-2146.597232,10214.842000
1033.936039,306.438199,-1924.535449,9696.697840
1033.936355,459.657299,-814.226536,9104.533087
1033.936671,766.095498,-74.020594,8660.409521
1033.936987,1302.362347,1258.350101,8734.430116
1033.937302,1225.752797,2294.638420,7920.203579
1033.937618,1225.752797,2146.597232,7772.162391
1033.937934,919.314598,1036.288319,7772.162391
1033.938250,459.657299,-666.185348,8660.409521
1033.938566,-153.219100,-2220.617826,9622.677246
1033.938882,-306.438199,-3330.926739,10214.842000
1033.939198,-536.266849,-2960.823768,10732.986159
1033.939513,-1532.190996,-2368.659014,9992.780217
1033.939829,-1532.190996,-1480.411884,9770.718434
1033.940145,-1149.143247,-1184.329507,9474.636058
1033.940461,-842.705048,-740.205942,9548.656652
1033.940777,0.000000,-74.020594,8660.409521
1033.941093,229.828649,-74.020594,7994.224174
1033.941408,1149.143247,-888.247130,8216.285956
1033.941724,1225.752797,-1776.494261,8586.388927
1033.942040,1532.190996,-1998.556043,8882.471304
1033.942356,1838.629195,-1406.391290,8734.430116
1033.942672,1302.362347,-1036.288319,8734.430116
1033.942988,689.485948,-370.102971,8660.409521
1033.943303,153.219100,-222.061783,8882.471304
1033.943619,0.000000,-74.020594,9326.594869
1033.943935,0.000000,444.123565,9326.594869
1033.944251,0.000000,296.082377,8882.471304
1033.944567,-459.657299,-370.102971,8882.471304
1033.944883,-459.657299,-1554.432478,9696.697840
1033.945199,-383.047749,-2886.803174,10584.944971
1033.945514,0.000000,-3552.988522,10881.027347
1033.945830,0.000000,-2738.761985,10066.800811
1033.946146,0.000000,-1776.494261,9770.718434
1033.946462,229.828649,-814.226536,9400.615463
1033.946778,842.705048,666.185348,9104.533087
1033.947094,1532.190996,1924.535449,8882.471304
1033.947409,1685.410096,2294.638420,8660.409521
1033.947725,1608.800546,2220.617826,8142.265362
1033.948041,1685.410096,1036.288319,8290.306550
1033.948357,1838.629195,-0.000000,9474.636058
1033.948673,1532.190996,-1258.350101,10140.821405
1033.948989,1378.971896,-1850.514855,10510.924376
1033.949304,459.657299,-1702.473667,10510.924376
1033.949620,-536.266849,-1258.350101,10288.862594
1033.949936,-536.266849,-518.144159,10807.006753
1033.950252,-383.047749,222.061783,10362.883188
1033.950568,-306.438199,1332.370696,10214.842000
1033.950884,76.609550,1628.453072,9918.759623
1033.951199,306.438199,1184.329507,9474.636058
1033.951515,842.705048,-0.000000,9622.677246
1033.951831,1149.143247,-518.144159,10140.821405
1033.952147,1072.533697,-740.205942,9918.759623
1033.952463,1225.752797,-518.144159,9770.718434
1033.952779,459.657299,-74.020594,9696.697840
1033.953095,383.047749,740.205942,9770.718434
1033.953410,689.485948,1332.370696,10066.800811
1033.953726,766.095498,1924.535449,9622.677246
1033.954042,919.314598,2368.659014,9326.594869
1033.954358,995.924147,1702.473667,9178.553681
1033.954674,919.314598,814.226536,9252.574275
1033.954990,1302.362347,-592.164754,9770.718434
1033.955305,1455.581446,-1110.308913,10288.862594
1033.955621,1149.143247,-1258.350101,10140.821405
1033.955937,689.485948,-518.144159,9474.636058
1033.956253,0.000000,-0.000000,9252.574275
1033.956569,-153.219100,1036.288319,9400.615463
1033.956885,-306.438199,1850.514855,9326.594869
1033.957200,0.000000,2590.720797,8734.430116
1033.957516,153.219100,2146.597232,8512.368333
1033.957832,0.000000,888.247130,8586.388927
1033.958148,0.000000,-444.123565,9252.574275
1033.958464,76.609550,-1776.494261,10066.800811
1033.958780,0.000000,-2220.617826,10288.862594
1033.959096,0.000000,-1998.556043,9844.739029
1033.959411,-459.657299,-1258.350101,9474.636058
1033.959727,-689.485948,-370.102971,9474.636058
1033.960043,-842.705048,148.041188,9696.697840
1033.960359,-229.828649,1184.329507,9178.553681
1033.960675,229.828649,1184.329507,8438.347739
1033.960991,383.047749,962.267725,8290.306550
1033.961306,306.438199,-0.000000,8364.327145
1033.961622,536.266849,-962.267725,9178.553681
1033.961938,766.095498,-1702.473667,9252.574275
1033.962254,229.828649,-1850.514855,9178.553681
1033.962570,0.000000,-1332.370696,9030.512492
1033.962886,-689.485948,-740.205942,9474.636058
1033.963201,-919.314598,-148.041188,9696.697840
1033.963517,-689.485948,518.144159,9770.718434
1033.963833,-383.047749,962.267725,9178.553681
1033.964149,-383.047749,444.123565,9030.512492
1033.964465,0.000000,-518.144159,9178.553681
1033.964781,459.657299,-1480.411884,9474.636058
1033.965096,1225.752797,-2294.638420,9770.718434
1033.965412,1378.971896,-2072.576638,9622.677246
1033.965728,842.705048,-1258.350101,9252.574275
1033.966044,459.657299,-444.123565,9400.615463
1033.966360,0.000000,222.061783,9474.636058
1033.966676,536.266849,962.267725,9770.718434
1033.966992,536.266849,1628.453072,9252.574275
1033.967307,536.266849,1702.473667,8956.491898
1033.967623,766.095498,666.185348,8660.409521
1033.967939,1072.533697,-666.185348,9252.574275
1033.968255,1532.190996,-1850.514855,10066.800811
1033.968571,1838.629195,-2220.617826,10140.821405
1033.968887,1608.800546,-1850.514855,9992.780217
1033.969202,1225.752797,-1036.288319,9696.697840
1033.969518,689.485948,-296.082377,9770.718434
1033.969834,689.485948,370.102971,9548.656652
1033.970150,536.266849,1258.350101,9622.677246
1033.970466,766.095498,1702.473667,9400.615463
1033.970782,689.485948,1258.350101,9030.512492
1033.971097,1225.752797,-0.000000,9400.615463
1033.971413,1149.143247,-1480.411884,9844.739029
1033.971729,1685.410096,-2146.597232,10288.862594
1033.972045,1838.629195,-1998.556043,10066.800811
1033.972361,919.314598,-1406.391290,9844.739029
1033.972677,766.095498,-518.144159,9696.697840
1033.972993,459.657299,-74.020594,9918.759623
1033.973308,306.438199,962.267725,9844.739029
1033.973624,229.828649,1406.391290,9474.636058
1033.973940,229.828649,1036.288319,9178.553681
1033.974256,459.657299,370.102971,9030.512492
1033.974572,919.314598,-1036.288319,9474.636058
1033.974888,1455.581446,-1776.494261,9918.759623
1033.975203,1685.410096,-1776.494261,9696.697840
1033.975519,1225.752797,-1406.391290,9474.636058
1033.975835,536.266849,-1110.308913,9326.594869
1033.976151,-306.438199,-222.061783,9474.636058
1033.976467,-459.657299,370.102971,9622.677246
1033.976783,-383.047749,1258.350101,9326.594869
1033.977098,-689.485948,1406.391290,8882.471304
1033.977414,-306.438199,1036.288319,8956.491898
1033.977730,0.000000,-0.000000,9030.512492
1033.978046,0.000000,-1258.350101,9474.636058
1033.978362,536.266849,-1998.556043,9548.656652
1033.978678,536.266849,-1702.473667,9622.677246
1033.978994,153.219100,-1184.329507,9400.615463
1033.979309,-612.876398,-370.102971,9326.594869
1033.979625,-766.095498,518.144159,9400.615463
1033.979941,-536.266849,1258.350101,9252.574275
1033.980257,-306.438199,2072.576638,9474.636058
1033.980573,-459.657299,1776.494261,8586.388927
1033.980889,-306.438199,962.267725,8512.368333
1033.981204,153.219100,-222.061783,9178.553681
1033.981520,306.438199,-1480.411884,9474.636058
1033.981836,612.876398,-1406.391290,9992.780217
1033.982152,0.000000,-1332.370696,9474.636058
1033.982468,-306.438199,-592.164754,9474.636058
1033.982784,-689.485948,-0.000000,9474.636058
1033.983099,-612.876398,1406.391290,9474.636058
1033.983415,-459.657299,1998.556043,9622.677246
1033.983731,-612.876398,1554.432478,9178.553681
1033.984047,-306.438199,888.247130,8956.491898
1033.984363,76.609550,-148.041188,9474.636058
1033.984679,766.095498,-1480.411884,10140.821405
1033.984994,919.314598,-1998.556043,9918.759623
1033.985310,1149.143247,-1332.370696,10140.821405
1033.985626,689.485948,-666.185348,9474.636058
1033.985942,0.000000,-222.061783,9622.677246
1033.986258,76.609550,222.061783,9844.739029
1033.986574,306.438199,888.247130,9696.697840
1033.986890,229.828649,1332.370696,9400.615463
1033.987205,689.485948,1184.329507,9252.574275
1033.987521,842.705048,-0.000000,9400.615463
1033.987837,1532.190996,-1184.329507,9622.677246
1033.988153,1762.019645,-1776.494261,10214.842000
1033.988469,2068.457845,-1850.514855,10214.842000
1033.988785,1685.410096,-666.185348,9696.697840
1033.989100,1225.752797,-370.102971,9474.636058
1033.989416,919.314598,-0.000000,9622.677246
1033.989732,919.314598,518.144159,9918.759623
1033.990048,689.485948,1110.308913,9400.615463
1033.990364,612.876398,1110.308913,9474.636058
1033.990680,842.705048,518.144159,9326.594869
1033.990995,612.876398,-296.082377,9770.718434
1033.991311,1608.800546,-1480.411884,9918.759623
1033.991627,1532.190996,-1702.473667,10066.800811
1033.991943,1685.410096,-1184.329507,9696.697840
1033.992259,1149.143247,-888.247130,9474.636058
1033.992575,766.095498,-296.082377,9696.697840
1033.992891,689.485948,-0.000000,9770.718434
1033.993206,383.047749,888.247130,9622.677246
1033.993522,306.438199,1702.473667,9400.615463
1033.993838,229.828649,814.226536,8882.471304
1033.994154,612.876398,-296.082377,9104.533087
1033.994470,1225.752797,-1110.308913,9474.636058
1033.994786,1225.752797,-1924.535449,9474.636058
1033.995101,1608.800546,-1850.514855,9326.594869
1033.995417,1072.533697,-1184.329507,9178.553681
1033.995733,766.095498,-666.185348,8956.491898
1033.996049,0.000000,-0.000000,9474.636058
1033.996365,-306.438199,1110.308913,9252.574275
1033.996681,-383.047749,1258.350101,8734.430116
1033.996996,-689.485948,1110.308913,8882.471304
1033.997312,-612.876398,-370.102971,9178.553681
1033.997628,-229.828649,-1406.391290,9474.636058
1033.997944,76.609550,-2368.659014,9844.739029
1033.998260,383.047749,-2294.638420,9696.697840
1033.998576,0.000000,-1702.473667,9326.594869
1033.998891,-383.047749,-962.267725,9252.574275
1033.999207,-536.266849,-0.000000,9104.533087
1033.999523,-842.705048,814.226536,9400.615463
1033.999839,-842.705048,1258.350101,8956.491898
1034.000155,-612.876398,1258.350101,8882.471304
1034.000471,-536.266849,592.164754,9030.512492
1034.000787,-306.438199,-148.041188,9030.512492
1034.001102,306.438199,-1110.308913,9326.594869
1034.001418,919.314598,-1480.411884,9696.697840
1034.001734,1302.362347,-1184.329507,9474.636058
1034.002050,919.314598,-888.247130,9474.636058
1034.002366,0.000000,-74.020594,9474.636058
1034.002682,-459.657299,740.205942,9844.739029
1034.002997,-229.828649,1258.350101,9696.697840
1034.003313,-383.047749,1554.432478,9178.553681
1034.003629,-536.266849,1332.370696,9400.615463
1034.003945,-229.828649,740.205942,9474.636058
1034.004261,153.219100,-296.082377,9770.718434
1034.004577,766.095498,-1184.329507,10140.821405
1034.004892,995.924147,-1258.350101,10214.842000
1034.005208,919.314598,-518.144159,9992.780217
1034.005524,612.876398,-222.061783,9622.677246
1034.005840,306.438199,296.082377,9918.759623
1034.006156,536.266849,1258.350101,10140.821405
1034.006472,536.266849,2072.576638,9622.677246
1034.006788,536.266849,2146.597232,9474.636058
1034.007103,995.924147,1184.329507,8956.491898
1034.007419,1072.533697,-74.020594,9474.636058
1034.007735,1838.629195,-1406.391290,10362.883188
1034.008051,2068.457845,-1702.473667,10658.965565
1034.008367,2145.067394,-962.267725,9918.759623
1034.008683,1225.752797,-74.020594,9104.533087
1034.008998,919.314598,444.123565,9548.656652
1034.009314,612.876398,1110.308913,9844.739029
1034.009630,459.657299,1480.411884,9622.677246
1034.009946,0.000000,1184.329507,9696.697840
1034.010262,0.000000,666.185348,9622.677246
1034.010578,0.000000,-74.020594,9400.615463
1034.010893,306.438199,-1406.391290,9770.718434
1034.011209,842.705048,-2294.638420,10584.944971
1034.011525,1149.143247,-1776.494261,9918.759623
1034.011841,536.266849,-1110.308913,9252.574275
1034.012157,153.219100,-592.164754,9104.533087
1034.012473,229.828649,-74.020594,9474.636058
1034.012788,0.000000,592.164754,8882.471304
1034.013104,0.000000,962.267725,8956.491898
1034.013420,-306.438199,740.205942,8956.491898
1034.013736,0.000000,-0.000000,8660.409521
1034.014052,0.000000,-1332.370696,8956.491898
1034.014368,612.876398,-2294.638420,9474.636058
1034.014684,842.705048,-2368.659014,9622.677246
1034.014999,689.485948,-1702.473667,9474.636058
1034.015315,153.219100,-1110.308913,8882.471304
1034.015631,0.000000,-666.185348,9178.553681
1034.015947,-612.876398,148.041188,9548.656652
1034.016263,-229.828649,962.267725,9030.512492
1034.016579,-536.266849,1110.308913,8808.450710
1034.016894,-383.047749,296.082377,8882.471304
1034.017210,-459.657299,-370.102971,8882.471304
1034.017526,229.828649,-1554.432478,9696.697840
1034.017842,919.314598,-2146.597232,9696.697840
1034.018158,995.924147,-2220.617826,9474.636058
1034.018473,766.095498,-1628.453072,9030.512492
1034.018789,919.314598,-740.205942,9178.553681
1034.019105,229.828649,-592.164754,9252.574275
1034.019421,306.438199,1406.391290,8808.450710
1034.019737,306.438199,1184.329507,9252.574275
1034.020052,612.876398,666.185348,8734.430116
1034.020368,459.657299,370.102971,8956.491898
1034.020684,919.314598,-1480.411884,8956.491898
1034.021000,1378.971896,-2368.659014,9696.697840
1034.021315,1685.410096,-2220.617826,10140.821405
1034.021631,1149.143247,-1406.391290,9622.677246
1034.021947,689.485948,-814.226536,9252.574275
1034.022263,153.219100,-0.000000,9474.636058
1034.022578,76.609550,222.061783,10066.800811
1034.022894,76.609550,814.226536,9474.636058
1034.023210,0.000000,1110.308913,9252.574275
1034.023526,229.828649,222.061783,9400.615463
1034.023842,459.657299,-740.205942,9770.718434
1034.024157,919.314598,-1480.411884,9918.759623
1034.024473,1991.848295,-2072.576638,10214.842000
1034.024789,1532.190996,-1332.370696,9844.739029
1034.025105,1608.800546,-666.185348,9326.594869
1034.025420,919.314598,-148.041188,9474.636058
1034.025736,766.095498,592.164754,9474.636058
1034.026052,842.705048,962.267725,9104.533087
1034.026368,689.485948,1406.391290,9400.615463
1034.026684,383.047749,1776.494261,8956.491898
1034.026999,459.657299,518.144159,9400.615463
1034.027315,919.314598,-888.247130,9696.697840
1034.027631,1072.533697,-1184.329507,9918.759623
1034.027947,1072.533697,-1406.391290,10140.821405
1034.028262,1302.362347,-1258.350101,9770.718434
1034.028578,0.000000,-296.082377,9326.594869
1034.028894,-229.828649,888.247130,9548.656652
1034.029210,0.000000,148.041188,9844.739029
1034.029525,0.000000,1998.556043,9844.739029
1034.029841,-536.266849,2368.659014,8808.450710
1034.030157,0.000000,962.267725,8956.491898
1034.030473,153.219100,-0.000000,9400.615463
1034.030789,76.609550,-1036.288319,9770.718434
1034.031104,1302.362347,-592.164754,9844.739029
1034.031420,1302.362347,-740.205942,9474.636058
1034.031736,536.266849,-222.061783,9474.636058
1034.032052,0.000000,222.061783,9474.636058
1034.032367,76.609550,370.102971,9770.718434
1034.032683,-229.828649,1332.370696,9918.759623
1034.032999,-459.657299,2220.617826,9474.636058
1034.033315,-306.438199,1480.411884,9030.512492
1034.033631,153.219100,296.082377,9622.677246
1034.033946,536.266849,-740.205942,9918.759623
1034.034262,919.314598,-1406.391290,9770.718434
1034.034578,1149.143247,-1406.391290,9770.718434
1034.034894,459.657299,-962.267725,9400.615463
1034.035209,383.047749,-148.041188,8956.491898
1034.035525,229.828649,222.061783,9178.553681
1034.035841,0.000000,740.205942,9326.594869
1034.036157,0.000000,1406.391290,9400.615463
1034.036472,-153.219100,814.226536,9178.553681
1034.036788,-306.438199,-74.020594,8956.491898
1034.037104,0.000000,-888.247130,9548.656652
1034.037420,766.095498,-1998.556043,10140.821405
1034.037736,1072.533697,-2072.576638,9622.677246
1034.038051,766.095498,-1480.411884,9622.677246
1034.038367,383.047749,-1184.329507,9326.594869
1034.038683,229.828649,-296.082377,9474.636058
1034.038999,153.219100,-0.000000,9474.636058
1034.039314,153.219100,518.144159,9400.615463
1034.039630,383.047749,1036.288319,9104.533087
1034.039946,153.219100,592.164754,8808.450710
1034.040262,766.095498,-370.102971,9252.574275
1034.040578,1532.190996,-1554.432478,9622.677246
1034.040893,1608.800546,-1776.494261,9622.677246
1034.041209,1685.410096,-1406.391290,9252.574275
1034.041525,1455.581446,-666.185348,8882.471304
1034.041841,0.000000,-518.144159,8956.491898
1034.042156,153.219100,222.061783,9992.780217
1034.042472,229.828649,962.267725,9252.574275
1034.042788,76.609550,1554.432478,9400.615463
1034.043104,-306.438199,740.205942,9326.594869
1034.043419,0.000000,-148.041188,8882.471304
1034.043735,0.000000,-1406.391290,9992.780217
1034.044051,766.095498,-2220.617826,9992.780217
1034.044367,842.705048,-1702.473667,9696.697840
1034.044683,1072.533697,-1036.288319,9252.574275
1034.044998,383.047749,-518.144159,9104.533087
1034.045314,76.609550,-0.000000,9400.615463
1034.045630,76.609550,666.185348,9918.759623
1034.045946,0.000000,1036.288319,9474.636058
1034.046261,689.485948,962.267725,9178.553681
1034.046577,0.000000,370.102971,8882.471304
1034.046893,153.219100,-518.144159,9474.636058
1034.047209,689.485948,-1480.411884,9918.759623
1034.047525,842.705048,-1628.453072,10214.842000
1034.047840,1072.533697,-1036.288319,9622.677246
1034.048156,0.000000,-814.226536,9326.594869
1034.048472,-536.266849,-444.123565,9844.739029
1034.048788,-306.438199,-0.000000,9918.759623
1034.049103,-153.219100,888.247130,9474.636058
1034.049419,0.000000,1406.391290,9326.594869
1034.049735,-459.657299,592.164754,9178.553681
1034.050051,-306.438199,-0.000000,9400.615463
1034.050366,0.000000,-888.247130,9770.718434
1034.050682,689.485948,-1406.391290,10288.862594
1034.050998,995.924147,-1184.329507,9918.759623
1034.051314,919.314598,-1184.329507,9474.636058
1034.051630,383.047749,-814.226536,9474.636058
1034.051945,0.000000,-592.164754,9770.718434
1034.052261,536.266849,296.082377,9548.656652
1034.052577,383.047749,1184.329507,9548.656652
1034.052893,153.219100,1258.350101,9104.533087
1034.053208,612.876398,814.226536,8882.471304
1034.053524,919.314598,-0.000000,9104.533087
1034.053840,1455.581446,-1480.411884,9622.677246
1034.054156,1608.800546,-2072.576638,9696.697840
1034.054472,1225.752797,-1184.329507,9400.615463
1034.054787,995.924147,-740.205942,9400.615463
1034.055103,536.266849,-0.000000,9326.594869
1034.055419,383.047749,666.185348,9474.636058
1034.055735,0.000000,1036.288319,9030.512492
1034.056050,153.219100,1406.391290,9252.574275
1034.056366,0.000000,444.123565,9474.636058
1034.056682,153.219100,-666.185348,9474.636058
1034.056998,536.266849,-1776.494261,10066.800811
1034.057313,1149.143247,-2146.597232,9844.739029
1034.057629,1302.362347,-1480.411884,9474.636058
1034.057945,1149.143247,-444.123565,9326.594869
1034.058261,536.266849,-0.000000,9326.594869
1034.058577,459.657299,814.226536,9326.594869
1034.058892,536.266849,1184.329507,9178.553681
1034.059208,536.266849,1554.432478,9104.533087
1034.059524,306.438199,962.267725,8808.450710
1034.059840,459.657299,-0.000000,9030.512492
1034.060155,536.266849,-888.247130,9400.615463
1034.060471,842.705048,-1998.556043,9992.780217
1034.060787,842.705048,-1480.411884,10214.842000
1034.061103,459.657299,-1110.308913,9474.636058
1034.061419,76.609550,-222.061783,9474.636058
1034.061734,-689.485948,-0.000000,9844.739029
1034.062050,-459.657299,814.226536,9622.677246
1034.062366,-153.219100,1258.350101,9326.594869
1034.062682,-459.657299,1480.411884,9474.636058
1034.062997,-383.047749,666.185348,9252.574275
1034.063313,-612.876398,-444.123565,9030.512492
1034.063629,76.609550,-1184.329507,10066.800811
1034.063945,842.705048,-1554.432478,9844.739029
1034.064261,919.314598,-1184.329507,9844.739029
1034.064576,459.657299,-518.144159,9474.636058
1034.064892,0.000000,-0.000000,9474.636058
1034.065208,-229.828649,592.164754,9548.656652
1034.065524,0.000000,1480.411884,9696.697840
1034.065839,0.000000,1702.473667,9178.553681
1034.066155,0.000000,1110.308913,9326.594869
1034.066471,153.219100,370.102971,9104.533087
1034.066787,383.047749,-1110.308913,9474.636058
1034.067102,1072.533697,-1702.473667,10214.842000
1034.067418,1149.143247,-1332.370696,9918.759623
1034.067734,1225.752797,-1184.329507,9548.656652
1034.068050,153.219100,-518.144159,9622.677246
1034.068366,0.000000,-0.000000,9844.739029
1034.068681,0.000000,962.267725,9770.718434
1034.068997,0.000000,1406.391290,9400.615463
1034.069313,-229.828649,1332.370696,9474.636058
1034.069629,0.000000,444.123565,8956.491898
1034.069944,76.609550,-518.144159,9548.656652
1034.070260,536.266849,-1776.494261,9992.780217
1034.070576,1072.533697,-1998.556043,10140.821405
1034.070892,1072.533697,-1480.411884,9770.718434
1034.071208,766.095498,-814.226536,9252.574275
1034.071523,459.657299,-370.102971,9622.677246
1034.071839,229.828649,296.082377,9844.739029
1034.072155,995.924147,1184.329507,9696.697840
1034.072471,612.876398,1628.453072,8734.430116
1034.072786,459.657299,1036.288319,8808.450710
1034.073102,612.876398,-0.000000,9326.594869
1034.073418,1149.143247,-1258.350101,9548.656652
1034.073734,1532.190996,-1554.432478,10140.821405
1034.074049,1762.019645,-1628.453072,9918.759623
1034.074365,1072.533697,-1184.329507,9548.656652
1034.074681,306.438199,-444.123565,9252.574275
1034.074997,76.609550,-148.041188,9844.739029
1034.075313,153.219100,962.267725,9548.656652
1034.075628,153.219100,1628.453072,9326.594869
1034.075944,0.000000,1628.453072,8808.450710
1034.076260,76.609550,370.102971,8660.409521
1034.076576,76.609550,-592.164754,9622.677246
1034.076891,995.924147,-1480.411884,9918.759623
1034.077207,1072.533697,-1924.535449,9548.656652
1034.077523,842.705048,-1332.370696,9400.615463
1034.077839,306.438199,-740.205942,9178.553681
1034.078155,0.000000,-222.061783,9400.615463
1034.078470,-229.828649,370.102971,9474.636058
1034.078786,153.219100,1776.494261,9178.553681
1034.079102,76.609550,1628.453072,9030.512492
1034.079418,153.219100,962.267725,8660.409521
1034.079733,0.000000,-296.082377,9252.574275
1034.080049,766.095498,-1332.370696,9548.656652
1034.080365,919.314598,-1554.432478,9548.656652
1034.080681,919.314598,-1554.432478,9622.677246
1034.080996,459.657299,-740.205942,9400.615463
1034.081312,-153.219100,-74.020594,9104.533087
1034.081628,0.000000,518.144159,9400.615463
1034.081944,0.000000,1258.350101,9474.636058
1034.082260,-76.609550,1702.473667,9178.553681
1034.082575,-153.219100,1036.288319,8660.409521
1034.082891,229.828649,-592.164754,9474.636058
1034.083207,0.000000,-1628.453072,10362.883188
1034.083523,842.705048,-2072.576638,9992.780217
1034.083838,842.705048,-1554.432478,9770.718434
1034.084154,459.657299,-1110.308913,9622.677246
1034.084470,612.876398,-148.041188,9474.636058
1034.084786,76.609550,-0.000000,9326.594869
1034.085102,229.828649,666.185348,9844.739029
1034.085417,383.047749,962.267725,9400.615463
1034.085733,306.438199,592.164754,9104.533087
1034.086049,689.485948,-0.000000,8734.430116
1034.086365,536.266849,-740.205942,9696.697840
1034.086680,1378.971896,-1776.494261,9918.759623
1034.086996,1225.752797,-1554.432478,9992.780217
1034.087312,1149.143247,-962.267725,9474.636058
1034.087628,1302.362347,-814.226536,9178.553681
1034.087943,536.266849,-0.000000,9252.574275
1034.088259,0.000000,222.061783,9474.636058
1034.088575,229.828649,666.185348,9696.697840
1034.088891,153.219100,1184.329507,9400.615463
1034.089207,-229.828649,518.144159,8956.491898
1034.089522,76.609550,-444.123565,9326.594869
1034.089838,612.876398,-1406.391290,9992.780217
1034.090154,1302.362347,-1924.535449,10288.862594
1034.090470,1455.581446,-1776.494261,9918.759623
1034.090785,1225.752797,-1332.370696,9992.780217
1034.091101,766.095498,-740.205942,9474.636058
1034.091417,842.705048,222.061783,9326.594869
1034.091733,766.095498,814.226536,9474.636058
1034.092049,1149.143247,1998.556043,9104.533087
1034.092364,459.657299,1258.350101,8512.368333
1034.092680,919.314598,814.226536,8660.409521
1034.092996,842.705048,-592.164754,9548.656652
1034.093312,1225.752797,-1702.473667,9770.718434
1034.093627,1455.581446,-1850.514855,10140.821405
1034.093943,1149.143247,-1850.514855,9548.656652
1034.094259,383.047749,-1036.288319,9474.636058
1034.094575,76.609550,-370.102971,9622.677246
1034.094890,-229.828649,-0.000000,9770.718434
1034.095206,-306.438199,814.226536,9622.677246
1034.095522,0.000000,1036.288319,9030.512492
1034.095838,-306.438199,962.267725,8734.430116
1034.096154,-306.438199,-296.082377,9178.553681
1034.096469,0.000000,-1406.391290,9770.718434
1034.096785,689.485948,-1998.556043,9918.759623
1034.097101,689.485948,-1924.535449,9918.759623
1034.097417,383.047749,-814.226536,9178.553681
1034.097732,-153.219100,-296.082377,9178.553681
1034.098048,-306.438199,148.041188,9548.656652
1034.098364,0.000000,1036.288319,9252.574275
1034.098680,459.657299,1998.556043,9326.594869
1034.098996,229.828649,1480.411884,9030.512492
1034.099311,0.000000,740.205942,8586.388927
1034.099627,383.047749,-370.102971,9104.533087
1034.099943,612.876398,-1184.329507,9770.718434
1034.100259,842.705048,-1628.453072,9696.697840
1034.100574,536.266849,-888.247130,9548.656652
1034.100890,0.000000,-148.041188,9548.656652
1034.101206,-383.047749,296.082377,9474.636058
1034.101522,0.000000,888.247130,9696.697840
1034.101837,0.000000,1480.411884,9400.615463
1034.102153,0.000000,1702.473667,9178.553681
1034.102469,0.000000,666.185348,9252.574275
1034.102785,76.609550,-222.061783,9622.677246
1034.103101,459.657299,-1480.411884,10140.821405
1034.103416,1302.362347,-1850.514855,10214.842000
1034.103732,1072.533697,-1184.329507,9696.697840
1034.104048,919.314598,-888.247130,9178.553681
1034.104364,612.876398,-0.000000,9326.594869
1034.104679,536.266849,370.102971,9252.574275
1034.104995,842.705048,1110.308913,9622.677246
1034.105311,536.266849,1258.350101,9474.636058
1034.105627,766.095498,1184.329507,9326.594869
1034.105943,612.876398,-0.000000,9178.553681
1034.106258,1149.143247,-1258.350101,9548.656652
1034.106574,1532.190996,-1702.473667,9696.697840
1034.106890,1991.848295,-1332.370696,9844.739029
1034.107206,1302.362347,-888.247130,9178.553681
1034.107521,766.095498,-518.144159,9252.574275
1034.107837,76.609550,-0.000000,9326.594869
1034.108153,0.000000,148.041188,9770.718434
1034.108469,-306.438199,1036.288319,9696.697840
1034.108784,-229.828649,814.226536,9474.636058
1034.109100,-306.438199,-0.000000,9178.553681
1034.109416,0.000000,-1110.308913,9622.677246
1034.109732,229.828649,-1406.391290,9918.759623
1034.110048,766.095498,-1554.432478,9844.739029
1034.110363,995.924147,-1554.432478,9622.677246
1034.110679,383.047749,-518.144159,9178.553681
1034.110995,229.828649,-148.041188,9400.615463
1034.111311,383.047749,148.041188,9844.739029
1034.111626,306.438199,962.267725,9252.574275
1034.111942,306.438199,1702.473667,8956.491898
1034.112258,153.219100,1036.288319,8660.409521
1034.112574,383.047749,-148.041188,8956.491898
1034.112890,612.876398,-1258.350101,9696.697840
1034.113205,995.924147,-1776.494261,9548.656652
1034.113521,1072.533697,-1776.494261,9770.718434
1034.113837,612.876398,-1406.391290,9474.636058
1034.114153,0.000000,-666.185348,9104.533087
1034.114468,0.000000,-148.041188,9622.677246
1034.114784,-612.876398,296.082377,9474.636058
1034.115100,-383.047749,1110.308913,9030.512492
1034.115416,-459.657299,666.185348,8956.491898
1034.115731,0.000000,-0.000000,9178.553681
1034.116047,153.219100,-1036.288319,9696.697840
1034.116363,536.266849,-2072.576638,9548.656652
1034.116679,1225.752797,-1776.494261,9770.718434
1034.116995,1072.533697,-1924.535449,9770.718434
1034.117310,459.657299,-962.267725,8660.409521
1034.117626,229.828649,-444.123565,9104.533087
1034.117942,153.219100,370.102971,9548.656652
1034.118258,383.047749,1110.308913,9474.636058
1034.118573,306.438199,1406.391290,9030.512492
1034.118889,536.266849,370.102971,8882.471304
1034.119205,689.485948,-518.144159,9030.512492
1034.119520,1378.971896,-1702.473667,9844.739029
1034.119836,1608.800546,-2072.576638,9918.759623
1034.120152,1455.581446,-2146.597232,9770.718434
1034.120467,1072.533697,-1258.350101,9770.718434
1034.120783,766.095498,-148.041188,9252.574275
1034.121099,76.609550,-0.000000,9474.636058
1034.121414,153.219100,962.267725,9548.656652
1034.121730,383.047749,1406.391290,9178.553681
1034.122046,229.828649,592.164754,9178.553681
1034.122361,229.828649,-0.000000,9400.615463
1034.122677,536.266849,-1110.308913,9696.697840
1034.122993,1072.533697,-1924.535449,9992.780217
1034.123308,1225.752797,-1554.432478,9918.759623
1034.123624,1072.533697,-1110.308913,9844.739029
1034.123940,0.000000,-666.185348,9474.636058
1034.124255,0.000000,518.144159,9400.615463
1034.124571,229.828649,814.226536,9844.739029
1034.124887,842.705048,1628.453072,9400.615463
1034.125202,229.828649,1776.494261,8956.491898
1034.125518,383.047749,740.205942,9030.512492
1034.125834,689.485948,-222.061783,9474.636058
1034.126149,1072.533697,-1184.329507,9918.759623
1034.126465,1608.800546,-1332.370696,9992.780217
1034.126781,1685.410096,-814.226536,9844.739029
1034.127096,919.314598,-296.082377,9326.594869
1034.127412,459.657299,222.061783,9474.636058
1034.127728,306.438199,888.247130,9474.636058
1034.128043,153.219100,1776.494261,9770.718434
1034.128359,0.000000,2220.617826,9104.533087
1034.128675,0.000000,1480.411884,8808.450710
1034.128990,-153.219100,296.082377,9252.574275
1034.129306,0.000000,-1480.411884,9844.739029
1034.129622,612.876398,-1998.556043,9992.780217
1034.129937,919.314598,-1776.494261,9918.759623
1034.130253,229.828649,-1406.391290,9474.636058
1034.130569,-153.219100,-666.185348,9474.636058
1034.130884,-229.828649,296.082377,9696.697840
1034.131200,-306.438199,1184.329507,9400.615463
1034.131516,-306.438199,1480.411884,9252.574275
1034.131831,0.000000,1258.350101,9104.533087
1034.132147,0.000000,814.226536,8882.471304
1034.132463,612.876398,-814.226536,9474.636058
1034.132778,689.485948,-1258.350101,9770.718434
1034.133094,1149.143247,-1480.411884,9918.759623
1034.133410,766.095498,-740.205942,9178.553681
1034.133725,229.828649,-222.061783,9326.594869
1034.134041,-689.485948,148.041188,9474.636058
1034.134357,-383.047749,888.247130,9548.656652
1034.134672,0.000000,1554.432478,9622.677246
1034.134988,-306.438199,1702.473667,9474.636058
1034.135304,-689.485948,592.164754,9252.574275
1034.135619,-306.438199,-296.082377,9770.718434
1034.135935,383.047749,-1184.329507,10066.800811
1034.136251,536.266849,-1998.556043,9918.759623
1034.136566,1072.533697,-1480.411884,9992.780217
1034.136882,842.705048,-1110.308913,9696.697840
1034.137198,459.657299,-740.205942,9474.636058
1034.137513,383.047749,444.123565,9844.739029
1034.137829,459.657299,1258.350101,9326.594869
1034.138145,919.314598,1924.535449,9252.574275
1034.138460,689.485948,1258.350101,8808.450710
1034.138776,919.314598,-0.000000,9030.512492
1034.139092,1225.752797,-888.247130,9770.718434
1034.139407,1685.410096,-2146.597232,10140.821405
1034.139723,1685.410096,-1554.432478,9844.739029
1034.140039,1072.533697,-1628.453072,9474.636058
1034.140354,842.705048,-740.205942,9252.574275
1034.140670,306.438199,-0.000000,9696.697840
1034.140986,306.438199,592.164754,9770.718434
1034.141301,153.219100,1554.432478,9474.636058
1034.141617,-153.219100,1480.411884,9252.574275
1034.141933,76.609550,222.061783,9178.553681
1034.142248,383.047749,-740.205942,9622.677246
1034.142564,612.876398,-2146.597232,10140.821405
1034.142880,1302.362347,-2368.659014,9844.739029
1034.143195,1072.533697,-1850.514855,9770.718434
1034.143511,689.485948,-1406.391290,9326.594869
1034.143827,0.000000,-222.061783,9474.636058
1034.144142,76.609550,518.144159,9400.615463
1034.144458,0.000000,1332.370696,9326.594869
1034.144774,0.000000,1628.453072,8586.388927
1034.145089,229.828649,814.226536,8808.450710
1034.145405,306.438199,-444.123565,9104.533087
1034.145721,689.485948,-1702.473667,9474.636058
1034.146036,919.314598,-2368.659014,9474.636058
1034.146352,1072.533697,-1628.453072,9474.636058
1034.146668,459.657299,-1036.288319,9178.553681
1034.146983,0.000000,-518.144159,9104.533087
1034.147299,-383.047749,222.061783,9326.594869
1034.147615,-76.609550,518.144159,9326.594869
1034.147930,-383.047749,1554.432478,8882.471304
1034.148246,-383.047749,1184.329507,8808.450710
1034.148562,-536.266849,296.082377,8660.409521
1034.148877,0.000000,-740.205942,9474.636058
1034.149193,536.266849,-2072.576638,9992.780217
1034.149509,1072.533697,-1998.556043,9474.636058
1034.149824,612.876398,-1776.494261,9474.636058
1034.150140,153.219100,-1332.370696,9326.594869
1034.150456,76.609550,-592.164754,9400.615463
1034.150771,0.000000,592.164754,9474.636058
1034.151087,306.438199,1776.494261,9178.553681
1034.151403,383.047749,2220.617826,8882.471304
1034.151718,459.657299,1110.308913,8512.368333
1034.152034,842.705048,148.041188,8882.471304
1034.152349,1072.533697,-1628.453072,10140.821405
1034.152665,1762.019645,-1998.556043,10140.821405
1034.152981,1685.410096,-1924.535449,9696.697840
1034.153296,1149.143247,-962.267725,9474.636058
1034.153612,383.047749,-370.102971,9548.656652
1034.153928,306.438199,444.123565,9622.677246
1034.154243,459.657299,1628.453072,9474.636058
1034.154559,76.609550,2072.576638,9400.615463
1034.154875,0.000000,1406.391290,9326.594869
1034.155190,536.266849,592.164754,9326.594869
1034.155506,536.266849,-740.205942,10288.862594
1034.155822,919.314598,-1702.473667,10288.862594
1034.156137,1072.533697,-1850.514855,10140.821405
1034.156453,995.924147,-1110.308913,10066.800811
1034.156769,536.266849,-814.226536,9770.718434
1034.157084,0.000000,-0.000000,9844.739029
1034.157400,76.609550,888.247130,9992.780217
1034.157716,306.438199,1924.535449,9474.636058
1034.158031,383.047749,1850.514855,9326.594869
1034.158347,383.047749,888.247130,9252.574275
1034.158663,459.657299,-74.020594,9548.656652
1034.158978,1378.971896,-1406.391290,9992.780217
1034.159294,1532.190996,-1776.494261,10066.800811
1034.159610,1225.752797,-1480.411884,9622.677246
1034.159925,919.314598,-592.164754,9696.697840
1034.160241,306.438199,-370.102971,9474.636058
1034.160557,0.000000,370.102971,9474.636058
1034.160872,0.000000,1628.453072,9696.697840
1034.161188,0.000000,1998.556043,9104.533087
1034.161504,-229.828649,1036.288319,9030.512492
1034.161819,0.000000,222.061783,9400.615463
1034.162135,306.438199,-1184.329507,9548.656652
1034.162451,612.876398,-1924.535449,9696.697840
1034.162766,919.314598,-1924.535449,9770.718434
1034.163082,766.095498,-1480.411884,9178.553681
1034.163398,76.609550,-1036.288319,9178.553681
1034.163713,0.000000,-0.000000,9326.594869
1034.164029,0.000000,666.185348,9400.615463
1034.164345,0.000000,1406.391290,8956.491898
1034.164660,612.876398,1628.453072,8512.368333
1034.164976,153.219100,592.164754,8290.306550
1034.165292,229.828649,-740.205942,9474.636058
1034.165607,842.705048,-1702.473667,9918.759623
1034.165923,1455.581446,-1850.514855,9548.656652
1034.166239,766.095498,-1258.350101,9400.615463
1034.166554,459.657299,-888.247130,8956.491898
1034.166870,-229.828649,-0.000000,9252.574275
1034.167186,-306.438199,592.164754,9622.677246
1034.167501,0.000000,1332.370696,9400.615463
1034.167817,0.000000,1406.391290,9104.533087
1034.168133,0.000000,962.267725,8660.409521
1034.168448,0.000000,-0.000000,9474.636058
1034.168764,612.876398,-1406.391290,9622.677246
1034.169080,1149.143247,-2442.679609,10362.883188
1034.169395,1149.143247,-1480.411884,9622.677246
1034.169711,842.705048,-1110.308913,9548.656652
1034.170027,459.657299,-444.123565,9252.574275
1034.170342,0.000000,-0.000000,9770.718434
1034.170658,0.000000,518.144159,9992.780217
1034.170974,766.095498,1258.350101,9326.594869
1034.171289,76.609550,962.267725,8956.491898
1034.171605,306.438199,148.041188,9030.512492
1034.171921,766.095498,-1258.350101,9918.759623
1034.172236,1225.752797,-1628.453072,9992.780217
1034.172552,1685.410096,-1702.473667,9918.759623
1034.172868,1378.971896,-1332.370696,9474.636058
1034.173183,766.095498,-1036.288319,9326.594869
1034.173499,766.095498,-370.102971,9474.636058
1034.173815,459.657299,370.102971,9770.718434
1034.174130,459.657299,1480.411884,9474.636058
1034.174446,459.657299,1480.411884,9252.574275
1034.174762,76.609550,666.185348,8882.471304
1034.175077,612.876398,-370.102971,9400.615463
1034.175393,459.657299,-1702.473667,9844.739029
1034.175709,842.705048,-2146.597232,10066.800811
1034.176024,1149.143247,-1924.535449,9770.718434
1034.176340,919.314598,-1258.350101,9474.636058
1034.176656,0.000000,-592.164754,9622.677246
1034.176971,76.609550,148.041188,9622.677246
1034.177287,0.000000,1036.288319,9548.656652
1034.177603,0.000000,1850.514855,9400.615463
1034.177918,76.609550,1406.391290,9178.553681
1034.178234,-306.438199,-0.000000,9400.615463
1034.178550,536.266849,-666.185348,9770.718434
1034.178865,1072.533697,-1480.411884,9918.759623
1034.179181,1532.190996,-1480.411884,9992.780217
1034.179497,995.924147,-740.205942,9474.636058
1034.179812,689.485948,-148.041188,9252.574275
1034.180128,229.828649,444.123565,9548.656652
1034.180444,76.609550,1480.411884,9770.718434
1034.180759,-153.219100,2146.597232,9178.553681
1034.181075,0.000000,1850.514855,9104.533087
1034.181391,-229.828649,370.102971,9104.533087
1034.181706,-229.828649,-518.144159,9252.574275
1034.182022,383.047749,-1998.556043,9992.780217
1034.182338,536.266849,-2442.679609,10214.842000
1034.182653,766.095498,-2146.597232,9548.656652
1034.182969,76.609550,-1406.391290,9548.656652
1034.183285,0.000000,-518.144159,9474.636058
1034.183600,0.000000,-0.000000,9696.697840
1034.183916,0.000000,962.267725,9400.615463
1034.184232,0.000000,1258.350101,9104.533087
1034.184547,306.438199,592.164754,8882.471304
1034.184863,306.438199,-296.082377,9104.533087
1034.185179,1072.533697,-1628.453072,9696.697840
1034.185494,1532.190996,-1924.535449,9844.739029
1034.185810,1762.019645,-1480.411884,9326.594869
1034.186126,1225.752797,-592.164754,9326.594869
1034.186441,919.314598,-222.061783,9178.553681
1034.186757,689.485948,592.164754,9474.636058
1034.187073,76.609550,1036.288319,9622.677246
1034.187388,153.219100,1776.494261,9400.615463
1034.187704,0.000000,1480.411884,9104.533087
1034.188020,76.609550,666.185348,8956.491898
1034.188335,459.657299,-444.123565,9474.636058
1034.188651,766.095498,-1702.473667,10066.800811
1034.188967,919.314598,-2072.576638,10066.800811
1034.189282,995.924147,-1258.350101,9548.656652
1034.189598,536.266849,-962.267725,9252.574275
1034.189914,153.219100,-666.185348,9400.615463
1034.190229,153.219100,-0.000000,10288.862594
1034.190545,306.438199,1110.308913,9770.718434
1034.190860,612.876398,1850.514855,8882.471304
1034.191176,689.485948,1036.288319,8808.450710
1034.191492,689.485948,296.082377,8734.430116
1034.191807,1378.971896,-1184.329507,9252.574275
1034.192123,1762.019645,-1554.432478,9400.615463
1034.192439,1608.800546,-1554.432478,9400.615463
1034.192754,1072.533697,-1036.288319,9400.615463
1034.193070,76.609550,-740.205942,9178.553681
1034.193386,306.438199,-74.020594,9474.636058
1034.193701,0.000000,1110.308913,9548.656652
1034.194017,-76.609550,2146.597232,9178.553681
1034.194333,-842.705048,1332.370696,9326.594869
1034.194648,-842.705048,148.041188,9474.636058
1034.194964,-842.705048,-1554.432478,9992.780217
1034.195280,0.000000,-2220.617826,10362.883188
1034.195595,383.047749,-2220.617826,10214.842000
1034.195911,306.438199,-1628.453072,10214.842000
1034.196227,0.000000,-1110.308913,9696.697840
1034.196542,-306.438199,-0.000000,9548.656652
1034.196858,-153.219100,1184.329507,9474.636058
1034.197174,76.609550,2294.638420,9030.512492
1034.197489,229.828649,2368.659014,8734.430116
1034.197805,459.657299,1480.411884,8438.347739
1034.198121,306.438199,-148.041188,8956.491898
1034.198436,1072.533697,-1480.411884,9696.697840
1034.198752,1302.362347,-1850.514855,10066.800811
1034.199068,919.314598,-1702.473667,9918.759623
1034.199383,689.485948,-592.164754,9326.594869
1034.199699,-459.657299,222.061783,9548.656652
1034.200015,-229.828649,740.205942,9770.718434
1034.200330,-536.266849,1554.432478,9474.636058
1034.200646,-459.657299,1776.494261,9178.553681
1034.200962,-536.266849,888.247130,9474.636058
1034.201277,-229.828649,-148.041188,9400.615463
1034.201593,0.000000,-1258.350101,9992.780217
1034.201909,536.266849,-1924.535449,10140.821405
1034.202224,1149.143247,-1998.556043,9918.759623
1034.202540,995.924147,-1406.391290,9770.718434
1034.202856,153.219100,-518.144159,9400.615463
1034.203171,153.219100,-0.000000,9696.697840
1034.203487,842.705048,1036.288319,9548.656652
1034.203803,995.924147,1924.535449,8956.491898
1034.204118,842.705048,1850.514855,9030.512492
1034.204434,1149.143247,814.226536,8734.430116
1034.204750,1378.971896,-74.020594,9178.553681
1034.205065,1685.410096,-1332.370696,9622.677246
1034.205381,1838.629195,-1702.473667,9770.718434
1034.205697,1532.190996,-1480.411884,9696.697840
1034.206012,536.266849,-1184.329507,9474.636058
1034.206328,0.000000,-592.164754,9770.718434
1034.206644,0.000000,-74.020594,9844.739029
1034.206959,-229.828649,1184.329507,9474.636058
1034.207275,-306.438199,1036.288319,9326.594869
1034.207591,-612.876398,518.144159,8956.491898
1034.207906,-689.485948,-296.082377,9326.594869
1034.208222,-306.438199,-1850.514855,9844.739029
1034.208538,76.609550,-2294.638420,9992.780217
1034.208853,306.438199,-2220.617826,9548.656652
1034.209169,0.000000,-1628.453072,9622.677246
1034.209485,-76.609550,-1036.288319,9400.615463
1034.209800,0.000000,-296.082377,9548.656652
1034.210116,306.438199,888.247130,9326.594869
1034.210432,536.266849,2072.576638,8586.388927
1034.210747,383.047749,1776.494261,8364.327145
1034.211063,689.485948,1036.288319,8512.368333
1034.211379,689.485948,-444.123565,9326.594869
1034.211694,1225.752797,-1480.411884,9770.718434
1034.212010,1072.533697,-1480.411884,10140.821405
1034.212326,995.924147,-1184.329507,9548.656652
1034.212641,459.657299,-370.102971,9252.574275
1034.212957,0.000000,-0.000000,9474.636058
1034.213273,0.000000,666.185348,9770.718434
1034.213588,383.047749,1406.391290,9474.636058
1034.213904,-229.828649,1702.473667,9326.594869
1034.214220,-306.438199,592.164754,9326.594869
1034.214535,-229.828649,-518.144159,9400.615463
1034.214851,459.657299,-1406.391290,10288.862594
1034.215167,919.314598,-1702.473667,9622.677246
1034.215482,919.314598,-1554.432478,9770.718434
1034.215798,689.485948,-1554.432478,9474.636058
1034.216114,0.000000,-740.205942,9474.636058
1034.216429,0.000000,-370.102971,9992.780217
1034.216745,76.609550,592.164754,9918.759623
1034.217061,459.657299,1406.391290,9548.656652
1034.217376,383.047749,1184.329507,8956.491898
1034.217692,459.657299,296.082377,9030.512492
1034.218008,1225.752797,-1480.411884,9918.759623
1034.218323,1608.800546,-1850.514855,10288.862594
1034.218639,2374.896044,-1332.370696,9696.697840
1034.218955,1532.190996,-1184.329507,9548.656652
1034.219270,1225.752797,-666.185348,9104.533087
1034.219586,1149.143247,-74.020594,9326.594869
1034.219902,612.876398,666.185348,9918.759623
1034.220218,536.266849,1332.370696,9474.636058
1034.220533,459.657299,1406.391290,9326.594869
1034.220849,0.000000,666.185348,9252.574275
1034.221165,153.219100,-814.226536,9696.697840
1034.221481,229.828649,-1776.494261,10584.944971
1034.221797,1072.533697,-1924.535449,9992.780217
1034.222113,536.266849,-1480.411884,9770.718434
1034.222429,459.657299,-962.267725,9696.697840
1034.222744,0.000000,-444.123565,9474.636058
1034.223060,0.000000,148.041188,9622.677246
1034.223376,76.609550,1184.329507,9474.636058
1034.223692,383.047749,1850.514855,9030.512492
1034.224008,995.924147,1184.329507,8808.450710
1034.224324,766.095498,-148.041188,8956.491898
1034.224640,995.924147,-962.267725,9474.636058
1034.224955,1685.410096,-1480.411884,9474.636058
1034.225271,1532.190996,-1110.308913,8956.491898
1034.225587,1302.362347,-740.205942,9104.533087
1034.225903,536.266849,-296.082377,8956.491898
1034.226219,153.219100,-0.000000,8956.491898
1034.226535,0.000000,814.226536,9548.656652
1034.226851,-306.438199,1406.391290,9474.636058
1034.227166,-536.266849,888.247130,9030.512492
1034.227482,-612.876398,370.102971,9252.574275
1034.227798,-995.924147,-1036.288319,9918.759623
1034.228114,76.609550,-2072.576638,10140.821405
1034.228430,306.438199,-1628.453072,9770.718434
1034.228746,842.705048,-1184.329507,9474.636058
1034.229062,0.000000,-962.267725,9548.656652
1034.229377,0.000000,-0.000000,9326.594869
1034.229693,-229.828649,814.226536,9474.636058
1034.230009,306.438199,1776.494261,9474.636058
1034.230325,229.828649,1850.514855,8956.491898
1034.230641,383.047749,1406.391290,8438.347739
1034.230957,229.828649,222.061783,8956.491898
1034.231273,919.314598,-1258.350101,9622.677246
1034.231588,1149.143247,-1258.350101,9992.780217
1034.231904,1378.971896,-1036.288319,9770.718434
1034.232220,842.705048,-814.226536,9326.594869
1034.232536,229.828649,222.061783,9400.615463
1034.232852,-229.828649,444.123565,9474.636058
1034.233168,0.000000,1332.370696,9696.697840
1034.233484,-536.266849,1924.535449,9474.636058
1034.233799,-459.657299,1258.350101,9474.636058
1034.234115,-306.438199,-0.000000,9622.677246
1034.234431,306.438199,-1110.308913,10288.862594
1034.234747,229.828649,-1998.556043,10436.903782
1034.235063,536.266849,-1850.514855,10214.842000
1034.235379,612.876398,-1110.308913,9622.677246
1034.235694,536.266849,-740.205942,9474.636058
1034.236010,153.219100,-0.000000,9770.718434
1034.236326,306.438199,1110.308913,9770.718434
1034.236642,995.924147,1628.453072,9178.553681
1034.236958,842.705048,1924.535449,8882.471304
1034.237274,842.705048,1184.329507,8808.450710
1034.237590,1378.971896,-0.000000,8956.491898
1034.237905,1762.019645,-1036.288319,9918.759623
1034.238221,2068.457845,-1628.453072,9770.718434
1034.238537,1762.019645,-1480.411884,9844.739029
1034.238853,1302.362347,-962.267725,9474.636058
1034.239169,919.314598,-444.123565,9400.615463
1034.239485,306.438199,296.082377,9696.697840
1034.239801,459.657299,666.185348,9326.594869
1034.240116,229.828649,1332.370696,9178.553681
1034.240432,0.000000,740.205942,9104.533087
1034.240748,0.000000,-0.000000,9252.574275
1034.241064,0.000000,-1406.391290,9696.697840
1034.241380,229.828649,-2072.576638,10584.944971
1034.241696,842.705048,-2072.576638,9622.677246
1034.242012,536.266849,-1480.411884,9696.697840
1034.242327,383.047749,-962.267725,9622.677246
1034.242643,0.000000,-592.164754,9400.615463
1034.242959,76.609550,148.041188,9474.636058
1034.243275,306.438199,888.247130,9030.512492
1034.243591,76.609550,1406.391290,8808.450710
1034.243907,0.000000,592.164754,8660.409521
1034.244223,612.876398,-296.082377,9252.574275
1034.244538,1072.533697,-1332.370696,10066.800811
1034.244854,919.314598,-1776.494261,9474.636058
1034.245170,995.924147,-1628.453072,9030.512492
1034.245486,459.657299,-888.247130,9326.594869
1034.245802,-153.219100,-518.144159,9474.636058
1034.246118,0.000000,-0.000000,9548.656652
1034.246434,76.609550,1184.329507,9474.636058
1034.246749,0.000000,1258.350101,8956.491898
1034.247065,-459.657299,814.226536,9178.553681
1034.247381,-536.266849,-222.061783,9474.636058
1034.247697,153.219100,-1406.391290,9770.718434
1034.248013,306.438199,-2368.659014,10214.842000
1034.248329,842.705048,-1998.556043,9770.718434
1034.248645,536.266849,-1850.514855,9252.574275
1034.248960,153.219100,-962.267725,9104.533087
1034.249276,-229.828649,-370.102971,9696.697840
1034.249592,229.828649,592.164754,9696.697840
1034.249908,612.876398,1554.432478,9252.574275
1034.250224,536.266849,1776.494261,9104.533087
1034.250540,919.314598,370.102971,9178.553681
1034.250856,919.314598,-666.185348,9400.615463
1034.251171,1685.410096,-1480.411884,9548.656652
1034.251487,1915.238745,-1554.432478,9696.697840
1034.251803,1915.238745,-1184.329507,9548.656652
1034.252119,919.314598,-518.144159,9400.615463
1034.252435,842.705048,-0.000000,9622.677246
1034.252751,766.095498,592.164754,9622.677246
1034.253066,76.609550,1554.432478,9326.594869
1034.253382,229.828649,1554.432478,9104.533087
1034.253698,0.000000,592.164754,9548.656652
1034.254014,306.438199,-148.041188,9918.759623
1034.254330,306.438199,-1036.288319,9992.780217
1034.254646,1072.533697,-1480.411884,10066.800811
1034.254962,1608.800546,-1406.391290,9992.780217
1034.255277,536.266849,-962.267725,9400.615463
1034.255593,0.000000,-296.082377,9548.656652
1034.255909,-153.219100,-0.000000,9918.759623
1034.256225,0.000000,814.226536,9992.780217
1034.256541,612.876398,1406.391290,9400.615463
1034.256857,306.438199,1332.370696,9104.533087
1034.257173,76.609550,666.185348,9104.533087
1034.257488,612.876398,-592.164754,9474.636058
1034.257804,1455.581446,-1332.370696,9696.697840
1034.258120,2068.457845,-1184.329507,9252.574275
1034.258436,1225.752797,-814.226536,8882.471304
1034.258752,919.314598,-518.144159,9326.594869
1034.259068,306.438199,-0.000000,9548.656652
1034.259384,76.609550,518.144159,9770.718434
1034.259699,-153.219100,1554.432478,9474.636058
1034.260015,-383.047749,1776.494261,9178.553681
1034.260331,-383.047749,666.185348,8956.491898
1034.260647,-229.828649,-222.061783,9474.636058
1034.260963,229.828649,-1036.288319,10140.821405
1034.261279,536.266849,-1480.411884,10066.800811
1034.261595,306.438199,-1480.411884,9844.739029
1034.261910,76.609550,-1110.308913,9622.677246
1034.262226,-536.266849,-518.144159,9548.656652
1034.262542,-459.657299,-0.000000,9844.739029
1034.262858,0.000000,1258.350101,10140.821405
1034.263174,0.000000,1998.556043,9104.533087
1034.263490,229.828649,2072.576638,8660.409521
1034.263806,536.266849,962.267725,8586.388927
1034.264121,995.924147,-370.102971,9474.636058
1034.264437,1532.190996,-1036.288319,9622.677246
1034.264753,1532.190996,-1110.308913,9474.636058
1034.265069,1072.533697,-962.267725,9622.677246
1034.265385,229.828649,-444.123565,9326.594869
1034.265701,153.219100,-0.000000,9474.636058
1034.266017,229.828649,1110.308913,9770.718434
1034.266332,0.000000,1998.556043,9104.533087
1034.266648,-229.828649,1406.391290,9252.574275
1034.266964,-306.438199,370.102971,8956.491898
1034.267280,-459.657299,-888.247130,9844.739029
1034.267596,76.609550,-1924.535449,10140.821405
1034.267912,306.438199,-2220.617826,10436.903782
1034.268227,536.266849,-1702.473667,10288.862594
1034.268543,153.219100,-1332.370696,9548.656652
1034.268859,229.828649,-518.144159,9696.697840
1034.269175,229.828649,-74.020594,9474.636058
1034.269491,536.266849,1184.329507,9178.553681
1034.269807,689.485948,1628.453072,9104.533087
1034.270123,612.876398,888.247130,8808.450710
1034.270438,689.485948,222.061783,9178.553681
1034.270754,1149.143247,-1258.350101,9696.697840
1034.271070,1762.019645,-1776.494261,9918.759623
1034.271386,1762.019645,-1406.391290,9326.594869
1034.271702,1685.410096,-962.267725,9104.533087
1034.272018,1149.143247,-888.247130,9326.594869
1034.272334,459.657299,-222.061783,9548.656652
1034.272649,766.095498,740.205942,9548.656652
1034.272965,229.828649,1258.350101,9252.574275
1034.273281,0.000000,814.226536,9326.594869
1034.273597,-306.438199,222.061783,9030.512492
1034.273913,76.609550,-962.267725,9918.759623
1034.274229,536.266849,-1998.556043,10140.821405
1034.274545,995.924147,-1702.473667,9696.697840
1034.274860,919.314598,-1332.370696,9400.615463
1034.275176,536.266849,-1332.370696,9548.656652
1034.275492,0.000000,-814.226536,9474.636058
1034.275808,153.219100,444.123565,9622.677246
1034.276124,76.609550,1110.308913,8956.491898
1034.276440,459.657299,1850.514855,8882.471304
1034.276756,153.219100,1036.288319,8438.347739
1034.277071,383.047749,-148.041188,9104.533087
1034.277387,766.095498,-1480.411884,9696.697840
1034.277703,1225.752797,-1776.494261,9696.697840
1034.278019,995.924147,-1554.432478,9474.636058
1034.278335,689.485948,-1184.329507,8956.491898
1034.278651,229.828649,-296.082377,9178.553681
1034.278967,-229.828649,-0.000000,9770.718434
1034.279282,0.000000,740.205942,9622.677246
1034.279598,-229.828649,1480.411884,9326.594869
1034.279914,-536.266849,1036.288319,8956.491898
1034.280230,-383.047749,-148.041188,9030.512492
1034.280546,0.000000,-1184.329507,9474.636058
1034.280862,689.485948,-1998.556043,9992.780217
1034.281178,1302.362347,-1998.556043,10140.821405
1034.281493,229.828649,-1332.370696,9696.697840
1034.281809,0.000000,-1036.288319,9252.574275
1034.282125,0.000000,-0.000000,9622.677246
1034.282441,76.609550,666.185348,9474.636058
1034.282757,153.219100,1184.329507,9326.594869
1034.283073,306.438199,1258.350101,8734.430116
1034.283389,229.828649,518.144159,8660.409521
1034.283704,689.485948,-444.123565,9178.553681
1034.284020,1302.362347,-1628.453072,9992.780217
1034.284336,1608.800546,-1776.494261,9622.677246
1034.284652,1608.800546,-1258.350101,9696.697840
1034.284968,689.485948,-1258.350101,9104.533087
1034.285284,229.828649,-148.041188,9622.677246
1034.285599,0.000000,-222.061783,10362.883188
1034.285915,229.828649,1406.391290,9474.636058
1034.286231,306.438199,1924.535449,9104.533087
1034.286547,306.438199,1406.391290,8956.491898
1034.286863,383.047749,-0.000000,9474.636058
1034.287179,1225.752797,-962.267725,9918.759623
1034.287495,995.924147,-1924.535449,10140.821405
1034.287810,1302.362347,-1332.370696,9918.759623
1034.288126,919.314598,-1110.308913,9548.656652
1034.288442,383.047749,-444.123565,9548.656652
1034.288758,153.219100,148.041188,9992.780217
1034.289074,536.266849,1036.288319,9622.677246
1034.289390,536.266849,1998.556043,9178.553681
1034.289706,153.219100,1850.514855,9030.512492
1034.290021,0.000000,666.185348,8660.409521
1034.290337,842.705048,-666.185348,9548.656652
1034.290653,995.924147,-1480.411884,9992.780217
1034.290969,1532.190996,-1776.494261,9844.739029
1034.291285,919.314598,-1480.411884,9400.615463
1034.291601,459.657299,-1110.308913,9178.553681
1034.291917,229.828649,-74.020594,9474.636058
1034.292232,0.000000,666.185348,9696.697840
1034.292548,76.609550,1924.535449,9178.553681
1034.292864,153.219100,1924.535449,8586.388927
1034.293180,0.000000,962.267725,8734.430116
1034.293496,-229.828649,-0.000000,9326.594869
1034.293812,153.219100,-1702.473667,9918.759623
1034.294128,536.266849,-1776.494261,10214.842000
1034.294443,919.314598,-1628.453072,9918.759623
1034.294759,459.657299,-1036.288319,9696.697840
1034.295075,0.000000,-444.123565,9622.677246
1034.295391,-383.047749,444.123565,9770.718434
1034.295707,0.000000,1406.391290,9400.615463
1034.296023,0.000000,2072.576638,9178.553681
1034.296339,0.000000,1480.411884,9030.512492
1034.296654,0.000000,444.123565,9252.574275
1034.296970,459.657299,-666.185348,9474.636058
1034.297286,1072.533697,-1406.391290,9696.697840
1034.297602,1455.581446,-1258.350101,9326.594869
1034.297918,1072.533697,-740.205942,9252.574275
1034.298234,612.876398,-222.061783,9030.512492
1034.298550,153.219100,296.082377,9252.574275
1034.298865,383.047749,666.185348,9622.677246
1034.299181,153.219100,1258.350101,9252.574275
1034.299497,0.000000,1258.350101,9030.512492
1034.299813,0.000000,740.205942,9104.533087
1034.300129,153.219100,-370.102971,9548.656652
1034.300445,612.876398,-1628.453072,10288.862594
1034.300761,919.314598,-2146.597232,9548.656652
1034.301076,1149.143247,-1406.391290,9548.656652
1034.301392,229.828649,-1258.350101,9548.656652
1034.301708,383.047749,-814.226536,9844.739029
1034.302024,306.438199,74.020594,9622.677246
1034.302340,153.219100,1110.308913,9548.656652
1034.302656,306.438199,1258.350101,9326.594869
1034.302971,383.047749,888.247130,9326.594869
1034.303287,766.095498,222.061783,8882.471304
1034.303603,1455.581446,-888.247130,9696.697840
1034.303919,2068.457845,-1702.473667,10066.800811
1034.304235,1685.410096,-1998.556043,9474.636058
1034.304551,1455.581446,-1258.350101,9474.636058
1034.304867,842.705048,-888.247130,9104.533087
1034.305182,766.095498,-296.082377,9326.594869
1034.305498,383.047749,814.226536,9400.615463
1034.305814,229.828649,1480.411884,8956.491898
1034.306130,383.047749,1406.391290,9030.512492
1034.306446,76.609550,148.041188,9104.533087
1034.306762,-689.485948,-1332.370696,9474.636058
1034.307078,229.828649,-2072.576638,10362.883188
1034.307393,689.485948,-2294.638420,9992.780217
1034.307709,612.876398,-1702.473667,9696.697840
1034.308025,0.000000,-1184.329507,9474.636058
1034.308341,-383.047749,-666.185348,9992.780217
1034.308657,-306.438199,370.102971,9844.739029
1034.308973,153.219100,1184.329507,9178.553681
1034.309289,0.000000,1776.494261,8808.450710
1034.309604,76.609550,814.226536,8512.368333
1034.309920,76.609550,-0.000000,9104.533087
1034.310236,536.266849,-1554.432478,9474.636058
1034.310552,995.924147,-1998.556043,9918.759623
1034.310868,1225.752797,-1406.391290,9326.594869
1034.311184,689.485948,-370.102971,8956.491898
1034.311500,383.047749,-370.102971,9400.615463
1034.311815,306.438199,-0.000000,9326.594869
1034.312131,306.438199,1480.411884,9474.636058
1034.312447,0.000000,1850.514855,9104.533087
1034.312763,-153.219100,962.267725,9104.533087
1034.313079,0.000000,-296.082377,9104.533087
1034.313395,0.000000,-1406.391290,9622.677246
1034.313711,76.609550,-2072.576638,10288.862594
1034.314026,612.876398,-1924.535449,9770.718434
1034.314342,306.438199,-1480.411884,9770.718434
1034.314658,-153.219100,-888.247130,9326.594869
1034.314974,-306.438199,-74.020594,9770.718434
1034.315290,0.000000,814.226536,10140.821405
1034.315606,306.438199,1702.473667,9178.553681
1034.315922,612.876398,1924.535449,8808.450710
1034.316237,689.485948,1036.288319,8808.450710
1034.316553,612.876398,-444.123565,9326.594869
1034.316869,1149.143247,-1036.288319,9844.739029
1034.317185,1685.410096,-1628.453072,10066.800811
1034.317501,1532.190996,-1036.288319,9474.636058
1034.317817,1455.581446,-888.247130,9252.574275
1034.318132,689.485948,-148.041188,9252.574275
1034.318448,612.876398,444.123565,9918.759623
1034.318764,689.485948,1332.370696,9548.656652
1034.319080,459.657299,1776.494261,9326.594869
1034.319396,612.876398,1406.391290,9474.636058
1034.319712,612.876398,518.144159,9252.574275
1034.320027,383.047749,-666.185348,9770.718434
1034.320343,766.095498,-1702.473667,10436.903782
1034.320659,919.314598,-1850.514855,10288.862594
1034.320975,1302.362347,-1110.308913,9548.656652
1034.321291,689.485948,-592.164754,9474.636058
1034.321607,459.657299,296.082377,10066.800811
1034.321922,536.266849,962.267725,9474.636058
1034.322238,612.876398,2220.617826,9326.594869
1034.322554,306.438199,1776.494261,9400.615463
1034.322870,459.657299,592.164754,9178.553681
1034.323186,842.705048,-296.082377,9548.656652
1034.323502,1149.143247,-1480.411884,9696.697840
1034.323817,1838.629195,-1776.494261,9918.759623
1034.324133,1378.971896,-1480.411884,9400.615463
1034.324449,459.657299,-1110.308913,8956.491898
1034.324765,229.828649,-296.082377,9474.636058
1034.325081,0.000000,-0.000000,9844.739029
1034.325397,0.000000,888.247130,9400.615463
1034.325712,-153.219100,1258.350101,8882.471304
1034.326028,-612.876398,370.102971,8660.409521
1034.326344,-536.266849,-518.144159,9178.553681
1034.326660,0.000000,-1924.535449,10288.862594
1034.326976,383.047749,-1924.535449,10140.821405
1034.327291,383.047749,-1480.411884,9622.677246
1034.327607,76.609550,-1258.350101,9104.533087
1034.327923,0.000000,-666.185348,9178.553681
1034.328239,-383.047749,148.041188,8956.491898
1034.328555,0.000000,1406.391290,9548.656652
1034.328871,-153.219100,1850.514855,9104.533087
1034.329186,-76.609550,1776.494261,9104.533087
1034.329502,-153.219100,740.205942,8586.388927
1034.329818,612.876398,-518.144159,9030.512492
1034.330134,766.095498,-1258.350101,9844.739029
1034.330450,1149.143247,-1406.391290,9770.718434
1034.330766,919.314598,-888.247130,9252.574275
1034.331081,306.438199,-666.185348,9326.594869
1034.331397,0.000000,148.041188,9622.677246
1034.331713,0.000000,1110.308913,9474.636058
1034.332029,-76.609550,1776.494261,9474.636058
1034.332345,-306.438199,1776.494261,9104.533087
1034.332661,-459.657299,962.267725,9104.533087
1034.332976,-153.219100,-370.102971,9474.636058
1034.333292,153.219100,-1332.370696,9992.780217
1034.333608,536.266849,-2220.617826,10140.821405
1034.333924,612.876398,-1702.473667,9992.780217
1034.334240,536.266849,-1628.453072,9696.697840
1034.334556,459.657299,-740.205942,9770.718434
1034.334871,0.000000,-222.061783,9770.718434
1034.335187,229.828649,814.226536,9622.677246
1034.335503,536.266849,1628.453072,9400.615463
1034.335819,766.095498,1332.370696,9178.553681
1034.336135,919.314598,222.061783,8882.471304
1034.336451,1378.971896,-592.164754,9622.677246
1034.336766,1838.629195,-1702.473667,10214.842000
1034.337082,2298.286494,-1258.350101,9770.718434
1034.337398,1838.629195,-518.144159,9474.636058
1034.337714,919.314598,-592.164754,9548.656652
1034.338030,306.438199,-0.000000,9622.677246
1034.338346,76.609550,1036.288319,9918.759623
1034.338661,0.000000,1332.370696,9252.574275
1034.338977,0.000000,1258.350101,9474.636058
1034.339293,-383.047749,296.082377,9400.615463
1034.339609,-153.219100,-740.205942,9844.739029
1034.339925,383.047749,-1850.514855,10362.883188
1034.340240,842.705048,-1850.514855,10288.862594
1034.340556,612.876398,-1332.370696,9696.697840
1034.340872,536.266849,-962.267725,9548.656652
1034.341188,153.219100,-444.123565,9400.615463
1034.341504,689.485948,666.185348,9622.677246
1034.341820,459.657299,1110.308913,9030.512492
1034.342135,766.095498,1924.535449,9030.512492
1034.342451,383.047749,1332.370696,8808.450710
1034.342767,766.095498,-0.000000,8956.491898
1034.343083,842.705048,-740.205942,9474.636058
1034.343399,1378.971896,-1554.432478,9770.718434
1034.343715,1455.581446,-1332.370696,9104.533087
1034.344030,766.095498,-1184.329507,9326.594869
1034.344346,0.000000,-1036.288319,9474.636058
1034.344662,-306.438199,-592.164754,9918.759623
1034.344978,-536.266849,296.082377,9548.656652
1034.345294,-459.657299,1184.329507,9104.533087
1034.345610,-612.876398,1036.288319,9104.533087
1034.345925,-766.095498,-0.000000,8882.471304
1034.346241,76.609550,-1036.288319,9696.697840
1034.346557,536.266849,-2146.597232,10288.862594
1034.346873,919.314598,-2368.659014,9770.718434
1034.347189,919.314598,-2072.576638,9474.636058
1034.347505,612.876398,-1480.411884,9030.512492
1034.347820,612.876398,-592.164754,9252.574275
1034.348136,459.657299,444.123565,9252.574275
1034.348452,459.657299,1406.391290,9252.574275
1034.348768,153.219100,1406.391290,8956.491898
1034.349084,0.000000,814.226536,8364.327145
1034.349400,536.266849,-1036.288319,9326.594869
1034.349715,766.095498,-1776.494261,9992.780217
1034.350031,1225.752797,-1924.535449,9844.739029
1034.350347,1072.533697,-1554.432478,9474.636058
1034.350663,995.924147,-962.267725,9326.594869
1034.350979,612.876398,-370.102971,9400.615463
1034.351294,0.000000,296.082377,9622.677246
1034.351610,0.000000,1332.370696,9622.677246
1034.351926,0.000000,1554.432478,9400.615463
1034.352242,0.000000,888.247130,9178.553681
1034.352558,0.000000,-148.041188,9622.677246
1034.352874,306.438199,-1110.308913,9696.697840
1034.353189,536.266849,-1776.494261,9770.718434
1034.353505,1072.533697,-1480.411884,9918.759623
1034.353821,1455.581446,-1332.370696,9696.697840
1034.354137,919.314598,-666.185348,9326.594869
1034.354453,689.485948,296.082377,9622.677246
1034.354769,612.876398,666.185348,9474.636058
1034.355084,842.705048,1554.432478,9178.553681
1034.355400,612.876398,1850.514855,9104.533087
1034.355716,842.705048,962.267725,8808.450710
1034.356032,919.314598,-148.041188,9400.615463
1034.356348,1225.752797,-1036.288319,9696.697840
1034.356664,1378.971896,-1480.411884,9622.677246
1034.356979,1915.238745,-1184.329507,9770.718434
1034.357295,459.657299,-814.226536,9696.697840
1034.357611,0.000000,-444.123565,10066.800811
1034.357927,0.000000,370.102971,10066.800811
1034.358243,-229.828649,1332.370696,9548.656652
1034.358559,-229.828649,2146.597232,9474.636058
1034.358874,-306.438199,1110.308913,9104.533087
1034.359190,-229.828649,222.061783,9400.615463
1034.359506,76.609550,-740.205942,9844.739029
1034.359822,842.705048,-1480.411884,10066.800811
1034.360138,1762.019645,-1480.411884,9474.636058
1034.360454,766.095498,-888.247130,9474.636058
1034.360769,306.438199,-444.123565,9400.615463
1034.361085,153.219100,222.061783,9770.718434
1034.361401,153.219100,1036.288319,9622.677246
1034.361717,0.000000,2072.576638,9474.636058
1034.362033,229.828649,1998.556043,9252.574275
1034.362348,76.609550,1036.288319,8808.450710
1034.362664,612.876398,-148.041188,9400.615463
1034.362980,995.924147,-1628.453072,9918.759623
1034.363296,1072.533697,-1924.535449,9696.697840
1034.363612,842.705048,-1184.329507,9844.739029
1034.363928,536.266849,-814.226536,9770.718434
1034.364243,0.000000,-222.061783,9992.780217
1034.364559,-153.219100,888.247130,9770.718434
1034.364875,0.000000,1998.556043,9326.594869
1034.365191,153.219100,1924.535449,8882.471304
1034.365507,76.609550,1258.350101,8660.409521
1034.365823,0.000000,148.041188,9030.512492
1034.366138,1072.533697,-1850.514855,10140.821405
1034.366454,995.924147,-2072.576638,9844.739029
1034.366770,1149.143247,-1776.494261,9696.697840
1034.367086,612.876398,-1406.391290,9474.636058
1034.367402,383.047749,-1036.288319,9474.636058
1034.367718,0.000000,-296.082377,9622.677246
1034.368033,76.609550,1184.329507,9474.636058
1034.368349,383.047749,1628.453072,9104.533087
1034.368665,459.657299,1184.329507,8956.491898
1034.368981,383.047749,148.041188,8882.471304
1034.369297,842.705048,-1184.329507,9548.656652
1034.369613,1608.800546,-2294.638420,9770.718434
1034.369928,1685.410096,-2368.659014,9548.656652
1034.370244,1072.533697,-1628.453072,9400.615463
1034.370560,612.876398,-1036.288319,9400.615463
1034.370876,153.219100,-148.041188,9696.697840
1034.371192,153.219100,666.185348,9474.636058
1034.371508,0.000000,1554.432478,8956.491898
1034.371823,0.000000,1628.453072,8734.430116
1034.372139,0.000000,-0.000000,8882.471304
1034.372455,0.000000,-666.185348,9326.594869
1034.372771,306.438199,-1998.556043,9992.780217
1034.373087,536.266849,-2516.700203,9992.780217
1034.373403,766.095498,-1998.556043,9696.697840
1034.373718,612.876398,-1554.432478,9474.636058
1034.374034,-306.438199,-814.226536,9474.636058
1034.374350,-383.047749,-74.020594,9474.636058
1034.374666,-306.438199,962.267725,9326.594869
1034.374982,-229.828649,1850.514855,9252.574275
1034.375297,-306.438199,888.247130,8808.450710
1034.375613,153.219100,-222.061783,9400.615463
1034.375929,306.438199,-1110.308913,9548.656652
1034.376245,1302.362347,-2072.576638,10214.842000
1034.376561,1915.238745,-1554.432478,9844.739029
1034.376877,1302.362347,-1110.308913,9474.636058
1034.377192,383.047749,-666.185348,9326.594869
1034.377508,459.657299,-0.000000,9474.636058
1034.377824,229.828649,1184.329507,9400.615463
1034.378140,536.266849,2072.576638,8882.471304
1034.378456,383.047749,1628.453072,9030.512492
1034.378772,383.047749,814.226536,8882.471304
1034.379087,459.657299,-518.144159,9844.739029
1034.379403,1072.533697,-1776.494261,9992.780217
1034.379719,766.095498,-1850.514855,10066.800811
1034.380035,1072.533697,-1702.473667,9770.718434
1034.380351,612.876398,-1110.308913,9474.636058
1034.380667,229.828649,-740.205942,9696.697840
1034.380982,306.438199,-0.000000,10140.821405
1034.381298,153.219100,1332.370696,9474.636058
1034.381614,229.828649,2072.576638,9326.594869
1034.381930,612.876398,1184.329507,8956.491898
1034.382246,766.095498,222.061783,9178.553681
1034.382562,1302.362347,-888.247130,9474.636058
1034.382877,2298.286494,-1776.494261,9844.739029
1034.383193,1915.238745,-1702.473667,9474.636058
1034.383509,1532.190996,-888.247130,8808.450710
1034.383825,842.705048,-370.102971,9548.656652
1034.384141,459.657299,222.061783,10066.800811
1034.384457,153.219100,1406.391290,9844.739029
1034.384772,0.000000,2368.659014,9326.594869
1034.385088,-153.219100,1776.494261,9252.574275
1034.385404,-383.047749,740.205942,9474.636058
1034.385720,-306.438199,-592.164754,9992.780217
1034.386036,306.438199,-2220.617826,10436.903782
1034.386351,459.657299,-2072.576638,10584.944971
1034.386667,459.657299,-1850.514855,10140.821405
1034.386983,-153.219100,-888.247130,9696.697840
1034.387299,229.828649,-518.144159,10066.800811
1034.387615,0.000000,666.185348,9770.718434
1034.387931,153.219100,2072.576638,9030.512492
1034.388246,229.828649,2294.638420,8734.430116
1034.388562,612.876398,1554.432478,8660.409521
1034.388878,612.876398,-0.000000,8586.388927
1034.389194,1072.533697,-1036.288319,9622.677246
1034.389510,1455.581446,-1776.494261,9400.615463
1034.389826,1455.581446,-1480.411884,9252.574275
1034.390141,919.314598,-1110.308913,9178.553681
1034.390457,0.000000,-666.185348,9770.718434
1034.390773,-229.828649,-0.000000,9918.759623
1034.391089,-459.657299,1110.308913,9400.615463
1034.391405,-689.485948,1924.535449,9252.574275
1034.391721,-689.485948,1258.350101,8882.471304
1034.392036,-766.095498,-0.000000,9326.594869
1034.392352,0.000000,-962.267725,9548.656652
1034.392668,459.657299,-1998.556043,9844.739029
1034.392984,842.705048,-2072.576638,9696.697840
1034.393300,612.876398,-1480.411884,9622.677246
1034.393616,0.000000,-962.267725,9178.553681
1034.393931,-229.828649,-0.000000,9474.636058
1034.394247,0.000000,962.267725,9326.594869
1034.394563,383.047749,1998.556043,9030.512492
1034.394879,153.219100,2146.597232,8882.471304
1034.395195,229.828649,666.185348,9030.512492
1034.395511,459.657299,-888.247130,9474.636058
1034.395826,1302.362347,-1776.494261,9844.739029
1034.396142,1225.752797,-1998.556043,9770.718434
1034.396458,1378.971896,-1850.514855,10066.800811
1034.396774,842.705048,-1110.308913,9474.636058
1034.397090,229.828649,-222.061783,9474.636058
1034.397406,0.000000,296.082377,9918.759623
1034.397721,76.609550,1332.370696,9400.615463
1034.398037,-153.219100,1850.514855,9178.553681
1034.398353,0.000000,1332.370696,9104.533087
1034.398669,229.828649,-74.020594,9104.533087
1034.398985,689.485948,-1480.411884,9918.759623
1034.399300,1225.752797,-2072.576638,9992.780217
1034.399616,919.314598,-2294.638420,9918.759623
1034.399932,995.924147,-1628.453072,9770.718434
1034.400248,306.438199,-1036.288319,9770.718434
1034.400564,306.438199,-0.000000,10066.800811
1034.400880,689.485948,1184.329507,9622.677246
1034.401195,766.095498,1776.494261,8660.409521
1034.401511,766.095498,1554.432478,8808.450710
1034.401827,689.485948,666.185348,8808.450710
1034.402143,842.705048,-444.123565,9400.615463
1034.402459,1455.581446,-1258.350101,9696.697840
1034.402775,1838.629195,-1480.411884,9400.615463
1034.403090,1532.190996,-888.247130,9474.636058
1034.403406,919.314598,-962.267725,9252.574275
1034.403722,76.609550,-444.123565,9770.718434
1034.404038,0.000000,-0.000000,10288.862594
1034.404354,0.000000,1258.350101,9696.697840
1034.404670,-459.657299,1480.411884,9400.615463
1034.404985,-459.657299,1184.329507,9252.574275
1034.405301,-229.828649,-296.082377,9474.636058
1034.405617,229.828649,-1332.370696,9992.780217
1034.405933,919.314598,-1554.432478,9770.718434
1034.406249,919.314598,-1554.432478,9474.636058
1034.406565,536.266849,-1332.370696,9400.615463
1034.406880,0.000000,-888.247130,9178.553681
1034.407196,-383.047749,-0.000000,9844.739029
1034.407512,0.000000,888.247130,9918.759623
1034.407828,0.000000,1702.473667,9326.594869
1034.408144,-76.609550,1332.370696,8734.430116
1034.408460,0.000000,-0.000000,9104.533087
1034.408775,306.438199,-1036.288319,9918.759623
1034.409091,919.314598,-1924.535449,9844.739029
1034.409407,766.095498,-1702.473667,9696.697840
1034.409723,459.657299,-1110.308913,9400.615463
1034.410039,383.047749,-962.267725,9474.636058
1034.410354,-153.219100,222.061783,9696.697840
1034.410670,-306.438199,740.205942,9474.636058
1034.410986,-612.876398,1924.535449,9104.533087
1034.411302,-383.047749,1628.453072,9030.512492
1034.411618,-536.266849,518.144159,8882.471304
1034.411934,-459.657299,-814.226536,9474.636058
1034.412249,153.219100,-2146.597232,10214.842000
1034.412565,919.314598,-2368.659014,10362.883188
1034.412881,766.095498,-1776.494261,9770.718434
1034.413197,766.095498,-1110.308913,9696.697840
1034.413513,306.438199,-370.102971,9474.636058
1034.413829,229.828649,518.144159,9326.594869
1034.414144,612.876398,1702.473667,9104.533087
1034.414460,766.095498,1998.556043,8882.471304
1034.414776,612.876398,1480.411884,8956.491898
1034.415092,919.314598,-0.000000,9252.574275
1034.415408,1455.581446,-1110.308913,9622.677246
1034.415724,1991.848295,-1702.473667,9622.677246
1034.416039,1762.019645,-1850.514855,9696.697840
1034.416355,1915.238745,-1480.411884,9474.636058
1034.416671,1302.362347,-814.226536,9252.574275
1034.416987,689.485948,148.041188,9918.759623
1034.417303,459.657299,814.226536,9474.636058
1034.417619,383.047749,1332.370696,9030.512492
1034.417934,153.219100,1406.391290,9326.594869
1034.418250,-153.219100,444.123565,9326.594869
1034.418566,306.438199,-296.082377,9474.636058
1034.418882,995.924147,-1628.453072,10140.821405
1034.419197,1225.752797,-1628.453072,9992.780217
1034.419513,1302.362347,-1332.370696,9844.739029
1034.419829,612.876398,-1036.288319,9548.656652
1034.420145,153.219100,-0.000000,9770.718434
1034.420460,0.000000,444.123565,9770.718434
1034.420776,0.000000,1110.308913,9474.636058
1034.421092,306.438199,2146.597232,9104.533087
1034.421407,-306.438199,962.267725,8808.450710
1034.421723,76.609550,-296.082377,9622.677246
1034.422039,766.095498,-1036.288319,9474.636058
1034.422355,995.924147,-1702.473667,9992.780217
1034.422670,1149.143247,-1480.411884,9474.636058
1034.422986,459.657299,-1110.308913,9326.594869
1034.423302,-229.828649,-592.164754,9474.636058
1034.423617,-383.047749,-222.061783,9844.739029
1034.423933,-383.047749,740.205942,9770.718434
1034.424249,-842.705048,1776.494261,9178.553681
1034.424565,-766.095498,1332.370696,9104.533087
1034.424880,-766.095498,296.082377,9104.533087
1034.425196,-153.219100,-740.205942,9622.677246
1034.425512,306.438199,-1850.514855,9770.718434
1034.425827,689.485948,-2072.576638,9844.739029
1034.426143,383.047749,-1776.494261,9548.656652
1034.426459,0.000000,-1110.308913,9474.636058
1034.426774,0.000000,-148.041188,9622.677246
1034.427090,0.000000,1110.308913,9400.615463
1034.427406,0.000000,1924.535449,9326.594869
1034.427722,153.219100,2368.659014,8956.491898
1034.428037,229.828649,1332.370696,8882.471304
1034.428353,842.705048,-222.061783,9326.594869
1034.428669,1072.533697,-1406.391290,9844.739029
1034.428984,1455.581446,-1554.432478,9622.677246
1034.429300,1608.800546,-1258.350101,9548.656652
1034.429616,1149.143247,-1036.288319,9030.512492
1034.429932,766.095498,-74.020594,9400.615463
1034.430247,459.657299,592.164754,9400.615463
1034.430563,0.000000,1258.350101,9252.574275
1034.430879,383.047749,2220.617826,8882.471304
1034.431194,0.000000,1332.370696,9030.512492
1034.431510,459.657299,370.102971,9696.697840
1034.431826,229.828649,-1184.329507,10066.800811
1034.432142,689.485948,-2072.576638,10214.842000
1034.432457,842.705048,-1924.535449,9992.780217
1034.432773,766.095498,-1628.453072,9548.656652
1034.433089,689.485948,-962.267725,9474.636058
1034.433404,0.000000,-444.123565,9992.780217
1034.433720,0.000000,814.226536,9844.739029
1034.434036,612.876398,1702.473667,9104.533087
1034.434352,306.438199,1776.494261,8882.471304
1034.434667,306.438199,518.144159,9252.574275
1034.434983,1072.533697,-666.185348,9474.636058
1034.435299,1532.190996,-1332.370696,9770.718434
1034.435614,1991.848295,-1776.494261,9918.759623
1034.435930,1685.410096,-1332.370696,9622.677246
1034.436246,1225.752797,-740.205942,9326.594869
1034.436561,689.485948,-74.020594,9474.636058
1034.436877,229.828649,370.102971,9622.677246
1034.437193,306.438199,1776.494261,9474.636058
1034.437509,76.609550,1480.411884,8882.471304
1034.437824,0.000000,1036.288319,9326.594869
1034.438140,-229.828649,-444.123565,9474.636058
1034.438456,76.609550,-1480.411884,9696.697840
1034.438771,612.876398,-1998.556043,9770.718434
1034.439087,612.876398,-2146.597232,9770.718434
1034.439403,1072.533697,-1332.370696,9770.718434
1034.439719,0.000000,-1184.329507,9474.636058
1034.440034,0.000000,-74.020594,9548.656652
1034.440350,0.000000,814.226536,9400.615463
1034.440666,0.000000,1554.432478,9178.553681
1034.440981,76.609550,1406.391290,8586.388927
1034.441297,76.609550,296.082377,9104.533087
1034.441613,536.266849,-962.267725,9252.574275
1034.441929,1225.752797,-1628.453072,9696.697840
1034.442244,1378.971896,-1554.432478,9252.574275
1034.442560,1149.143247,-1480.411884,9474.636058
1034.442876,689.485948,-666.185348,9178.553681
1034.443191,229.828649,-0.000000,9104.533087
1034.443507,-383.047749,592.164754,9548.656652
1034.443823,-306.438199,1184.329507,9474.636058
1034.444139,-459.657299,1480.411884,8956.491898
1034.444454,-383.047749,370.102971,9326.594869
1034.444770,-766.095498,-1036.288319,9622.677246
1034.445086,-229.828649,-1850.514855,10066.800811
1034.445401,459.657299,-2442.679609,10214.842000
1034.445717,612.876398,-2072.576638,9622.677246
1034.446033,536.266849,-1406.391290,9474.636058
1034.446348,0.000000,-814.226536,9548.656652
1034.446664,153.219100,296.082377,9474.636058
1034.446980,383.047749,1110.308913,9474.636058
1034.447296,536.266849,1554.432478,8956.491898
1034.447611,612.876398,1480.411884,8586.388927
1034.447927,689.485948,296.082377,9030.512492
1034.448243,1302.362347,-1036.288319,9400.615463
1034.448558,1915.238745,-2146.597232,9548.656652
1034.448874,1915.238745,-1776.494261,9770.718434
1034.449190,1608.800546,-1258.350101,9178.553681
1034.449506,919.314598,-888.247130,9622.677246
1034.449821,536.266849,-74.020594,9622.677246
1034.450137,153.219100,1110.308913,9844.739029
1034.450453,306.438199,1776.494261,9474.636058
1034.450768,153.219100,1554.432478,9178.553681
1034.451084,0.000000,518.144159,9474.636058
1034.451400,459.657299,-962.267725,9992.780217
1034.451716,1072.533697,-1628.453072,10214.842000
1034.452031,1302.362347,-1628.453072,9918.759623
1034.452347,1455.581446,-1184.329507,9696.697840
1034.452663,1302.362347,-1036.288319,9178.553681
1034.452978,1532.190996,-74.020594,9696.697840
1034.453294,459.657299,814.226536,9770.718434
1034.453610,612.876398,1554.432478,9030.512492
1034.453926,689.485948,2368.659014,8956.491898
1034.454241,459.657299,1258.350101,8956.491898
1034.454557,766.095498,-0.000000,9104.533087
1034.454873,689.485948,-1110.308913,9474.636058
1034.455188,1072.533697,-2072.576638,9992.780217
1034.455504,1838.629195,-1554.432478,9548.656652
1034.455820,919.314598,-962.267725,9474.636058
1034.456135,76.609550,-666.185348,9474.636058
1034.456451,-459.657299,-0.000000,9918.759623
1034.456767,-306.438199,1036.288319,9622.677246
1034.457083,-459.657299,1850.514855,9252.574275
1034.457398,-383.047749,1554.432478,9474.636058
1034.457714,-842.705048,222.061783,8956.491898
1034.458030,-383.047749,-814.226536,9474.636058
1034.458345,-229.828649,-1924.535449,10066.800811
1034.458661,919.314598,-1850.514855,9770.718434
1034.458977,766.095498,-1406.391290,9844.739029
1034.459293,76.609550,-1258.350101,9178.553681
1034.459608,-229.828649,-740.205942,9770.718434
1034.459924,-306.438199,518.144159,9474.636058
1034.460240,153.219100,1702.473667,9326.594869
1034.460555,0.000000,2072.576638,8808.450710
1034.460871,229.828649,1184.329507,8660.409521
1034.461187,306.438199,-0.000000,8956.491898
1034.461503,766.095498,-814.226536,9474.636058
1034.461818,1532.190996,-1406.391290,9770.718434
1034.462134,1302.362347,-1036.288319,9548.656652
1034.462450,536.266849,-1110.308913,9548.656652
1034.462765,0.000000,-444.123565,9474.636058
1034.463081,-383.047749,148.041188,9696.697840
1034.463397,-383.047749,962.267725,9104.533087
1034.463713,-536.266849,1554.432478,9178.553681
1034.464028,-536.266849,1184.329507,9252.574275
1034.464344,-229.828649,-0.000000,9326.594869
1034.464660,153.219100,-740.205942,9844.739029
1034.464975,766.095498,-1998.556043,10214.842000
1034.465291,1302.362347,-1258.350101,9770.718434
1034.465607,1225.752797,-1036.288319,9474.636058
1034.465922,919.314598,-518.144159,9104.533087
1034.466238,842.705048,-148.041188,9548.656652
1034.466554,383.047749,666.185348,9622.677246
1034.466870,612.876398,1480.411884,9400.615463
1034.467185,536.266849,1628.453072,9326.594869
1034.467501,612.876398,888.247130,9326.594869
1034.467817,766.095498,-148.041188,9104.533087
1034.468132,1378.971896,-1110.308913,9844.739029
1034.468448,1915.238745,-1258.350101,9844.739029
1034.468764,1455.581446,-1184.329507,9696.697840
1034.469080,1225.752797,-962.267725,9400.615463
1034.469395,153.219100,-740.205942,9474.636058
1034.469711,306.438199,-0.000000,9918.759623
1034.470027,0.000000,962.267725,9770.718434
1034.470342,0.000000,1406.391290,9548.656652
1034.470658,-306.438199,1110.308913,9400.615463
1034.470974,0.000000,-222.061783,9548.656652
1034.471290,153.219100,-1184.329507,9992.780217
1034.471605,612.876398,-1776.494261,10214.842000
1034.471921,1149.143247,-1776.494261,9770.718434
1034.472237,766.095498,-1332.370696,9178.553681
1034.472552,306.438199,-888.247130,9770.718434
1034.472868,306.438199,-222.061783,9770.718434
1034.473184,229.828649,592.164754,9400.615463
1034.473500,0.000000,1702.473667,9252.574275
1034.473815,76.609550,1332.370696,9030.512492
1034.474131,229.828649,222.061783,8808.450710
1034.474447,306.438199,-370.102971,9474.636058
1034.474762,689.485948,-1776.494261,9918.759623
1034.475078,1455.581446,-2072.576638,9770.718434
1034.475394,1149.143247,-1332.370696,9400.615463
1034.475709,919.314598,-1332.370696,8512.368333
1034.476025,0.000000,-74.020594,9252.574275
1034.476341,0.000000,370.102971,9474.636058
1034.476657,0.000000,1258.350101,9178.553681
1034.476972,0.000000,1480.411884,9104.533087
1034.477288,-229.828649,-0.000000,8956.491898
1034.477604,-229.828649,-592.164754,9252.574275
1034.477919,153.219100,-1628.453072,9548.656652
1034.478235,842.705048,-1998.556043,9844.739029
1034.478551,1225.752797,-1702.473667,9474.636058
1034.478867,612.876398,-1184.329507,9326.594869
1034.479182,459.657299,-592.164754,9178.553681
1034.479498,459.657299,-0.000000,9400.615463
1034.479814,383.047749,1036.288319,9400.615463
1034.480129,383.047749,1480.411884,9104.533087
1034.480445,229.828649,518.144159,9178.553681
1034.480761,153.219100,296.082377,9030.512492
1034.481077,689.485948,-888.247130,9548.656652
1034.481392,995.924147,-1702.473667,9770.718434
1034.481708,1302.362347,-1776.494261,9548.656652
1034.482024,1072.533697,-1258.350101,9696.697840
1034.482339,919.314598,-1036.288319,9400.615463
1034.482655,229.828649,-444.123565,9696.697840
1034.482971,0.000000,148.041188,10066.800811
1034.483287,-76.609550,1110.308913,9474.636058
1034.483602,0.000000,1036.288319,9548.656652
1034.483918,76.609550,814.226536,9400.615463
1034.484234,153.219100,-222.061783,9030.512492
1034.484549,766.095498,-1110.308913,9696.697840
1034.484865,1762.019645,-1998.556043,9992.780217
1034.485181,1532.190996,-1184.329507,9696.697840
1034.485496,1225.752797,-740.205942,9400.615463
1034.485812,459.657299,-296.082377,9474.636058
1034.486128,306.438199,370.102971,9770.718434
1034.486444,612.876398,740.205942,9474.636058
1034.486759,459.657299,1702.473667,9178.553681
1034.487075,76.609550,1702.473667,8956.491898
1034.487391,0.000000,148.041188,9400.615463
1034.487706,459.657299,-740.205942,9622.677246
1034.488022,995.924147,-1776.494261,10510.924376
1034.488338,1072.533697,-1184.329507,9696.697840
1034.488654,995.924147,-1036.288319,9474.636058
1034.488969,536.266849,-222.061783,9178.553681
1034.489285,0.000000,-0.000000,9622.677246
1034.489601,-612.876398,444.123565,9918.759623
1034.489916,0.000000,1554.432478,9474.636058
1034.490232,-383.047749,1702.473667,9104.533087
1034.490548,-459.657299,666.185348,9252.574275
1034.490864,76.609550,-222.061783,9548.656652
1034.491179,0.000000,-1258.350101,9992.780217
1034.491495,306.438199,-1184.329507,9992.780217
1034.491811,689.485948,-1036.288319,9696.697840
1034.492126,76.609550,-666.185348,9474.636058
1034.492442,-153.219100,-0.000000,9622.677246
1034.492758,-306.438199,444.123565,9992.780217
1034.493074,0.000000,1332.370696,9548.656652
1034.493389,153.219100,1998.556043,9104.533087
1034.493705,0.000000,1184.329507,9030.512492
1034.494021,536.266849,-0.000000,9400.615463
1034.494336,766.095498,-296.082377,9474.636058
1034.494652,919.314598,-1258.350101,9474.636058
1034.494968,1225.752797,-1332.370696,9548.656652
1034.495283,1149.143247,-814.226536,9474.636058
1034.495599,612.876398,-518.144159,9326.594869
1034.495915,0.000000,-0.000000,9474.636058
1034.496231,0.000000,888.247130,9326.594869
1034.496546,0.000000,1554.432478,9400.615463
1034.496862,-306.438199,1258.350101,9104.533087
1034.497178,0.000000,296.082377,9400.615463
1034.497493,76.609550,-518.144159,9474.636058
1034.497809,842.705048,-1628.453072,9844.739029
1034.498125,1072.533697,-1776.494261,9992.780217
1034.498441,995.924147,-1554.432478,9770.718434
1034.498756,689.485948,-888.247130,9474.636058
1034.499072,459.657299,-592.164754,9474.636058
1034.499388,76.609550,-74.020594,9696.697840
1034.499703,383.047749,962.267725,9770.718434
1034.500019,383.047749,1258.350101,8956.491898
1034.500335,536.266849,1110.308913,8956.491898
1034.500651,842.705048,-0.000000,9178.553681
1034.500966,1378.971896,-1110.308913,9548.656652
1034.501282,2145.067394,-1480.411884,9918.759623
1034.501598,1915.238745,-1036.288319,9474.636058
1034.501913,1149.143247,-962.267725,9252.574275
1034.502229,842.705048,-666.185348,9474.636058
1034.502545,612.876398,-0.000000,9696.697840
1034.502861,612.876398,888.247130,10066.800811
1034.503176,229.828649,1554.432478,9474.636058
1034.503492,0.000000,1110.308913,9326.594869
1034.503808,-229.828649,222.061783,9400.615463
1034.504123,0.000000,-888.247130,9770.718434
1034.504439,459.657299,-1776.494261,10510.924376
1034.504755,766.095498,-1850.514855,9918.759623
1034.505070,689.485948,-1406.391290,9474.636058
1034.505386,459.657299,-888.247130,9326.594869
1034.505702,76.609550,-592.164754,9548.656652
1034.506018,0.000000,-0.000000,9696.697840
1034.506333,0.000000,1184.329507,9548.656652
1034.506649,153.219100,1628.453072,8956.491898
1034.506965,0.000000,962.267725,8660.409521
1034.507280,0.000000,-296.082377,9252.574275
1034.507596,612.876398,-1036.288319,9844.739029
1034.507912,1149.143247,-1628.453072,9400.615463
1034.508228,919.314598,-1258.350101,9474.636058
1034.508543,306.438199,-1406.391290,9252.574275
1034.508859,-842.705048,-814.226536,9400.615463
1034.509175,-536.266849,-370.102971,10362.883188
1034.509490,-612.876398,592.164754,9696.697840
1034.509806,-536.266849,1480.411884,9178.553681
1034.510122,-919.314598,1184.329507,9178.553681
1034.510438,-919.314598,-222.061783,9548.656652
1034.510753,-612.876398,-1036.288319,10214.842000
1034.511069,306.438199,-1702.473667,10066.800811
1034.511385,842.705048,-1480.411884,9844.739029
1034.511700,689.485948,-1036.288319,9548.656652
1034.512016,536.266849,-1036.288319,9178.553681
1034.512332,1225.752797,-74.020594,9548.656652
1034.512647,689.485948,518.144159,9770.718434
1034.512963,536.266849,1554.432478,9030.512492
1034.513279,689.485948,1998.556043,8734.430116
1034.513595,612.876398,740.205942,8808.450710
1034.513910,1149.143247,-888.247130,9696.697840
1034.514226,1762.019645,-1110.308913,9474.636058
1034.514542,2221.676944,-1406.391290,9474.636058
1034.514857,1762.019645,-1110.308913,9178.553681
1034.515173,1455.581446,-1332.370696,9474.636058
1034.515489,1072.533697,-666.185348,9548.656652
1034.515805,689.485948,-0.000000,9844.739029
1034.516120,306.438199,962.267725,9622.677246
1034.516436,76.609550,1702.473667,9474.636058
1034.516752,76.609550,888.247130,9474.636058
1034.517067,153.219100,-0.000000,9696.697840
1034.517383,536.266849,-1036.288319,9992.780217
1034.517699,1225.752797,-1554.432478,9918.759623
1034.518015,1302.362347,-1110.308913,9622.677246
1034.518330,842.705048,-1184.329507,9548.656652
1034.518646,1072.533697,-740.205942,9992.780217
1034.518962,383.047749,-296.082377,9844.739029
1034.519277,612.876398,814.226536,9696.697840
1034.519593,536.266849,1702.473667,9178.553681
1034.519909,536.266849,1332.370696,9178.553681
1034.520225,306.438199,148.041188,9474.636058
1034.520540,766.095498,-592.164754,9696.697840
1034.520856,1225.752797,-1480.411884,9548.656652
1034.521172,1455.581446,-1258.350101,9548.656652
1034.521488,1149.143247,-814.226536,9104.533087
1034.521803,689.485948,-1036.288319,9326.594869
1034.522119,153.219100,-666.185348,9844.739029
1034.522435,0.000000,370.102971,9696.697840
1034.522751,-229.828649,1036.288319,9326.594869
1034.523066,-536.266849,1406.391290,9178.553681
1034.523382,-383.047749,518.144159,9030.512492
1034.523698,-306.438199,-296.082377,9474.636058
1034.524013,229.828649,-1480.411884,9844.739029
1034.524329,459.657299,-1850.514855,9992.780217
1034.524645,689.485948,-1554.432478,9474.636058
1034.524961,383.047749,-1184.329507,9030.512492
1034.525276,0.000000,-518.144159,9178.553681
1034.525592,0.000000,296.082377,9474.636058
1034.525908,0.000000,1258.350101,9400.615463
1034.526224,0.000000,1850.514855,9104.533087
1034.526539,0.000000,1258.350101,8586.388927
1034.526855,-153.219100,-0.000000,9030.512492
1034.527171,0.000000,-1036.288319,9844.739029
1034.527487,536.266849,-1480.411884,10140.821405
1034.527802,842.705048,-1406.391290,9622.677246
1034.528118,612.876398,-888.247130,9252.574275
1034.528434,306.438199,-518.144159,9474.636058
1034.528750,0.000000,-0.000000,9992.780217
1034.529065,0.000000,666.185348,9622.677246
1034.529381,0.000000,1702.473667,9400.615463
1034.529697,0.000000,1480.411884,9178.553681
1034.530013,-229.828649,814.226536,9104.533087
1034.530328,0.000000,-222.061783,9474.636058
1034.530644,919.314598,-1332.370696,9770.718434
1034.530960,1072.533697,-1332.370696,10066.800811
1034.531275,612.876398,-1110.308913,9770.718434
1034.531591,919.314598,-1332.370696,9178.553681
1034.531907,306.438199,-444.123565,9770.718434
1034.532223,0.000000,222.061783,9696.697840
1034.532538,0.000000,888.247130,9770.718434
1034.532854,306.438199,1776.494261,9400.615463
1034.533170,0.000000,1258.350101,9030.512492
1034.533486,459.657299,-148.041188,9104.533087
1034.533801,766.095498,-1036.288319,9770.718434
1034.534117,1225.752797,-1702.473667,9918.759623
1034.534433,1149.143247,-1480.411884,9992.780217
1034.534749,1455.581446,-888.247130,9326.594869
1034.535064,689.485948,-740.205942,9474.636058
1034.535380,612.876398,222.061783,9474.636058
1034.535696,383.047749,666.185348,9548.656652
1034.536012,306.438199,1850.514855,9400.615463
1034.536327,153.219100,1406.391290,9104.533087
1034.536643,229.828649,-0.000000,9252.574275
1034.536959,229.828649,-814.226536,9844.739029
1034.537275,919.314598,-1554.432478,9696.697840
1034.537590,1532.190996,-1406.391290,9474.636058
1034.537906,1225.752797,-1332.370696,9474.636058
1034.538222,383.047749,-888.247130,9400.615463
1034.538538,0.000000,-370.102971,9622.677246
1034.538853,0.000000,592.164754,9844.739029
1034.539169,0.000000,1480.411884,9474.636058
1034.539485,0.000000,1702.473667,9252.574275
1034.539800,0.000000,962.267725,8956.491898
1034.540116,76.609550,-518.144159,9252.574275
1034.540432,612.876398,-1184.329507,10140.821405
1034.540748,995.924147,-1998.556043,9844.739029
1034.541063,1072.533697,-1480.411884,9844.739029
1034.541379,612.876398,-666.185348,9326.594869
1034.541695,459.657299,-740.205942,9252.574275
1034.542011,-153.219100,370.102971,9326.594869
1034.542326,153.219100,1258.350101,9474.636058
1034.542642,-383.047749,1480.411884,9178.553681
1034.542958,-229.828649,592.164754,9030.512492
1034.543274,-383.047749,-518.144159,9326.594869
1034.543589,153.219100,-1258.350101,9844.739029
1034.543905,1149.143247,-1702.473667,10066.800811
1034.544221,842.705048,-1776.494261,9696.697840
1034.544537,689.485948,-740.205942,9400.615463
1034.544852,536.266849,-1036.288319,9844.739029
1034.545168,0.000000,-0.000000,9622.677246
1034.545484,0.000000,592.164754,9622.677246
1034.545800,229.828649,1258.350101,9400.615463
1034.546115,766.095498,1332.370696,9178.553681
1034.546431,306.438199,296.082377,8808.450710
1034.546747,995.924147,-222.061783,9178.553681
1034.547063,1378.971896,-1406.391290,9622.677246
1034.547378,1915.238745,-1702.473667,9696.697840
1034.547694,1685.410096,-1036.288319,9326.594869
1034.548010,1685.410096,-1110.308913,9326.594869
1034.548325,919.314598,-518.144159,9178.553681
1034.548641,689.485948,148.041188,9326.594869
1034.548957,766.095498,1110.308913,9104.533087
1034.549273,153.219100,1184.329507,9326.594869
1034.549588,-536.266849,814.226536,9030.512492
1034.549904,-229.828649,-74.020594,9474.636058
1034.550220,0.000000,-1332.370696,9844.739029
1034.550536,919.314598,-1924.535449,9770.718434
1034.550851,1378.971896,-1924.535449,9992.780217
1034.551167,842.705048,-1480.411884,9622.677246
1034.551483,536.266849,-814.226536,9622.677246
1034.551799,229.828649,-74.020594,9696.697840
1034.552114,306.438199,592.164754,9844.739029
1034.552430,536.266849,2072.576638,9030.512492
1034.552746,153.219100,1850.514855,8586.388927
1034.553062,229.828649,592.164754,9104.533087
1034.553377,766.095498,-222.061783,9474.636058
1034.553693,1225.752797,-1406.391290,9770.718434
1034.554009,1455.581446,-1702.473667,9474.636058
1034.554325,1302.362347,-1184.329507,9474.636058
1034.554640,536.266849,-962.267725,9104.533087
1034.554956,76.609550,-370.102971,9696.697840
1034.555272,-383.047749,592.164754,9992.780217
1034.555587,-383.047749,1184.329507,9474.636058
1034.555903,-229.828649,1850.514855,8734.430116
1034.556219,-459.657299,1110.308913,9030.512492
1034.556535,-536.266849,-0.000000,9104.533087
1034.556850,0.000000,-1258.350101,9844.739029
1034.557166,459.657299,-1924.535449,10140.821405
1034.557482,229.828649,-1628.453072,9770.718434
1034.557798,0.000000,-962.267725,9696.697840
1034.558113,-766.095498,-888.247130,9696.697840
1034.558429,-612.876398,-74.020594,9918.759623
1034.558745,153.219100,1110.308913,9474.636058
1034.559061,459.657299,1998.556043,9252.574275
1034.559376,-229.828649,1554.432478,8882.471304
1034.559692,-459.657299,518.144159,9030.512492
1034.560008,459.657299,-74.020594,9326.594869
1034.560324,842.705048,-888.247130,9696.697840
1034.560639,1149.143247,-888.247130,9696.697840
1034.560955,919.314598,-814.226536,9326.594869
1034.561271,459.657299,-814.226536,9548.656652
1034.561587,306.438199,-148.041188,9844.739029
1034.561902,0.000000,370.102971,9474.636058
1034.562218,0.000000,1184.329507,9696.697840
1034.562534,0.000000,1628.453072,9474.636058
1034.562850,0.000000,1184.329507,9104.533087
1034.563165,0.000000,-0.000000,9696.697840
1034.563481,459.657299,-962.267725,9992.780217
1034.563797,612.876398,-1480.411884,9918.759623
1034.564112,766.095498,-1554.432478,9622.677246
1034.564428,689.485948,-1628.453072,9918.759623
1034.564744,536.266849,-888.247130,9770.718434
1034.565060,383.047749,-0.000000,9548.656652
1034.565375,612.876398,740.205942,9548.656652
1034.565691,612.876398,1184.329507,9030.512492
1034.566007,612.876398,1480.411884,9326.594869
1034.566323,766.095498,296.082377,9030.512492
1034.566638,1225.752797,-666.185348,9400.615463
1034.566954,1685.410096,-1480.411884,9770.718434
1034.567270,1762.019645,-1332.370696,9400.615463
1034.567586,1532.190996,-1554.432478,9622.677246
1034.567901,1149.143247,-962.267725,9474.636058
1034.568217,842.705048,-148.041188,9548.656652
1034.568533,689.485948,592.164754,9622.677246
1034.568849,306.438199,2072.576638,9696.697840
1034.569164,383.047749,1332.370696,8956.491898
1034.569480,536.266849,518.144159,9326.594869
1034.569796,153.219100,-148.041188,9326.594869
1034.570112,612.876398,-1406.391290,9696.697840
1034.570427,1225.752797,-1554.432478,10066.800811
1034.570743,842.705048,-1554.432478,9474.636058
1034.571059,306.438199,-888.247130,9178.553681
1034.571375,0.000000,-518.144159,9474.636058
1034.571690,-306.438199,-0.000000,9548.656652
1034.572006,-459.657299,814.226536,9548.656652
1034.572322,-536.266849,1036.288319,9400.615463
1034.572637,-306.438199,444.123565,9474.636058
1034.572953,0.000000,-0.000000,9474.636058
1034.573269,229.828649,-962.267725,9474.636058
1034.573585,1072.533697,-1776.494261,9992.780217
1034.573900,1455.581446,-1628.453072,9474.636058
1034.574216,842.705048,-1184.329507,9030.512492
1034.574532,153.219100,-888.247130,9030.512492
1034.574848,153.219100,-222.061783,9326.594869
1034.575163,153.219100,666.185348,9178.553681
1034.575479,-153.219100,962.267725,9104.533087
1034.575795,-383.047749,1036.288319,9030.512492
1034.576111,-383.047749,-74.020594,9252.574275
1034.576426,-306.438199,-1036.288319,9548.656652
1034.576742,383.047749,-1998.556043,9770.718434
1034.577058,536.266849,-2072.576638,9770.718434
1034.577374,459.657299,-1628.453072,9844.739029
1034.577689,0.000000,-1184.329507,9400.615463
1034.578005,-153.219100,-962.267725,9622.677246
1034.578321,0.000000,-0.000000,9770.718434
1034.578637,306.438199,814.226536,9252.574275
1034.578952,459.657299,1850.514855,8956.491898
1034.579268,306.438199,962.267725,8882.471304
1034.579584,459.657299,-0.000000,8956.491898
1034.579899,1455.581446,-666.185348,9474.636058
1034.580215,2068.457845,-1406.391290,9696.697840
1034.580531,2145.067394,-1258.350101,9400.615463
1034.580847,1455.581446,-740.205942,9474.636058
1034.581162,689.485948,-296.082377,9474.636058
1034.581478,995.924147,-0.000000,9696.697840
1034.581794,689.485948,1110.308913,9622.677246
1034.582110,0.000000,1776.494261,9178.553681
1034.582425,0.000000,1332.370696,9326.594869
1034.582741,0.000000,-0.000000,9622.677246
1034.583057,-153.219100,-518.144159,9622.677246
1034.583373,612.876398,-1480.411884,9844.739029
1034.583688,1149.143247,-1850.514855,10214.842000
1034.584004,995.924147,-1480.411884,9770.718434
1034.584320,229.828649,-444.123565,9474.636058
1034.584636,306.438199,-0.000000,9622.677246
1034.584951,153.219100,592.164754,9844.739029
1034.585267,153.219100,1332.370696,9474.636058
1034.585583,612.876398,1628.453072,8808.450710
1034.585899,612.876398,814.226536,8882.471304
1034.586214,1072.533697,-370.102971,9030.512492
1034.586530,995.924147,-962.267725,9326.594869
1034.586846,1685.410096,-1406.391290,9844.739029
1034.587162,1608.800546,-962.267725,9770.718434
1034.587477,842.705048,-444.123565,9252.574275
1034.587793,229.828649,-296.082377,9548.656652
1034.588109,0.000000,370.102971,9918.759623
1034.588424,0.000000,1332.370696,9474.636058
1034.588740,-459.657299,1480.411884,9252.574275
1034.589056,-612.876398,888.247130,9400.615463
1034.589372,-612.876398,-0.000000,9770.718434
1034.589687,0.000000,-1110.308913,9770.718434
1034.590003,383.047749,-1406.391290,9770.718434
1034.590319,842.705048,-1480.411884,9474.636058
1034.590635,766.095498,-888.247130,9178.553681
1034.590950,306.438199,-814.226536,8808.450710
1034.591266,0.000000,-0.000000,9400.615463
1034.591582,229.828649,1036.288319,9474.636058
1034.591898,306.438199,1850.514855,9030.512492
1034.592213,76.609550,1924.535449,8734.430116
1034.592529,306.438199,666.185348,8882.471304
1034.592845,306.438199,-592.164754,9326.594869
1034.593161,995.924147,-1406.391290,9992.780217
1034.593476,919.314598,-1332.370696,9400.615463
1034.593792,842.705048,-1258.350101,9178.553681
1034.594108,229.828649,-1184.329507,9844.739029
1034.594424,0.000000,-222.061783,9474.636058
1034.594739,-612.876398,518.144159,9844.739029
1034.595055,-306.438199,1776.494261,9548.656652
1034.595371,0.000000,1628.453072,9104.533087
1034.595687,-536.266849,962.267725,8882.471304
1034.596002,-306.438199,-370.102971,9474.636058
1034.596318,229.828649,-1554.432478,10140.821405
1034.596634,766.095498,-1924.535449,10288.862594
1034.596949,766.095498,-1924.535449,10066.800811
1034.597265,612.876398,-1110.308913,9400.615463
1034.597581,153.219100,-370.102971,9770.718434
1034.597897,383.047749,-0.000000,9622.677246
1034.598212,153.219100,1110.308913,9474.636058
1034.598528,689.485948,1554.432478,9548.656652
1034.598844,459.657299,1036.288319,9252.574275
1034.599160,689.485948,-0.000000,9104.533087
1034.599475,1149.143247,-888.247130,9474.636058
1034.599791,1378.971896,-1554.432478,9770.718434
1034.600107,1455.581446,-1776.494261,9548.656652
1034.600423,1149.143247,-1406.391290,9400.615463
1034.600738,459.657299,-1184.329507,9844.739029
1034.601054,459.657299,-370.102971,9696.697840
1034.601370,153.219100,370.102971,9548.656652
1034.601686,383.047749,962.267725,9474.636058
1034.602001,153.219100,814.226536,9400.615463
1034.602317,0.000000,592.164754,9474.636058
1034.602633,0.000000,-666.185348,9326.594869
1034.602949,842.705048,-1628.453072,9548.656652
1034.603264,1072.533697,-1776.494261,9400.615463
1034.603580,1149.143247,-1406.391290,9400.615463
1034.603896,459.657299,-1332.370696,9400.615463
1034.604211,0.000000,-888.247130,9474.636058
1034.604527,306.438199,-222.061783,9474.636058
1034.604843,76.609550,814.226536,9252.574275
1034.605159,153.219100,1184.329507,9326.594869
1034.605474,-383.047749,666.185348,9104.533087
1034.605790,-153.219100,222.061783,9326.594869
1034.606106,536.266849,-1036.288319,9622.677246
1034.606422,919.314598,-1850.514855,9696.697840
1034.606737,1149.143247,-1258.350101,9474.636058
1034.607053,842.705048,-1332.370696,8956.491898
1034.607369,383.047749,-1036.288319,9400.615463
1034.607685,0.000000,-444.123565,9622.677246
1034.608000,0.000000,1184.329507,9400.615463
1034.608316,-153.219100,1850.514855,8734.430116
1034.608632,-306.438199,1258.350101,8734.430116
1034.608948,-612.876398,518.144159,9252.574275
1034.609263,76.609550,-740.205942,9474.636058
1034.609579,306.438199,-1776.494261,9992.780217
1034.609895,842.705048,-2146.597232,9696.697840
1034.610211,766.095498,-1776.494261,9474.636058
1034.610526,-306.438199,-1406.391290,9400.615463
1034.610842,-306.438199,-444.123565,9622.677246
1034.611158,-383.047749,222.061783,9770.718434
1034.611474,0.000000,1258.350101,9548.656652
1034.611789,0.000000,1776.494261,8956.491898
1034.612105,0.000000,1110.308913,8808.450710
1034.612421,536.266849,-74.020594,9252.574275
1034.612736,995.924147,-1480.411884,9548.656652
1034.613052,1685.410096,-1406.391290,10436.903782
1034.613368,1915.238745,-1258.350101,9548.656652
1034.613684,1532.190996,-592.164754,9252.574275
1034.613999,612.876398,-0.000000,9770.718434
1034.614315,306.438199,740.205942,9918.759623
1034.614631,383.047749,1554.432478,9548.656652
1034.614947,76.609550,2368.659014,9400.615463
1034.615262,76.609550,1480.411884,9178.553681
1034.615578,383.047749,370.102971,9252.574275
1034.615894,459.657299,-148.041188,9474.636058
1034.616210,536.266849,-1332.370696,9844.739029
1034.616525,1225.752797,-1110.308913,10066.800811
1034.616841,995.924147,-1036.288319,9992.780217
1034.617157,306.438199,-888.247130,9622.677246
1034.617473,153.219100,-370.102971,9770.718434
1034.617788,0.000000,222.061783,9696.697840
1034.618104,153.219100,1184.329507,9548.656652
1034.618420,76.609550,1258.350101,8956.491898
1034.618736,229.828649,888.247130,8882.471304
1034.619051,612.876398,-148.041188,9252.574275
1034.619367,689.485948,-1110.308913,9474.636058
1034.619683,689.485948,-1480.411884,9696.697840
1034.619999,995.924147,-1702.473667,9770.718434
1034.620314,919.314598,-1036.288319,9252.574275
1034.620630,153.219100,-518.144159,9622.677246
1034.620946,153.219100,296.082377,9400.615463
1034.621262,0.000000,1480.411884,9326.594869
1034.621577,-383.047749,1628.453072,8956.491898
1034.621893,-383.047749,1258.350101,9178.553681
1034.622209,-229.828649,148.041188,9400.615463
1034.622525,0.000000,-888.247130,9770.718434
1034.622841,383.047749,-2146.597232,9548.656652
1034.623156,689.485948,-1554.432478,9548.656652
1034.623472,459.657299,-1258.350101,9474.636058
1034.623788,0.000000,-592.164754,9548.656652
1034.624104,76.609550,-370.102971,9622.677246
1034.624420,0.000000,1036.288319,9474.636058
1034.624735,0.000000,1924.535449,9030.512492
1034.625051,0.000000,1850.514855,9030.512492
1034.625367,76.609550,666.185348,8956.491898
1034.625683,536.266849,-444.123565,9252.574275
1034.625999,612.876398,-1406.391290,9548.656652
1034.626314,1225.752797,-1776.494261,9992.780217
1034.626630,919.314598,-1554.432478,9326.594869
1034.626946,536.266849,-888.247130,9326.594869
1034.627262,612.876398,-518.144159,9696.697840
1034.627578,76.609550,592.164754,9474.636058
1034.627893,76.609550,1776.494261,9252.574275
1034.628209,153.219100,1480.411884,9178.553681
1034.628525,0.000000,740.205942,9178.553681
1034.628841,-383.047749,-444.123565,9696.697840
1034.629157,536.266849,-1110.308913,9474.636058
1034.629472,1302.362347,-1702.473667,9844.739029
1034.629788,1302.362347,-1628.453072,9696.697840
1034.630104,1072.533697,-1332.370696,9474.636058
1034.630420,306.438199,-1332.370696,9992.780217
1034.630736,229.828649,-222.061783,9844.739029
1034.631051,0.000000,518.144159,9474.636058
1034.631367,76.609550,1406.391290,9178.553681
1034.631683,76.609550,1480.411884,8956.491898
1034.631999,0.000000,296.082377,9178.553681
1034.632314,689.485948,-370.102971,9474.636058
1034.632630,1378.971896,-1406.391290,9474.636058
1034.632946,1378.971896,-1628.453072,9548.656652
1034.633262,1302.362347,-1480.411884,9474.636058
1034.633578,689.485948,-1258.350101,9474.636058
1034.633893,229.828649,-296.082377,9696.697840
1034.634209,76.609550,592.164754,9548.656652
1034.634525,0.000000,1480.411884,9474.636058
1034.634841,-229.828649,1628.453072,9104.533087
1034.635157,0.000000,518.144159,8808.450710
1034.635472,76.609550,-222.061783,9696.697840
1034.635788,459.657299,-1406.391290,9696.697840
1034.636104,842.705048,-1850.514855,9992.780217
1034.636420,1072.533697,-1924.535449,9696.697840
1034.636736,766.095498,-1332.370696,9400.615463
1034.637051,0.000000,-518.144159,9770.718434
1034.637367,-383.047749,-0.000000,9548.656652
1034.637683,0.000000,962.267725,9474.636058
1034.637999,0.000000,1480.411884,9178.553681
1034.638315,-76.609550,1332.370696,9030.512492
1034.638630,76.609550,-222.061783,9178.553681
1034.638946,306.438199,-1036.288319,9622.677246
1034.639262,1072.533697,-1554.432478,9622.677246
1034.639578,1455.581446,-1036.288319,9918.759623
1034.639894,1302.362347,-1036.288319,9178.553681
1034.640209,689.485948,-592.164754,9104.533087
1034.640525,0.000000,-148.041188,9474.636058
1034.640841,76.609550,740.205942,9622.677246
1034.641157,153.219100,1332.370696,9252.574275
1034.641473,-229.828649,1406.391290,9030.512492
1034.641788,-383.047749,444.123565,9400.615463
1034.642104,0.000000,-592.164754,9474.636058
1034.642420,229.828649,-1332.370696,9918.759623
1034.642736,383.047749,-2072.576638,9992.780217
1034.643052,459.657299,-1332.370696,9548.656652
1034.643367,229.828649,-1332.370696,9622.677246
1034.643683,0.000000,-666.185348,9770.718434
1034.643999,0.000000,-74.020594,9844.739029
1034.644315,153.219100,1184.329507,9178.553681
1034.644631,0.000000,1850.514855,8586.388927
1034.644946,0.000000,1258.350101,8956.491898
1034.645262,612.876398,222.061783,9252.574275
1034.645578,1225.752797,-740.205942,9622.677246
1034.645894,1608.800546,-1628.453072,9770.718434
1034.646210,1608.800546,-1924.535449,9770.718434
1034.646525,1378.971896,-1554.432478,9474.636058
1034.646841,612.876398,-962.267725,9770.718434
1034.647157,536.266849,-222.061783,9548.656652
1034.647473,459.657299,1036.288319,9400.615463
1034.647789,229.828649,1776.494261,9326.594869
1034.648104,383.047749,1924.535449,8882.471304
1034.648420,459.657299,666.185348,9178.553681
1034.648736,1225.752797,-296.082377,9548.656652
1034.649052,1072.533697,-1628.453072,9918.759623
1034.649368,1149.143247,-1702.473667,10066.800811
1034.649683,1225.752797,-1850.514855,9696.697840
1034.649999,842.705048,-1110.308913,9474.636058
1034.650315,536.266849,-222.061783,9696.697840
1034.650631,383.047749,518.144159,9770.718434
1034.650947,459.657299,1776.494261,9622.677246
1034.651262,612.876398,1924.535449,8956.491898
1034.651578,459.657299,1110.308913,9104.533087
1034.651894,306.438199,-370.102971,9178.553681
1034.652210,1072.533697,-1554.432478,9474.636058
1034.652525,1685.410096,-1924.535449,9548.656652
1034.652841,1762.019645,-1702.473667,9474.636058
1034.653157,919.314598,-1036.288319,9770.718434
1034.653473,766.095498,-444.123565,9326.594869
1034.653789,153.219100,222.061783,9474.636058
1034.654104,0.000000,962.267725,9326.594869
1034.654420,153.219100,1776.494261,8734.430116
1034.654736,383.047749,1184.329507,8882.471304
1034.655052,-306.438199,-148.041188,9474.636058
1034.655368,0.000000,-1110.308913,9770.718434
1034.655683,459.657299,-1850.514855,9844.739029
1034.655999,459.657299,-1702.473667,9622.677246
1034.656315,459.657299,-1184.329507,9548.656652
1034.656631,0.000000,-1184.329507,9622.677246
1034.656947,-459.657299,-0.000000,9696.697840
1034.657262,-689.485948,740.205942,9548.656652
1034.657578,0.000000,1998.556043,9326.594869
1034.657894,-383.047749,1628.453072,9030.512492
1034.658210,-229.828649,962.267725,8734.430116
1034.658526,0.000000,-296.082377,9622.677246
1034.658841,383.047749,-1184.329507,10066.800811
1034.659157,919.314598,-1776.494261,9770.718434
1034.659473,1225.752797,-1332.370696,9548.656652
1034.659789,766.095498,-666.185348,9178.553681
1034.660105,383.047749,-296.082377,9400.615463
1034.660420,306.438199,444.123565,9622.677246
1034.660736,612.876398,1628.453072,9104.533087
1034.661052,0.000000,1628.453072,8808.450710
1034.661368,0.000000,1184.329507,9252.574275
1034.661684,0.000000,-74.020594,9474.636058
1034.661999,76.609550,-1184.329507,9918.759623
1034.662315,842.705048,-1628.453072,10140.821405
1034.662631,842.705048,-1406.391290,9548.656652
1034.662947,536.266849,-1184.329507,9696.697840
1034.663263,459.657299,-1036.288319,9918.759623
1034.663578,306.438199,-370.102971,9696.697840
1034.663894,689.485948,592.164754,9844.739029
1034.664210,383.047749,1554.432478,9326.594869
1034.664526,306.438199,1628.453072,9474.636058
1034.664842,229.828649,740.205942,9104.533087
1034.665157,919.314598,-666.185348,9770.718434
1034.665473,1455.581446,-1110.308913,9548.656652
1034.665789,1838.629195,-1258.350101,9474.636058
1034.666105,1532.190996,-1110.308913,9548.656652
1034.666421,1225.752797,-814.226536,9474.636058
1034.666736,766.095498,-518.144159,9696.697840
1034.667052,383.047749,444.123565,9548.656652
1034.667368,0.000000,1184.329507,9178.553681
1034.667684,229.828649,2220.617826,8956.491898
1034.668000,-153.219100,1258.350101,8882.471304
1034.668315,306.438199,-74.020594,9548.656652
1034.668631,0.000000,-1036.288319,9992.780217
1034.668947,459.657299,-1850.514855,10214.842000
1034.669263,689.485948,-1850.514855,9770.718434
1034.669579,153.219100,-1702.473667,9474.636058
1034.669894,-153.219100,-1184.329507,9622.677246
1034.670210,-383.047749,-296.082377,9918.759623
1034.670526,0.000000,1110.308913,9474.636058
1034.670842,-153.219100,1776.494261,9104.533087
1034.671158,-229.828649,1332.370696,8586.388927
1034.671473,76.609550,-0.000000,9252.574275
1034.671789,306.438199,-1184.329507,9474.636058
1034.672105,995.924147,-1776.494261,9918.759623
1034.672421,1685.410096,-1924.535449,9622.677246
1034.672736,1455.581446,-1554.432478,9400.615463
1034.673052,842.705048,-740.205942,9474.636058
1034.673368,536.266849,-0.000000,9104.533087
1034.673684,153.219100,1110.308913,9252.574275
1034.674000,0.000000,1776.494261,9030.512492
1034.674315,0.000000,1406.391290,9104.533087
1034.674631,-383.047749,370.102971,8734.430116
1034.674947,-306.438199,-962.267725,9474.636058
1034.675263,0.000000,-1924.535449,10066.800811
1034.675579,612.876398,-2442.679609,10288.862594
1034.675894,459.657299,-1702.473667,9918.759623
1034.676210,842.705048,-1184.329507,9326.594869
1034.676526,0.000000,-814.226536,9548.656652
1034.676842,0.000000,74.020594,9326.594869
1034.677158,76.609550,1332.370696,9252.574275
1034.677473,306.438199,1628.453072,8956.491898
1034.677789,383.047749,1258.350101,9104.533087
1034.678105,689.485948,-0.000000,8882.471304
1034.678421,1149.143247,-666.185348,9474.636058
1034.678737,1762.019645,-1258.350101,9548.656652
1034.679052,2221.676944,-1110.308913,9400.615463
1034.679368,1455.581446,-1036.288319,9030.512492
1034.679684,1149.143247,-666.185348,9252.574275
1034.680000,536.266849,148.041188,9844.739029
1034.680316,383.047749,888.247130,9548.656652
1034.680631,766.095498,1998.556043,9252.574275
1034.680947,306.438199,1702.473667,9178.553681
1034.681263,0.000000,592.164754,9326.594869
1034.681579,0.000000,-666.185348,9770.718434
1034.681895,383.047749,-1628.453072,10066.800811
1034.682210,1149.143247,-2368.659014,10288.862594
1034.682526,766.095498,-1702.473667,9992.780217
1034.682842,536.266849,-888.247130,9844.739029
1034.683158,229.828649,-444.123565,9696.697840
1034.683474,306.438199,296.082377,9474.636058
1034.683789,459.657299,1406.391290,9474.636058
1034.684105,383.047749,1924.535449,8882.471304
1034.684421,842.705048,1258.350101,8882.471304
1034.684737,766.095498,-0.000000,9326.594869
1034.685053,536.266849,-1184.329507,9474.636058
1034.685368,1225.752797,-1850.514855,9696.697840
1034.685684,1302.362347,-1702.473667,9474.636058
1034.686000,842.705048,-1554.432478,9548.656652
1034.686316,229.828649,-740.205942,9400.615463
1034.686632,0.000000,296.082377,9918.759623
1034.686947,-153.219100,1184.329507,9622.677246
1034.687263,-153.219100,1850.514855,9178.553681
1034.687579,-153.219100,1776.494261,8956.491898
1034.687895,-536.266849,444.123565,9178.553681
1034.688211,-229.828649,-1036.288319,9400.615463
1034.688526,306.438199,-1554.432478,9770.718434
1034.688842,229.828649,-1998.556043,9770.718434
1034.689158,383.047749,-1258.350101,9992.780217
1034.689474,76.609550,-1110.308913,9474.636058
1034.689790,0.000000,-444.123565,9548.656652
1034.690105,-153.219100,666.185348,9622.677246
1034.690421,0.000000,1628.453072,9326.594869
1034.690737,76.609550,1850.514855,8882.471304
1034.691053,0.000000,1110.308913,8882.471304
1034.691369,383.047749,148.041188,9548.656652
1034.691684,383.047749,-740.205942,9548.656652
1034.692000,1072.533697,-1258.350101,9474.636058
1034.692316,1302.362347,-1110.308913,9622.677246
