#time,accel_x,accel_y,accel_z
1114.632146,383.047749,-0.000000,9252.574275
1114.632462,229.828649,-74.020594,9548.656652
1114.632778,536.266849,-296.082377,9474.636058
1114.633094,766.095498,-296.082377,9474.636058
1114.633410,689.485948,-296.082377,9400.615463
1114.633725,459.657299,-0.000000,9474.636058
1114.634041,612.876398,-148.041188,9474.636058
1114.634357,459.657299,-148.041188,9548.656652
1114.634673,459.657299,-222.061783,9548.656652
1114.634988,459.657299,-148.041188,9474.636058
1114.635304,459.657299,-296.082377,9400.615463
1114.635620,383.047749,-148.041188,9400.615463
1114.635936,383.047749,-370.102971,9252.574275
1114.636252,459.657299,-222.061783,9770.718434
1114.636567,153.219100,-296.082377,9474.636058
1114.636883,306.438199,-296.082377,9622.677246
1114.637199,536.266849,-148.041188,9400.615463
1114.637515,229.828649,-0.000000,9696.697840
1114.637830,383.047749,-296.082377,9474.636058
1114.638146,536.266849,-296.082377,9474.636058
1114.638462,459.657299,-222.061783,9474.636058
1114.638778,383.047749,-74.020594,9400.615463
1114.639094,153.219100,-74.020594,9696.697840
1114.639409,536.266849,-74.020594,9622.677246
1114.639725,612.876398,-74.020594,9326.594869
1114.640041,383.047749,-0.000000,9548.656652
1114.640357,306.438199,-0.000000,9474.636058
1114.640672,689.485948,-0.000000,9474.636058
1114.640988,76.609550,222.061783,9474.636058
1114.641304,459.657299,222.061783,9400.615463
1114.641620,536.266849,592.164754,9252.574275
1114.641936,612.876398,444.123565,9178.553681
1114.642251,76.609550,148.041188,9400.615463
1114.642567,536.266849,222.061783,9400.615463
1114.642883,766.095498,296.082377,9400.615463
1114.643199,459.657299,518.144159,9622.677246
1114.643514,536.266849,518.144159,9400.615463
1114.643830,306.438199,370.102971,9400.615463
1114.644146,459.657299,444.123565,9548.656652
1114.644462,153.219100,740.205942,9474.636058
1114.644778,229.828649,814.226536,9400.615463
1114.645093,459.657299,740.205942,9622.677246
1114.645409,0.000000,666.185348,9622.677246
1114.645725,153.219100,1184.329507,9474.636058
1114.646041,-76.609550,962.267725,9326.594869
1114.646356,0.000000,1184.329507,9400.615463
1114.646672,-306.438199,814.226536,9326.594869
1114.646988,-383.047749,1110.308913,9400.615463
1114.647304,-306.438199,1184.329507,9326.594869
1114.647620,-689.485948,1184.329507,9326.594869
1114.647935,-1149.143247,1480.411884,9326.594869
1114.648251,-1225.752797,1258.350101,9400.615463
1114.648567,-1455.581446,1184.329507,9548.656652
1114.648883,-1685.410096,1332.370696,9622.677246
1114.649198,-1762.019645,1258.350101,9844.739029
1114.649514,-1915.238745,1480.411884,9548.656652
1114.649830,-2221.676944,1480.411884,9696.697840
1114.650146,-2298.286494,1702.473667,9992.780217
1114.650462,-2145.067394,1554.432478,9696.697840
1114.650777,-1991.848295,1702.473667,9548.656652
1114.651093,-1608.800546,1480.411884,9918.759623
1114.651409,-1838.629195,1776.494261,9104.533087
1114.651725,-1455.581446,1702.473667,9474.636058
1114.652040,-1302.362347,1554.432478,9326.594869
1114.652356,-1378.971896,1332.370696,9400.615463
1114.652672,-842.705048,1480.411884,9770.718434
1114.652988,-919.314598,1702.473667,9696.697840
1114.653304,-1378.971896,1998.556043,9622.677246
1114.653619,-995.924147,2146.597232,9474.636058
1114.653935,-1149.143247,2146.597232,9474.636058
1114.654251,-1149.143247,2294.638420,8882.471304
1114.654567,-1302.362347,2368.659014,9178.553681
1114.654883,-1455.581446,2146.597232,9326.594869
1114.655198,-1532.190996,2294.638420,9326.594869
1114.655514,-1762.019645,1702.473667,9770.718434
1114.655830,-1685.410096,740.205942,9696.697840
1114.656146,-2221.676944,962.267725,9844.739029
1114.656461,-2374.896044,1110.308913,9992.780217
1114.656777,-2221.676944,1184.329507,9918.759623
1114.657093,-2374.896044,1258.350101,9696.697840
1114.657409,-2374.896044,1406.391290,9770.718434
1114.657725,-2221.676944,1406.391290,9696.697840
1114.658040,-2068.457845,1480.411884,9770.718434
1114.658356,-2068.457845,1406.391290,9548.656652
1114.658672,-1762.019645,1628.453072,9326.594869
1114.658988,-1991.848295,1406.391290,9030.512492
1114.659303,-1991.848295,1924.535449,9326.594869
1114.659619,-1915.238745,1998.556043,8660.409521
1114.659935,-2145.067394,2294.638420,8586.388927
1114.660251,-2451.505594,2442.679609,8808.450710
1114.660567,-2451.505594,2442.679609,9178.553681
1114.660882,-2604.724693,2220.617826,9252.574275
1114.661198,-2834.553343,1702.473667,9548.656652
1114.661514,-2834.553343,1184.329507,9844.739029
1114.661830,-2911.162892,444.123565,10140.821405
1114.662145,-2451.505594,222.061783,10066.800811
1114.662461,-2221.676944,148.041188,10140.821405
1114.662777,-1685.410096,370.102971,10362.883188
1114.663093,-1532.190996,814.226536,9696.697840
1114.663409,-766.095498,1480.411884,9474.636058
1114.663724,-229.828649,2220.617826,8956.491898
1114.664040,536.266849,2590.720797,8290.306550
1114.664356,536.266849,2886.803174,8216.285956
1114.664672,689.485948,3034.844362,8142.265362
1114.664987,383.047749,2960.823768,8068.244768
1114.665303,-229.828649,2812.782580,8364.327145
1114.665619,-1072.533697,2664.741391,8512.368333
1114.665935,-1608.800546,2146.597232,8882.471304
1114.666251,-2604.724693,1702.473667,9474.636058
1114.666566,-3064.381992,1332.370696,10066.800811
1114.666882,-3753.867940,962.267725,10436.903782
1114.667198,-4136.915689,296.082377,10881.027347
1114.667514,-3983.696590,592.164754,11251.130318
1114.667829,-3370.820191,-518.144159,11547.212695
1114.668145,-2528.115143,370.102971,11251.130318
1114.668461,-1838.629195,666.185348,10584.944971
1114.668777,-612.876398,888.247130,9548.656652
1114.669093,229.828649,1480.411884,8660.409521
1114.669408,842.705048,2294.638420,7994.224174
1114.669724,1455.581446,3478.967927,7994.224174
1114.670040,1532.190996,4293.194464,7476.080014
1114.670356,1149.143247,4663.297435,7254.018232
1114.670671,689.485948,4959.379811,7254.018232
1114.670987,-536.266849,4219.173869,7328.038826
1114.671303,-1991.848295,3627.009116,8364.327145
1114.671619,-3217.601092,2368.659014,9696.697840
1114.671935,-4213.525239,740.205942,10732.986159
1114.672250,-4979.620737,-296.082377,11843.295072
1114.672566,-5592.497135,-1406.391290,12509.480420
1114.672882,-5669.106685,-1850.514855,12731.542202
1114.673198,-5132.839837,-1628.453072,12657.521608
1114.673513,-4290.134789,-888.247130,12065.356855
1114.673829,-2681.334243,592.164754,11325.150913
1114.674145,-1225.752797,2146.597232,9326.594869
1114.674461,612.876398,3701.029710,7772.162391
1114.674777,1608.800546,5181.441594,6365.771101
1114.675092,2145.067394,5699.585753,5773.606348
1114.675408,2374.896044,6217.729913,6217.729913
1114.675724,1455.581446,5625.565159,6217.729913
1114.676040,612.876398,4293.194464,7402.059420
1114.676355,-1072.533697,2516.700203,8734.430116
1114.676671,-2834.553343,814.226536,10140.821405
1114.676987,-4290.134789,-888.247130,11473.192101
1114.677303,-4903.011187,-1480.411884,12731.542202
1114.677619,-5286.058936,-1406.391290,12879.583391
1114.677934,-4903.011187,-666.185348,12509.480420
1114.678250,-4826.401637,296.082377,11473.192101
1114.678566,-3677.258390,962.267725,11029.068536
1114.678882,-2451.505594,2072.576638,9844.739029
1114.679197,-995.924147,3330.926739,8438.347739
1114.679513,-153.219100,3997.112087,7476.080014
1114.679829,536.266849,4145.153275,6957.935855
1114.680145,919.314598,3404.947333,7772.162391
1114.680461,995.924147,3108.864956,7846.182985
1114.680776,919.314598,2664.741391,8290.306550
1114.681092,153.219100,2294.638420,8364.327145
1114.681408,-536.266849,1850.514855,8734.430116
1114.681724,-1685.410096,1850.514855,9474.636058
1114.682039,-2221.676944,1480.411884,10066.800811
1114.682355,-2528.115143,1184.329507,10436.903782
1114.682671,-3524.039291,1110.308913,10288.862594
1114.682987,-3983.696590,518.144159,10288.862594
1114.683303,-4060.306139,-0.000000,10658.965565
1114.683618,-3140.991542,518.144159,10288.862594
1114.683934,-3064.381992,888.247130,9696.697840
1114.684250,-2374.896044,1776.494261,9178.553681
1114.684566,-1915.238745,1998.556043,8808.450710
1114.684881,-1378.971896,1850.514855,9104.533087
1114.685197,-1149.143247,1776.494261,9326.594869
1114.685513,-1302.362347,1998.556043,9844.739029
1114.685829,-919.314598,1628.453072,9474.636058
1114.686145,-306.438199,1702.473667,9474.636058
1114.686460,76.609550,1850.514855,9030.512492
1114.686776,0.000000,1924.535449,9030.512492
1114.687092,0.000000,1332.370696,8956.491898
1114.687408,0.000000,1184.329507,9622.677246
1114.687723,-536.266849,1184.329507,8660.409521
1114.688039,-1149.143247,1924.535449,9030.512492
1114.688355,-919.314598,1850.514855,9400.615463
1114.688671,-1455.581446,2146.597232,9252.574275
1114.688987,-1149.143247,2220.617826,9252.574275
1114.689302,-1532.190996,2072.576638,8808.450710
1114.689618,-1838.629195,1850.514855,9030.512492
1114.689934,-1838.629195,1258.350101,9474.636058
1114.690250,-2451.505594,444.123565,10362.883188
1114.690566,-2757.943793,814.226536,10510.924376
1114.690881,-3447.429741,370.102971,10807.006753
1114.691197,-3370.820191,222.061783,10955.047942
1114.691513,-2757.943793,-0.000000,10436.903782
1114.691826,-1608.800546,-370.102971,9918.759623
1114.692141,-1378.971896,-74.020594,9696.697840
1114.692457,-766.095498,518.144159,9326.594869
1114.692773,229.828649,1036.288319,9252.574275
1114.693089,995.924147,1480.411884,8808.450710
1114.693405,1838.629195,1998.556043,7994.224174
1114.693721,1378.971896,2294.638420,7846.182985
1114.694037,995.924147,2516.700203,7994.224174
1114.694353,229.828649,2516.700203,8142.265362
1114.694668,-919.314598,2442.679609,8734.430116
1114.694984,-1149.143247,1628.453072,9104.533087
1114.695300,-2374.896044,666.185348,10288.862594
1114.695616,-3140.991542,592.164754,10658.965565
1114.695932,-3217.601092,-222.061783,11103.089130
1114.696248,-3447.429741,-1332.370696,10584.944971
1114.696564,-3524.039291,-1850.514855,11251.130318
1114.696879,-3524.039291,-1924.535449,11843.295072
1114.697195,-1915.238745,-2368.659014,11547.212695
1114.697511,-995.924147,-1406.391290,10732.986159
1114.697827,0.000000,-0.000000,9844.739029
1114.698143,1455.581446,592.164754,8734.430116
1114.698459,2451.505594,1924.535449,7328.038826
1114.698775,2451.505594,2738.761985,7031.956449
1114.699090,2987.772442,3182.885551,7179.997637
1114.699406,2681.334243,2368.659014,7476.080014
1114.699722,2298.286494,1554.432478,7550.100608
1114.700038,1302.362347,1110.308913,8438.347739
1114.700354,995.924147,-1332.370696,9400.615463
1114.700670,-1072.533697,-962.267725,10510.924376
1114.700986,-1991.848295,-370.102971,10807.006753
1114.701302,-1072.533697,-2368.659014,11547.212695
1114.701617,-842.705048,-1332.370696,11473.192101
1114.701933,-2298.286494,-888.247130,10436.903782
1114.702249,-995.924147,-2072.576638,10214.842000
1114.702565,-459.657299,-2072.576638,9696.697840
1114.702881,0.000000,-888.247130,9918.759623
1114.703197,842.705048,148.041188,9918.759623
1114.703513,2374.896044,370.102971,8882.471304
1114.703828,1762.019645,1628.453072,8512.368333
1114.704144,2221.676944,1998.556043,7698.141797
1114.704460,2987.772442,666.185348,7328.038826
1114.704776,2374.896044,1184.329507,8068.244768
1114.705092,2068.457845,814.226536,9326.594869
1114.705408,2681.334243,-518.144159,9326.594869
1114.705724,1991.848295,-888.247130,9992.780217
1114.706040,842.705048,-740.205942,9696.697840
1114.706355,1225.752797,-888.247130,9770.718434
1114.706671,306.438199,-1036.288319,9474.636058
1114.706987,0.000000,-148.041188,9474.636058
1114.707303,919.314598,-0.000000,9474.636058
1114.707619,459.657299,148.041188,9474.636058
1114.707935,76.609550,148.041188,9770.718434
1114.708251,0.000000,-148.041188,9104.533087
1114.708566,0.000000,-296.082377,8142.265362
1114.708882,-1072.533697,-0.000000,9104.533087
1114.709198,-306.438199,-0.000000,10658.965565
1114.709514,842.705048,-296.082377,9918.759623
1114.709830,306.438199,-666.185348,10362.883188
1114.710146,229.828649,-296.082377,9770.718434
1114.710462,1149.143247,-962.267725,8882.471304
1114.710778,689.485948,-962.267725,9548.656652
1114.711093,1072.533697,-444.123565,9918.759623
1114.711409,2145.067394,-74.020594,9918.759623
1114.711725,2681.334243,1110.308913,9178.553681
1114.712041,1532.190996,1924.535449,8216.285956
1114.712357,1838.629195,1776.494261,7476.080014
1114.712673,1762.019645,1480.411884,7550.100608
1114.712989,689.485948,1480.411884,8586.388927
1114.713304,229.828649,814.226536,9918.759623
1114.713620,0.000000,-0.000000,10510.924376
1114.713936,-1302.362347,-222.061783,10362.883188
1114.714252,-1915.238745,-666.185348,10436.903782
1114.714568,-2374.896044,-1258.350101,10510.924376
1114.714884,-2451.505594,-1110.308913,11473.192101
1114.715200,-1838.629195,-74.020594,11473.192101
1114.715515,-1072.533697,-296.082377,10510.924376
1114.715831,-919.314598,518.144159,9844.739029
1114.716147,-153.219100,518.144159,8660.409521
1114.716463,766.095498,296.082377,8364.327145
1114.716779,689.485948,370.102971,8512.368333
1114.717095,1149.143247,1036.288319,9030.512492
1114.717411,1455.581446,1184.329507,9178.553681
1114.717727,1225.752797,1332.370696,8808.450710
1114.718042,995.924147,1406.391290,8512.368333
1114.718358,459.657299,518.144159,8660.409521
1114.718674,0.000000,-148.041188,9548.656652
1114.718990,-536.266849,-74.020594,10510.924376
1114.719306,-689.485948,-518.144159,10510.924376
1114.719622,-689.485948,-666.185348,11103.089130
1114.719938,-842.705048,-1036.288319,10658.965565
1114.720253,-689.485948,-814.226536,9400.615463
1114.720569,-995.924147,-1258.350101,9696.697840
1114.720885,-153.219100,-1184.329507,10584.944971
1114.721201,306.438199,-1110.308913,9844.739029
1114.721517,1455.581446,-592.164754,10140.821405
1114.721833,1455.581446,222.061783,9400.615463
1114.722149,2221.676944,-74.020594,8438.347739
1114.722465,2068.457845,-370.102971,8068.244768
1114.722780,1838.629195,296.082377,8808.450710
1114.723096,2374.896044,962.267725,8660.409521
1114.723412,2451.505594,592.164754,8882.471304
1114.723728,1838.629195,148.041188,8808.450710
1114.724044,1685.410096,-222.061783,8808.450710
1114.724360,842.705048,-1110.308913,8660.409521
1114.724676,-306.438199,-888.247130,9030.512492
1114.724991,0.000000,-1998.556043,10955.047942
1114.725307,76.609550,-2146.597232,11325.150913
1114.725623,-459.657299,-444.123565,9770.718434
1114.725939,-306.438199,-1184.329507,9696.697840
1114.726255,383.047749,-1480.411884,9474.636058
1114.726571,0.000000,-1184.329507,9474.636058
1114.726887,536.266849,-0.000000,9474.636058
1114.727203,1302.362347,-0.000000,9770.718434
1114.727518,995.924147,444.123565,9178.553681
1114.727834,919.314598,888.247130,8438.347739
1114.728150,995.924147,222.061783,8734.430116
1114.728466,919.314598,-592.164754,8882.471304
1114.728782,995.924147,-0.000000,9400.615463
1114.729098,995.924147,-666.185348,9548.656652
1114.729414,1302.362347,-592.164754,10658.965565
1114.729729,1378.971896,-518.144159,9770.718434
1114.730045,1149.143247,-592.164754,8808.450710
1114.730361,766.095498,-1480.411884,9030.512492
1114.730677,459.657299,-1184.329507,10288.862594
1114.730993,842.705048,-518.144159,9844.739029
1114.731309,1378.971896,592.164754,9696.697840
1114.731625,919.314598,148.041188,9030.512492
1114.731941,459.657299,-0.000000,8660.409521
1114.732256,76.609550,-0.000000,8438.347739
1114.732572,-306.438199,-370.102971,9326.594869
1114.732888,-229.828649,-814.226536,10510.924376
1114.733204,153.219100,-296.082377,10288.862594
1114.733520,153.219100,222.061783,9474.636058
1114.733836,229.828649,-0.000000,9104.533087
1114.734152,0.000000,-740.205942,9474.636058
1114.734467,-536.266849,-1184.329507,9770.718434
1114.734783,76.609550,-444.123565,10658.965565
1114.735099,459.657299,-0.000000,9992.780217
1114.735415,1149.143247,1258.350101,9252.574275
1114.735731,536.266849,1480.411884,8216.285956
1114.736047,229.828649,814.226536,8512.368333
1114.736363,153.219100,592.164754,8734.430116
1114.736678,-153.219100,592.164754,9770.718434
1114.736994,-229.828649,-0.000000,9992.780217
1114.737310,76.609550,-0.000000,10436.903782
1114.737626,-459.657299,222.061783,9770.718434
1114.737942,-459.657299,296.082377,9178.553681
1114.738258,-1225.752797,-888.247130,9696.697840
1114.738574,-1225.752797,-370.102971,9992.780217
1114.738890,-536.266849,-0.000000,10658.965565
1114.739205,0.000000,-444.123565,10214.842000
1114.739521,0.000000,-0.000000,9770.718434
1114.739837,612.876398,-0.000000,8586.388927
1114.740153,995.924147,-962.267725,9326.594869
1114.740469,153.219100,-0.000000,9252.574275
1114.740785,459.657299,370.102971,9104.533087
1114.741101,2068.457845,-962.267725,9770.718434
1114.741416,1225.752797,888.247130,9844.739029
1114.741732,1378.971896,962.267725,8068.244768
1114.742048,766.095498,-222.061783,8882.471304
1114.742364,612.876398,-0.000000,9844.739029
1114.742680,383.047749,-296.082377,9992.780217
1114.742996,1225.752797,-0.000000,10584.944971
1114.743312,383.047749,296.082377,9474.636058
1114.743628,0.000000,-74.020594,9474.636058
1114.743943,306.438199,-1110.308913,9252.574275
1114.744259,-383.047749,-1332.370696,9918.759623
1114.744575,0.000000,-518.144159,10288.862594
1114.744891,459.657299,-370.102971,10288.862594
1114.745207,459.657299,-74.020594,9696.697840
1114.745523,842.705048,-0.000000,9474.636058
1114.745839,995.924147,-0.000000,8734.430116
1114.746154,1225.752797,148.041188,8660.409521
1114.746470,995.924147,-0.000000,9326.594869
1114.746786,1532.190996,-148.041188,9474.636058
1114.747102,1225.752797,740.205942,9178.553681
1114.747418,1455.581446,518.144159,9030.512492
1114.747734,995.924147,-222.061783,8660.409521
1114.748050,536.266849,-444.123565,8882.471304
1114.748366,0.000000,-444.123565,8956.491898
1114.748681,0.000000,-888.247130,10140.821405
1114.748997,153.219100,-1036.288319,10584.944971
1114.749313,153.219100,-296.082377,9474.636058
1114.749629,153.219100,-666.185348,9178.553681
1114.749945,0.000000,-1258.350101,9548.656652
1114.750261,0.000000,-1554.432478,9474.636058
1114.750577,153.219100,-444.123565,9622.677246
1114.750892,612.876398,-74.020594,9844.739029
1114.751208,689.485948,444.123565,9030.512492
1114.751524,919.314598,-74.020594,8956.491898
1114.751840,766.095498,-222.061783,8290.306550
1114.752156,612.876398,-0.000000,9178.553681
1114.752472,612.876398,-74.020594,9696.697840
1114.752788,1149.143247,-0.000000,9548.656652
1114.753103,919.314598,444.123565,9474.636058
1114.753419,383.047749,-0.000000,9104.533087
1114.753735,229.828649,-0.000000,9030.512492
1114.754051,0.000000,-740.205942,9474.636058
1114.754367,-536.266849,-592.164754,10066.800811
1114.754683,-459.657299,-814.226536,10584.944971
1114.754999,-306.438199,-370.102971,10140.821405
1114.755315,0.000000,-0.000000,9326.594869
1114.755630,-536.266849,-296.082377,8882.471304
1114.755946,-842.705048,-370.102971,9474.636058
1114.756262,-1685.410096,-296.082377,10288.862594
1114.756578,-306.438199,-74.020594,9622.677246
1114.756894,-383.047749,222.061783,9770.718434
1114.757210,-229.828649,740.205942,9548.656652
1114.757526,-153.219100,-0.000000,8808.450710
1114.757841,153.219100,-222.061783,9622.677246
1114.758157,-383.047749,-1036.288319,10140.821405
1114.758473,0.000000,-592.164754,10140.821405
1114.758789,919.314598,-148.041188,10214.842000
1114.759105,1225.752797,-0.000000,9326.594869
1114.759421,1378.971896,592.164754,8734.430116
1114.759737,766.095498,-0.000000,9030.512492
1114.760053,229.828649,-0.000000,9326.594869
1114.760368,689.485948,-0.000000,9918.759623
1114.760684,1685.410096,-0.000000,9770.718434
1114.761000,1378.971896,666.185348,9400.615463
1114.761316,612.876398,148.041188,8808.450710
1114.761632,842.705048,-962.267725,8956.491898
1114.761948,306.438199,-1258.350101,9844.739029
1114.762264,689.485948,-1332.370696,9918.759623
1114.762579,459.657299,-222.061783,9622.677246
1114.762895,766.095498,-0.000000,9474.636058
1114.763211,766.095498,-74.020594,8882.471304
1114.763527,536.266849,-370.102971,8364.327145
1114.763843,229.828649,-1258.350101,9178.553681
1114.764159,383.047749,-1406.391290,9622.677246
1114.764475,689.485948,-814.226536,9474.636058
1114.764791,919.314598,-666.185348,9770.718434
1114.765106,1225.752797,-296.082377,9252.574275
1114.765422,1149.143247,370.102971,7994.224174
1114.765738,842.705048,-0.000000,8808.450710
1114.766054,459.657299,-74.020594,9474.636058
1114.766370,995.924147,370.102971,9178.553681
1114.766686,1302.362347,592.164754,9178.553681
1114.767002,1302.362347,814.226536,9326.594869
1114.767317,995.924147,444.123565,8216.285956
1114.767633,612.876398,-444.123565,8808.450710
1114.767949,306.438199,-1258.350101,10362.883188
1114.768265,0.000000,-444.123565,10288.862594
1114.768581,766.095498,-0.000000,10066.800811
1114.768897,306.438199,-0.000000,9992.780217
1114.769213,766.095498,148.041188,9400.615463
1114.769528,536.266849,-222.061783,9030.512492
1114.769844,76.609550,-222.061783,9770.718434
1114.770160,383.047749,222.061783,9474.636058
1114.770476,1149.143247,-0.000000,9770.718434
1114.770792,842.705048,814.226536,9474.636058
1114.771108,919.314598,518.144159,9252.574275
1114.771424,536.266849,-0.000000,8734.430116
1114.771740,0.000000,-296.082377,9030.512492
1114.772055,-383.047749,-444.123565,10362.883188
1114.772371,536.266849,-148.041188,10436.903782
1114.772687,76.609550,148.041188,9400.615463
1114.773003,76.609550,444.123565,9844.739029
1114.773319,306.438199,-370.102971,9622.677246
1114.773635,-153.219100,-74.020594,8882.471304
1114.773951,-229.828649,-0.000000,10214.842000
1114.774266,0.000000,-518.144159,10584.944971
1114.774582,383.047749,222.061783,9770.718434
1114.774898,-153.219100,592.164754,9844.739029
1114.775214,-459.657299,148.041188,9030.512492
1114.775530,-459.657299,-222.061783,8956.491898
1114.775846,-689.485948,-370.102971,9992.780217
1114.776162,-383.047749,-148.041188,10658.965565
1114.776478,-306.438199,-0.000000,9918.759623
1114.776793,0.000000,-74.020594,9696.697840
1114.777109,-536.266849,-518.144159,9474.636058
1114.777425,-76.609550,-814.226536,9178.553681
1114.777741,-229.828649,-1110.308913,9400.615463
1114.778057,76.609550,-666.185348,10066.800811
1114.778373,153.219100,-592.164754,9770.718434
1114.778689,383.047749,-962.267725,9696.697840
1114.779004,919.314598,-74.020594,8882.471304
1114.779320,536.266849,-518.144159,8290.306550
1114.779636,612.876398,-814.226536,8586.388927
1114.779952,536.266849,-740.205942,9474.636058
1114.780268,1149.143247,-888.247130,9918.759623
1114.780584,995.924147,-666.185348,9548.656652
1114.780900,842.705048,-444.123565,9104.533087
1114.781216,842.705048,-814.226536,8660.409521
1114.781531,766.095498,-814.226536,8660.409521
1114.781847,459.657299,-518.144159,8808.450710
1114.782163,1072.533697,-74.020594,9400.615463
1114.782479,1225.752797,-0.000000,9622.677246
1114.782795,1072.533697,-0.000000,9622.677246
1114.783111,1302.362347,-0.000000,8512.368333
1114.783427,689.485948,-814.226536,8660.409521
1114.783742,229.828649,-1554.432478,9770.718434
1114.784058,919.314598,-222.061783,10214.842000
1114.784374,1149.143247,-518.144159,9696.697840
1114.784690,1149.143247,-0.000000,9918.759623
1114.785006,689.485948,592.164754,8586.388927
1114.785322,919.314598,-0.000000,8364.327145
1114.785638,612.876398,518.144159,8956.491898
1114.785953,383.047749,148.041188,9696.697840
1114.786269,1378.971896,148.041188,9622.677246
1114.786585,1072.533697,-0.000000,9474.636058
1114.786901,766.095498,-148.041188,9178.553681
1114.787217,689.485948,-814.226536,8956.491898
1114.787533,306.438199,-1110.308913,9326.594869
1114.787849,153.219100,-1036.288319,10214.842000
1114.788165,612.876398,-814.226536,10436.903782
1114.788480,766.095498,-444.123565,10214.842000
1114.788796,459.657299,-222.061783,9030.512492
1114.789112,612.876398,-814.226536,9252.574275
1114.789428,459.657299,-370.102971,9474.636058
1114.789744,1225.752797,-148.041188,9770.718434
1114.790060,1378.971896,222.061783,9696.697840
1114.790376,1225.752797,444.123565,9474.636058
1114.790691,1072.533697,518.144159,9104.533087
1114.791007,612.876398,74.020594,8586.388927
1114.791323,76.609550,-370.102971,9400.615463
1114.791639,76.609550,-444.123565,10436.903782
1114.791955,383.047749,-296.082377,10510.924376
1114.792271,229.828649,296.082377,10288.862594
1114.792587,0.000000,666.185348,9844.739029
1114.792902,306.438199,444.123565,8808.450710
1114.793218,-153.219100,-0.000000,9030.512492
1114.793533,-383.047749,296.082377,9548.656652
1114.793849,-383.047749,370.102971,10140.821405
1114.794165,229.828649,592.164754,9918.759623
1114.794480,0.000000,518.144159,9326.594869
1114.794796,-229.828649,444.123565,9178.553681
1114.795111,-689.485948,592.164754,9030.512492
1114.795427,-1072.533697,148.041188,9252.574275
1114.795743,-689.485948,370.102971,10066.800811
1114.796058,0.000000,-592.164754,10362.883188
1114.796374,-383.047749,-0.000000,9474.636058
1114.796689,-306.438199,-518.144159,9622.677246
1114.797005,-536.266849,-740.205942,9548.656652
1114.797320,-766.095498,-222.061783,9252.574275
1114.797636,-842.705048,-0.000000,9474.636058
1114.797952,306.438199,74.020594,9474.636058
1114.798267,383.047749,-74.020594,10140.821405
1114.798583,306.438199,-222.061783,9178.553681
1114.798898,0.000000,-518.144159,8882.471304
1114.799214,-383.047749,-962.267725,9696.697840
1114.799530,536.266849,-666.185348,9548.656652
1114.799845,995.924147,-814.226536,9844.739029
1114.800161,842.705048,-148.041188,9844.739029
1114.800476,995.924147,-0.000000,9474.636058
1114.800792,1072.533697,-222.061783,8438.347739
1114.801107,536.266849,-0.000000,8882.471304
1114.801423,536.266849,-296.082377,9770.718434
1114.801739,995.924147,-740.205942,9992.780217
1114.802054,1302.362347,-370.102971,9918.759623
1114.802370,689.485948,-740.205942,9770.718434
1114.802685,995.924147,-518.144159,8808.450710
1114.803001,612.876398,-592.164754,8586.388927
1114.803317,383.047749,-444.123565,9178.553681
1114.803632,766.095498,-666.185348,9992.780217
1114.803948,1302.362347,-444.123565,9844.739029
1114.804263,842.705048,-74.020594,9474.636058
1114.804579,1149.143247,-370.102971,8956.491898
1114.804894,766.095498,-518.144159,8586.388927
1114.805210,689.485948,-74.020594,8660.409521
1114.805526,612.876398,296.082377,9104.533087
1114.805841,1149.143247,-0.000000,9918.759623
1114.806157,1072.533697,1036.288319,9326.594869
1114.806472,919.314598,592.164754,8734.430116
1114.806788,1378.971896,-0.000000,8808.450710
1114.807104,459.657299,-592.164754,9696.697840
1114.807419,536.266849,-444.123565,9918.759623
1114.807735,842.705048,-666.185348,10066.800811
1114.808050,1072.533697,-444.123565,10510.924376
1114.808366,1378.971896,-0.000000,9400.615463
1114.808681,689.485948,-0.000000,8660.409521
1114.808997,229.828649,-74.020594,9548.656652
1114.809313,229.828649,-148.041188,9992.780217
1114.809628,919.314598,222.061783,9178.553681
1114.809944,919.314598,-0.000000,9474.636058
1114.810259,536.266849,-0.000000,9696.697840
1114.810575,383.047749,-296.082377,9030.512492
1114.810891,536.266849,-148.041188,9030.512492
1114.811206,-459.657299,-148.041188,9696.697840
1114.811522,153.219100,-962.267725,10510.924376
1114.811837,76.609550,-888.247130,10584.944971
1114.812153,-306.438199,-370.102971,10214.842000
1114.812468,-306.438199,-666.185348,9844.739029
1114.812784,0.000000,-444.123565,9178.553681
1114.813100,-383.047749,-0.000000,9326.594869
1114.813415,0.000000,-296.082377,10214.842000
1114.813731,229.828649,-0.000000,9844.739029
1114.814046,-229.828649,814.226536,9252.574275
1114.814362,-229.828649,814.226536,8882.471304
1114.814678,0.000000,-148.041188,8586.388927
1114.814993,-842.705048,296.082377,9622.677246
1114.815309,-689.485948,296.082377,9918.759623
1114.815624,-689.485948,-0.000000,10066.800811
1114.815940,0.000000,-74.020594,10584.944971
1114.816255,-842.705048,-296.082377,10066.800811
1114.816571,-383.047749,-444.123565,9326.594869
1114.816887,-689.485948,-0.000000,10066.800811
1114.817202,-766.095498,-74.020594,9770.718434
1114.817518,536.266849,-0.000000,9992.780217
1114.817833,383.047749,148.041188,10140.821405
1114.818149,612.876398,-0.000000,9474.636058
1114.818465,919.314598,222.061783,8364.327145
1114.818780,766.095498,-0.000000,8290.306550
1114.819096,766.095498,-0.000000,9474.636058
1114.819411,1302.362347,-592.164754,9770.718434
1114.819727,1378.971896,-814.226536,9918.759623
1114.820042,1149.143247,-370.102971,9474.636058
1114.820358,1225.752797,-1110.308913,8734.430116
1114.820674,536.266849,-1554.432478,9400.615463
1114.820989,229.828649,-962.267725,9326.594869
1114.821305,842.705048,-1110.308913,10140.821405
1114.821620,1072.533697,-518.144159,9918.759623
1114.821936,1072.533697,-0.000000,9030.512492
1114.822252,1225.752797,-740.205942,9030.512492
1114.822567,995.924147,-962.267725,9104.533087
1114.822883,689.485948,-296.082377,9030.512492
1114.823198,995.924147,-592.164754,9474.636058
1114.823514,1685.410096,-592.164754,9474.636058
1114.823829,1532.190996,-666.185348,9992.780217
1114.824145,1532.190996,-370.102971,9030.512492
1114.824461,1378.971896,-222.061783,8512.368333
1114.824776,612.876398,-296.082377,8956.491898
1114.825092,919.314598,-74.020594,9696.697840
1114.825407,1225.752797,-0.000000,9548.656652
1114.825723,1149.143247,-0.000000,9178.553681
1114.826039,459.657299,-0.000000,8734.430116
1114.826354,536.266849,-518.144159,9030.512492
1114.826670,229.828649,-370.102971,9474.636058
1114.826985,-153.219100,-296.082377,9622.677246
1114.827301,0.000000,-814.226536,10140.821405
1114.827616,153.219100,-592.164754,10436.903782
1114.827932,76.609550,-518.144159,9474.636058
1114.828248,306.438199,-666.185348,9400.615463
1114.828563,153.219100,-370.102971,8660.409521
1114.828879,153.219100,-0.000000,9178.553681
1114.829194,919.314598,518.144159,9474.636058
1114.829510,1302.362347,-0.000000,10140.821405
1114.829826,919.314598,592.164754,9326.594869
1114.830141,995.924147,-0.000000,9326.594869
1114.830457,689.485948,-296.082377,8808.450710
1114.830772,383.047749,-0.000000,9400.615463
1114.831088,689.485948,-222.061783,9548.656652
1114.831403,919.314598,222.061783,9770.718434
1114.831719,459.657299,666.185348,9918.759623
1114.832035,153.219100,592.164754,9474.636058
1114.832350,-383.047749,814.226536,8512.368333
1114.832666,-459.657299,370.102971,9770.718434
1114.832981,-383.047749,-74.020594,10214.842000
1114.833297,-766.095498,-592.164754,10362.883188
1114.833613,-536.266849,-0.000000,10658.965565
1114.833928,-383.047749,-0.000000,9474.636058
1114.834244,-229.828649,-0.000000,8734.430116
1114.834559,-995.924147,-74.020594,9400.615463
1114.834875,-536.266849,-0.000000,9844.739029
1114.835190,0.000000,-148.041188,10066.800811
1114.835506,0.000000,-0.000000,10140.821405
1114.835822,0.000000,222.061783,9622.677246
1114.836137,153.219100,-74.020594,9030.512492
1114.836453,153.219100,-296.082377,8808.450710
1114.836768,0.000000,222.061783,9400.615463
1114.837084,766.095498,-0.000000,9918.759623
1114.837400,612.876398,-74.020594,9918.759623
1114.837715,229.828649,296.082377,10066.800811
1114.838031,153.219100,-148.041188,9104.533087
1114.838346,0.000000,-370.102971,9030.512492
1114.838662,-153.219100,-444.123565,9622.677246
1114.838977,0.000000,-888.247130,10214.842000
1114.839293,995.924147,-814.226536,10881.027347
1114.839609,536.266849,-74.020594,9844.739029
1114.839924,842.705048,222.061783,9326.594869
1114.840240,76.609550,-222.061783,8660.409521
1114.840555,306.438199,-370.102971,9622.677246
1114.840871,995.924147,-592.164754,9992.780217
1114.841187,1532.190996,-148.041188,9696.697840
1114.841502,1532.190996,444.123565,9326.594869
1114.841818,1532.190996,222.061783,8586.388927
1114.842133,1455.581446,-296.082377,8364.327145
1114.842449,842.705048,-296.082377,8660.409521
1114.842765,919.314598,222.061783,9030.512492
1114.843080,1762.019645,-592.164754,9844.739029
1114.843396,1838.629195,-962.267725,9992.780217
1114.843711,1302.362347,-148.041188,8290.306550
1114.844027,689.485948,-962.267725,8290.306550
1114.844342,536.266849,-1628.453072,9252.574275
1114.844658,1149.143247,-888.247130,10214.842000
1114.844974,1302.362347,-74.020594,8956.491898
1114.845289,1455.581446,888.247130,8956.491898
1114.845605,612.876398,-0.000000,8660.409521
1114.845920,766.095498,-0.000000,8290.306550
1114.846236,612.876398,-518.144159,8660.409521
1114.846552,153.219100,-962.267725,9178.553681
1114.846867,536.266849,-1036.288319,9992.780217
1114.847183,842.705048,-888.247130,9474.636058
1114.847498,383.047749,-148.041188,9844.739029
1114.847814,919.314598,-518.144159,8882.471304
1114.848129,536.266849,-518.144159,8808.450710
1114.848445,306.438199,-222.061783,9770.718434
1114.848761,536.266849,-0.000000,10066.800811
1114.849076,1225.752797,444.123565,9844.739029
1114.849392,1378.971896,740.205942,8956.491898
1114.849707,919.314598,-0.000000,8512.368333
1114.850023,383.047749,-74.020594,8808.450710
1114.850339,0.000000,-0.000000,9326.594869
1114.850654,-153.219100,296.082377,9992.780217
1114.850970,0.000000,-370.102971,10658.965565
1114.851285,-536.266849,148.041188,10066.800811
1114.851601,-536.266849,-0.000000,9622.677246
1114.851916,-919.314598,-518.144159,9030.512492
1114.852232,-1072.533697,-444.123565,10288.862594
1114.852548,-766.095498,-444.123565,10436.903782
1114.852863,-153.219100,-0.000000,10584.944971
1114.853179,-153.219100,-0.000000,10214.842000
1114.853494,-306.438199,-0.000000,9548.656652
1114.853810,0.000000,-0.000000,9252.574275
1114.854126,-306.438199,222.061783,9104.533087
1114.854441,76.609550,444.123565,9770.718434
1114.854757,306.438199,296.082377,9696.697840
1114.855072,229.828649,-0.000000,9696.697840
1114.855388,306.438199,518.144159,9992.780217
1114.855703,229.828649,-518.144159,9400.615463
1114.856019,-76.609550,-370.102971,8882.471304
1114.856335,-383.047749,-148.041188,9770.718434
1114.856650,153.219100,-148.041188,10288.862594
1114.856966,383.047749,-518.144159,10362.883188
1114.857281,229.828649,-148.041188,9992.780217
1114.857597,229.828649,-444.123565,8882.471304
1114.857913,0.000000,-1110.308913,8882.471304
1114.858228,-153.219100,-1110.308913,9844.739029
1114.858544,229.828649,-740.205942,9770.718434
1114.858859,919.314598,-444.123565,9992.780217
1114.859175,919.314598,-296.082377,9178.553681
1114.859490,1455.581446,-74.020594,8068.244768
1114.859806,1455.581446,-740.205942,8216.285956
1114.860122,1378.971896,-1258.350101,8586.388927
1114.860437,1455.581446,-666.185348,9400.615463
1114.860753,1685.410096,-370.102971,9326.594869
1114.861068,1225.752797,592.164754,8882.471304
1114.861384,1225.752797,592.164754,8438.347739
1114.861700,1072.533697,-740.205942,8438.347739
1114.862015,306.438199,-740.205942,9178.553681
1114.862331,0.000000,-666.185348,10214.842000
1114.862646,689.485948,-1110.308913,10066.800811
1114.862962,383.047749,-296.082377,9696.697840
1114.863277,766.095498,-296.082377,9548.656652
1114.863593,612.876398,-518.144159,9178.553681
1114.863909,153.219100,-592.164754,9696.697840
1114.864224,229.828649,148.041188,9474.636058
1114.864540,1149.143247,666.185348,9474.636058
1114.864855,1378.971896,814.226536,9326.594869
1114.865171,1149.143247,1110.308913,8808.450710
1114.865487,1302.362347,444.123565,8438.347739
1114.865802,1455.581446,-518.144159,9030.512492
1114.866118,1149.143247,148.041188,9326.594869
1114.866433,1072.533697,-666.185348,10214.842000
1114.866749,1072.533697,-370.102971,9770.718434
1114.867064,536.266849,-296.082377,9696.697840
1114.867380,383.047749,-148.041188,9400.615463
1114.867696,995.924147,-444.123565,9474.636058
1114.868011,153.219100,-370.102971,10140.821405
1114.868327,76.609550,-148.041188,9992.780217
1114.868642,842.705048,-0.000000,9622.677246
1114.868958,689.485948,-0.000000,9474.636058
1114.869274,153.219100,370.102971,9104.533087
1114.869589,766.095498,-74.020594,9474.636058
1114.869905,306.438199,-222.061783,9474.636058
1114.870220,76.609550,222.061783,9770.718434
1114.870536,229.828649,-148.041188,10214.842000
1114.870851,459.657299,-74.020594,9844.739029
1114.871167,383.047749,-0.000000,9992.780217
1114.871483,229.828649,444.123565,9252.574275
1114.871798,0.000000,444.123565,9104.533087
1114.872114,76.609550,592.164754,9844.739029
1114.872429,153.219100,666.185348,9918.759623
1114.872745,76.609550,444.123565,9770.718434
1114.873061,0.000000,148.041188,9548.656652
1114.873376,0.000000,-0.000000,9178.553681
1114.873692,-766.095498,-222.061783,9178.553681
1114.874007,-995.924147,-1036.288319,10436.903782
1114.874323,-919.314598,-444.123565,10584.944971
1114.874638,-459.657299,222.061783,10288.862594
1114.874954,-612.876398,518.144159,9326.594869
1114.875270,-306.438199,-296.082377,9696.697840
1114.875585,-689.485948,-592.164754,9326.594869
1114.875901,-842.705048,-518.144159,9474.636058
1114.876216,0.000000,-444.123565,9992.780217
1114.876532,536.266849,-370.102971,10214.842000
1114.876848,612.876398,222.061783,9178.553681
1114.877163,842.705048,-0.000000,9178.553681
1114.877479,766.095498,-814.226536,9104.533087
1114.877794,383.047749,-444.123565,9030.512492
1114.878110,689.485948,-518.144159,9474.636058
1114.878425,1608.800546,-1480.411884,10066.800811
1114.878741,1532.190996,-444.123565,9770.718434
1114.879057,1378.971896,-0.000000,8808.450710
1114.879372,1378.971896,-666.185348,8660.409521
1114.879688,995.924147,-592.164754,9030.512492
1114.880003,689.485948,148.041188,10066.800811
1114.880319,1455.581446,222.061783,9770.718434
1114.880635,919.314598,-0.000000,9474.636058
1114.880950,919.314598,-148.041188,9104.533087
1114.881266,919.314598,-1184.329507,8882.471304
1114.881581,383.047749,-1702.473667,9104.533087
1114.881897,153.219100,-1332.370696,10510.924376
1114.882212,1072.533697,-814.226536,10214.842000
1114.882528,1225.752797,-222.061783,9326.594869
1114.882844,1838.629195,-0.000000,9030.512492
1114.883159,1302.362347,-0.000000,8956.491898
1114.883475,1302.362347,-814.226536,8586.388927
1114.883790,766.095498,-444.123565,9992.780217
1114.884106,1378.971896,148.041188,9548.656652
1114.884422,1378.971896,592.164754,8512.368333
1114.884737,1762.019645,962.267725,8808.450710
1114.885053,842.705048,222.061783,8364.327145
1114.885368,536.266849,-148.041188,8438.347739
1114.885684,153.219100,-74.020594,9474.636058
1114.885999,0.000000,-222.061783,10362.883188
1114.886315,306.438199,-222.061783,10288.862594
1114.886631,536.266849,-666.185348,10066.800811
1114.886946,0.000000,-740.205942,9918.759623
1114.887262,0.000000,-1036.288319,9918.759623
1114.887577,-1072.533697,-518.144159,9474.636058
1114.887893,76.609550,444.123565,9770.718434
1114.888209,842.705048,444.123565,9918.759623
1114.888524,1302.362347,1110.308913,9326.594869
1114.888840,1149.143247,1332.370696,8290.306550
1114.889155,612.876398,-0.000000,8882.471304
1114.889471,459.657299,-666.185348,9548.656652
1114.889787,153.219100,-0.000000,9326.594869
1114.890102,306.438199,592.164754,9548.656652
1114.890418,306.438199,148.041188,10288.862594
1114.890733,-153.219100,-0.000000,10066.800811
1114.891049,-459.657299,-74.020594,9474.636058
1114.891364,-919.314598,-814.226536,10140.821405
1114.891680,-1455.581446,-444.123565,10362.883188
1114.891996,-689.485948,222.061783,10362.883188
1114.892311,76.609550,296.082377,9400.615463
1114.892627,-536.266849,814.226536,9548.656652
1114.892942,-306.438199,592.164754,9104.533087
1114.893258,-459.657299,-148.041188,9178.553681
1114.893574,-612.876398,-444.123565,10140.821405
1114.893889,-383.047749,-222.061783,9918.759623
1114.894205,0.000000,222.061783,9992.780217
1114.894520,76.609550,740.205942,9326.594869
1114.894836,76.609550,296.082377,9030.512492
1114.895151,459.657299,-370.102971,9400.615463
1114.895467,-76.609550,-74.020594,9474.636058
1114.895783,-306.438199,-666.185348,9844.739029
1114.896098,306.438199,-74.020594,10362.883188
1114.896414,383.047749,518.144159,9770.718434
1114.896729,612.876398,222.061783,9030.512492
1114.897045,306.438199,-0.000000,9400.615463
1114.897361,306.438199,-518.144159,9400.615463
1114.897676,383.047749,-444.123565,9400.615463
1114.897992,1072.533697,-74.020594,10214.842000
1114.898308,1532.190996,-296.082377,10436.903782
1114.898623,1378.971896,-0.000000,9696.697840
1114.898939,1149.143247,-518.144159,8512.368333
1114.899254,536.266849,-592.164754,9104.533087
1114.899570,459.657299,-518.144159,9696.697840
1114.899886,1685.410096,-962.267725,9770.718434
1114.900201,1302.362347,-518.144159,8956.491898
1114.900517,1072.533697,-518.144159,9548.656652
1114.900833,1225.752797,-1184.329507,8734.430116
1114.901148,1225.752797,-1406.391290,8808.450710
1114.901464,0.000000,-1258.350101,9622.677246
1114.901780,1149.143247,-1628.453072,10140.821405
1114.902095,1225.752797,-1406.391290,9770.718434
1114.902411,766.095498,-740.205942,9696.697840
1114.902726,1302.362347,-444.123565,8956.491898
1114.903042,1072.533697,-1480.411884,8956.491898
1114.903358,766.095498,-1110.308913,9178.553681
1114.903673,919.314598,-222.061783,9252.574275
1114.903989,1455.581446,-0.000000,9104.533087
1114.904305,1302.362347,370.102971,9326.594869
1114.904620,919.314598,518.144159,8882.471304
1114.904936,1149.143247,-0.000000,8290.306550
1114.905252,229.828649,-370.102971,8956.491898
1114.905567,229.828649,-518.144159,9474.636058
1114.905883,919.314598,-666.185348,9770.718434
1114.906198,1072.533697,-518.144159,9918.759623
1114.906514,153.219100,-370.102971,9474.636058
1114.906830,612.876398,-814.226536,9326.594869
1114.907145,919.314598,-962.267725,9178.553681
1114.907461,-229.828649,-74.020594,9474.636058
1114.907777,0.000000,148.041188,9696.697840
1114.908092,919.314598,296.082377,9326.594869
1114.908408,612.876398,962.267725,8882.471304
1114.908724,153.219100,592.164754,8808.450710
1114.909039,76.609550,-74.020594,8808.450710
1114.909355,-459.657299,-370.102971,9400.615463
1114.909671,-306.438199,-0.000000,9918.759623
1114.909986,0.000000,-0.000000,9918.759623
1114.910302,-153.219100,444.123565,9400.615463
1114.910617,-459.657299,444.123565,9474.636058
1114.910933,-766.095498,-740.205942,9474.636058
1114.911249,-919.314598,-222.061783,10214.842000
1114.911564,-919.314598,444.123565,10881.027347
1114.911880,-76.609550,740.205942,9696.697840
1114.912196,306.438199,1258.350101,9548.656652
1114.912511,-229.828649,444.123565,9030.512492
1114.912827,-459.657299,222.061783,9400.615463
1114.913143,-919.314598,-148.041188,9992.780217
1114.913458,-612.876398,-0.000000,9918.759623
1114.913774,0.000000,888.247130,10584.944971
1114.914089,0.000000,666.185348,9474.636058
1114.914405,0.000000,740.205942,9548.656652
1114.914721,-459.657299,-592.164754,9622.677246
1114.915036,-919.314598,-666.185348,9696.697840
1114.915352,0.000000,-444.123565,10140.821405
1114.915668,153.219100,-518.144159,10436.903782
1114.915983,229.828649,148.041188,10362.883188
1114.916299,689.485948,-0.000000,9770.718434
1114.916615,536.266849,-74.020594,8660.409521
1114.916930,306.438199,-0.000000,9474.636058
1114.917246,536.266849,-222.061783,9696.697840
1114.917561,842.705048,-222.061783,9548.656652
1114.917877,1072.533697,296.082377,9992.780217
1114.918193,1455.581446,-370.102971,10214.842000
1114.918508,1532.190996,-518.144159,9696.697840
1114.918824,459.657299,-740.205942,9326.594869
1114.919140,919.314598,-74.020594,9918.759623
1114.919455,995.924147,296.082377,9252.574275
1114.919771,1608.800546,296.082377,9474.636058
1114.920087,1762.019645,296.082377,9474.636058
1114.920402,1532.190996,-444.123565,8734.430116
1114.920718,1225.752797,-888.247130,8660.409521
1114.921033,536.266849,-518.144159,9178.553681
1114.921349,842.705048,-1036.288319,9770.718434
1114.921665,1225.752797,-74.020594,9622.677246
1114.921980,1072.533697,222.061783,9474.636058
1114.922296,995.924147,-592.164754,9178.553681
1114.922612,919.314598,-1332.370696,8808.450710
1114.922927,459.657299,-1258.350101,9030.512492
1114.923243,919.314598,-962.267725,9918.759623
1114.923559,1378.971896,-814.226536,9548.656652
1114.923874,1302.362347,-0.000000,8956.491898
1114.924190,766.095498,-74.020594,8808.450710
1114.924505,1149.143247,-222.061783,8290.306550
1114.924821,383.047749,-222.061783,8586.388927
1114.925137,383.047749,-0.000000,9326.594869
1114.925452,459.657299,-592.164754,9548.656652
1114.925768,842.705048,-1332.370696,9770.718434
1114.926084,612.876398,-962.267725,9770.718434
1114.926399,459.657299,-1332.370696,9030.512492
1114.926715,153.219100,-1406.391290,8734.430116
1114.927031,0.000000,-962.267725,9770.718434
1114.927346,153.219100,-296.082377,9030.512492
1114.927662,842.705048,444.123565,9548.656652
1114.927977,459.657299,370.102971,9548.656652
1114.928293,0.000000,-74.020594,8216.285956
1114.928609,153.219100,-740.205942,8956.491898
1114.928924,-306.438199,-518.144159,9030.512492
1114.929240,153.219100,-148.041188,9844.739029
1114.929556,306.438199,-888.247130,10510.924376
1114.929871,0.000000,-0.000000,9548.656652
1114.930187,-459.657299,-0.000000,9252.574275
1114.930503,-459.657299,-1332.370696,10140.821405
1114.930818,-766.095498,-296.082377,10066.800811
1114.931134,-766.095498,-0.000000,10066.800811
1114.931450,153.219100,666.185348,10214.842000
1114.931765,459.657299,740.205942,9992.780217
1114.932081,306.438199,1554.432478,8882.471304
1114.932396,306.438199,370.102971,8512.368333
1114.932712,-536.266849,-148.041188,9178.553681
1114.933028,-459.657299,148.041188,9918.759623
1114.933343,76.609550,-148.041188,10214.842000
1114.933659,306.438199,444.123565,9992.780217
1114.933975,-536.266849,666.185348,9770.718434
1114.934290,-459.657299,-148.041188,9770.718434
1114.934606,-612.876398,-518.144159,9918.759623
1114.934922,-1225.752797,-74.020594,10436.903782
1114.935237,0.000000,-370.102971,10140.821405
1114.935553,459.657299,-592.164754,10214.842000
1114.935868,306.438199,-0.000000,9696.697840
1114.936184,766.095498,-666.185348,9474.636058
1114.936500,153.219100,-814.226536,9548.656652
1114.936815,383.047749,-444.123565,9474.636058
1114.937131,842.705048,370.102971,9400.615463
1114.937447,1072.533697,296.082377,9474.636058
1114.937762,1455.581446,222.061783,9844.739029
1114.938078,1455.581446,296.082377,8808.450710
1114.938394,1685.410096,-0.000000,8808.450710
1114.938709,919.314598,-222.061783,9400.615463
1114.939025,1302.362347,-222.061783,10214.842000
1114.939340,1608.800546,-148.041188,9844.739029
1114.939656,1302.362347,-222.061783,9252.574275
1114.939972,842.705048,-148.041188,9992.780217
1114.940287,919.314598,-814.226536,8808.450710
1114.940603,229.828649,-740.205942,9474.636058
1114.940919,1072.533697,-444.123565,10288.862594
1114.941234,766.095498,-148.041188,9992.780217
1114.941550,1225.752797,444.123565,9474.636058
1114.941866,919.314598,296.082377,8882.471304
1114.942181,995.924147,-74.020594,8438.347739
1114.942497,536.266849,-888.247130,9178.553681
1114.942812,229.828649,-592.164754,9844.739029
1114.943128,842.705048,-592.164754,9844.739029
1114.943444,919.314598,-148.041188,9696.697840
1114.943759,842.705048,222.061783,8956.491898
1114.944075,766.095498,-296.082377,8808.450710
1114.944391,612.876398,-74.020594,8734.430116
1114.944706,306.438199,-0.000000,9252.574275
1114.945022,995.924147,-444.123565,9696.697840
1114.945338,1302.362347,-222.061783,10288.862594
1114.945653,919.314598,-222.061783,9030.512492
1114.945969,842.705048,-296.082377,8512.368333
1114.946284,459.657299,-962.267725,9326.594869
1114.946600,459.657299,-592.164754,9844.739029
1114.946916,766.095498,296.082377,9696.697840
1114.947231,612.876398,296.082377,9030.512492
1114.947547,536.266849,518.144159,9252.574275
1114.947863,842.705048,148.041188,9104.533087
1114.948178,689.485948,-296.082377,8438.347739
1114.948494,0.000000,-370.102971,9400.615463
1114.948810,0.000000,-296.082377,9770.718434
1114.949125,383.047749,-740.205942,10140.821405
1114.949441,-153.219100,-296.082377,9400.615463
1114.949757,-689.485948,-222.061783,9326.594869
1114.950072,153.219100,-592.164754,10214.842000
1114.950388,-383.047749,-666.185348,9178.553681
1114.950703,-689.485948,-296.082377,10140.821405
1114.951019,0.000000,148.041188,9844.739029
1114.951335,0.000000,148.041188,9474.636058
1114.951650,383.047749,296.082377,8956.491898
1114.951966,-153.219100,-0.000000,8956.491898
1114.952282,0.000000,-0.000000,8734.430116
1114.952597,-689.485948,-0.000000,9622.677246
1114.952913,-76.609550,-0.000000,10288.862594
1114.953229,0.000000,148.041188,9844.739029
1114.953544,-612.876398,-0.000000,9474.636058
1114.953860,-919.314598,-592.164754,9474.636058
1114.954175,-919.314598,-888.247130,10288.862594
1114.954491,-306.438199,-666.185348,10807.006753
1114.954807,0.000000,-0.000000,9918.759623
1114.955122,459.657299,-148.041188,10510.924376
1114.955438,919.314598,-148.041188,9548.656652
1114.955754,766.095498,-148.041188,9696.697840
1114.956069,919.314598,-740.205942,9178.553681
1114.956385,1378.971896,296.082377,9252.574275
1114.956701,1455.581446,222.061783,9474.636058
1114.957016,1685.410096,592.164754,9474.636058
1114.957332,2221.676944,518.144159,9178.553681
1114.957647,1532.190996,370.102971,8882.471304
1114.957963,1302.362347,-296.082377,9104.533087
1114.958279,766.095498,-444.123565,9844.739029
1114.958594,842.705048,-370.102971,9918.759623
1114.958910,995.924147,-148.041188,9844.739029
1114.959226,766.095498,-222.061783,9918.759623
1114.959541,919.314598,-370.102971,9622.677246
1114.959857,689.485948,-1184.329507,9474.636058
1114.960173,0.000000,-518.144159,9252.574275
1114.960488,76.609550,-370.102971,10362.883188
1114.960804,919.314598,-296.082377,9474.636058
1114.961119,1149.143247,-0.000000,9400.615463
1114.961435,1225.752797,-0.000000,9104.533087
1114.961751,612.876398,-74.020594,8882.471304
1114.962066,995.924147,-740.205942,8364.327145
1114.962382,612.876398,-370.102971,9696.697840
1114.962698,1378.971896,222.061783,9474.636058
1114.963013,1225.752797,370.102971,8956.491898
1114.963329,1072.533697,296.082377,9326.594869
1114.963645,536.266849,-666.185348,9030.512492
1114.963960,153.219100,-740.205942,9104.533087
1114.964276,0.000000,-0.000000,8882.471304
1114.964591,0.000000,-444.123565,9918.759623
1114.964907,229.828649,-370.102971,10732.986159
1114.965223,536.266849,-0.000000,9696.697840
1114.965538,153.219100,-370.102971,8956.491898
1114.965854,76.609550,-814.226536,8956.491898
1114.966170,-229.828649,-666.185348,9622.677246
1114.966485,0.000000,-74.020594,9548.656652
1114.966801,383.047749,518.144159,9622.677246
1114.967117,689.485948,666.185348,8734.430116
1114.967432,766.095498,444.123565,8956.491898
1114.967748,306.438199,-518.144159,9030.512492
1114.968064,0.000000,-666.185348,9252.574275
1114.968379,153.219100,-296.082377,9992.780217
1114.968695,383.047749,-0.000000,9918.759623
1114.969010,306.438199,-0.000000,9474.636058
1114.969326,536.266849,-0.000000,9770.718434
1114.969642,-229.828649,-296.082377,9326.594869
1114.969957,0.000000,-740.205942,9326.594869
1114.970273,-76.609550,-0.000000,9992.780217
1114.970589,153.219100,592.164754,9252.574275
1114.970904,153.219100,814.226536,9326.594869
1114.971220,0.000000,370.102971,9548.656652
1114.971536,-536.266849,-0.000000,8956.491898
1114.971851,-689.485948,-296.082377,9400.615463
1114.972167,-766.095498,-74.020594,9400.615463
1114.972482,-306.438199,-444.123565,10436.903782
1114.972798,0.000000,-222.061783,10436.903782
1114.973114,153.219100,-222.061783,9326.594869
1114.973429,0.000000,-296.082377,9622.677246
1114.973745,0.000000,-814.226536,9622.677246
1114.974061,0.000000,-296.082377,9252.574275
1114.974376,306.438199,-148.041188,9992.780217
1114.974692,1685.410096,-444.123565,9844.739029
1114.975008,1378.971896,-148.041188,9474.636058
1114.975323,1149.143247,666.185348,8438.347739
1114.975639,1072.533697,-444.123565,8512.368333
1114.975954,1149.143247,-888.247130,9548.656652
1114.976270,1302.362347,-0.000000,9992.780217
1114.976586,995.924147,-296.082377,9548.656652
1114.976901,1685.410096,-74.020594,10510.924376
1114.977217,1225.752797,-444.123565,9474.636058
1114.977533,766.095498,-592.164754,8808.450710
1114.977848,0.000000,-740.205942,10066.800811
1114.978164,229.828649,-1036.288319,9992.780217
1114.978480,1149.143247,-666.185348,10436.903782
1114.978795,1072.533697,-296.082377,10140.821405
1114.979111,766.095498,-370.102971,9252.574275
1114.979426,766.095498,-1036.288319,9474.636058
1114.979742,766.095498,-1110.308913,9178.553681
1114.980058,766.095498,-666.185348,9548.656652
1114.980373,1532.190996,-0.000000,10214.842000
1114.980689,1762.019645,370.102971,8734.430116
1114.981005,1149.143247,444.123565,9178.553681
1114.981320,1838.629195,-592.164754,8734.430116
1114.981636,842.705048,-962.267725,8438.347739
1114.981952,536.266849,-148.041188,9104.533087
1114.982267,919.314598,-148.041188,9696.697840
1114.982583,1072.533697,-0.000000,9622.677246
1114.982898,842.705048,296.082377,9548.656652
1114.983214,306.438199,-222.061783,8290.306550
1114.983530,-153.219100,-518.144159,8660.409521
1114.983845,0.000000,-1184.329507,10066.800811
1114.984161,-153.219100,-1258.350101,9622.677246
1114.984477,0.000000,-740.205942,9992.780217
1114.984792,306.438199,-592.164754,9474.636058
1114.985108,383.047749,-370.102971,8734.430116
1114.985424,0.000000,-518.144159,8882.471304
1114.985739,0.000000,-74.020594,9030.512492
1114.986055,229.828649,296.082377,9622.677246
1114.986371,689.485948,740.205942,9252.574275
1114.986686,459.657299,962.267725,8808.450710
1114.987002,459.657299,-74.020594,9030.512492
1114.987317,459.657299,-370.102971,9178.553681
1114.987633,-306.438199,-666.185348,8882.471304
1114.987949,-383.047749,-0.000000,9696.697840
1114.988264,306.438199,222.061783,9844.739029
1114.988580,689.485948,444.123565,9696.697840
1114.988896,383.047749,592.164754,9326.594869
1114.989211,76.609550,296.082377,9104.533087
1114.989527,-536.266849,-148.041188,9474.636058
1114.989843,-612.876398,-0.000000,9992.780217
1114.990158,-459.657299,296.082377,9844.739029
1114.990474,153.219100,740.205942,10140.821405
1114.990789,153.219100,666.185348,9178.553681
1114.991105,-383.047749,-0.000000,9400.615463
1114.991421,-383.047749,-666.185348,9548.656652
1114.991736,-995.924147,-592.164754,10362.883188
1114.992052,-153.219100,-592.164754,10584.944971
1114.992368,153.219100,-74.020594,9992.780217
1114.992683,229.828649,-0.000000,9918.759623
1114.992999,383.047749,-148.041188,9622.677246
1114.993315,536.266849,-74.020594,9326.594869
1114.993630,383.047749,296.082377,8956.491898
1114.993946,689.485948,888.247130,9474.636058
1114.994261,995.924147,-0.000000,9696.697840
1114.994577,1149.143247,444.123565,9770.718434
1114.994893,689.485948,-0.000000,8808.450710
1114.995208,995.924147,-888.247130,9252.574275
1114.995524,383.047749,-592.164754,9474.636058
1114.995840,229.828649,-666.185348,10288.862594
1114.996155,766.095498,-444.123565,10214.842000
1114.996471,919.314598,-0.000000,9770.718434
1114.996787,459.657299,370.102971,9474.636058
1114.997102,1149.143247,-888.247130,9252.574275
1114.997418,766.095498,-1332.370696,9400.615463
1114.997734,842.705048,-222.061783,9770.718434
1114.998049,766.095498,-74.020594,8956.491898
1114.998365,1532.190996,-0.000000,9400.615463
1114.998681,995.924147,-0.000000,9252.574275
1114.998996,536.266849,-0.000000,8438.347739
1114.999312,153.219100,-666.185348,9104.533087
1114.999628,-306.438199,-814.226536,9400.615463
1114.999943,0.000000,-74.020594,9992.780217
1115.000259,459.657299,-888.247130,10140.821405
1115.000575,306.438199,-444.123565,9474.636058
1115.000890,153.219100,-814.226536,9252.574275
1115.001206,-229.828649,-1184.329507,9104.533087
1115.001522,76.609550,-444.123565,9622.677246
1115.001837,229.828649,-296.082377,9326.594869
1115.002153,1149.143247,-0.000000,9400.615463
1115.002469,1149.143247,-148.041188,9696.697840
1115.002784,1149.143247,-148.041188,8808.450710
1115.003100,842.705048,-148.041188,7920.203579
1115.003416,306.438199,-296.082377,8956.491898
1115.003731,459.657299,-222.061783,9548.656652
1115.004047,995.924147,-148.041188,9622.677246
1115.004362,459.657299,444.123565,9400.615463
1115.004678,536.266849,-0.000000,9178.553681
1115.004994,383.047749,-1184.329507,8956.491898
1115.005309,0.000000,-1258.350101,9770.718434
1115.005625,0.000000,-888.247130,10288.862594
1115.005941,842.705048,-592.164754,9770.718434
1115.006256,459.657299,-0.000000,9400.615463
1115.006572,612.876398,296.082377,9030.512492
1115.006888,842.705048,-814.226536,8438.347739
1115.007203,306.438199,-296.082377,8808.450710
1115.007519,229.828649,444.123565,9548.656652
1115.007835,689.485948,148.041188,8956.491898
1115.008150,612.876398,592.164754,9326.594869
1115.008466,1149.143247,370.102971,9696.697840
1115.008782,536.266849,-740.205942,9178.553681
1115.009097,153.219100,-518.144159,9400.615463
1115.009413,-459.657299,-148.041188,9400.615463
1115.009729,0.000000,-0.000000,9844.739029
1115.010044,306.438199,-148.041188,10584.944971
1115.010360,153.219100,740.205942,9326.594869
1115.010676,-383.047749,1332.370696,8882.471304
1115.010991,-383.047749,-0.000000,9326.594869
1115.011307,-612.876398,-296.082377,9844.739029
1115.011623,-612.876398,-0.000000,10140.821405
1115.011938,-536.266849,-0.000000,10362.883188
1115.012254,0.000000,-0.000000,10584.944971
1115.012570,0.000000,-370.102971,9918.759623
1115.012885,153.219100,-148.041188,9474.636058
1115.013201,-229.828649,-74.020594,9770.718434
1115.013517,229.828649,666.185348,10214.842000
1115.013832,689.485948,888.247130,9696.697840
1115.014148,842.705048,444.123565,9030.512492
1115.014464,995.924147,666.185348,9104.533087
1115.014779,919.314598,-0.000000,9030.512492
1115.015095,536.266849,-666.185348,9030.512492
1115.015410,153.219100,-222.061783,10288.862594
1115.015726,1072.533697,-888.247130,10362.883188
1115.016042,1149.143247,-148.041188,9474.636058
1115.016357,612.876398,-518.144159,9696.697840
1115.016673,766.095498,-592.164754,9622.677246
1115.016989,766.095498,-814.226536,8808.450710
1115.017304,766.095498,-962.267725,10066.800811
1115.017620,1149.143247,-592.164754,10288.862594
1115.017936,1302.362347,-148.041188,9548.656652
1115.018251,1378.971896,222.061783,9030.512492
1115.018567,842.705048,-296.082377,8512.368333
1115.018883,919.314598,-592.164754,8438.347739
1115.019198,842.705048,-666.185348,8660.409521
1115.019514,153.219100,-592.164754,9844.739029
1115.019830,919.314598,-666.185348,10584.944971
1115.020145,1072.533697,-370.102971,9474.636058
1115.020461,766.095498,-0.000000,8956.491898
1115.020777,612.876398,-518.144159,8882.471304
1115.021092,306.438199,-370.102971,9104.533087
1115.021408,459.657299,-222.061783,9474.636058
1115.021724,153.219100,-370.102971,9326.594869
1115.022039,766.095498,-148.041188,9548.656652
1115.022355,383.047749,-0.000000,8364.327145
1115.022671,459.657299,-1184.329507,8808.450710
1115.022986,-306.438199,-1110.308913,9474.636058
1115.023302,-612.876398,-518.144159,9770.718434
1115.023618,0.000000,-296.082377,9622.677246
1115.023933,153.219100,-74.020594,9548.656652
1115.024249,536.266849,296.082377,9474.636058
1115.024565,612.876398,-370.102971,8734.430116
1115.024880,766.095498,-814.226536,8512.368333
1115.025196,0.000000,-0.000000,9030.512492
1115.025512,842.705048,-814.226536,9918.759623
1115.025827,1455.581446,-444.123565,9770.718434
1115.026143,995.924147,296.082377,9104.533087
1115.026458,689.485948,518.144159,8438.347739
1115.026774,459.657299,148.041188,8956.491898
1115.027090,0.000000,-74.020594,9474.636058
1115.027405,536.266849,592.164754,9918.759623
1115.027721,383.047749,148.041188,9918.759623
1115.028037,0.000000,-0.000000,9474.636058
1115.028352,76.609550,-148.041188,9844.739029
1115.028668,-229.828649,-1258.350101,9622.677246
1115.028984,-612.876398,-888.247130,10140.821405
1115.029299,-612.876398,-148.041188,10584.944971
1115.029615,76.609550,-74.020594,10066.800811
1115.029931,76.609550,518.144159,9622.677246
1115.030246,0.000000,444.123565,9104.533087
1115.030562,0.000000,-0.000000,8956.491898
1115.030878,0.000000,-0.000000,9252.574275
1115.031193,459.657299,370.102971,9548.656652
1115.031509,689.485948,370.102971,10140.821405
1115.031825,842.705048,666.185348,9474.636058
1115.032140,306.438199,-0.000000,8956.491898
1115.032456,383.047749,-148.041188,9992.780217
1115.032772,153.219100,-148.041188,9474.636058
1115.033087,-229.828649,-370.102971,9696.697840
1115.033403,153.219100,-296.082377,10658.965565
1115.033719,153.219100,-0.000000,9992.780217
1115.034034,76.609550,666.185348,9474.636058
1115.034350,612.876398,-0.000000,9030.512492
1115.034666,459.657299,-740.205942,9252.574275
1115.034981,153.219100,-666.185348,9696.697840
1115.035297,536.266849,-592.164754,10288.862594
1115.035613,1072.533697,-1184.329507,10140.821405
1115.035928,919.314598,-296.082377,10066.800811
1115.036244,995.924147,-592.164754,9178.553681
1115.036560,995.924147,-888.247130,8956.491898
1115.036875,919.314598,-296.082377,9770.718434
1115.037191,1149.143247,222.061783,9326.594869
1115.037506,1608.800546,370.102971,9400.615463
1115.037822,1838.629195,444.123565,8882.471304
1115.038138,1532.190996,-0.000000,8290.306550
1115.038453,1149.143247,-666.185348,8586.388927
1115.038769,536.266849,-888.247130,9104.533087
1115.039085,459.657299,-1480.411884,9992.780217
1115.039400,842.705048,-1406.391290,10881.027347
1115.039716,612.876398,-962.267725,10288.862594
1115.040032,383.047749,-814.226536,9326.594869
1115.040347,459.657299,-1036.288319,9252.574275
1115.040663,306.438199,-962.267725,8956.491898
1115.040979,995.924147,-74.020594,9326.594869
1115.041294,1149.143247,370.102971,9474.636058
1115.041610,1225.752797,740.205942,8808.450710
1115.041926,1072.533697,666.185348,8142.265362
1115.042241,689.485948,-814.226536,8438.347739
1115.042557,0.000000,-888.247130,9178.553681
1115.042873,0.000000,-962.267725,9918.759623
1115.043188,153.219100,-814.226536,10214.842000
1115.043504,689.485948,-814.226536,9918.759623
1115.043820,689.485948,-444.123565,8808.450710
1115.044135,612.876398,-370.102971,9030.512492
1115.044451,0.000000,-370.102971,9030.512492
1115.044767,0.000000,-148.041188,9178.553681
1115.045082,229.828649,-0.000000,9474.636058
1115.045398,766.095498,-0.000000,9770.718434
1115.045714,383.047749,370.102971,9104.533087
1115.046029,536.266849,-444.123565,8586.388927
1115.046345,76.609550,-1184.329507,9178.553681
1115.046661,0.000000,-740.205942,9622.677246
1115.046976,0.000000,-148.041188,10214.842000
1115.047292,536.266849,222.061783,9844.739029
1115.047608,0.000000,666.185348,9474.636058
1115.047923,-383.047749,592.164754,9400.615463
1115.048239,-383.047749,-0.000000,9252.574275
1115.048554,-612.876398,370.102971,9178.553681
1115.048870,-459.657299,148.041188,9918.759623
1115.049186,0.000000,-148.041188,10436.903782
1115.049501,0.000000,-0.000000,9844.739029
1115.049817,153.219100,-0.000000,9474.636058
1115.050133,229.828649,-222.061783,9030.512492
1115.050448,0.000000,-148.041188,9104.533087
1115.050764,-229.828649,370.102971,9844.739029
1115.051080,-153.219100,296.082377,9918.759623
1115.051395,229.828649,148.041188,10510.924376
1115.051711,153.219100,814.226536,9622.677246
1115.052027,76.609550,296.082377,9326.594869
1115.052342,383.047749,-0.000000,9104.533087
1115.052658,459.657299,-0.000000,9474.636058
1115.052974,306.438199,-222.061783,10214.842000
1115.053289,459.657299,-592.164754,10732.986159
1115.053605,383.047749,-0.000000,10140.821405
1115.053921,229.828649,-370.102971,8734.430116
1115.054236,306.438199,-740.205942,9918.759623
1115.054552,612.876398,-740.205942,10362.883188
1115.054868,1378.971896,-74.020594,10066.800811
1115.055183,1608.800546,370.102971,9844.739029
1115.055499,1532.190996,148.041188,9178.553681
1115.055815,1991.848295,-0.000000,9178.553681
1115.056130,2068.457845,-444.123565,8882.471304
1115.056446,1302.362347,-518.144159,9030.512492
1115.056762,1149.143247,-222.061783,9844.739029
1115.057077,1455.581446,-148.041188,9474.636058
1115.057393,1915.238745,-0.000000,9622.677246
1115.057709,1149.143247,148.041188,9622.677246
1115.058024,995.924147,-370.102971,8438.347739
1115.058340,383.047749,-666.185348,8956.491898
1115.058656,306.438199,-1110.308913,9844.739029
1115.058971,1149.143247,-814.226536,9992.780217
1115.059287,1149.143247,-444.123565,9770.718434
1115.059602,766.095498,-740.205942,9400.615463
1115.059918,229.828649,-962.267725,8956.491898
1115.060234,153.219100,-1036.288319,8956.491898
1115.060549,459.657299,-740.205942,9400.615463
1115.060865,306.438199,-296.082377,9474.636058
1115.061181,1072.533697,-296.082377,9770.718434
1115.061496,1149.143247,444.123565,7698.141797
1115.061812,842.705048,-0.000000,8512.368333
1115.062128,306.438199,-592.164754,8734.430116
1115.062443,76.609550,-148.041188,8660.409521
1115.062759,536.266849,-444.123565,9326.594869
1115.063075,0.000000,-1036.288319,9992.780217
1115.063390,0.000000,-1924.535449,9844.739029
1115.063706,-153.219100,-1406.391290,9548.656652
1115.064022,0.000000,-1480.411884,9474.636058
1115.064337,0.000000,-740.205942,9474.636058
1115.064653,383.047749,-222.061783,9400.615463
1115.064969,536.266849,296.082377,9622.677246
1115.065284,536.266849,370.102971,9400.615463
1115.065600,995.924147,296.082377,8882.471304
1115.065916,766.095498,-0.000000,8512.368333
1115.066231,459.657299,370.102971,9104.533087
1115.066547,153.219100,-296.082377,8956.491898
1115.066863,383.047749,-740.205942,10288.862594
1115.067178,0.000000,-296.082377,10807.006753
1115.067494,383.047749,-0.000000,9844.739029
1115.067810,-306.438199,-74.020594,9178.553681
1115.068125,-689.485948,-0.000000,9400.615463
1115.068441,-612.876398,-0.000000,10214.842000
1115.068757,76.609550,-0.000000,10214.842000
1115.069072,0.000000,666.185348,9918.759623
1115.069388,0.000000,518.144159,9992.780217
1115.069704,0.000000,-0.000000,9178.553681
1115.070019,-229.828649,-74.020594,8882.471304
1115.070335,-612.876398,296.082377,9178.553681
1115.070650,0.000000,-0.000000,9622.677246
1115.070966,76.609550,-0.000000,10362.883188
1115.071282,0.000000,296.082377,10288.862594
1115.071597,-229.828649,296.082377,9622.677246
1115.071913,0.000000,-148.041188,9400.615463
1115.072229,-536.266849,518.144159,9326.594869
1115.072544,76.609550,-0.000000,10140.821405
1115.072860,536.266849,296.082377,9474.636058
1115.073176,76.609550,740.205942,9696.697840
1115.073491,459.657299,-0.000000,9400.615463
1115.073807,383.047749,-814.226536,8808.450710
1115.074123,-229.828649,-740.205942,9622.677246
1115.074438,306.438199,-814.226536,10288.862594
1115.074754,766.095498,-814.226536,10066.800811
1115.075070,1378.971896,-148.041188,10214.842000
1115.075385,1608.800546,-296.082377,9622.677246
1115.075701,1762.019645,-518.144159,8512.368333
1115.076017,995.924147,-148.041188,8586.388927
1115.076332,1762.019645,-0.000000,9326.594869
1115.076648,1762.019645,-74.020594,9622.677246
1115.076964,1991.848295,-0.000000,9548.656652
1115.077279,1378.971896,-0.000000,9326.594869
1115.077595,1072.533697,-592.164754,8734.430116
1115.077911,459.657299,-740.205942,9104.533087
1115.078226,536.266849,-518.144159,9548.656652
1115.078542,995.924147,-592.164754,10288.862594
1115.078858,1455.581446,-444.123565,10214.842000
1115.079173,995.924147,-444.123565,9696.697840
1115.079489,1072.533697,-1406.391290,9252.574275
1115.079805,766.095498,-1184.329507,9178.553681
1115.080120,766.095498,-444.123565,9474.636058
1115.080436,1149.143247,148.041188,9326.594869
1115.080752,1378.971896,666.185348,9400.615463
1115.081067,1532.190996,666.185348,9104.533087
1115.081383,1149.143247,296.082377,8364.327145
1115.081698,1072.533697,-518.144159,8216.285956
1115.082014,689.485948,-666.185348,8586.388927
1115.082330,229.828649,-1036.288319,9622.677246
1115.082645,536.266849,-1184.329507,10584.944971
1115.082961,153.219100,-888.247130,10362.883188
1115.083277,0.000000,-888.247130,9548.656652
1115.083592,-229.828649,-814.226536,9178.553681
1115.083908,-689.485948,-740.205942,9252.574275
1115.084224,-229.828649,-370.102971,9548.656652
1115.084539,153.219100,-148.041188,9844.739029
1115.084855,306.438199,-0.000000,10362.883188
1115.085171,459.657299,-0.000000,9178.553681
1115.085486,229.828649,-148.041188,8290.306550
1115.085802,76.609550,-296.082377,8734.430116
1115.086118,153.219100,-0.000000,9252.574275
1115.086433,0.000000,-0.000000,9696.697840
1115.086749,153.219100,296.082377,9770.718434
1115.087065,0.000000,-0.000000,9252.574275
1115.087380,-306.438199,-444.123565,9104.533087
1115.087696,-612.876398,-296.082377,8808.450710
1115.088012,-306.438199,-370.102971,9992.780217
1115.088327,-919.314598,-0.000000,10140.821405
1115.088643,-459.657299,-0.000000,9918.759623
1115.088959,-612.876398,-0.000000,9696.697840
1115.089274,-536.266849,222.061783,9178.553681
1115.089590,-995.924147,-444.123565,8808.450710
1115.089906,-1149.143247,-0.000000,9844.739029
1115.090221,-995.924147,-0.000000,9992.780217
1115.090537,-536.266849,-148.041188,10288.862594
1115.090853,-153.219100,-0.000000,9992.780217
1115.091168,-459.657299,222.061783,9326.594869
1115.091484,-459.657299,370.102971,9178.553681
1115.091800,-153.219100,370.102971,9548.656652
1115.092115,229.828649,-0.000000,10140.821405
1115.092431,766.095498,-370.102971,10288.862594
1115.092746,536.266849,148.041188,9992.780217
1115.093062,919.314598,74.020594,9400.615463
1115.093378,919.314598,-222.061783,9104.533087
1115.093693,459.657299,-0.000000,8882.471304
1115.094009,842.705048,148.041188,9400.615463
1115.094325,1225.752797,222.061783,9770.718434
1115.094640,1225.752797,222.061783,10214.842000
1115.094956,1378.971896,-0.000000,9696.697840
1115.095272,842.705048,-592.164754,8956.491898
1115.095587,689.485948,-962.267725,9400.615463
1115.095903,1149.143247,-592.164754,9844.739029
1115.096219,1302.362347,-592.164754,10066.800811
1115.096535,1225.752797,148.041188,9622.677246
1115.096851,1072.533697,370.102971,10214.842000
1115.097166,1225.752797,-370.102971,8956.491898
1115.097482,766.095498,-148.041188,8512.368333
1115.097798,995.924147,148.041188,9030.512492
1115.098114,995.924147,-592.164754,9770.718434
1115.098430,1762.019645,-888.247130,10807.006753
1115.098745,1455.581446,-296.082377,9770.718434
1115.099061,1378.971896,-74.020594,9104.533087
1115.099377,1532.190996,-666.185348,8290.306550
1115.099693,1302.362347,-0.000000,9104.533087
1115.100008,1378.971896,814.226536,9474.636058
1115.100324,1149.143247,370.102971,9326.594869
1115.100640,1225.752797,222.061783,9400.615463
1115.100956,995.924147,370.102971,8734.430116
1115.101272,766.095498,-74.020594,8216.285956
1115.101587,229.828649,-0.000000,8734.430116
1115.101903,229.828649,-444.123565,9548.656652
1115.102219,229.828649,-888.247130,10214.842000
1115.102535,153.219100,-740.205942,10658.965565
1115.102851,689.485948,-666.185348,9696.697840
1115.103166,-383.047749,-1406.391290,9474.636058
1115.103482,-229.828649,-1332.370696,9474.636058
1115.103798,536.266849,-0.000000,9326.594869
1115.104114,459.657299,296.082377,9252.574275
1115.104430,766.095498,296.082377,9918.759623
1115.104745,842.705048,518.144159,9030.512492
1115.105061,995.924147,296.082377,8142.265362
1115.105377,995.924147,444.123565,7550.100608
1115.105693,536.266849,-0.000000,9030.512492
1115.106009,536.266849,-592.164754,9844.739029
1115.106324,306.438199,-1036.288319,9992.780217
1115.106640,0.000000,-222.061783,9918.759623
1115.106956,-459.657299,-370.102971,9474.636058
1115.107272,-842.705048,-1110.308913,9918.759623
1115.107588,-995.924147,-148.041188,9992.780217
1115.107903,-766.095498,-0.000000,10140.821405
1115.108219,-383.047749,-148.041188,10214.842000
1115.108535,-536.266849,296.082377,9696.697840
1115.108851,-153.219100,-370.102971,8882.471304
1115.109166,-459.657299,-962.267725,8660.409521
1115.109482,-459.657299,-444.123565,9548.656652
1115.109798,-612.876398,-0.000000,9548.656652
1115.110114,-229.828649,-0.000000,10288.862594
1115.110430,0.000000,222.061783,9918.759623
1115.110745,0.000000,-0.000000,9400.615463
1115.111061,0.000000,-222.061783,8956.491898
1115.111377,-229.828649,-814.226536,9400.615463
1115.111693,459.657299,-444.123565,10066.800811
1115.112009,383.047749,-0.000000,10436.903782
1115.112324,536.266849,-74.020594,9918.759623
1115.112640,459.657299,148.041188,9030.512492
1115.112956,229.828649,-74.020594,8882.471304
1115.113272,0.000000,-814.226536,9326.594869
1115.113588,0.000000,-592.164754,10288.862594
1115.113903,0.000000,-740.205942,10881.027347
1115.114219,842.705048,-518.144159,10214.842000
1115.114535,919.314598,222.061783,9696.697840
1115.114851,1838.629195,-888.247130,8438.347739
1115.115167,1302.362347,-444.123565,8660.409521
1115.115482,1225.752797,-370.102971,9770.718434
1115.115798,1455.581446,-0.000000,9400.615463
1115.116114,1762.019645,-0.000000,9696.697840
1115.116430,2068.457845,148.041188,9474.636058
1115.116746,1685.410096,296.082377,8734.430116
1115.117061,1149.143247,-296.082377,9326.594869
1115.117377,1149.143247,-74.020594,8808.450710
1115.117693,1378.971896,370.102971,9474.636058
1115.118009,1532.190996,-592.164754,9992.780217
1115.118324,1378.971896,-814.226536,9474.636058
1115.118640,995.924147,-1036.288319,9474.636058
1115.118956,995.924147,-1480.411884,9400.615463
1115.119272,536.266849,-888.247130,8956.491898
1115.119588,536.266849,-0.000000,9992.780217
1115.119903,612.876398,222.061783,9474.636058
1115.120219,76.609550,592.164754,9030.512492
1115.120535,766.095498,666.185348,9030.512492
1115.120851,383.047749,148.041188,8438.347739
1115.121167,-76.609550,-148.041188,8734.430116
1115.121482,306.438199,-444.123565,9474.636058
1115.121798,306.438199,-888.247130,9252.574275
1115.122114,306.438199,-592.164754,10436.903782
1115.122430,536.266849,-518.144159,10214.842000
1115.122746,306.438199,-0.000000,8438.347739
1115.123061,0.000000,296.082377,8882.471304
1115.123377,0.000000,592.164754,8882.471304
1115.123693,306.438199,-74.020594,10288.862594
1115.124009,459.657299,-0.000000,10658.965565
1115.124325,153.219100,148.041188,9326.594869
1115.124640,612.876398,148.041188,8882.471304
1115.124956,153.219100,-0.000000,8808.450710
1115.125272,-229.828649,296.082377,8660.409521
1115.125588,76.609550,-0.000000,9622.677246
1115.125904,76.609550,-0.000000,10955.047942
1115.126219,-383.047749,148.041188,9992.780217
1115.126535,-229.828649,222.061783,9770.718434
1115.126851,-612.876398,-444.123565,9252.574275
1115.127167,-306.438199,-518.144159,9326.594869
1115.127482,0.000000,-74.020594,10436.903782
1115.127798,0.000000,-148.041188,10288.862594
1115.128114,0.000000,444.123565,10362.883188
1115.128430,306.438199,-0.000000,9474.636058
1115.128746,76.609550,-296.082377,8586.388927
1115.129061,-612.876398,-370.102971,9474.636058
1115.129377,0.000000,-74.020594,9770.718434
1115.129693,76.609550,-0.000000,9992.780217
1115.130009,-153.219100,-74.020594,9992.780217
1115.130325,0.000000,-74.020594,9918.759623
1115.130640,0.000000,-296.082377,8438.347739
1115.130956,-536.266849,-370.102971,8586.388927
1115.131272,-306.438199,-296.082377,10362.883188
1115.131588,153.219100,-962.267725,10732.986159
1115.131904,306.438199,-592.164754,9992.780217
1115.132219,689.485948,-0.000000,9548.656652
1115.132535,383.047749,-518.144159,8808.450710
1115.132851,306.438199,-592.164754,9030.512492
1115.133167,383.047749,-0.000000,9178.553681
1115.133483,689.485948,-0.000000,9992.780217
1115.133798,1378.971896,-370.102971,10140.821405
1115.134114,1149.143247,-296.082377,9548.656652
1115.134430,1532.190996,-0.000000,8734.430116
1115.134746,1149.143247,-666.185348,8586.388927
1115.135062,1532.190996,-148.041188,9400.615463
1115.135377,1608.800546,444.123565,8586.388927
1115.135693,1608.800546,-0.000000,9622.677246
1115.136009,1302.362347,-222.061783,9918.759623
1115.136325,1072.533697,-444.123565,9178.553681
1115.136640,612.876398,-666.185348,8808.450710
1115.136956,0.000000,-592.164754,9474.636058
1115.137272,536.266849,-814.226536,10362.883188
1115.137588,842.705048,-740.205942,10214.842000
1115.137904,689.485948,-518.144159,10214.842000
1115.138219,689.485948,-740.205942,9548.656652
1115.138535,919.314598,-370.102971,8660.409521
1115.138851,459.657299,-0.000000,8290.306550
1115.139167,766.095498,222.061783,9696.697840
1115.139483,1072.533697,-370.102971,9548.656652
1115.139798,766.095498,-0.000000,9696.697840
1115.140114,766.095498,370.102971,9326.594869
1115.140430,536.266849,-444.123565,8586.388927
1115.140746,612.876398,-518.144159,8734.430116
1115.141062,689.485948,-74.020594,9252.574275
1115.141377,229.828649,-666.185348,9770.718434
1115.141693,842.705048,-444.123565,10658.965565
1115.142009,766.095498,-148.041188,9770.718434
1115.142325,0.000000,-592.164754,8882.471304
1115.142641,0.000000,-814.226536,8956.491898
1115.142956,0.000000,-148.041188,9548.656652
1115.143272,153.219100,-222.061783,9252.574275
1115.143588,459.657299,-74.020594,9992.780217
1115.143904,459.657299,518.144159,10214.842000
1115.144220,383.047749,296.082377,9030.512492
1115.144535,459.657299,148.041188,8364.327145
1115.144851,-306.438199,-0.000000,8808.450710
1115.145167,0.000000,-74.020594,9696.697840
1115.145483,306.438199,-592.164754,10436.903782
1115.145798,0.000000,-222.061783,9992.780217
1115.146114,0.000000,296.082377,9770.718434
1115.146430,-153.219100,-0.000000,8660.409521
1115.146746,0.000000,-148.041188,9400.615463
1115.147062,153.219100,666.185348,9622.677246
1115.147377,153.219100,814.226536,9696.697840
1115.147693,0.000000,592.164754,9622.677246
1115.148009,-153.219100,-222.061783,9400.615463
1115.148325,-459.657299,-1036.288319,9178.553681
1115.148641,-306.438199,-222.061783,8512.368333
1115.148956,-612.876398,-0.000000,9844.739029
1115.149272,-689.485948,-0.000000,10584.944971
1115.149588,-459.657299,-74.020594,10510.924376
1115.149904,-536.266849,518.144159,9696.697840
1115.150220,-689.485948,-0.000000,8956.491898
1115.150535,-612.876398,-370.102971,9474.636058
1115.150851,-459.657299,-518.144159,10288.862594
1115.151167,0.000000,-888.247130,10140.821405
1115.151483,76.609550,-444.123565,10732.986159
1115.151799,306.438199,-296.082377,10288.862594
1115.152114,536.266849,-0.000000,9104.533087
1115.152430,459.657299,370.102971,8586.388927
1115.152746,229.828649,-74.020594,8956.491898
1115.153062,766.095498,-148.041188,9992.780217
1115.153378,1072.533697,-0.000000,9770.718434
1115.153693,1685.410096,-0.000000,9548.656652
1115.154009,1455.581446,-0.000000,9104.533087
1115.154325,1455.581446,-1036.288319,8512.368333
1115.154641,1149.143247,-148.041188,8956.491898
1115.154956,1608.800546,-0.000000,9326.594869
1115.155272,1225.752797,148.041188,9622.677246
1115.155588,1149.143247,-296.082377,10214.842000
1115.155904,1072.533697,-518.144159,9400.615463
1115.156220,842.705048,-962.267725,9104.533087
1115.156535,766.095498,-962.267725,9104.533087
1115.156851,919.314598,-592.164754,9622.677246
1115.157167,1532.190996,-148.041188,10140.821405
1115.157483,1608.800546,-74.020594,9548.656652
1115.157799,1532.190996,-0.000000,8660.409521
1115.158114,1378.971896,-0.000000,8438.347739
1115.158430,995.924147,-518.144159,8512.368333
1115.158746,842.705048,-222.061783,9178.553681
1115.159062,919.314598,-814.226536,9696.697840
1115.159378,919.314598,-592.164754,10436.903782
1115.159693,536.266849,-740.205942,9844.739029
1115.160009,459.657299,-148.041188,9030.512492
1115.160325,383.047749,-592.164754,9252.574275
1115.160641,76.609550,-518.144159,9178.553681
1115.160957,919.314598,-148.041188,10214.842000
1115.161272,842.705048,-444.123565,9918.759623
1115.161588,612.876398,-148.041188,9992.780217
1115.161904,536.266849,-0.000000,9252.574275
1115.162220,995.924147,-296.082377,8956.491898
1115.162535,459.657299,296.082377,9400.615463
1115.162851,383.047749,370.102971,9548.656652
1115.163167,689.485948,-0.000000,9918.759623
1115.163483,536.266849,148.041188,9844.739029
1115.163799,229.828649,-222.061783,9400.615463
1115.164114,229.828649,-148.041188,8808.450710
1115.164430,0.000000,-296.082377,9400.615463
1115.164746,-383.047749,-296.082377,9474.636058
1115.165062,-459.657299,-666.185348,10584.944971
1115.165378,-153.219100,-444.123565,10288.862594
1115.165693,-459.657299,-740.205942,9252.574275
1115.166009,-383.047749,-518.144159,9918.759623
1115.166325,-536.266849,-592.164754,9030.512492
1115.166641,-229.828649,148.041188,9326.594869
1115.166957,153.219100,-74.020594,9104.533087
1115.167272,0.000000,-148.041188,9326.594869
1115.167588,229.828649,-148.041188,9696.697840
1115.167904,-229.828649,-666.185348,8808.450710
1115.168220,-383.047749,-222.061783,8438.347739
1115.168536,0.000000,-0.000000,9548.656652
1115.168851,76.609550,-0.000000,9918.759623
1115.169167,76.609550,444.123565,10288.862594
1115.169483,-383.047749,666.185348,9548.656652
1115.169799,-229.828649,-0.000000,8808.450710
1115.170115,-536.266849,-592.164754,9326.594869
1115.170430,-229.828649,-0.000000,9548.656652
1115.170746,153.219100,-0.000000,9474.636058
1115.171062,153.219100,-592.164754,10066.800811
1115.171378,459.657299,-444.123565,10658.965565
1115.171693,689.485948,-148.041188,9474.636058
1115.172009,612.876398,-0.000000,8586.388927
1115.172325,459.657299,-0.000000,9252.574275
1115.172641,842.705048,-0.000000,9696.697840
1115.172957,1685.410096,148.041188,10362.883188
1115.173272,1302.362347,222.061783,9992.780217
1115.173588,1378.971896,-0.000000,9252.574275
1115.173904,1455.581446,-518.144159,8586.388927
1115.174220,1378.971896,-370.102971,9178.553681
1115.174536,612.876398,-148.041188,9770.718434
1115.174851,1685.410096,-370.102971,10140.821405
1115.175167,1302.362347,-74.020594,9844.739029
1115.175483,1149.143247,-296.082377,9400.615463
1115.175799,1302.362347,-444.123565,8956.491898
1115.176115,919.314598,-666.185348,9326.594869
1115.176430,459.657299,-148.041188,9918.759623
1115.176746,919.314598,-518.144159,10066.800811
1115.177062,1072.533697,-592.164754,9918.759623
1115.177378,1072.533697,592.164754,9474.636058
1115.177694,1608.800546,-666.185348,8956.491898
1115.178009,842.705048,-222.061783,8586.388927
1115.178325,689.485948,296.082377,8808.450710
1115.178641,459.657299,-0.000000,9400.615463
1115.178957,1378.971896,-222.061783,10436.903782
1115.179273,459.657299,-222.061783,9992.780217
1115.179588,842.705048,-148.041188,9326.594869
1115.179904,995.924147,-0.000000,8734.430116
1115.180220,383.047749,-0.000000,9178.553681
1115.180536,842.705048,-74.020594,9622.677246
1115.180851,995.924147,-592.164754,9548.656652
1115.181167,306.438199,-814.226536,9992.780217
1115.181483,612.876398,-518.144159,9992.780217
1115.181799,383.047749,-222.061783,8660.409521
1115.182115,612.876398,370.102971,8438.347739
1115.182430,-153.219100,370.102971,9104.533087
1115.182746,0.000000,148.041188,9622.677246
1115.183062,306.438199,-148.041188,9548.656652
1115.183378,0.000000,-444.123565,9770.718434
1115.183694,0.000000,-888.247130,9548.656652
1115.184009,-459.657299,-814.226536,9252.574275
1115.184325,-229.828649,-148.041188,9178.553681
1115.184641,-229.828649,-222.061783,9770.718434
1115.184957,0.000000,-0.000000,10288.862594
1115.185273,76.609550,296.082377,9326.594869
1115.185588,-229.828649,-74.020594,9104.533087
1115.185904,-383.047749,-148.041188,8734.430116
1115.186220,-383.047749,518.144159,9474.636058
1115.186536,0.000000,814.226536,9326.594869
1115.186852,0.000000,-0.000000,10362.883188
1115.187167,-229.828649,518.144159,9474.636058
1115.187483,-306.438199,148.041188,8660.409521
1115.187799,-766.095498,-444.123565,9104.533087
1115.188115,-842.705048,-888.247130,10214.842000
1115.188431,-766.095498,-592.164754,10584.944971
1115.188746,-766.095498,-148.041188,10584.944971
1115.189062,-766.095498,-296.082377,10510.924376
1115.189378,-383.047749,-444.123565,9252.574275
1115.189694,0.000000,-0.000000,9030.512492
1115.190009,0.000000,-0.000000,9104.533087
1115.190325,0.000000,-0.000000,9252.574275
1115.190641,383.047749,-666.185348,9844.739029
1115.190957,689.485948,-518.144159,10066.800811
1115.191273,1072.533697,-370.102971,9474.636058
1115.191588,612.876398,-370.102971,8512.368333
1115.191904,766.095498,-148.041188,8882.471304
1115.192220,842.705048,-74.020594,9770.718434
1115.192536,1685.410096,-222.061783,10807.006753
1115.192852,1455.581446,148.041188,9696.697840
1115.193167,1378.971896,-0.000000,9178.553681
1115.193483,1608.800546,-888.247130,9104.533087
1115.193799,1608.800546,-518.144159,8956.491898
1115.194115,1149.143247,-74.020594,9622.677246
1115.194431,1455.581446,-444.123565,9770.718434
1115.194746,1532.190996,-0.000000,9474.636058
1115.195062,1685.410096,-0.000000,9474.636058
1115.195378,1149.143247,-444.123565,9400.615463
1115.195694,1225.752797,-296.082377,9400.615463
1115.196010,1072.533697,-296.082377,9178.553681
1115.196325,1072.533697,-370.102971,9918.759623
1115.196641,919.314598,-444.123565,10140.821405
1115.196957,1149.143247,-74.020594,9696.697840
1115.197273,1072.533697,-518.144159,8882.471304
1115.197589,383.047749,-666.185348,8956.491898
1115.197904,612.876398,-222.061783,9474.636058
1115.198220,766.095498,-0.000000,9474.636058
1115.198536,1225.752797,-0.000000,9474.636058
1115.198852,766.095498,-370.102971,9918.759623
1115.199168,612.876398,-370.102971,9400.615463
1115.199483,459.657299,-296.082377,8364.327145
1115.199799,76.609550,296.082377,8734.430116
1115.200115,383.047749,296.082377,9252.574275
1115.200431,459.657299,-0.000000,9474.636058
1115.200747,0.000000,-370.102971,9992.780217
1115.201063,0.000000,-888.247130,10140.821405
1115.201378,0.000000,-962.267725,9030.512492
1115.201694,-383.047749,-148.041188,8882.471304
1115.202010,383.047749,-0.000000,8734.430116
1115.202326,536.266849,-0.000000,9622.677246
1115.202642,383.047749,-0.000000,9474.636058
1115.202957,229.828649,-0.000000,9326.594869
1115.203273,229.828649,-518.144159,9104.533087
1115.203589,229.828649,-370.102971,8364.327145
1115.203905,459.657299,444.123565,8882.471304
1115.204221,383.047749,296.082377,9474.636058
1115.204537,229.828649,222.061783,9696.697840
1115.204852,459.657299,518.144159,9844.739029
1115.205168,-229.828649,-0.000000,8660.409521
1115.205484,-612.876398,-74.020594,9252.574275
1115.205800,-1149.143247,-0.000000,9622.677246
1115.206116,-842.705048,-0.000000,9918.759623
1115.206431,-1225.752797,-444.123565,10732.986159
1115.206747,-919.314598,-148.041188,10214.842000
1115.207063,-995.924147,-0.000000,9252.574275
1115.207379,-1225.752797,-148.041188,9474.636058
1115.207695,-1225.752797,370.102971,9474.636058
1115.208011,-1149.143247,518.144159,10214.842000
1115.208326,-459.657299,444.123565,9844.739029
1115.208642,-153.219100,74.020594,10436.903782
1115.208958,0.000000,222.061783,10288.862594
1115.209274,76.609550,-370.102971,9400.615463
1115.209590,153.219100,-148.041188,8882.471304
1115.209905,306.438199,444.123565,9992.780217
1115.210221,842.705048,296.082377,9992.780217
1115.210537,995.924147,1184.329507,9400.615463
1115.210853,919.314598,666.185348,9474.636058
1115.211169,1149.143247,-740.205942,9548.656652
1115.211485,689.485948,-0.000000,9326.594869
1115.211800,612.876398,-0.000000,8808.450710
1115.212116,842.705048,-74.020594,10214.842000
1115.212432,1608.800546,-814.226536,10584.944971
1115.212748,1302.362347,-592.164754,10140.821405
1115.213064,1455.581446,-1110.308913,9696.697840
1115.213379,995.924147,-962.267725,9178.553681
1115.213695,919.314598,-296.082377,9400.615463
1115.214011,1149.143247,-740.205942,9770.718434
1115.214327,1378.971896,-518.144159,9770.718434
1115.214643,1302.362347,-148.041188,9918.759623
1115.214959,1378.971896,222.061783,8512.368333
1115.215274,1072.533697,-222.061783,8438.347739
1115.215590,766.095498,-444.123565,8660.409521
1115.215906,1302.362347,-148.041188,9252.574275
1115.216222,1455.581446,-592.164754,10214.842000
1115.216538,1532.190996,-592.164754,10066.800811
1115.216854,1302.362347,-962.267725,9696.697840
1115.217169,1072.533697,-740.205942,8364.327145
1115.217485,995.924147,-0.000000,8586.388927
1115.217801,1225.752797,-148.041188,9252.574275
1115.218117,1455.581446,-0.000000,10066.800811
1115.218433,1072.533697,74.020594,9548.656652
1115.218748,766.095498,-148.041188,8956.491898
1115.219064,689.485948,-444.123565,8586.388927
1115.219380,229.828649,-296.082377,8290.306550
1115.219696,0.000000,-296.082377,9178.553681
1115.220012,306.438199,-814.226536,9622.677246
1115.220328,-153.219100,-592.164754,10288.862594
1115.220643,76.609550,-962.267725,10436.903782
1115.220959,153.219100,-1332.370696,9252.574275
1115.221275,-229.828649,-592.164754,9104.533087
1115.221591,306.438199,-74.020594,9400.615463
1115.221907,612.876398,-0.000000,9474.636058
1115.222222,995.924147,-0.000000,9918.759623
1115.222538,612.876398,222.061783,9400.615463
1115.222854,536.266849,-0.000000,8290.306550
1115.223170,766.095498,-444.123565,8364.327145
1115.223486,766.095498,222.061783,8956.491898
1115.223802,459.657299,148.041188,9474.636058
1115.224117,383.047749,444.123565,9992.780217
1115.224433,306.438199,296.082377,9770.718434
1115.224749,0.000000,-592.164754,9104.533087
1115.225065,-459.657299,-444.123565,9326.594869
1115.225381,-689.485948,-0.000000,9548.656652
1115.225696,-612.876398,-0.000000,9844.739029
1115.226012,-153.219100,-0.000000,9696.697840
1115.226328,0.000000,-0.000000,9696.697840
1115.226644,-459.657299,-148.041188,9548.656652
1115.226960,-229.828649,-666.185348,9548.656652
1115.227276,-459.657299,-444.123565,9252.574275
1115.227591,-153.219100,370.102971,9622.677246
1115.227907,-153.219100,148.041188,9400.615463
1115.228223,76.609550,222.061783,10288.862594
1115.228539,306.438199,-296.082377,9918.759623
1115.228855,76.609550,-444.123565,9474.636058
1115.229170,0.000000,444.123565,9104.533087
1115.229486,0.000000,518.144159,9104.533087
1115.229802,153.219100,814.226536,9400.615463
1115.230118,306.438199,370.102971,9992.780217
1115.230434,0.000000,-222.061783,10288.862594
1115.230750,536.266849,-1258.350101,9548.656652
1115.231065,-229.828649,-592.164754,9474.636058
1115.231381,0.000000,-74.020594,9844.739029
1115.231697,229.828649,-222.061783,10140.821405
1115.232013,536.266849,-0.000000,10214.842000
1115.232329,689.485948,-0.000000,9918.759623
1115.232644,995.924147,-518.144159,9474.636058
1115.232960,842.705048,-444.123565,9326.594869
1115.233276,1455.581446,-148.041188,9474.636058
1115.233592,1685.410096,444.123565,9178.553681
1115.233908,1762.019645,592.164754,9252.574275
1115.234224,1455.581446,518.144159,9030.512492
1115.234539,1225.752797,-370.102971,9400.615463
1115.234855,766.095498,-888.247130,9400.615463
1115.235171,842.705048,-814.226536,8808.450710
1115.235487,689.485948,-296.082377,9622.677246
1115.235803,919.314598,-592.164754,10066.800811
1115.236118,919.314598,-888.247130,10140.821405
1115.236434,1302.362347,-1258.350101,9992.780217
1115.236750,153.219100,-1332.370696,9252.574275
1115.237066,306.438199,-592.164754,8956.491898
1115.237382,919.314598,-74.020594,9252.574275
1115.237698,1225.752797,-0.000000,9252.574275
1115.238013,1149.143247,296.082377,9696.697840
1115.238329,995.924147,-0.000000,9104.533087
1115.238645,766.095498,-518.144159,8142.265362
1115.238961,383.047749,-370.102971,8586.388927
1115.239277,459.657299,-592.164754,8882.471304
1115.239592,612.876398,-592.164754,9770.718434
1115.239908,76.609550,-592.164754,9918.759623
1115.240224,229.828649,-370.102971,9474.636058
1115.240540,383.047749,-1110.308913,9474.636058
1115.240856,459.657299,-962.267725,9326.594869
1115.241172,229.828649,-296.082377,9104.533087
1115.241487,536.266849,666.185348,9622.677246
1115.241803,919.314598,-0.000000,9400.615463
1115.242119,1072.533697,-0.000000,8808.450710
1115.242435,842.705048,-0.000000,9104.533087
1115.242751,536.266849,-518.144159,8512.368333
1115.243066,383.047749,-296.082377,9178.553681
1115.243382,306.438199,148.041188,9474.636058
1115.243698,76.609550,148.041188,10066.800811
1115.244014,76.609550,-222.061783,9918.759623
1115.244330,-229.828649,-444.123565,10066.800811
1115.244646,-612.876398,-1110.308913,9548.656652
1115.244961,-536.266849,-148.041188,9622.677246
1115.245277,-229.828649,370.102971,10140.821405
1115.245593,0.000000,-0.000000,9770.718434
1115.245909,229.828649,444.123565,9696.697840
1115.246225,0.000000,-148.041188,9696.697840
1115.246540,-153.219100,-518.144159,9400.615463
1115.246856,-383.047749,-296.082377,9178.553681
1115.247172,-229.828649,148.041188,9696.697840
1115.247488,-306.438199,222.061783,9770.718434
1115.247804,76.609550,222.061783,10214.842000
1115.248120,306.438199,444.123565,9696.697840
1115.248435,76.609550,222.061783,8808.450710
1115.248751,0.000000,-0.000000,9326.594869
1115.249067,-153.219100,-74.020594,9622.677246
1115.249383,229.828649,-0.000000,10066.800811
1115.249699,153.219100,-74.020594,9696.697840
1115.250014,0.000000,-0.000000,9400.615463
1115.250330,0.000000,-518.144159,9474.636058
1115.250646,153.219100,-1258.350101,9696.697840
1115.250962,0.000000,-370.102971,10140.821405
1115.251278,459.657299,-0.000000,9844.739029
1115.251594,919.314598,-74.020594,9844.739029
1115.251909,1455.581446,-444.123565,9844.739029
1115.252225,1072.533697,-518.144159,9844.739029
1115.252541,1302.362347,-0.000000,8734.430116
1115.252857,1302.362347,444.123565,8956.491898
1115.253173,1685.410096,740.205942,9030.512492
1115.253488,1685.410096,592.164754,9622.677246
1115.253804,1302.362347,592.164754,9326.594869
1115.254120,1225.752797,-0.000000,9252.574275
1115.254436,919.314598,-592.164754,8956.491898
1115.254752,612.876398,-296.082377,9770.718434
1115.255068,306.438199,148.041188,9548.656652
1115.255383,383.047749,-444.123565,10510.924376
1115.255699,383.047749,-0.000000,10214.842000
1115.256015,383.047749,-444.123565,9548.656652
1115.256331,383.047749,-814.226536,9400.615463
1115.256647,459.657299,-740.205942,9400.615463
1115.256962,229.828649,-370.102971,9474.636058
1115.257278,689.485948,-0.000000,9548.656652
1115.257594,536.266849,296.082377,9474.636058
1115.257910,612.876398,592.164754,9178.553681
1115.258226,995.924147,-0.000000,8142.265362
1115.258542,536.266849,-0.000000,8438.347739
1115.258857,306.438199,-222.061783,9326.594869
1115.259173,229.828649,-1036.288319,9474.636058
1115.259489,383.047749,-1110.308913,10288.862594
1115.259805,153.219100,-962.267725,10214.842000
1115.260121,0.000000,-962.267725,9326.594869
1115.260436,0.000000,-592.164754,9252.574275
1115.260752,383.047749,222.061783,9474.636058
1115.261068,995.924147,518.144159,9178.553681
1115.261384,1149.143247,444.123565,9252.574275
1115.261700,612.876398,-74.020594,9400.615463
1115.262016,1149.143247,-222.061783,9326.594869
1115.262331,1149.143247,-666.185348,9252.574275
1115.262647,842.705048,-444.123565,9326.594869
1115.262963,536.266849,518.144159,9326.594869
1115.263279,459.657299,666.185348,9474.636058
1115.263595,306.438199,370.102971,9622.677246
1115.263910,306.438199,-74.020594,9918.759623
1115.264226,0.000000,-444.123565,8882.471304
1115.264542,-612.876398,-518.144159,9400.615463
1115.264858,-229.828649,-296.082377,10288.862594
1115.265174,0.000000,-0.000000,9918.759623
1115.265490,76.609550,-0.000000,9918.759623
1115.265805,-229.828649,-148.041188,9844.739029
1115.266121,-229.828649,-0.000000,9030.512492
1115.266437,-536.266849,-148.041188,8882.471304
1115.266753,-306.438199,-148.041188,9622.677246
1115.267069,-459.657299,-148.041188,10362.883188
1115.267384,0.000000,-222.061783,10362.883188
1115.267700,-383.047749,-740.205942,9770.718434
1115.268016,-306.438199,-888.247130,9622.677246
1115.268332,-536.266849,-1110.308913,9326.594869
1115.268648,0.000000,-148.041188,9104.533087
1115.268964,153.219100,-0.000000,9622.677246
1115.269279,306.438199,-74.020594,10066.800811
1115.269595,459.657299,-0.000000,9252.574275
1115.269911,612.876398,-740.205942,9104.533087
1115.270227,1225.752797,-1036.288319,9326.594869
1115.270543,229.828649,-74.020594,9474.636058
1115.270858,1302.362347,-370.102971,9548.656652
1115.271174,1149.143247,-444.123565,9844.739029
1115.271490,1072.533697,-370.102971,10436.903782
1115.271806,1532.190996,-592.164754,8882.471304
1115.272122,1225.752797,-518.144159,8660.409521
1115.272438,766.095498,-444.123565,9548.656652
1115.272753,1149.143247,-0.000000,9474.636058
1115.273069,1378.971896,-0.000000,9400.615463
1115.273385,612.876398,-0.000000,9548.656652
1115.273701,536.266849,-0.000000,9030.512492
1115.274017,766.095498,-1110.308913,9030.512492
1115.274332,306.438199,-148.041188,9178.553681
1115.274648,229.828649,-370.102971,9030.512492
1115.274964,995.924147,-1110.308913,10140.821405
1115.275280,766.095498,-962.267725,9844.739029
1115.275596,536.266849,-814.226536,9844.739029
1115.275912,536.266849,-1036.288319,9030.512492
1115.276227,612.876398,-518.144159,8660.409521
1115.276543,536.266849,370.102971,9474.636058
1115.276859,1378.971896,666.185348,9474.636058
1115.277175,1225.752797,1036.288319,9030.512492
1115.277491,919.314598,666.185348,9178.553681
1115.277806,919.314598,-0.000000,8290.306550
1115.278122,1149.143247,-592.164754,8660.409521
1115.278438,229.828649,-0.000000,9844.739029
1115.278754,229.828649,-0.000000,9474.636058
1115.279070,76.609550,-370.102971,9696.697840
1115.279386,76.609550,-1036.288319,10881.027347
1115.279701,-229.828649,-1480.411884,10140.821405
1115.280017,-153.219100,-962.267725,9696.697840
1115.280333,0.000000,-148.041188,9696.697840
1115.280649,0.000000,592.164754,9548.656652
1115.280965,1072.533697,1184.329507,9474.636058
1115.281280,842.705048,518.144159,8660.409521
1115.281596,1072.533697,-74.020594,8808.450710
1115.281912,766.095498,-740.205942,9178.553681
1115.282228,536.266849,-592.164754,8734.430116
1115.282544,689.485948,444.123565,9400.615463
1115.282860,766.095498,592.164754,9548.656652
1115.283175,536.266849,518.144159,9622.677246
1115.283491,0.000000,-0.000000,9548.656652
1115.283807,0.000000,-888.247130,9252.574275
1115.284123,-383.047749,-740.205942,9178.553681
1115.284439,-536.266849,-0.000000,9918.759623
1115.284754,-306.438199,-0.000000,10436.903782
1115.285070,-459.657299,-74.020594,10066.800811
1115.285386,-459.657299,888.247130,9474.636058
1115.285702,76.609550,-0.000000,9178.553681
1115.286018,-689.485948,222.061783,9326.594869
1115.286334,-459.657299,962.267725,9622.677246
1115.286649,-153.219100,518.144159,9770.718434
1115.286965,306.438199,-0.000000,10288.862594
1115.287281,153.219100,296.082377,10214.842000
1115.287597,306.438199,-74.020594,9030.512492
1115.287913,459.657299,-296.082377,9474.636058
1115.288228,0.000000,-0.000000,9770.718434
1115.288544,229.828649,740.205942,9548.656652
1115.288860,536.266849,518.144159,9844.739029
1115.289176,459.657299,-222.061783,9992.780217
1115.289492,536.266849,-296.082377,9326.594869
1115.289808,306.438199,-814.226536,8882.471304
1115.290123,153.219100,-740.205942,9400.615463
1115.290439,383.047749,-592.164754,9770.718434
1115.290755,1072.533697,-370.102971,10288.862594
1115.291071,689.485948,-0.000000,9400.615463
1115.291387,919.314598,-814.226536,9104.533087
1115.291702,995.924147,-1702.473667,9400.615463
1115.292018,612.876398,-2146.597232,9548.656652
1115.292334,689.485948,-1036.288319,9844.739029
1115.292650,1532.190996,-444.123565,9474.636058
1115.292966,919.314598,-0.000000,8956.491898
1115.293282,1302.362347,222.061783,9178.553681
1115.293597,1225.752797,-296.082377,9030.512492
1115.293913,1302.362347,-222.061783,8734.430116
1115.294229,1072.533697,-148.041188,8734.430116
1115.294545,1225.752797,-666.185348,9178.553681
1115.294861,1072.533697,-1258.350101,10288.862594
1115.295176,1378.971896,-888.247130,9770.718434
1115.295492,995.924147,-666.185348,8660.409521
1115.295808,689.485948,-444.123565,8586.388927
1115.296124,536.266849,-0.000000,8956.491898
1115.296440,995.924147,148.041188,9770.718434
1115.296756,919.314598,-222.061783,9770.718434
1115.297071,306.438199,-148.041188,9474.636058
1115.297387,229.828649,-222.061783,9400.615463
1115.297703,153.219100,-296.082377,8438.347739
1115.298019,0.000000,370.102971,9178.553681
1115.298335,459.657299,370.102971,9104.533087
1115.298650,306.438199,-0.000000,9400.615463
1115.298966,383.047749,-518.144159,10140.821405
1115.299282,306.438199,-1554.432478,10214.842000
1115.299598,459.657299,-1480.411884,9918.759623
1115.299913,153.219100,-814.226536,9104.533087
1115.300229,995.924147,296.082377,9548.656652
1115.300545,1378.971896,666.185348,9104.533087
1115.300861,1302.362347,1184.329507,9252.574275
1115.301176,1072.533697,962.267725,8438.347739
1115.301492,919.314598,-74.020594,8586.388927
1115.301808,612.876398,-666.185348,9696.697840
1115.302124,229.828649,-666.185348,9918.759623
1115.302440,536.266849,-296.082377,9918.759623
1115.302755,0.000000,-740.205942,10732.986159
1115.303071,-612.876398,-666.185348,10140.821405
1115.303387,0.000000,-222.061783,9622.677246
1115.303703,-995.924147,-0.000000,9178.553681
1115.304018,-766.095498,-518.144159,10140.821405
1115.304334,0.000000,370.102971,9474.636058
1115.304650,76.609550,370.102971,9844.739029
1115.304966,0.000000,296.082377,9992.780217
1115.305281,0.000000,-148.041188,9252.574275
1115.305597,0.000000,-0.000000,9104.533087
1115.305913,-383.047749,444.123565,8882.471304
1115.306229,-536.266849,666.185348,9178.553681
1115.306545,-383.047749,296.082377,10066.800811
1115.306860,0.000000,-0.000000,10584.944971
1115.307176,0.000000,-74.020594,9844.739029
1115.307492,0.000000,-74.020594,9178.553681
1115.307808,0.000000,-0.000000,8882.471304
1115.308123,0.000000,296.082377,9178.553681
1115.308439,229.828649,-370.102971,10214.842000
1115.308755,153.219100,-0.000000,9844.739029
1115.309071,0.000000,-296.082377,9622.677246
1115.309386,306.438199,-814.226536,9474.636058
1115.309702,0.000000,-666.185348,9400.615463
1115.310018,612.876398,-296.082377,9548.656652
1115.310334,383.047749,-370.102971,10214.842000
1115.310650,1072.533697,-296.082377,9770.718434
1115.310965,1225.752797,-0.000000,8808.450710
1115.311281,1225.752797,-1036.288319,9178.553681
1115.311597,1455.581446,-444.123565,9400.615463
1115.311913,1378.971896,-74.020594,9030.512492
1115.312228,1915.238745,-444.123565,9400.615463
1115.312544,1378.971896,740.205942,9252.574275
1115.312860,1149.143247,-222.061783,10214.842000
1115.313176,1762.019645,-666.185348,9696.697840
1115.313491,1149.143247,-0.000000,8142.265362
1115.313807,383.047749,444.123565,8586.388927
1115.314123,536.266849,-222.061783,9548.656652
1115.314439,919.314598,-1110.308913,10584.944971
1115.314755,229.828649,-962.267725,10510.924376
1115.315070,76.609550,-1184.329507,9770.718434
1115.315386,76.609550,-962.267725,9252.574275
1115.315702,229.828649,-0.000000,8956.491898
1115.316018,766.095498,-0.000000,8956.491898
1115.316333,536.266849,-296.082377,9844.739029
1115.316649,842.705048,-222.061783,9992.780217
1115.316965,842.705048,-518.144159,9178.553681
1115.317281,1072.533697,-888.247130,8956.491898
1115.317596,1455.581446,-222.061783,8586.388927
1115.317912,1302.362347,518.144159,8734.430116
1115.318228,1378.971896,-0.000000,9104.533087
1115.318544,1072.533697,-222.061783,9622.677246
1115.318860,1149.143247,-888.247130,9178.553681
1115.319175,536.266849,-1258.350101,9178.553681
1115.319491,229.828649,-1036.288319,9622.677246
1115.319807,229.828649,-444.123565,9400.615463
1115.320123,766.095498,222.061783,9400.615463
1115.320438,383.047749,-0.000000,9770.718434
1115.320754,689.485948,-0.000000,9474.636058
1115.321070,459.657299,-592.164754,9030.512492
1115.321386,0.000000,-888.247130,8956.491898
1115.321701,-229.828649,-0.000000,9992.780217
1115.322017,153.219100,-444.123565,9918.759623
1115.322333,76.609550,148.041188,9770.718434
1115.322649,-153.219100,-0.000000,10510.924376
1115.322965,-459.657299,-296.082377,9548.656652
1115.323280,-383.047749,-0.000000,8882.471304
1115.323596,-383.047749,592.164754,9326.594869
1115.323912,-459.657299,740.205942,9326.594869
1115.324228,153.219100,148.041188,10362.883188
1115.324543,0.000000,222.061783,9844.739029
1115.324859,-766.095498,-0.000000,9474.636058
1115.325175,-383.047749,-666.185348,9030.512492
1115.325491,-612.876398,518.144159,9326.594869
1115.325806,-612.876398,962.267725,10066.800811
1115.326122,-612.876398,1036.288319,9918.759623
1115.326438,-153.219100,888.247130,10362.883188
1115.326754,-536.266849,222.061783,9992.780217
1115.327070,-689.485948,-370.102971,9400.615463
1115.327385,-383.047749,-444.123565,9918.759623
1115.327701,-383.047749,-148.041188,9992.780217
1115.328017,229.828649,-0.000000,9992.780217
1115.328333,0.000000,592.164754,10214.842000
1115.328648,383.047749,-0.000000,9104.533087
1115.328964,0.000000,-814.226536,8512.368333
1115.329280,0.000000,-888.247130,9548.656652
1115.329596,306.438199,-666.185348,9770.718434
1115.329911,842.705048,-296.082377,9548.656652
1115.330227,1149.143247,-296.082377,9696.697840
1115.330543,1455.581446,-444.123565,9474.636058
1115.330859,1608.800546,-592.164754,8808.450710
1115.331175,1608.800546,-814.226536,9104.533087
1115.331490,1072.533697,-148.041188,8882.471304
1115.331806,1838.629195,-0.000000,9548.656652
1115.332122,1991.848295,-296.082377,9326.594869
1115.332438,1762.019645,-518.144159,9844.739029
1115.332753,1838.629195,-740.205942,9104.533087
1115.333069,1685.410096,-1258.350101,9030.512492
1115.333385,1149.143247,-148.041188,8882.471304
1115.333701,1532.190996,296.082377,9622.677246
1115.334017,1455.581446,-0.000000,9030.512492
1115.334332,1225.752797,444.123565,9326.594869
1115.334648,1378.971896,-888.247130,8956.491898
1115.334964,612.876398,-1776.494261,9252.574275
1115.335280,229.828649,-1110.308913,9326.594869
1115.335595,153.219100,-814.226536,9030.512492
1115.335911,229.828649,-1184.329507,9474.636058
1115.336227,0.000000,-814.226536,10214.842000
1115.336543,-153.219100,-1184.329507,10214.842000
1115.336858,-383.047749,-2072.576638,9178.553681
1115.337174,-842.705048,-2368.659014,9696.697840
1115.337490,-229.828649,-2146.597232,10362.883188
1115.337806,689.485948,-1554.432478,10362.883188
1115.338122,919.314598,-1110.308913,9326.594869
1115.338437,766.095498,-592.164754,9474.636058
1115.338753,1225.752797,-1332.370696,8660.409521
1115.339069,1455.581446,-1480.411884,8438.347739
1115.339385,1532.190996,-962.267725,8956.491898
1115.339700,1532.190996,-814.226536,8956.491898
1115.340016,1455.581446,-1554.432478,9474.636058
1115.340332,1225.752797,-1554.432478,9548.656652
1115.340648,1225.752797,-1924.535449,9474.636058
1115.340963,1225.752797,-1998.556043,9178.553681
1115.341279,153.219100,-1406.391290,8956.491898
1115.341595,153.219100,-666.185348,9400.615463
1115.341911,536.266849,-1702.473667,10214.842000
1115.342227,306.438199,-1850.514855,10955.047942
1115.342542,153.219100,-1628.453072,10140.821405
1115.342858,153.219100,-2590.720797,9474.636058
1115.343174,842.705048,-2664.741391,9622.677246
1115.343490,1455.581446,-1554.432478,9992.780217
1115.343805,1608.800546,-1406.391290,9622.677246
1115.344121,2298.286494,-1628.453072,9696.697840
1115.344437,2681.334243,-1480.411884,9770.718434
1115.344753,3140.991542,-1480.411884,8364.327145
1115.345068,3524.039291,-1110.308913,8734.430116
1115.345384,3753.867940,-740.205942,8956.491898
1115.345700,3524.039291,-444.123565,9030.512492
1115.346016,3140.991542,-740.205942,9400.615463
1115.346332,2681.334243,-1628.453072,10140.821405
1115.346647,2145.067394,-1480.411884,10066.800811
1115.346963,1915.238745,-1850.514855,8882.471304
1115.347279,1302.362347,-1776.494261,9252.574275
1115.347595,1762.019645,-2072.576638,10732.986159
1115.347910,1532.190996,-1776.494261,10732.986159
1115.348226,1378.971896,-1776.494261,10288.862594
1115.348542,1378.971896,-2368.659014,10658.965565
1115.348858,1378.971896,-2442.679609,9770.718434
1115.349173,1838.629195,-1776.494261,9400.615463
1115.349489,2374.896044,-1924.535449,9474.636058
1115.349805,2757.943793,-2220.617826,9992.780217
1115.350121,2604.724693,-1628.453072,9474.636058
1115.350437,2604.724693,-2072.576638,9104.533087
1115.350752,3447.429741,-1924.535449,9474.636058
1115.351068,3830.477490,-1554.432478,9474.636058
1115.351384,3830.477490,-1554.432478,8882.471304
1115.351700,4290.134789,-1776.494261,9030.512492
1115.352015,4290.134789,-2146.597232,9696.697840
1115.352331,4519.963438,-2368.659014,9474.636058
1115.352647,4596.572988,-2368.659014,9104.533087
1115.352963,4136.915689,-2072.576638,8734.430116
1115.353278,3907.087040,-1628.453072,9030.512492
1115.353594,4060.306139,-1480.411884,8956.491898
1115.353910,3677.258390,-1924.535449,9030.512492
1115.354226,3064.381992,-1702.473667,9326.594869
1115.354542,3524.039291,-2220.617826,9104.533087
1115.354857,3064.381992,-1924.535449,8808.450710
1115.355173,2757.943793,-1850.514855,9178.553681
1115.355489,2068.457845,-1924.535449,9548.656652
1115.355805,1838.629195,-2738.761985,10362.883188
1115.356120,1149.143247,-2516.700203,11177.109724
1115.356436,1532.190996,-2590.720797,10140.821405
1115.356752,1685.410096,-1998.556043,9474.636058
1115.357068,1608.800546,-1776.494261,9030.512492
1115.357383,2451.505594,-1776.494261,8956.491898
1115.357699,3140.991542,-1406.391290,9474.636058
1115.358015,2451.505594,-1554.432478,9104.533087
1115.358331,2068.457845,-1554.432478,9030.512492
1115.358647,2145.067394,-2294.638420,9474.636058
1115.358962,2681.334243,-2368.659014,9252.574275
1115.359278,2604.724693,-2220.617826,9104.533087
1115.359594,2298.286494,-2368.659014,9548.656652
1115.359910,2068.457845,-2664.741391,9992.780217
1115.360225,1991.848295,-2960.823768,10362.883188
1115.360541,2221.676944,-2886.803174,10066.800811
1115.360857,1991.848295,-1850.514855,9474.636058
1115.361173,1685.410096,-1554.432478,9696.697840
1115.361488,1225.752797,-2294.638420,9548.656652
1115.361804,919.314598,-2886.803174,10436.903782
1115.362120,1915.238745,-3552.988522,10436.903782
1115.362436,2068.457845,-2886.803174,9844.739029
1115.362752,2374.896044,-2738.761985,8956.491898
1115.363067,2068.457845,-1998.556043,9030.512492
1115.363383,2374.896044,-1776.494261,9030.512492
1115.363699,2757.943793,-1184.329507,9104.533087
1115.364015,2528.115143,-1184.329507,9326.594869
1115.364330,2298.286494,-1332.370696,9326.594869
1115.364646,1991.848295,-2516.700203,9770.718434
1115.364962,1991.848295,-3552.988522,10362.883188
1115.365278,2451.505594,-3034.844362,10510.924376
1115.365593,2757.943793,-2516.700203,9844.739029
1115.365909,2911.162892,-2072.576638,9474.636058
1115.366225,3294.210641,-2146.597232,9326.594869
1115.366541,3294.210641,-2220.617826,9326.594869
1115.366857,3294.210641,-1184.329507,9178.553681
1115.367172,3140.991542,-740.205942,8808.450710
1115.367488,3294.210641,-1258.350101,8882.471304
1115.367804,3447.429741,-2146.597232,9548.656652
1115.368120,3447.429741,-2590.720797,9844.739029
1115.368435,3370.820191,-2960.823768,9696.697840
1115.368751,3294.210641,-3108.864956,9770.718434
1115.369067,3677.258390,-2812.782580,9474.636058
1115.369383,3140.991542,-2960.823768,9770.718434
1115.369698,3140.991542,-2664.741391,9770.718434
1115.370014,3370.820191,-2368.659014,9918.759623
1115.370330,2757.943793,-1628.453072,9178.553681
1115.370646,2757.943793,-1110.308913,8808.450710
1115.370962,2604.724693,-1480.411884,8734.430116
1115.371277,2604.724693,-1110.308913,8438.347739
1115.371593,2911.162892,-1628.453072,8956.491898
1115.371909,2451.505594,-2812.782580,9400.615463
1115.372225,1915.238745,-4441.235652,9992.780217
1115.372540,2068.457845,-5847.626942,10658.965565
1115.372856,2221.676944,-5033.400406,10955.047942
1115.373172,2451.505594,-4515.256246,10584.944971
1115.373488,2834.553343,-2960.823768,10288.862594
1115.373804,3217.601092,-2072.576638,9474.636058
1115.374119,3677.258390,-1480.411884,9030.512492
1115.374435,4060.306139,-666.185348,8216.285956
1115.374751,4136.915689,-0.000000,7550.100608
1115.375067,3983.696590,-74.020594,7105.977043
1115.375382,3524.039291,-370.102971,7550.100608
1115.375698,3140.991542,-1258.350101,8290.306550
1115.376014,2221.676944,-1850.514855,8956.491898
1115.376330,842.705048,-2590.720797,9548.656652
1115.376645,0.000000,-2886.803174,10140.821405
1115.376961,-612.876398,-3478.967927,11103.089130
1115.377277,-536.266849,-4219.173869,11843.295072
1115.377593,0.000000,-4293.194464,11843.295072
1115.377909,459.657299,-4145.153275,11547.212695
1115.378224,1378.971896,-3478.967927,10510.924376
1115.378540,2451.505594,-3552.988522,10140.821405
1115.378856,3447.429741,-2368.659014,9326.594869
1115.379172,4596.572988,-1036.288319,8290.306550
1115.379487,4673.182538,-0.000000,7476.080014
1115.379803,5209.449386,814.226536,7179.997637
1115.380119,4903.011187,666.185348,7476.080014
1115.380435,4596.572988,-148.041188,7994.224174
1115.380750,4136.915689,-740.205942,8512.368333
1115.381066,3217.601092,-2146.597232,9030.512492
1115.381382,2298.286494,-3108.864956,10288.862594
1115.381698,1532.190996,-4145.153275,11547.212695
1115.382014,842.705048,-4663.297435,11917.315666
1115.382329,536.266849,-3849.070898,11547.212695
1115.382645,0.000000,-3849.070898,11399.171507
1115.382961,153.219100,-3108.864956,10807.006753
1115.383277,459.657299,-2294.638420,10510.924376
1115.383592,1378.971896,-2220.617826,9770.718434
1115.383908,2221.676944,-1406.391290,9104.533087
1115.384224,2757.943793,-814.226536,8512.368333
1115.384540,3447.429741,-814.226536,8142.265362
1115.384855,3830.477490,-1258.350101,8364.327145
1115.385171,3677.258390,-1998.556043,8438.347739
1115.385487,3524.039291,-2368.659014,9030.512492
1115.385803,2987.772442,-2812.782580,9622.677246
1115.386119,2757.943793,-2516.700203,10140.821405
1115.386434,2451.505594,-2664.741391,9696.697840
1115.386750,2145.067394,-1554.432478,9770.718434
1115.387066,1838.629195,-1110.308913,9696.697840
1115.387382,1915.238745,-1332.370696,9696.697840
1115.387697,2298.286494,-1702.473667,9622.677246
1115.388013,2145.067394,-2442.679609,9474.636058
1115.388329,2757.943793,-2442.679609,9326.594869
1115.388645,2911.162892,-2442.679609,9474.636058
1115.388960,2834.553343,-1702.473667,9178.553681
1115.389276,2681.334243,-1480.411884,9326.594869
1115.389592,2528.115143,-2072.576638,9474.636058
1115.389908,2298.286494,-1776.494261,9622.677246
1115.390224,2221.676944,-1924.535449,9548.656652
1115.390539,1762.019645,-1850.514855,9474.636058
1115.390855,2528.115143,-1702.473667,9474.636058
1115.391171,2145.067394,-1184.329507,8956.491898
1115.391487,2451.505594,-962.267725,8882.471304
1115.391802,2298.286494,-962.267725,8660.409521
1115.392118,2145.067394,-888.247130,8734.430116
1115.392434,2145.067394,-888.247130,8808.450710
1115.392750,1685.410096,-1480.411884,8808.450710
1115.393065,1302.362347,-1258.350101,9030.512492
1115.393381,1072.533697,-1628.453072,9548.656652
1115.393697,1608.800546,-2368.659014,9992.780217
1115.394013,1608.800546,-2664.741391,10436.903782
1115.394329,1532.190996,-2886.803174,10510.924376
1115.394644,1608.800546,-2738.761985,10066.800811
1115.394960,2221.676944,-2516.700203,9770.718434
1115.395276,2451.505594,-2072.576638,9770.718434
1115.395592,2298.286494,-1554.432478,9326.594869
1115.395907,3140.991542,-1258.350101,9326.594869
1115.396223,2911.162892,-962.267725,8882.471304
1115.396539,3217.601092,-1036.288319,9104.533087
1115.396855,3447.429741,-1258.350101,9178.553681
1115.397170,4136.915689,-1554.432478,9474.636058
1115.397486,3677.258390,-1998.556043,9474.636058
1115.397802,3600.648841,-2664.741391,9474.636058
1115.398118,3524.039291,-3330.926739,10140.821405
1115.398434,3524.039291,-3701.029710,10362.883188
1115.398749,2834.553343,-3701.029710,10881.027347
1115.399065,2834.553343,-3182.885551,10436.903782
1115.399381,2451.505594,-2738.761985,10436.903782
1115.399697,2604.724693,-2664.741391,10658.965565
1115.400012,2451.505594,-2220.617826,10436.903782
1115.400328,2374.896044,-2220.617826,9770.718434
1115.400644,2987.772442,-2664.741391,9326.594869
1115.400959,3140.991542,-2442.679609,9178.553681
1115.401275,3064.381992,-2590.720797,9104.533087
1115.401591,3217.601092,-2886.803174,9474.636058
1115.401907,3447.429741,-3182.885551,9622.677246
1115.402222,2987.772442,-3256.906145,9474.636058
1115.402538,2757.943793,-3404.947333,9696.697840
1115.402854,2528.115143,-3478.967927,9918.759623
1115.403170,2528.115143,-3552.988522,10066.800811
1115.403485,2757.943793,-3478.967927,9844.739029
1115.403801,2451.505594,-3108.864956,9252.574275
1115.404117,2145.067394,-2886.803174,9104.533087
1115.404433,2604.724693,-2590.720797,9104.533087
1115.404748,2681.334243,-2516.700203,8734.430116
1115.405064,2681.334243,-2738.761985,8734.430116
1115.405380,2604.724693,-3182.885551,9104.533087
1115.405695,2987.772442,-3775.050304,9474.636058
1115.406011,3064.381992,-3997.112087,9400.615463
1115.406327,3524.039291,-3478.967927,9400.615463
1115.406643,2911.162892,-3775.050304,9400.615463
1115.406958,3370.820191,-3849.070898,9326.594869
1115.407274,3830.477490,-3404.947333,8808.450710
1115.407590,3677.258390,-2516.700203,8512.368333
1115.407906,3217.601092,-1702.473667,8290.306550
1115.408221,2987.772442,-1258.350101,7772.162391
1115.408537,2528.115143,-666.185348,7920.203579
1115.408853,2068.457845,-666.185348,7994.224174
1115.409169,1149.143247,-888.247130,7994.224174
1115.409484,459.657299,-1406.391290,8660.409521
1115.409800,76.609550,-2886.803174,9400.615463
1115.410116,153.219100,-3849.070898,10436.903782
1115.410431,0.000000,-4367.215058,10732.986159
1115.410747,306.438199,-4663.297435,10955.047942
1115.411063,995.924147,-4663.297435,11473.192101
1115.411379,1532.190996,-3997.112087,11103.089130
1115.411694,2451.505594,-2590.720797,10362.883188
1115.412010,3370.820191,-1406.391290,9474.636058
1115.412326,4213.525239,-370.102971,8512.368333
1115.412642,4519.963438,1480.411884,7624.121203
1115.412957,4596.572988,1184.329507,6883.915261
1115.413273,4596.572988,1406.391290,7031.956449
1115.413589,3753.867940,1184.329507,7402.059420
1115.413905,3140.991542,222.061783,7994.224174
1115.414220,1915.238745,-444.123565,9178.553681
1115.414536,766.095498,-1776.494261,10362.883188
1115.414852,-153.219100,-2812.782580,11473.192101
1115.415168,-842.705048,-3923.091493,12361.439231
1115.415483,-842.705048,-4737.318029,13249.686362
1115.415799,-536.266849,-4589.276840,13027.624579
1115.416115,229.828649,-4293.194464,12583.501014
1115.416430,1225.752797,-3404.947333,11769.274478
1115.416746,2374.896044,-1924.535449,11251.130318
1115.417062,3600.648841,-814.226536,9474.636058
1115.417378,4903.011187,740.205942,8142.265362
1115.417693,5975.544884,2220.617826,7550.100608
1115.418009,6511.811733,2590.720797,6809.894666
1115.418325,6511.811733,2294.638420,7105.977043
1115.418641,5745.716235,666.185348,7846.182985
1115.418956,4826.401637,-666.185348,8734.430116
1115.419272,4060.306139,-2220.617826,10362.883188
1115.419588,2604.724693,-3923.091493,11177.109724
1115.419904,1455.581446,-4367.215058,11917.315666
1115.420219,995.924147,-3849.070898,12287.418637
1115.420535,612.876398,-3034.844362,11769.274478
1115.420851,459.657299,-2368.659014,11399.171507
1115.421166,1149.143247,-1998.556043,10658.965565
1115.421482,1455.581446,-1702.473667,9992.780217
1115.421798,2068.457845,-1776.494261,9326.594869
1115.422114,2911.162892,-2368.659014,9326.594869
1115.422429,3524.039291,-2516.700203,8956.491898
1115.422745,4290.134789,-2368.659014,8882.471304
1115.423061,4443.353888,-3108.864956,8808.450710
1115.423377,4903.011187,-3256.906145,8808.450710
1115.423692,4749.792088,-3404.947333,9252.574275
1115.424008,4673.182538,-3108.864956,9326.594869
1115.424324,4519.963438,-2442.679609,8438.347739
1115.424640,4136.915689,-1554.432478,7920.203579
1115.424955,3370.820191,-1480.411884,8364.327145
1115.425271,3217.601092,-1998.556043,8734.430116
1115.425587,2374.896044,-2664.741391,8956.491898
1115.425902,1455.581446,-3404.947333,8882.471304
1115.426218,1149.143247,-4367.215058,8956.491898
1115.426534,766.095498,-4811.338623,9918.759623
1115.426850,1608.800546,-4737.318029,9474.636058
1115.427165,1072.533697,-3404.947333,9252.574275
1115.427481,995.924147,-3256.906145,9326.594869
1115.427797,766.095498,-3182.885551,9770.718434
1115.428113,842.705048,-3552.988522,9770.718434
1115.428428,995.924147,-3330.926739,9918.759623
1115.428744,1532.190996,-3478.967927,9326.594869
1115.429060,2374.896044,-3256.906145,8956.491898
1115.429376,2451.505594,-2664.741391,8068.244768
1115.429691,2987.772442,-2442.679609,8734.430116
1115.430007,2987.772442,-1850.514855,8068.244768
1115.430323,3370.820191,-1406.391290,8438.347739
1115.430638,3064.381992,-1332.370696,8216.285956
1115.430954,3217.601092,-1036.288319,8438.347739
1115.431270,3140.991542,-814.226536,8734.430116
1115.431586,2987.772442,-1258.350101,8660.409521
1115.431901,2834.553343,-1406.391290,9104.533087
1115.432217,2374.896044,-1184.329507,9030.512492
1115.432533,1378.971896,-1924.535449,9104.533087
1115.432849,995.924147,-2368.659014,10140.821405
1115.433164,689.485948,-2590.720797,10955.047942
1115.433480,153.219100,-2442.679609,10955.047942
1115.433796,76.609550,-2368.659014,10584.944971
1115.434112,459.657299,-2220.617826,10732.986159
1115.434427,1225.752797,-1998.556043,11029.068536
1115.434743,1762.019645,-1258.350101,9992.780217
1115.435059,2911.162892,-888.247130,9326.594869
