#time,accel_x,accel_y,accel_z
1083.917229,306.438199,-148.041188,9548.656652
1083.917545,459.657299,-148.041188,9474.636058
1083.917861,536.266849,-74.020594,9474.636058
1083.918177,459.657299,-148.041188,9474.636058
1083.918492,536.266849,-222.061783,9548.656652
1083.918808,153.219100,-148.041188,9474.636058
1083.919124,459.657299,-444.123565,9474.636058
1083.919440,689.485948,-148.041188,9326.594869
1083.919755,229.828649,-444.123565,9474.636058
1083.920071,689.485948,-222.061783,9326.594869
1083.920387,383.047749,-296.082377,9400.615463
1083.920703,536.266849,-74.020594,9696.697840
1083.921018,383.047749,-222.061783,9400.615463
1083.921334,536.266849,-148.041188,9474.636058
1083.921650,612.876398,-148.041188,9622.677246
1083.921966,459.657299,-0.000000,9400.615463
1083.922281,306.438199,-296.082377,9474.636058
1083.922597,229.828649,148.041188,9400.615463
1083.922913,306.438199,370.102971,9326.594869
1083.923228,459.657299,518.144159,9252.574275
1083.923544,536.266849,-0.000000,9252.574275
1083.923860,383.047749,518.144159,9252.574275
1083.924176,229.828649,296.082377,9104.533087
1083.924491,383.047749,222.061783,9178.553681
1083.924807,459.657299,-0.000000,9474.636058
1083.925123,766.095498,-74.020594,9474.636058
1083.925439,919.314598,222.061783,9474.636058
1083.925754,459.657299,518.144159,9474.636058
1083.926070,383.047749,370.102971,9474.636058
1083.926386,306.438199,592.164754,9548.656652
1083.926702,306.438199,666.185348,9252.574275
1083.927017,383.047749,1110.308913,9252.574275
1083.927333,459.657299,1110.308913,9326.594869
1083.927649,536.266849,962.267725,9474.636058
1083.927965,919.314598,1110.308913,9400.615463
1083.928280,306.438199,1036.288319,9030.512492
1083.928596,0.000000,666.185348,9548.656652
1083.928912,0.000000,1110.308913,9696.697840
1083.929227,-306.438199,1110.308913,9474.636058
1083.929543,-306.438199,1036.288319,9622.677246
1083.929859,-612.876398,1110.308913,9326.594869
1083.930175,-766.095498,1184.329507,9252.574275
1083.930490,-1149.143247,1332.370696,9400.615463
1083.930806,-1302.362347,1332.370696,9400.615463
1083.931122,-1685.410096,1406.391290,9622.677246
1083.931438,-1532.190996,1628.453072,9622.677246
1083.931753,-1991.848295,1332.370696,9622.677246
1083.932069,-2145.067394,1258.350101,9622.677246
1083.932385,-2145.067394,1332.370696,9770.718434
1083.932701,-2145.067394,1480.411884,9696.697840
1083.933016,-1991.848295,1480.411884,9770.718434
1083.933332,-1838.629195,1628.453072,9400.615463
1083.933648,-1838.629195,1924.535449,9326.594869
1083.933964,-1455.581446,1776.494261,9326.594869
1083.934279,-1378.971896,1850.514855,9326.594869
1083.934595,-1608.800546,1850.514855,9326.594869
1083.934911,-1455.581446,1850.514855,9474.636058
1083.935226,-1302.362347,1850.514855,9770.718434
1083.935542,-1455.581446,1702.473667,9548.656652
1083.935858,-1149.143247,1924.535449,9400.615463
1083.936174,-1072.533697,2072.576638,9474.636058
1083.936489,-1225.752797,2220.617826,9474.636058
1083.936805,-1302.362347,2368.659014,9326.594869
1083.937121,-1685.410096,2368.659014,9474.636058
1083.937437,-1608.800546,2294.638420,9400.615463
1083.937752,-1838.629195,1850.514855,9326.594869
1083.938068,-1838.629195,1406.391290,9696.697840
1083.938384,-1532.190996,1184.329507,9918.759623
1083.938700,-2374.896044,962.267725,10214.842000
1083.939015,-2374.896044,1110.308913,10288.862594
1083.939331,-2068.457845,1184.329507,9770.718434
1083.939647,-2221.676944,1406.391290,9474.636058
1083.939963,-1915.238745,1628.453072,9622.677246
1083.940278,-1991.848295,1332.370696,9770.718434
1083.940594,-1991.848295,1554.432478,9696.697840
1083.940910,-1608.800546,1628.453072,9474.636058
1083.941226,-1532.190996,1702.473667,9252.574275
1083.941541,-1762.019645,1702.473667,8956.491898
1083.941857,-1685.410096,1998.556043,9178.553681
1083.942173,-1838.629195,1998.556043,8882.471304
1083.942488,-1991.848295,2516.700203,9030.512492
1083.942804,-2145.067394,2368.659014,9178.553681
1083.943120,-2221.676944,2294.638420,9104.533087
1083.943436,-2681.334243,1776.494261,9326.594869
1083.943751,-3064.381992,1258.350101,9770.718434
1083.944067,-2987.772442,666.185348,9918.759623
1083.944383,-2681.334243,-0.000000,10362.883188
1083.944699,-2451.505594,-0.000000,10362.883188
1083.945014,-1991.848295,222.061783,10214.842000
1083.945330,-1762.019645,370.102971,10140.821405
1083.945646,-919.314598,1110.308913,9548.656652
1083.945962,-306.438199,1998.556043,9104.533087
1083.946277,76.609550,2590.720797,8586.388927
1083.946593,536.266849,3108.864956,8068.244768
1083.946909,459.657299,3182.885551,7994.224174
1083.947225,383.047749,2886.803174,7698.141797
1083.947540,-306.438199,3256.906145,8216.285956
1083.947856,-306.438199,2738.761985,8142.265362
1083.948172,-1149.143247,2442.679609,8512.368333
1083.948487,-2374.896044,1850.514855,9104.533087
1083.948803,-2987.772442,1406.391290,9844.739029
1083.949119,-3600.648841,518.144159,10510.924376
1083.949435,-4060.306139,740.205942,10732.986159
1083.949750,-4136.915689,222.061783,10881.027347
1083.950066,-3600.648841,444.123565,11325.150913
1083.950382,-3140.991542,-0.000000,10955.047942
1083.950698,-2298.286494,148.041188,10584.944971
1083.951013,-1455.581446,740.205942,9770.718434
1083.951329,-153.219100,814.226536,9104.533087
1083.951645,536.266849,2664.741391,8660.409521
1083.951961,919.314598,3108.864956,8068.244768
1083.952276,1455.581446,3775.050304,7920.203579
1083.952592,1149.143247,4737.318029,7550.100608
1083.952908,536.266849,4737.318029,7179.997637
1083.953224,76.609550,4737.318029,7476.080014
1083.953539,-995.924147,3775.050304,8216.285956
1083.953855,-2298.286494,3182.885551,8882.471304
1083.954171,-3524.039291,1480.411884,10584.944971
1083.954486,-4596.572988,-74.020594,11325.150913
1083.954802,-5286.058936,-666.185348,12361.439231
1083.955118,-4903.011187,-1702.473667,12213.398043
1083.955434,-5132.839837,-1628.453072,12805.562797
1083.955749,-4596.572988,-1110.308913,12435.459826
1083.956065,-3064.381992,-74.020594,11473.192101
1083.956381,-1991.848295,1184.329507,10214.842000
1083.956697,-383.047749,2738.761985,9252.574275
1083.957012,995.924147,4367.215058,7254.018232
1083.957328,1455.581446,5181.441594,6217.729913
1083.957644,1685.410096,5921.647536,6143.709319
1083.957960,1455.581446,5551.544565,6291.750507
1083.958275,842.705048,4811.338623,7031.956449
1083.958591,-306.438199,3478.967927,7920.203579
1083.958907,-1838.629195,1628.453072,9400.615463
1083.959223,-3140.991542,-0.000000,11029.068536
1083.959538,-4290.134789,-1628.453072,12139.377449
1083.959854,-4519.963438,-1924.535449,12509.480420
1083.960170,-4366.744339,-1184.329507,12657.521608
1083.960485,-4213.525239,-444.123565,11843.295072
1083.960801,-3524.039291,518.144159,11029.068536
1083.961117,-2528.115143,888.247130,10066.800811
1083.961433,-1072.533697,2368.659014,8956.491898
1083.961748,0.000000,3701.029710,7624.121203
1083.962064,612.876398,3923.091493,7328.038826
1083.962380,919.314598,3849.070898,7179.997637
1083.962696,1072.533697,3182.885551,7550.100608
1083.963011,612.876398,2220.617826,8216.285956
1083.963327,383.047749,1628.453072,8660.409521
1083.963643,-383.047749,1332.370696,8660.409521
1083.963959,-1149.143247,518.144159,9400.615463
1083.964274,-2145.067394,518.144159,10510.924376
1083.964590,-2528.115143,-0.000000,10732.986159
1083.964906,-3140.991542,518.144159,10658.965565
1083.965222,-4136.915689,518.144159,10066.800811
1083.965537,-4366.744339,-0.000000,10584.944971
1083.965853,-3370.820191,-296.082377,10510.924376
1083.966169,-2604.724693,-0.000000,9844.739029
1083.966485,-2451.505594,962.267725,8808.450710
1083.966800,-2221.676944,1184.329507,8734.430116
1083.967116,-1991.848295,1184.329507,8734.430116
1083.967432,-1378.971896,962.267725,9326.594869
1083.967747,-842.705048,1258.350101,9400.615463
1083.968063,-1149.143247,1406.391290,9474.636058
1083.968379,-612.876398,740.205942,9696.697840
1083.968695,-229.828649,-0.000000,9992.780217
1083.969010,-306.438199,-0.000000,9474.636058
1083.969326,-153.219100,-74.020594,9622.677246
1083.969642,153.219100,-592.164754,9696.697840
1083.969958,536.266849,-222.061783,9104.533087
1083.970273,919.314598,148.041188,9400.615463
1083.970589,459.657299,666.185348,8808.450710
1083.970905,689.485948,1036.288319,9474.636058
1083.971221,1149.143247,1480.411884,8882.471304
1083.971536,919.314598,1702.473667,8290.306550
1083.971852,766.095498,1776.494261,8734.430116
1083.972168,842.705048,1258.350101,8808.450710
1083.972484,536.266849,518.144159,9104.533087
1083.972799,0.000000,-370.102971,9474.636058
1083.973115,-919.314598,-592.164754,10214.842000
1083.973431,-1685.410096,-1184.329507,11029.068536
1083.973746,-995.924147,-740.205942,11177.109724
1083.974062,-1302.362347,-370.102971,10881.027347
1083.974378,-919.314598,-296.082377,10214.842000
1083.974694,153.219100,-296.082377,9474.636058
1083.975010,1225.752797,-0.000000,9252.574275
1083.975325,1991.848295,666.185348,8882.471304
1083.975641,2451.505594,518.144159,8512.368333
1083.975957,2604.724693,740.205942,8364.327145
1083.976273,2298.286494,814.226536,8586.388927
1083.976589,2451.505594,1184.329507,8586.388927
1083.976905,2068.457845,1406.391290,8438.347739
1083.977221,1302.362347,1110.308913,8956.491898
1083.977536,995.924147,666.185348,9178.553681
1083.977852,0.000000,740.205942,9696.697840
1083.978168,-689.485948,518.144159,10214.842000
1083.978484,-612.876398,-148.041188,10288.862594
1083.978800,-1378.971896,-740.205942,11029.068536
1083.979116,-1762.019645,-1628.453072,10955.047942
1083.979431,-2374.896044,-1480.411884,10288.862594
1083.979747,-1455.581446,-2146.597232,10807.006753
1083.980063,-612.876398,-1554.432478,10214.842000
1083.980379,-306.438199,-222.061783,9622.677246
1083.980695,306.438199,-74.020594,9474.636058
1083.981011,1225.752797,740.205942,9104.533087
1083.981326,1915.238745,1480.411884,8438.347739
1083.981642,2221.676944,1480.411884,7550.100608
1083.981958,2145.067394,1036.288319,7846.182985
1083.982274,2298.286494,296.082377,8290.306550
1083.982590,2221.676944,-0.000000,8660.409521
1083.982906,1378.971896,-296.082377,9252.574275
1083.983221,536.266849,-296.082377,9992.780217
1083.983537,383.047749,-888.247130,10214.842000
1083.983853,229.828649,-1184.329507,10288.862594
1083.984169,0.000000,-370.102971,9548.656652
1083.984485,0.000000,-148.041188,9548.656652
1083.984801,229.828649,-518.144159,9696.697840
1083.985117,229.828649,-1036.288319,9474.636058
1083.985432,0.000000,-0.000000,9770.718434
1083.985748,76.609550,-222.061783,10066.800811
1083.986064,229.828649,-0.000000,9474.636058
1083.986380,459.657299,740.205942,9104.533087
1083.986696,766.095498,296.082377,8586.388927
1083.987012,689.485948,296.082377,9178.553681
1083.987327,689.485948,444.123565,9030.512492
1083.987643,153.219100,222.061783,8882.471304
1083.987959,383.047749,-222.061783,9844.739029
1083.988275,383.047749,-148.041188,9992.780217
1083.988591,0.000000,-0.000000,9474.636058
1083.988907,536.266849,-0.000000,9474.636058
1083.989222,459.657299,-1110.308913,9474.636058
1083.989538,229.828649,-814.226536,9474.636058
1083.989854,0.000000,-1110.308913,9918.759623
1083.990170,153.219100,-1110.308913,9992.780217
1083.990486,76.609550,-888.247130,10362.883188
1083.990802,306.438199,-444.123565,9918.759623
1083.991118,306.438199,-0.000000,9474.636058
1083.991433,689.485948,814.226536,8660.409521
1083.991749,612.876398,1036.288319,8586.388927
1083.992065,689.485948,666.185348,8882.471304
1083.992381,689.485948,-74.020594,8956.491898
1083.992697,536.266849,-370.102971,9474.636058
1083.993013,612.876398,-740.205942,9770.718434
1083.993328,536.266849,-1332.370696,9844.739029
1083.993644,536.266849,-1110.308913,9770.718434
1083.993960,612.876398,-1036.288319,10140.821405
1083.994276,842.705048,-740.205942,9918.759623
1083.994592,383.047749,-0.000000,9622.677246
1083.994908,459.657299,-0.000000,9400.615463
1083.995223,842.705048,370.102971,9400.615463
1083.995539,1072.533697,296.082377,9178.553681
1083.995855,1072.533697,148.041188,9178.553681
1083.996171,1302.362347,444.123565,9178.553681
1083.996487,1072.533697,296.082377,9030.512492
1083.996803,689.485948,740.205942,8808.450710
1083.997118,0.000000,592.164754,9400.615463
1083.997434,459.657299,-0.000000,9918.759623
1083.997750,306.438199,518.144159,9770.718434
1083.998066,153.219100,444.123565,9474.636058
1083.998382,76.609550,296.082377,9992.780217
1083.998698,229.828649,-518.144159,10288.862594
1083.999014,612.876398,-0.000000,9548.656652
1083.999329,229.828649,592.164754,9844.739029
1083.999645,-153.219100,-0.000000,9696.697840
1083.999961,229.828649,-0.000000,10288.862594
1084.000277,-459.657299,-0.000000,9992.780217
1084.000593,229.828649,296.082377,9400.615463
1084.000909,383.047749,296.082377,9104.533087
1084.001224,153.219100,370.102971,9104.533087
1084.001540,766.095498,222.061783,9400.615463
1084.001856,76.609550,148.041188,9252.574275
1084.002172,153.219100,148.041188,9474.636058
1084.002488,0.000000,-222.061783,9326.594869
1084.002804,-459.657299,-296.082377,9252.574275
1084.003119,-459.657299,-444.123565,9548.656652
1084.003435,-229.828649,-1036.288319,9992.780217
1084.003751,-689.485948,-666.185348,9622.677246
1084.004067,-919.314598,-814.226536,9992.780217
1084.004383,-612.876398,-1110.308913,9918.759623
1084.004699,0.000000,-1406.391290,9918.759623
1084.005015,0.000000,-666.185348,9548.656652
1084.005330,306.438199,-148.041188,9030.512492
1084.005646,612.876398,-74.020594,9030.512492
1084.005962,842.705048,148.041188,9030.512492
1084.006278,842.705048,296.082377,8734.430116
1084.006594,766.095498,296.082377,9104.533087
1084.006910,536.266849,222.061783,9178.553681
1084.007225,689.485948,-222.061783,9696.697840
1084.007541,459.657299,-0.000000,9252.574275
1084.007857,766.095498,-518.144159,9474.636058
1084.008173,0.000000,-518.144159,9696.697840
1084.008489,383.047749,-666.185348,10140.821405
1084.008805,153.219100,-444.123565,9548.656652
1084.009120,229.828649,-444.123565,9844.739029
1084.009436,383.047749,-666.185348,9770.718434
1084.009752,766.095498,-296.082377,9770.718434
1084.010068,919.314598,-370.102971,9474.636058
1084.010384,1072.533697,-148.041188,9178.553681
1084.010700,1455.581446,296.082377,9030.512492
1084.011015,1532.190996,296.082377,8956.491898
1084.011331,1991.848295,222.061783,9252.574275
1084.011647,1378.971896,370.102971,9474.636058
1084.011963,1608.800546,370.102971,9104.533087
1084.012279,1302.362347,444.123565,9104.533087
1084.012595,1072.533697,-0.000000,9178.553681
1084.012911,1072.533697,-888.247130,8956.491898
1084.013226,306.438199,-1036.288319,9400.615463
1084.013542,-306.438199,-1554.432478,10214.842000
1084.013858,-153.219100,-2146.597232,10658.965565
1084.014174,-306.438199,-1850.514855,10807.006753
1084.014490,306.438199,-1036.288319,10436.903782
1084.014806,306.438199,-1036.288319,9844.739029
1084.015121,689.485948,-222.061783,9178.553681
1084.015437,1149.143247,-0.000000,9104.533087
1084.015753,919.314598,518.144159,8438.347739
1084.016069,919.314598,518.144159,9030.512492
1084.016385,766.095498,-0.000000,9104.533087
1084.016701,766.095498,-0.000000,9252.574275
1084.017016,612.876398,-0.000000,9400.615463
1084.017332,536.266849,-592.164754,8956.491898
1084.017648,153.219100,-814.226536,9622.677246
1084.017964,0.000000,-962.267725,10066.800811
1084.018280,0.000000,-592.164754,10140.821405
1084.018596,-153.219100,-518.144159,9770.718434
1084.018912,76.609550,-518.144159,10214.842000
1084.019227,383.047749,-296.082377,9844.739029
1084.019543,153.219100,-0.000000,9400.615463
1084.019859,536.266849,370.102971,9326.594869
1084.020175,995.924147,296.082377,8882.471304
1084.020491,536.266849,888.247130,8216.285956
1084.020807,306.438199,666.185348,8734.430116
1084.021122,766.095498,-0.000000,9622.677246
1084.021438,995.924147,518.144159,9104.533087
1084.021754,229.828649,814.226536,9178.553681
1084.022070,153.219100,444.123565,9474.636058
1084.022386,306.438199,-0.000000,9326.594869
1084.022702,0.000000,148.041188,9548.656652
1084.023017,-153.219100,-0.000000,9992.780217
1084.023333,0.000000,-370.102971,9992.780217
1084.023649,0.000000,-0.000000,10214.842000
1084.023965,0.000000,-444.123565,9844.739029
1084.024281,0.000000,-0.000000,9400.615463
1084.024597,919.314598,-296.082377,9918.759623
1084.024912,76.609550,370.102971,9252.574275
1084.025228,229.828649,1110.308913,9104.533087
1084.025544,766.095498,-296.082377,9400.615463
1084.025860,383.047749,1184.329507,9696.697840
1084.026176,0.000000,740.205942,8734.430116
1084.026492,0.000000,222.061783,9474.636058
1084.026808,0.000000,-518.144159,9548.656652
1084.027123,-612.876398,-814.226536,9992.780217
1084.027439,-229.828649,-592.164754,10066.800811
1084.027755,-1378.971896,-1406.391290,10584.944971
1084.028071,-919.314598,-1480.411884,10881.027347
1084.028387,-459.657299,-888.247130,10510.924376
1084.028703,-153.219100,-444.123565,9474.636058
1084.029018,229.828649,-370.102971,9252.574275
1084.029334,689.485948,-222.061783,9474.636058
1084.029650,1302.362347,-296.082377,8956.491898
1084.029966,689.485948,444.123565,9104.533087
1084.030282,1149.143247,444.123565,8438.347739
1084.030598,1532.190996,-0.000000,8882.471304
1084.030913,1149.143247,296.082377,9104.533087
1084.031229,766.095498,-222.061783,9252.574275
1084.031545,995.924147,-888.247130,9548.656652
1084.031861,1072.533697,-814.226536,9770.718434
1084.032177,229.828649,-296.082377,9252.574275
1084.032493,0.000000,-444.123565,9622.677246
1084.032809,766.095498,-1554.432478,10436.903782
1084.033124,306.438199,-1258.350101,10140.821405
1084.033440,612.876398,-888.247130,9918.759623
1084.033756,1302.362347,-666.185348,9104.533087
1084.034072,1225.752797,-888.247130,9252.574275
1084.034388,1302.362347,-296.082377,8882.471304
1084.034704,1532.190996,-148.041188,8956.491898
1084.035019,1532.190996,-148.041188,9178.553681
1084.035335,1915.238745,-148.041188,9104.533087
1084.035651,1838.629195,222.061783,8660.409521
1084.035967,1378.971896,222.061783,8512.368333
1084.036283,1072.533697,-74.020594,8290.306550
1084.036599,842.705048,-518.144159,9104.533087
1084.036914,612.876398,-814.226536,9844.739029
1084.037230,-306.438199,-1110.308913,9918.759623
1084.037546,0.000000,-1554.432478,10732.986159
1084.037862,0.000000,-2072.576638,10658.965565
1084.038178,0.000000,-1480.411884,9696.697840
1084.038494,-229.828649,-740.205942,9474.636058
1084.038809,0.000000,-962.267725,9326.594869
1084.039125,383.047749,-740.205942,9178.553681
1084.039441,536.266849,-148.041188,9400.615463
1084.039757,383.047749,-0.000000,8808.450710
1084.040073,459.657299,-148.041188,9252.574275
1084.040389,536.266849,-0.000000,9104.533087
1084.040705,153.219100,-296.082377,8734.430116
1084.041020,383.047749,-0.000000,9030.512492
1084.041336,306.438199,-444.123565,9178.553681
1084.041652,0.000000,-296.082377,9474.636058
1084.041968,-1072.533697,-592.164754,9770.718434
1084.042284,0.000000,-814.226536,10214.842000
1084.042600,153.219100,-518.144159,10214.842000
1084.042915,153.219100,-296.082377,9474.636058
1084.043231,0.000000,222.061783,9326.594869
1084.043547,0.000000,-0.000000,9400.615463
1084.043863,459.657299,592.164754,9178.553681
1084.044179,0.000000,962.267725,8734.430116
1084.044495,0.000000,518.144159,9400.615463
1084.044810,229.828649,592.164754,9474.636058
1084.045126,153.219100,740.205942,9474.636058
1084.045442,383.047749,666.185348,9696.697840
1084.045758,76.609550,962.267725,9474.636058
1084.046074,383.047749,1036.288319,9622.677246
1084.046390,612.876398,888.247130,9548.656652
1084.046706,459.657299,370.102971,9548.656652
1084.047021,459.657299,-0.000000,10807.006753
1084.047337,766.095498,814.226536,9770.718434
1084.047653,919.314598,740.205942,9474.636058
1084.047969,1072.533697,740.205942,9326.594869
1084.048285,1072.533697,888.247130,8956.491898
1084.048601,1072.533697,962.267725,9104.533087
1084.048916,919.314598,888.247130,9326.594869
1084.049232,612.876398,592.164754,9400.615463
1084.049548,689.485948,592.164754,9696.697840
1084.049864,76.609550,296.082377,9548.656652
1084.050180,-689.485948,222.061783,9696.697840
1084.050496,-536.266849,-0.000000,10140.821405
1084.050811,-612.876398,-888.247130,9992.780217
1084.051127,-919.314598,-814.226536,9992.780217
1084.051443,-1378.971896,-444.123565,10658.965565
1084.051759,-766.095498,-1258.350101,11177.109724
1084.052075,-459.657299,-962.267725,10066.800811
1084.052391,-306.438199,-444.123565,9696.697840
1084.052706,459.657299,222.061783,9326.594869
1084.053022,1149.143247,518.144159,8734.430116
1084.053338,995.924147,592.164754,8882.471304
1084.053654,1455.581446,814.226536,8882.471304
1084.053970,1302.362347,666.185348,8512.368333
1084.054286,1225.752797,444.123565,9696.697840
1084.054602,1072.533697,222.061783,9474.636058
1084.054917,919.314598,-0.000000,9326.594869
1084.055233,612.876398,-296.082377,9696.697840
1084.055549,383.047749,-518.144159,9326.594869
1084.055865,-383.047749,-592.164754,9474.636058
1084.056181,-459.657299,-1332.370696,10436.903782
1084.056497,-383.047749,-1776.494261,10658.965565
1084.056812,0.000000,-1406.391290,10214.842000
1084.057128,153.219100,-1258.350101,9770.718434
1084.057444,536.266849,-1110.308913,8882.471304
1084.057760,919.314598,-1036.288319,9178.553681
1084.058076,1302.362347,-740.205942,8956.491898
1084.058392,1532.190996,-222.061783,8586.388927
1084.058707,1378.971896,-222.061783,8808.450710
1084.059023,1378.971896,-444.123565,8956.491898
1084.059339,1608.800546,-370.102971,8364.327145
1084.059655,1455.581446,-666.185348,8956.491898
1084.059971,1378.971896,-888.247130,9030.512492
1084.060287,919.314598,-1036.288319,8882.471304
1084.060603,229.828649,-740.205942,9252.574275
1084.060918,76.609550,-1110.308913,9622.677246
1084.061234,306.438199,-1406.391290,10066.800811
1084.061550,-229.828649,-1036.288319,10140.821405
1084.061866,-229.828649,-888.247130,9696.697840
1084.062182,0.000000,-1702.473667,9474.636058
1084.062498,0.000000,-1628.453072,10214.842000
1084.062813,76.609550,-962.267725,9400.615463
1084.063129,0.000000,-370.102971,9178.553681
1084.063445,229.828649,-444.123565,9696.697840
1084.063761,536.266849,-296.082377,9474.636058
1084.064077,995.924147,518.144159,8734.430116
1084.064393,842.705048,444.123565,8734.430116
1084.064708,689.485948,-370.102971,8882.471304
1084.065024,536.266849,-296.082377,9030.512492
1084.065340,383.047749,-592.164754,9178.553681
1084.065656,153.219100,-1110.308913,10362.883188
1084.065972,229.828649,-222.061783,9992.780217
1084.066288,383.047749,-148.041188,9622.677246
1084.066603,383.047749,-0.000000,9178.553681
1084.066919,842.705048,-0.000000,9548.656652
1084.067235,459.657299,-148.041188,9474.636058
1084.067551,229.828649,444.123565,9104.533087
1084.067867,0.000000,-0.000000,9326.594869
1084.068183,0.000000,296.082377,9770.718434
1084.068499,153.219100,814.226536,9474.636058
1084.068814,76.609550,518.144159,9696.697840
1084.069130,0.000000,518.144159,9918.759623
1084.069446,306.438199,592.164754,9400.615463
1084.069762,0.000000,444.123565,9326.594869
1084.070078,0.000000,370.102971,10214.842000
1084.070394,153.219100,296.082377,10140.821405
1084.070709,459.657299,518.144159,9844.739029
1084.071025,766.095498,444.123565,10066.800811
1084.071341,766.095498,370.102971,9474.636058
1084.071657,612.876398,370.102971,9400.615463
1084.071973,766.095498,740.205942,9326.594869
1084.072289,383.047749,814.226536,9770.718434
1084.072604,995.924147,962.267725,9548.656652
1084.072920,76.609550,1110.308913,9326.594869
1084.073236,76.609550,962.267725,9622.677246
1084.073552,0.000000,518.144159,9918.759623
1084.073868,0.000000,222.061783,9622.677246
1084.074184,-536.266849,-74.020594,9622.677246
1084.074500,-536.266849,-148.041188,10066.800811
1084.074815,-689.485948,-666.185348,10066.800811
1084.075131,-919.314598,-962.267725,10881.027347
1084.075447,-459.657299,-740.205942,10658.965565
1084.075763,-229.828649,-370.102971,9770.718434
1084.076079,0.000000,-0.000000,8956.491898
1084.076395,459.657299,-0.000000,9030.512492
1084.076710,766.095498,-0.000000,9178.553681
1084.077026,919.314598,222.061783,9326.594869
1084.077342,1149.143247,-296.082377,9030.512492
1084.077658,1225.752797,-222.061783,9622.677246
1084.077974,1225.752797,-0.000000,9252.574275
1084.078290,1149.143247,592.164754,8660.409521
1084.078605,1225.752797,444.123565,8290.306550
1084.078921,1072.533697,-296.082377,9178.553681
1084.079237,689.485948,-444.123565,9622.677246
1084.079553,153.219100,-814.226536,9696.697840
1084.079869,383.047749,-1332.370696,9770.718434
1084.080185,229.828649,-1332.370696,9918.759623
1084.080500,919.314598,-1036.288319,9918.759623
1084.080816,689.485948,-1036.288319,9548.656652
1084.081132,1149.143247,-666.185348,9252.574275
1084.081448,1302.362347,-740.205942,9252.574275
1084.081764,1378.971896,-370.102971,8660.409521
1084.082080,1378.971896,-222.061783,8364.327145
1084.082396,1455.581446,296.082377,8956.491898
1084.082711,1455.581446,-518.144159,9474.636058
1084.083027,1685.410096,-666.185348,9030.512492
1084.083343,1149.143247,-0.000000,8956.491898
1084.083659,766.095498,-962.267725,9030.512492
1084.083975,536.266849,-962.267725,9178.553681
1084.084291,536.266849,-1110.308913,9696.697840
1084.084606,0.000000,-1554.432478,9770.718434
1084.084922,536.266849,-1702.473667,10288.862594
1084.085238,229.828649,-1258.350101,9696.697840
1084.085554,229.828649,-1036.288319,9474.636058
1084.085870,612.876398,-1036.288319,9252.574275
1084.086186,612.876398,-148.041188,8956.491898
1084.086501,536.266849,-0.000000,8660.409521
1084.086817,766.095498,-0.000000,9178.553681
1084.087133,766.095498,-888.247130,9474.636058
1084.087449,536.266849,-592.164754,9326.594869
1084.087765,229.828649,-518.144159,9474.636058
1084.088081,383.047749,-666.185348,9400.615463
1084.088396,229.828649,-666.185348,9548.656652
1084.088712,0.000000,-222.061783,9326.594869
1084.089028,-229.828649,-740.205942,9770.718434
1084.089344,0.000000,-740.205942,10362.883188
1084.089660,-153.219100,-740.205942,10214.842000
1084.089976,229.828649,-444.123565,9844.739029
1084.090292,612.876398,-148.041188,9474.636058
1084.090607,919.314598,-148.041188,9252.574275
1084.090923,1072.533697,-0.000000,9252.574275
1084.091239,842.705048,-0.000000,8956.491898
1084.091555,383.047749,518.144159,9326.594869
1084.091871,689.485948,370.102971,9548.656652
1084.092187,383.047749,666.185348,9548.656652
1084.092502,459.657299,444.123565,9918.759623
1084.092818,306.438199,740.205942,8808.450710
1084.093134,689.485948,-0.000000,9252.574275
1084.093450,0.000000,-0.000000,9622.677246
1084.093766,153.219100,-222.061783,10140.821405
1084.094082,153.219100,-0.000000,10214.842000
1084.094397,383.047749,222.061783,9992.780217
1084.094713,306.438199,592.164754,9622.677246
1084.095029,459.657299,444.123565,9400.615463
1084.095345,689.485948,518.144159,9252.574275
1084.095661,612.876398,814.226536,9252.574275
1084.095977,536.266849,1332.370696,9030.512492
1084.096293,919.314598,962.267725,8882.471304
1084.096608,306.438199,962.267725,9844.739029
1084.096924,306.438199,1036.288319,9844.739029
1084.097240,0.000000,518.144159,9400.615463
1084.097556,-459.657299,370.102971,9400.615463
1084.097872,-383.047749,-0.000000,9474.636058
1084.098188,-383.047749,-370.102971,9844.739029
1084.098503,-612.876398,-518.144159,10362.883188
1084.098819,-536.266849,-444.123565,10362.883188
1084.099135,-229.828649,-370.102971,10066.800811
1084.099451,-383.047749,370.102971,9104.533087
1084.099767,-306.438199,-74.020594,9326.594869
1084.100083,536.266849,148.041188,9030.512492
1084.100398,612.876398,-0.000000,8808.450710
1084.100714,229.828649,222.061783,8734.430116
1084.101030,229.828649,-370.102971,9326.594869
1084.101346,689.485948,-518.144159,9326.594869
1084.101662,612.876398,-0.000000,9178.553681
1084.101978,689.485948,-0.000000,9400.615463
1084.102293,689.485948,-296.082377,8882.471304
1084.102609,536.266849,-444.123565,9548.656652
1084.102925,306.438199,-962.267725,9474.636058
1084.103241,153.219100,-1110.308913,9548.656652
1084.103557,383.047749,-1258.350101,9918.759623
1084.103873,612.876398,-814.226536,10140.821405
1084.104189,1072.533697,-370.102971,9622.677246
1084.104504,842.705048,-296.082377,9030.512492
1084.104820,1072.533697,-0.000000,8734.430116
1084.105136,1378.971896,148.041188,9178.553681
1084.105452,1302.362347,-0.000000,9104.533087
1084.105768,919.314598,-0.000000,9178.553681
1084.106084,689.485948,-74.020594,9622.677246
1084.106399,1378.971896,-444.123565,9992.780217
1084.106715,842.705048,-0.000000,9252.574275
1084.107031,76.609550,-74.020594,9252.574275
1084.107347,536.266849,-444.123565,9918.759623
1084.107663,229.828649,-666.185348,9474.636058
1084.107979,0.000000,-592.164754,10140.821405
1084.108294,0.000000,-888.247130,10584.944971
1084.108610,153.219100,-1554.432478,10288.862594
1084.108926,76.609550,-1036.288319,9696.697840
1084.109242,0.000000,-740.205942,9918.759623
1084.109558,383.047749,-740.205942,9622.677246
1084.109874,919.314598,148.041188,9252.574275
1084.110190,536.266849,518.144159,8882.471304
1084.110505,995.924147,-296.082377,9178.553681
1084.110821,612.876398,-666.185348,9622.677246
1084.111137,536.266849,-444.123565,9400.615463
1084.111453,536.266849,-740.205942,9622.677246
1084.111769,536.266849,-1184.329507,9474.636058
1084.112085,536.266849,-1110.308913,8882.471304
1084.112400,0.000000,-888.247130,9696.697840
1084.112716,76.609550,-962.267725,9696.697840
1084.113032,459.657299,-962.267725,9844.739029
1084.113348,76.609550,-518.144159,10066.800811
1084.113664,536.266849,-296.082377,9030.512492
1084.113980,919.314598,-592.164754,8882.471304
1084.114295,995.924147,-444.123565,9178.553681
1084.114611,1072.533697,-0.000000,8512.368333
1084.114927,612.876398,444.123565,8808.450710
1084.115243,536.266849,-0.000000,9104.533087
1084.115559,459.657299,-0.000000,9548.656652
1084.115875,766.095498,962.267725,9104.533087
1084.116190,76.609550,370.102971,8808.450710
1084.116506,229.828649,-0.000000,9178.553681
1084.116822,76.609550,-444.123565,9622.677246
1084.117138,-306.438199,-222.061783,9474.636058
1084.117454,-689.485948,-74.020594,9844.739029
1084.117770,-536.266849,-592.164754,10510.924376
1084.118086,0.000000,-0.000000,9474.636058
1084.118401,-229.828649,-0.000000,9474.636058
1084.118717,229.828649,148.041188,9326.594869
1084.119033,459.657299,-0.000000,9326.594869
1084.119349,383.047749,1036.288319,8808.450710
1084.119665,383.047749,888.247130,9030.512492
1084.119981,229.828649,592.164754,8660.409521
1084.120296,459.657299,888.247130,9548.656652
1084.120612,459.657299,666.185348,9400.615463
1084.120928,-536.266849,1332.370696,9548.656652
1084.121244,-459.657299,-222.061783,9770.718434
1084.121560,0.000000,-666.185348,9696.697840
1084.121876,-612.876398,370.102971,10066.800811
1084.122191,-612.876398,-740.205942,9844.739029
1084.122507,0.000000,-444.123565,10510.924376
1084.122823,229.828649,-148.041188,11029.068536
1084.123139,0.000000,444.123565,9548.656652
1084.123455,612.876398,666.185348,9400.615463
1084.123771,995.924147,444.123565,9104.533087
1084.124086,1455.581446,296.082377,9474.636058
1084.124402,536.266849,666.185348,9030.512492
1084.124718,1072.533697,370.102971,9918.759623
1084.125034,919.314598,74.020594,9622.677246
1084.125350,995.924147,592.164754,9400.615463
1084.125666,689.485948,518.144159,9622.677246
1084.125982,76.609550,-222.061783,9622.677246
1084.126297,459.657299,-518.144159,9770.718434
1084.126613,0.000000,-888.247130,10140.821405
1084.126929,0.000000,-1554.432478,11029.068536
1084.127245,459.657299,-1480.411884,10288.862594
1084.127561,842.705048,-592.164754,9992.780217
1084.127877,1072.533697,-518.144159,9622.677246
1084.128192,1378.971896,-222.061783,9400.615463
1084.128508,1762.019645,222.061783,8660.409521
1084.128824,1685.410096,148.041188,8882.471304
1084.129140,1225.752797,-222.061783,9400.615463
1084.129456,1532.190996,-222.061783,9474.636058
1084.129772,1455.581446,-0.000000,9104.533087
1084.130087,1072.533697,-0.000000,9178.553681
1084.130403,919.314598,-370.102971,8956.491898
1084.130719,995.924147,-1184.329507,9252.574275
1084.131035,459.657299,-814.226536,9474.636058
1084.131351,0.000000,-1406.391290,9622.677246
1084.131667,229.828649,-1480.411884,10288.862594
1084.131983,0.000000,-1480.411884,10362.883188
1084.132298,76.609550,-1110.308913,9696.697840
1084.132614,229.828649,-1110.308913,9548.656652
1084.132930,536.266849,-888.247130,9252.574275
1084.133246,612.876398,-592.164754,8956.491898
1084.133562,766.095498,-370.102971,8660.409521
1084.133878,306.438199,-74.020594,8882.471304
1084.134193,383.047749,-444.123565,9252.574275
1084.134509,612.876398,-148.041188,8882.471304
1084.134825,306.438199,-592.164754,8956.491898
1084.135141,229.828649,-666.185348,9622.677246
1084.135457,153.219100,-814.226536,9178.553681
1084.135773,-306.438199,-592.164754,8660.409521
1084.136088,-229.828649,-814.226536,9622.677246
1084.136404,0.000000,-1184.329507,10066.800811
1084.136720,153.219100,-1480.411884,9992.780217
1084.137036,153.219100,-1184.329507,9696.697840
1084.137352,459.657299,-962.267725,9400.615463
1084.137668,689.485948,-370.102971,8734.430116
1084.137983,842.705048,-0.000000,8734.430116
1084.138299,842.705048,592.164754,8882.471304
1084.138615,612.876398,962.267725,8808.450710
1084.138931,842.705048,1036.288319,8882.471304
1084.139247,766.095498,888.247130,9178.553681
1084.139563,536.266849,222.061783,9252.574275
1084.139879,153.219100,518.144159,9548.656652
1084.140194,-229.828649,-296.082377,9400.615463
1084.140510,-153.219100,-296.082377,10288.862594
1084.140826,-229.828649,-370.102971,10214.842000
1084.141142,-229.828649,-296.082377,10436.903782
1084.141458,153.219100,222.061783,10362.883188
1084.141774,0.000000,370.102971,9474.636058
1084.142089,0.000000,740.205942,9622.677246
1084.142405,766.095498,592.164754,9400.615463
1084.142721,842.705048,962.267725,8734.430116
1084.143037,842.705048,1036.288319,8956.491898
1084.143353,612.876398,592.164754,9326.594869
1084.143669,1225.752797,666.185348,9474.636058
1084.143984,919.314598,962.267725,9252.574275
1084.144300,536.266849,814.226536,9178.553681
1084.144616,229.828649,814.226536,9622.677246
1084.144932,0.000000,-74.020594,9992.780217
1084.145248,-229.828649,-444.123565,9992.780217
1084.145564,-766.095498,-592.164754,10584.944971
1084.145879,-689.485948,-1332.370696,10732.986159
1084.146195,0.000000,-1184.329507,10955.047942
1084.146511,76.609550,-222.061783,10288.862594
1084.146827,612.876398,-0.000000,9696.697840
1084.147143,1072.533697,-0.000000,9400.615463
1084.147459,1072.533697,518.144159,9252.574275
1084.147775,995.924147,666.185348,8734.430116
1084.148090,1072.533697,518.144159,9030.512492
1084.148406,919.314598,592.164754,9400.615463
1084.148722,1149.143247,-0.000000,9548.656652
1084.149038,1149.143247,222.061783,9548.656652
1084.149354,536.266849,148.041188,9030.512492
1084.149670,153.219100,-370.102971,9326.594869
1084.149985,153.219100,-592.164754,10140.821405
1084.150301,229.828649,-1258.350101,10066.800811
1084.150617,229.828649,-1258.350101,10362.883188
1084.150933,306.438199,-1184.329507,10436.903782
1084.151249,536.266849,-1110.308913,9992.780217
1084.151565,919.314598,-592.164754,9178.553681
1084.151880,1149.143247,-518.144159,8882.471304
1084.152196,1072.533697,-0.000000,8586.388927
1084.152512,1378.971896,-0.000000,8808.450710
1084.152828,1149.143247,-148.041188,8512.368333
1084.153144,1225.752797,-148.041188,9104.533087
1084.153460,1455.581446,-148.041188,8808.450710
1084.153776,995.924147,148.041188,8216.285956
1084.154091,842.705048,-518.144159,9400.615463
1084.154407,536.266849,-888.247130,9326.594869
1084.154723,229.828649,-1110.308913,9252.574275
1084.155039,-229.828649,-1258.350101,9696.697840
1084.155355,153.219100,-1554.432478,10362.883188
1084.155671,459.657299,-1628.453072,10140.821405
1084.155986,229.828649,-1184.329507,9474.636058
1084.156302,689.485948,-888.247130,9252.574275
1084.156618,766.095498,-1406.391290,8882.471304
1084.156934,1302.362347,-0.000000,8660.409521
1084.157250,919.314598,444.123565,8586.388927
1084.157566,766.095498,370.102971,8808.450710
1084.157881,919.314598,-296.082377,8956.491898
1084.158197,842.705048,-222.061783,9178.553681
1084.158513,306.438199,-518.144159,9030.512492
1084.158829,76.609550,-1036.288319,9400.615463
1084.159145,0.000000,-1258.350101,9548.656652
1084.159461,-306.438199,-962.267725,9770.718434
1084.159776,-153.219100,-1184.329507,10214.842000
1084.160092,0.000000,-1258.350101,10140.821405
1084.160408,0.000000,-888.247130,9844.739029
1084.160724,76.609550,-740.205942,9696.697840
1084.161040,1302.362347,-518.144159,9326.594869
1084.161356,1072.533697,-0.000000,8734.430116
1084.161672,1149.143247,444.123565,8586.388927
1084.161987,842.705048,222.061783,8808.450710
1084.162303,689.485948,444.123565,9178.553681
1084.162619,766.095498,518.144159,9400.615463
1084.162935,766.095498,814.226536,9400.615463
1084.163251,612.876398,740.205942,9474.636058
1084.163567,0.000000,296.082377,9474.636058
1084.163882,0.000000,-222.061783,9770.718434
1084.164198,0.000000,-0.000000,10214.842000
1084.164514,-766.095498,-0.000000,10436.903782
1084.164830,-612.876398,-0.000000,10510.924376
1084.165146,-229.828649,222.061783,10288.862594
1084.165462,76.609550,1036.288319,9770.718434
1084.165777,689.485948,444.123565,9474.636058
1084.166093,1072.533697,962.267725,9030.512492
1084.166409,383.047749,888.247130,9326.594869
1084.166725,306.438199,962.267725,9474.636058
1084.167041,459.657299,1184.329507,9326.594869
1084.167357,459.657299,1554.432478,10140.821405
1084.167673,0.000000,1480.411884,9548.656652
1084.167988,-306.438199,888.247130,9326.594869
1084.168304,-306.438199,-74.020594,9992.780217
1084.168620,-995.924147,-888.247130,10288.862594
1084.168936,-842.705048,-740.205942,10214.842000
1084.169252,-536.266849,-444.123565,10436.903782
1084.169568,-229.828649,-592.164754,10436.903782
1084.169883,-153.219100,-518.144159,10362.883188
1084.170199,153.219100,-0.000000,9548.656652
1084.170515,536.266849,-0.000000,9178.553681
1084.170831,689.485948,-0.000000,9104.533087
1084.171147,1149.143247,-0.000000,9252.574275
1084.171463,995.924147,296.082377,8956.491898
1084.171778,1302.362347,370.102971,8734.430116
1084.172094,1378.971896,74.020594,8734.430116
1084.172410,612.876398,-74.020594,8808.450710
1084.172726,612.876398,-148.041188,9252.574275
1084.173042,229.828649,-740.205942,9474.636058
1084.173358,0.000000,-1110.308913,10140.821405
1084.173673,-153.219100,-888.247130,9696.697840
1084.173989,0.000000,-1036.288319,9696.697840
1084.174305,76.609550,-1480.411884,9918.759623
1084.174621,842.705048,-1480.411884,9844.739029
1084.174937,842.705048,-888.247130,9252.574275
1084.175253,919.314598,-444.123565,8808.450710
1084.175569,1455.581446,-222.061783,8808.450710
1084.175884,1608.800546,222.061783,8216.285956
1084.176200,1455.581446,370.102971,8216.285956
1084.176516,1608.800546,-296.082377,8586.388927
1084.176832,1455.581446,-296.082377,9178.553681
1084.177147,995.924147,-0.000000,8882.471304
1084.177463,689.485948,-370.102971,9030.512492
1084.177779,612.876398,-962.267725,9326.594869
1084.178095,459.657299,-888.247130,9844.739029
1084.178410,-383.047749,-1184.329507,9696.697840
1084.178726,0.000000,-1184.329507,10288.862594
1084.179042,153.219100,-1258.350101,10510.924376
1084.179358,689.485948,-1110.308913,9844.739029
1084.179673,536.266849,-370.102971,9474.636058
1084.179989,612.876398,-296.082377,8734.430116
1084.180305,1532.190996,-0.000000,8956.491898
1084.180620,1225.752797,296.082377,8882.471304
1084.180936,536.266849,592.164754,8586.388927
1084.181252,1072.533697,-0.000000,9104.533087
1084.181568,383.047749,-444.123565,9400.615463
1084.181883,229.828649,-518.144159,9474.636058
1084.182199,0.000000,-518.144159,9474.636058
1084.182515,-383.047749,-814.226536,9992.780217
1084.182831,0.000000,-1110.308913,9992.780217
1084.183146,-612.876398,-1628.453072,10214.842000
1084.183462,-536.266849,-1184.329507,10288.862594
1084.183778,-229.828649,-1628.453072,10658.965565
1084.184093,0.000000,-1258.350101,10214.842000
1084.184409,459.657299,-444.123565,9326.594869
1084.184725,689.485948,-0.000000,9474.636058
1084.185041,1455.581446,518.144159,9178.553681
1084.185356,2068.457845,888.247130,8586.388927
1084.185672,1149.143247,1628.453072,8956.491898
1084.185988,919.314598,1110.308913,8660.409521
1084.186304,995.924147,666.185348,9326.594869
1084.186619,919.314598,962.267725,9622.677246
1084.186935,0.000000,592.164754,9474.636058
1084.187251,0.000000,-222.061783,9918.759623
1084.187567,153.219100,-444.123565,9992.780217
1084.187882,-612.876398,-222.061783,10288.862594
1084.188198,-306.438199,-222.061783,10658.965565
1084.188514,-229.828649,-370.102971,10510.924376
1084.188829,0.000000,148.041188,10140.821405
1084.189145,306.438199,444.123565,9696.697840
1084.189461,612.876398,370.102971,9104.533087
1084.189777,995.924147,888.247130,9400.615463
1084.190092,919.314598,1258.350101,8660.409521
1084.190408,536.266849,1776.494261,8734.430116
1084.190724,536.266849,1332.370696,9178.553681
1084.191040,383.047749,1036.288319,9400.615463
1084.191355,459.657299,518.144159,9548.656652
1084.191671,-229.828649,518.144159,9104.533087
1084.191987,-306.438199,-518.144159,9474.636058
1084.192302,-919.314598,-1036.288319,10362.883188
1084.192618,-995.924147,-888.247130,10584.944971
1084.192934,-766.095498,-888.247130,10807.006753
1084.193250,-766.095498,-666.185348,9844.739029
1084.193565,-459.657299,-666.185348,10066.800811
1084.193881,0.000000,-518.144159,9474.636058
1084.194197,459.657299,-148.041188,9030.512492
1084.194513,995.924147,-148.041188,8586.388927
1084.194828,1225.752797,-0.000000,8734.430116
1084.195144,995.924147,666.185348,8364.327145
1084.195460,1072.533697,518.144159,8586.388927
1084.195775,919.314598,592.164754,8660.409521
1084.196091,306.438199,-0.000000,9474.636058
1084.196407,612.876398,-518.144159,9622.677246
1084.196723,459.657299,-1036.288319,9770.718434
1084.197038,229.828649,-1406.391290,9696.697840
1084.197354,0.000000,-592.164754,9992.780217
1084.197670,995.924147,-1628.453072,9992.780217
1084.197986,689.485948,-1480.411884,10362.883188
1084.198301,536.266849,-444.123565,9548.656652
1084.198617,612.876398,-296.082377,9030.512492
1084.198933,1762.019645,-296.082377,9474.636058
1084.199248,1608.800546,-222.061783,7920.203579
1084.199564,1149.143247,888.247130,8438.347739
1084.199880,1455.581446,370.102971,8882.471304
1084.200196,1378.971896,-0.000000,8808.450710
1084.200511,995.924147,296.082377,9770.718434
1084.200827,995.924147,-222.061783,8956.491898
1084.201143,766.095498,-666.185348,8882.471304
1084.201459,229.828649,-1110.308913,9400.615463
1084.201774,153.219100,-1406.391290,10140.821405
1084.202090,0.000000,-1258.350101,10584.944971
1084.202406,-229.828649,-1184.329507,10807.006753
1084.202721,0.000000,-888.247130,10288.862594
1084.203037,306.438199,-888.247130,9770.718434
1084.203353,842.705048,-666.185348,9474.636058
1084.203669,1149.143247,-222.061783,9030.512492
1084.203984,1608.800546,-0.000000,8808.450710
1084.204300,1225.752797,740.205942,8734.430116
1084.204616,995.924147,296.082377,9104.533087
1084.204932,1225.752797,-0.000000,9252.574275
1084.205247,995.924147,148.041188,9104.533087
1084.205563,306.438199,-444.123565,9030.512492
1084.205879,0.000000,-1110.308913,9918.759623
1084.206194,0.000000,-1628.453072,9844.739029
1084.206510,-383.047749,-1480.411884,10140.821405
1084.206826,-842.705048,-1332.370696,10288.862594
1084.207142,-919.314598,-1480.411884,10584.944971
1084.207457,0.000000,-962.267725,10214.842000
1084.207773,0.000000,-370.102971,9918.759623
1084.208089,459.657299,-370.102971,9622.677246
1084.208405,766.095498,-222.061783,9326.594869
1084.208720,1072.533697,296.082377,8734.430116
1084.209036,1149.143247,1036.288319,8512.368333
1084.209352,1378.971896,1110.308913,8734.430116
1084.209667,919.314598,1036.288319,8882.471304
1084.209983,1149.143247,888.247130,9104.533087
1084.210299,383.047749,296.082377,9104.533087
1084.210615,153.219100,-0.000000,9696.697840
1084.210930,0.000000,-444.123565,9474.636058
1084.211246,-766.095498,-444.123565,9474.636058
1084.211562,-1149.143247,-222.061783,10510.924376
1084.211878,-536.266849,-888.247130,10510.924376
1084.212193,-459.657299,-1110.308913,10436.903782
1084.212509,-459.657299,-296.082377,10066.800811
1084.212825,0.000000,-0.000000,9474.636058
1084.213140,766.095498,-0.000000,9252.574275
1084.213456,1225.752797,962.267725,8586.388927
1084.213772,919.314598,1258.350101,8660.409521
1084.214088,919.314598,1332.370696,9104.533087
1084.214403,842.705048,1184.329507,9252.574275
1084.214719,842.705048,1480.411884,8586.388927
1084.215035,306.438199,1332.370696,8882.471304
1084.215351,0.000000,518.144159,9178.553681
1084.215666,0.000000,-74.020594,9918.759623
1084.215982,0.000000,-0.000000,10140.821405
1084.216298,-306.438199,-592.164754,10140.821405
1084.216613,-536.266849,-666.185348,10732.986159
1084.216929,0.000000,-1036.288319,10584.944971
1084.217245,0.000000,-370.102971,9770.718434
1084.217561,153.219100,-0.000000,9548.656652
1084.217876,689.485948,-222.061783,9178.553681
1084.218192,919.314598,-0.000000,9030.512492
1084.218508,459.657299,-0.000000,9030.512492
1084.218824,919.314598,222.061783,9178.553681
1084.219139,1072.533697,518.144159,9252.574275
1084.219455,919.314598,-0.000000,9104.533087
1084.219771,919.314598,296.082377,9178.553681
1084.220086,766.095498,-74.020594,9548.656652
1084.220402,612.876398,-814.226536,9548.656652
1084.220718,536.266849,-888.247130,9622.677246
1084.221034,76.609550,-1184.329507,10214.842000
1084.221349,383.047749,-1406.391290,10140.821405
1084.221665,612.876398,-1258.350101,10288.862594
1084.221981,689.485948,-1036.288319,10214.842000
1084.222297,1225.752797,-888.247130,9622.677246
1084.222612,1685.410096,-666.185348,9178.553681
1084.222928,1762.019645,-0.000000,8438.347739
1084.223244,1455.581446,222.061783,8882.471304
1084.223559,1532.190996,74.020594,9104.533087
1084.223875,1225.752797,-296.082377,9474.636058
1084.224191,1378.971896,-0.000000,9400.615463
1084.224507,1072.533697,-0.000000,9030.512492
1084.224822,612.876398,-296.082377,9252.574275
1084.225138,306.438199,-1110.308913,9844.739029
1084.225454,0.000000,-1480.411884,9918.759623
1084.225770,-536.266849,-1850.514855,10732.986159
1084.226085,-536.266849,-2220.617826,11177.109724
1084.226401,0.000000,-2220.617826,10436.903782
1084.226717,0.000000,-1406.391290,10288.862594
1084.227032,612.876398,-962.267725,9474.636058
1084.227348,1225.752797,-444.123565,9104.533087
1084.227664,1302.362347,370.102971,8512.368333
1084.227980,1072.533697,962.267725,8068.244768
1084.228295,1302.362347,222.061783,8660.409521
1084.228611,995.924147,-592.164754,9400.615463
1084.228927,766.095498,-74.020594,8882.471304
1084.229243,459.657299,-0.000000,8734.430116
1084.229558,306.438199,-518.144159,9326.594869
1084.229874,0.000000,-1184.329507,9474.636058
1084.230190,-229.828649,-1554.432478,9918.759623
1084.230505,-689.485948,-1258.350101,10066.800811
1084.230821,-919.314598,-1406.391290,10288.862594
1084.231137,-459.657299,-1036.288319,9844.739029
1084.231453,0.000000,-518.144159,9400.615463
1084.231768,306.438199,-0.000000,8956.491898
1084.232084,842.705048,-222.061783,8956.491898
1084.232400,1302.362347,296.082377,8068.244768
1084.232716,612.876398,592.164754,7846.182985
1084.233031,459.657299,592.164754,8882.471304
1084.233347,919.314598,222.061783,8956.491898
1084.233663,1072.533697,592.164754,9030.512492
1084.233978,153.219100,1184.329507,9030.512492
1084.234294,76.609550,888.247130,8882.471304
1084.234610,-229.828649,296.082377,9474.636058
1084.234926,-536.266849,74.020594,9918.759623
1084.235241,-842.705048,-74.020594,10214.842000
1084.235557,-536.266849,-518.144159,10510.924376
1084.235873,0.000000,-148.041188,10362.883188
1084.236189,76.609550,-0.000000,10214.842000
1084.236504,0.000000,518.144159,9326.594869
1084.236820,459.657299,666.185348,9178.553681
1084.237136,459.657299,1184.329507,9326.594869
1084.237451,76.609550,1480.411884,9474.636058
1084.237767,536.266849,1702.473667,9622.677246
1084.238083,612.876398,1480.411884,9474.636058
1084.238399,383.047749,1406.391290,9326.594869
1084.238714,842.705048,1036.288319,9770.718434
1084.239030,0.000000,592.164754,9622.677246
1084.239346,0.000000,-74.020594,9918.759623
1084.239662,-383.047749,-148.041188,10288.862594
1084.239977,-459.657299,-518.144159,10510.924376
1084.240293,0.000000,-888.247130,10881.027347
1084.240609,-229.828649,-592.164754,10584.944971
1084.240924,0.000000,-222.061783,10214.842000
1084.241240,459.657299,-0.000000,9918.759623
1084.241556,383.047749,370.102971,9030.512492
1084.241872,689.485948,444.123565,9178.553681
1084.242187,612.876398,222.061783,9178.553681
1084.242503,995.924147,222.061783,9696.697840
1084.242819,1072.533697,296.082377,9474.636058
1084.243135,919.314598,444.123565,8956.491898
1084.243450,842.705048,-148.041188,9844.739029
1084.243766,995.924147,-592.164754,9844.739029
1084.244082,689.485948,-370.102971,9844.739029
1084.244397,306.438199,-518.144159,9918.759623
1084.244713,459.657299,-1110.308913,9844.739029
1084.245029,612.876398,-1184.329507,10140.821405
1084.245345,612.876398,-814.226536,10140.821405
1084.245660,919.314598,-888.247130,9474.636058
1084.245976,995.924147,-1406.391290,9474.636058
1084.246292,1225.752797,-814.226536,8956.491898
1084.246608,1149.143247,-148.041188,8290.306550
1084.246923,1302.362347,592.164754,8660.409521
1084.247239,1302.362347,370.102971,8808.450710
1084.247555,1378.971896,296.082377,8734.430116
1084.247870,1378.971896,444.123565,8660.409521
1084.248186,995.924147,-296.082377,8364.327145
1084.248502,536.266849,-1036.288319,9178.553681
1084.248818,689.485948,-1776.494261,9400.615463
1084.249133,-229.828649,-1554.432478,9030.512492
1084.249449,-459.657299,-1554.432478,10362.883188
1084.249765,-229.828649,-2294.638420,10288.862594
1084.250081,-153.219100,-1776.494261,9770.718434
1084.250396,-459.657299,-1258.350101,9474.636058
1084.250712,76.609550,-1110.308913,9104.533087
1084.251028,766.095498,-888.247130,9030.512492
1084.251343,536.266849,-592.164754,8586.388927
1084.251659,995.924147,-0.000000,8512.368333
1084.251975,1149.143247,-518.144159,8734.430116
1084.252291,1072.533697,-370.102971,8660.409521
1084.252606,766.095498,-148.041188,8438.347739
1084.252922,383.047749,-0.000000,8586.388927
1084.253238,306.438199,-518.144159,9104.533087
1084.253554,-229.828649,-666.185348,9178.553681
1084.253869,-612.876398,-740.205942,9474.636058
1084.254185,-919.314598,-1776.494261,10288.862594
1084.254501,-459.657299,-1258.350101,10362.883188
1084.254816,-612.876398,-1554.432478,10214.842000
1084.255132,0.000000,-962.267725,9918.759623
1084.255448,229.828649,-296.082377,9622.677246
1084.255764,536.266849,-0.000000,9474.636058
1084.256079,995.924147,444.123565,8734.430116
1084.256395,459.657299,814.226536,8734.430116
1084.256711,766.095498,1184.329507,9326.594869
1084.257027,995.924147,1110.308913,9104.533087
1084.257342,842.705048,1258.350101,9178.553681
1084.257658,766.095498,962.267725,9548.656652
1084.257974,306.438199,-0.000000,9178.553681
1084.258289,76.609550,296.082377,9622.677246
1084.258605,-229.828649,222.061783,10658.965565
1084.258921,-229.828649,-518.144159,10732.986159
1084.259237,-306.438199,-0.000000,10955.047942
1084.259552,0.000000,370.102971,10510.924376
1084.259868,153.219100,-0.000000,9696.697840
1084.260184,536.266849,370.102971,10140.821405
1084.260500,536.266849,222.061783,9696.697840
1084.260815,536.266849,666.185348,9696.697840
1084.261131,689.485948,1332.370696,9696.697840
1084.261447,689.485948,1480.411884,9474.636058
1084.261762,689.485948,1406.391290,9622.677246
1084.262078,536.266849,888.247130,9696.697840
1084.262394,383.047749,888.247130,9474.636058
1084.262710,229.828649,296.082377,9696.697840
1084.263025,0.000000,-0.000000,9992.780217
1084.263341,-536.266849,-148.041188,10140.821405
1084.263657,-459.657299,-148.041188,10510.924376
1084.263973,229.828649,-222.061783,10288.862594
1084.264288,-229.828649,-0.000000,9770.718434
1084.264604,0.000000,-0.000000,9400.615463
1084.264920,689.485948,-888.247130,9326.594869
1084.265235,612.876398,-296.082377,9474.636058
1084.265551,689.485948,-0.000000,9030.512492
1084.265867,612.876398,370.102971,8734.430116
1084.266183,1225.752797,-0.000000,9474.636058
1084.266498,689.485948,444.123565,8734.430116
1084.266814,689.485948,518.144159,9030.512492
1084.267130,919.314598,-0.000000,9104.533087
1084.267446,229.828649,-370.102971,8660.409521
1084.267761,536.266849,-444.123565,9474.636058
1084.268077,153.219100,-888.247130,9474.636058
1084.268393,0.000000,-1258.350101,10066.800811
1084.268708,459.657299,-1406.391290,10362.883188
1084.269024,766.095498,-888.247130,9252.574275
1084.269340,689.485948,-962.267725,9030.512492
1084.269656,766.095498,-888.247130,9252.574275
1084.269971,1378.971896,-592.164754,8660.409521
1084.270287,1149.143247,-222.061783,8734.430116
1084.270603,1149.143247,-296.082377,8734.430116
1084.270919,1302.362347,-814.226536,8882.471304
1084.271234,1378.971896,-666.185348,8882.471304
1084.271550,995.924147,-222.061783,8808.450710
1084.271866,919.314598,-370.102971,8956.491898
1084.272181,612.876398,-962.267725,9104.533087
1084.272497,306.438199,-1036.288319,9696.697840
1084.272813,-76.609550,-1036.288319,9474.636058
1084.273129,-306.438199,-1702.473667,10140.821405
1084.273444,-459.657299,-1776.494261,10288.862594
1084.273760,-229.828649,-1406.391290,9992.780217
1084.274076,0.000000,-592.164754,9696.697840
1084.274392,153.219100,-740.205942,9474.636058
1084.274707,689.485948,-592.164754,8808.450710
1084.275023,459.657299,-296.082377,8956.491898
1084.275339,766.095498,-222.061783,9252.574275
1084.275654,1532.190996,-666.185348,9400.615463
1084.275970,919.314598,-74.020594,9474.636058
1084.276286,689.485948,-0.000000,9252.574275
1084.276602,383.047749,-0.000000,9178.553681
1084.276917,536.266849,296.082377,9326.594869
1084.277233,0.000000,-0.000000,9252.574275
1084.277549,0.000000,-444.123565,9622.677246
1084.277865,-153.219100,-1036.288319,10288.862594
1084.278180,0.000000,-1258.350101,10658.965565
1084.278496,689.485948,-1332.370696,10436.903782
1084.278812,153.219100,-518.144159,9622.677246
1084.279128,459.657299,-666.185348,9252.574275
1084.279443,766.095498,-74.020594,9400.615463
1084.279759,689.485948,518.144159,9474.636058
1084.280075,612.876398,1036.288319,9104.533087
1084.280391,766.095498,888.247130,9400.615463
1084.280706,766.095498,666.185348,9622.677246
1084.281022,766.095498,1332.370696,9474.636058
1084.281338,153.219100,-0.000000,9178.553681
1084.281654,689.485948,370.102971,9326.594869
1084.281969,306.438199,296.082377,9918.759623
1084.282285,0.000000,222.061783,9992.780217
1084.282601,-306.438199,-0.000000,10140.821405
1084.282917,0.000000,-370.102971,10436.903782
1084.283232,0.000000,-0.000000,10140.821405
1084.283548,459.657299,444.123565,9770.718434
1084.283864,536.266849,592.164754,9252.574275
1084.284179,612.876398,814.226536,8956.491898
1084.284495,229.828649,814.226536,9474.636058
1084.284811,459.657299,1036.288319,8956.491898
1084.285127,383.047749,666.185348,9326.594869
1084.285442,536.266849,296.082377,9696.697840
1084.285758,383.047749,222.061783,9548.656652
1084.286074,-306.438199,296.082377,10066.800811
1084.286390,-536.266849,148.041188,9548.656652
1084.286705,-306.438199,-370.102971,9696.697840
1084.287021,-842.705048,-0.000000,10066.800811
1084.287337,-766.095498,-0.000000,9918.759623
1084.287653,0.000000,-296.082377,9622.677246
1084.287968,0.000000,-0.000000,9696.697840
1084.288284,306.438199,-296.082377,9474.636058
1084.288600,766.095498,-296.082377,9252.574275
1084.288916,842.705048,-222.061783,9474.636058
1084.289231,612.876398,-0.000000,9326.594869
1084.289547,689.485948,-148.041188,8808.450710
1084.289863,766.095498,444.123565,9178.553681
1084.290179,842.705048,370.102971,9252.574275
1084.290494,1225.752797,592.164754,8882.471304
1084.290810,689.485948,222.061783,8734.430116
1084.291126,612.876398,-0.000000,8956.491898
1084.291442,229.828649,-296.082377,9178.553681
1084.291757,76.609550,-1184.329507,9474.636058
1084.292073,-153.219100,-1332.370696,10436.903782
1084.292389,536.266849,-1628.453072,10881.027347
1084.292705,0.000000,-814.226536,9696.697840
1084.293020,306.438199,-444.123565,9622.677246
1084.293336,766.095498,-888.247130,9770.718434
1084.293652,1072.533697,-444.123565,9474.636058
1084.293968,766.095498,-74.020594,9474.636058
1084.294283,1532.190996,222.061783,8956.491898
1084.294599,1532.190996,-0.000000,9252.574275
1084.294915,1302.362347,-222.061783,8882.471304
1084.295231,1149.143247,-0.000000,8586.388927
1084.295546,1149.143247,-296.082377,9178.553681
1084.295862,536.266849,-518.144159,9252.574275
1084.296178,153.219100,-814.226536,9548.656652
1084.296494,-536.266849,-1480.411884,9770.718434
1084.296809,-459.657299,-1850.514855,10881.027347
1084.297125,-459.657299,-1628.453072,10732.986159
1084.297441,-229.828649,-962.267725,9770.718434
1084.297757,0.000000,-962.267725,9844.739029
1084.298072,306.438199,-1332.370696,9548.656652
1084.298388,766.095498,-444.123565,8882.471304
1084.298704,689.485948,-222.061783,9104.533087
1084.299019,612.876398,-148.041188,9548.656652
1084.299335,459.657299,-666.185348,9474.636058
1084.299651,689.485948,-222.061783,9030.512492
1084.299967,536.266849,-296.082377,9252.574275
1084.300282,-229.828649,-444.123565,9252.574275
1084.300598,383.047749,-370.102971,9474.636058
1084.300914,383.047749,-444.123565,9400.615463
1084.301230,0.000000,-592.164754,9474.636058
1084.301545,306.438199,-518.144159,9844.739029
1084.301861,306.438199,-1110.308913,10140.821405
1084.302177,383.047749,-370.102971,9918.759623
1084.302493,0.000000,-592.164754,9252.574275
1084.302808,766.095498,-296.082377,9178.553681
1084.303124,612.876398,-148.041188,9474.636058
1084.303440,459.657299,296.082377,9326.594869
1084.303756,919.314598,518.144159,9252.574275
1084.304071,612.876398,592.164754,9400.615463
1084.304387,842.705048,666.185348,9178.553681
1084.304703,995.924147,518.144159,9252.574275
1084.305019,842.705048,148.041188,8956.491898
1084.305334,536.266849,-222.061783,9030.512492
1084.305650,-153.219100,-0.000000,9844.739029
1084.305966,-229.828649,-0.000000,9844.739029
1084.306282,153.219100,-444.123565,9918.759623
1084.306597,229.828649,-666.185348,10362.883188
1084.306913,0.000000,-148.041188,10066.800811
1084.307229,536.266849,-74.020594,9844.739029
1084.307545,689.485948,222.061783,9252.574275
1084.307860,919.314598,888.247130,9178.553681
1084.308176,1072.533697,814.226536,9030.512492
1084.308492,995.924147,888.247130,9252.574275
1084.308808,689.485948,740.205942,9178.553681
1084.309123,459.657299,740.205942,9400.615463
1084.309439,383.047749,222.061783,9474.636058
1084.309755,0.000000,-370.102971,9844.739029
1084.310071,0.000000,-296.082377,9548.656652
1084.310386,-229.828649,-518.144159,9918.759623
1084.310702,-919.314598,-888.247130,10288.862594
1084.311018,-153.219100,-962.267725,10658.965565
1084.311334,0.000000,-814.226536,9844.739029
1084.311649,-153.219100,-222.061783,9622.677246
1084.311965,229.828649,-0.000000,9474.636058
1084.312281,766.095498,-0.000000,8956.491898
1084.312597,766.095498,222.061783,8882.471304
1084.312912,842.705048,-148.041188,9252.574275
1084.313228,689.485948,-74.020594,9252.574275
1084.313544,1149.143247,-0.000000,9178.553681
1084.313860,689.485948,444.123565,9178.553681
1084.314175,612.876398,-0.000000,9844.739029
1084.314491,1072.533697,-592.164754,9474.636058
1084.314807,536.266849,-148.041188,9104.533087
1084.315122,153.219100,-148.041188,9326.594869
1084.315438,229.828649,-666.185348,10214.842000
1084.315754,306.438199,-1036.288319,10288.862594
1084.316070,459.657299,-444.123565,9696.697840
1084.316385,229.828649,-370.102971,9548.656652
1084.316701,536.266849,-666.185348,9104.533087
1084.317017,766.095498,-444.123565,9474.636058
1084.317333,766.095498,-518.144159,8956.491898
1084.317648,459.657299,-0.000000,9178.553681
1084.317964,612.876398,-740.205942,9326.594869
1084.318280,1149.143247,-296.082377,9474.636058
1084.318596,1302.362347,-296.082377,9548.656652
1084.318911,689.485948,-148.041188,9474.636058
1084.319227,612.876398,-518.144159,8956.491898
1084.319543,536.266849,-814.226536,9326.594869
1084.319859,229.828649,-814.226536,9696.697840
1084.320174,0.000000,-888.247130,9770.718434
1084.320490,306.438199,-1258.350101,9844.739029
1084.320806,919.314598,-1258.350101,9696.697840
1084.321122,766.095498,-740.205942,8956.491898
1084.321437,766.095498,-1258.350101,9400.615463
1084.321753,689.485948,-1332.370696,9474.636058
1084.322069,766.095498,-592.164754,9474.636058
1084.322385,612.876398,-222.061783,8956.491898
1084.322700,383.047749,-296.082377,8882.471304
1084.323016,689.485948,-222.061783,9326.594869
1084.323332,536.266849,-74.020594,9178.553681
1084.323648,306.438199,-0.000000,8882.471304
1084.323963,306.438199,-1036.288319,9178.553681
1084.324279,0.000000,-814.226536,9474.636058
1084.324595,0.000000,-962.267725,9474.636058
1084.324911,153.219100,-1110.308913,10214.842000
1084.325226,76.609550,-592.164754,9992.780217
1084.325542,153.219100,-518.144159,9622.677246
1084.325858,383.047749,-148.041188,9252.574275
1084.326174,919.314598,-0.000000,9400.615463
1084.326489,995.924147,222.061783,8586.388927
1084.326805,1072.533697,370.102971,8438.347739
1084.327121,1072.533697,296.082377,9178.553681
1084.327437,612.876398,296.082377,9178.553681
1084.327752,919.314598,814.226536,9252.574275
1084.328068,689.485948,740.205942,9474.636058
1084.328384,459.657299,518.144159,9400.615463
1084.328700,229.828649,370.102971,9400.615463
1084.329015,153.219100,222.061783,9548.656652
1084.329331,0.000000,148.041188,9918.759623
1084.329647,-306.438199,-222.061783,10658.965565
1084.329963,459.657299,-0.000000,10436.903782
1084.330278,153.219100,-74.020594,9844.739029
1084.330594,76.609550,444.123565,9400.615463
1084.330910,536.266849,740.205942,9178.553681
1084.331225,919.314598,666.185348,9474.636058
1084.331541,612.876398,740.205942,9178.553681
1084.331857,76.609550,888.247130,9326.594869
1084.332173,459.657299,518.144159,9548.656652
1084.332488,153.219100,444.123565,9696.697840
1084.332804,229.828649,592.164754,9474.636058
1084.333120,306.438199,148.041188,9918.759623
1084.333436,229.828649,-222.061783,9918.759623
1084.333751,-459.657299,-370.102971,9918.759623
1084.334067,-842.705048,-296.082377,10066.800811
1084.334383,-612.876398,-1036.288319,10510.924376
1084.334699,-383.047749,-1036.288319,9992.780217
1084.335014,76.609550,-74.020594,10436.903782
1084.335330,306.438199,-0.000000,9474.636058
1084.335646,383.047749,-0.000000,9252.574275
1084.335962,995.924147,-74.020594,9326.594869
1084.336277,766.095498,148.041188,8956.491898
1084.336593,459.657299,296.082377,9400.615463
1084.336909,689.485948,-148.041188,9474.636058
1084.337225,842.705048,-0.000000,9770.718434
1084.337540,842.705048,148.041188,9474.636058
1084.337856,842.705048,222.061783,9030.512492
1084.338172,612.876398,-0.000000,9030.512492
1084.338488,153.219100,-222.061783,9474.636058
1084.338803,153.219100,-148.041188,9622.677246
1084.339119,383.047749,-740.205942,9992.780217
1084.339435,536.266849,-814.226536,10732.986159
1084.339751,383.047749,-814.226536,9918.759623
1084.340066,229.828649,-888.247130,9400.615463
1084.340382,612.876398,-518.144159,9252.574275
1084.340698,919.314598,-592.164754,9474.636058
1084.341014,612.876398,-0.000000,8882.471304
1084.341329,766.095498,-0.000000,9326.594869
1084.341645,536.266849,-0.000000,8956.491898
1084.341961,689.485948,-0.000000,9178.553681
1084.342277,766.095498,-0.000000,8438.347739
1084.342592,612.876398,-666.185348,8882.471304
1084.342908,76.609550,-1110.308913,9400.615463
1084.343224,0.000000,-1184.329507,9104.533087
1084.343540,76.609550,-1332.370696,9326.594869
1084.343855,153.219100,-1998.556043,10140.821405
1084.344171,459.657299,-1776.494261,10066.800811
1084.344487,306.438199,-740.205942,9696.697840
1084.344803,306.438199,-370.102971,8882.471304
1084.345118,1149.143247,-444.123565,8734.430116
1084.345434,1378.971896,-0.000000,8660.409521
1084.345750,612.876398,148.041188,8586.388927
1084.346065,459.657299,-0.000000,8660.409521
1084.346381,612.876398,-222.061783,9548.656652
1084.346697,612.876398,-518.144159,9104.533087
1084.347013,306.438199,-0.000000,9400.615463
1084.347328,-229.828649,-888.247130,9474.636058
1084.347644,-306.438199,-962.267725,9622.677246
1084.347960,-383.047749,-740.205942,9548.656652
1084.348276,-153.219100,-740.205942,10066.800811
1084.348591,0.000000,-814.226536,10436.903782
1084.348907,76.609550,-296.082377,9918.759623
1084.349223,689.485948,-0.000000,9252.574275
1084.349539,919.314598,-0.000000,9030.512492
1084.349854,1225.752797,222.061783,8364.327145
1084.350170,1532.190996,814.226536,8290.306550
1084.350486,1455.581446,592.164754,8734.430116
1084.350802,689.485948,370.102971,9400.615463
1084.351117,689.485948,666.185348,9474.636058
1084.351433,536.266849,814.226536,9474.636058
1084.351749,153.219100,592.164754,9400.615463
1084.352065,-459.657299,222.061783,9400.615463
1084.352380,76.609550,-0.000000,9918.759623
1084.352696,-459.657299,-296.082377,9918.759623
1084.353012,-229.828649,-518.144159,10807.006753
1084.353328,-612.876398,-592.164754,10732.986159
1084.353643,-229.828649,-296.082377,10658.965565
1084.353959,-229.828649,222.061783,10362.883188
1084.354275,995.924147,666.185348,9770.718434
1084.354591,842.705048,888.247130,9474.636058
1084.354906,689.485948,1184.329507,8956.491898
1084.355222,612.876398,962.267725,8882.471304
1084.355538,766.095498,666.185348,9548.656652
1084.355854,919.314598,370.102971,9770.718434
1084.356169,842.705048,888.247130,9326.594869
1084.356485,229.828649,592.164754,9252.574275
1084.356801,153.219100,-0.000000,9770.718434
1084.357117,-153.219100,-296.082377,10140.821405
1084.357432,-536.266849,-518.144159,10288.862594
1084.357748,-1225.752797,-814.226536,10362.883188
1084.358064,-612.876398,-1110.308913,10510.924376
1084.358380,0.000000,-814.226536,10510.924376
1084.358695,-383.047749,-888.247130,9696.697840
1084.359011,0.000000,-740.205942,9474.636058
1084.359327,612.876398,-148.041188,9474.636058
1084.359643,842.705048,-0.000000,8290.306550
1084.359958,919.314598,444.123565,8512.368333
1084.360274,842.705048,-0.000000,8808.450710
1084.360590,919.314598,-0.000000,9252.574275
1084.360906,1072.533697,-74.020594,8882.471304
1084.361221,1225.752797,-148.041188,8808.450710
1084.361537,689.485948,-296.082377,9178.553681
1084.361853,153.219100,-962.267725,9178.553681
1084.362168,459.657299,-592.164754,9474.636058
1084.362484,0.000000,-592.164754,9326.594869
1084.362800,383.047749,-888.247130,9770.718434
1084.363116,536.266849,-814.226536,9770.718434
1084.363431,536.266849,-1184.329507,9474.636058
1084.363747,612.876398,-592.164754,9178.553681
1084.364063,1225.752797,-666.185348,9252.574275
1084.364379,1685.410096,-0.000000,8734.430116
1084.364694,1225.752797,592.164754,8586.388927
1084.365010,995.924147,296.082377,9326.594869
1084.365326,1762.019645,-222.061783,9178.553681
1084.365642,1072.533697,-222.061783,9622.677246
1084.365957,995.924147,-296.082377,8734.430116
1084.366273,842.705048,-518.144159,9178.553681
1084.366589,842.705048,-962.267725,9622.677246
1084.366905,153.219100,-1184.329507,9474.636058
1084.367220,76.609550,-518.144159,9992.780217
1084.367536,459.657299,-1110.308913,10066.800811
1084.367852,383.047749,-814.226536,9992.780217
1084.368168,153.219100,-962.267725,9622.677246
1084.368483,536.266849,-1110.308913,9696.697840
1084.368799,1072.533697,-148.041188,9178.553681
1084.369115,1149.143247,-0.000000,8734.430116
1084.369431,1455.581446,444.123565,8808.450710
1084.369746,612.876398,-0.000000,9474.636058
1084.370062,536.266849,-148.041188,9104.533087
1084.370378,689.485948,148.041188,9326.594869
1084.370694,0.000000,-74.020594,9474.636058
1084.371009,459.657299,-370.102971,9696.697840
1084.371325,-229.828649,-814.226536,9844.739029
1084.371641,0.000000,-518.144159,9770.718434
1084.371957,-383.047749,-592.164754,10066.800811
1084.372272,-153.219100,-666.185348,10214.842000
1084.372588,153.219100,-222.061783,10214.842000
1084.372904,0.000000,-222.061783,9622.677246
1084.373220,306.438199,-0.000000,9474.636058
1084.373535,995.924147,592.164754,8956.491898
1084.373851,689.485948,740.205942,8734.430116
1084.374167,536.266849,666.185348,8956.491898
1084.374483,536.266849,666.185348,9252.574275
1084.374798,536.266849,370.102971,9548.656652
1084.375114,919.314598,1036.288319,9326.594869
1084.375430,306.438199,1036.288319,8882.471304
1084.375746,459.657299,370.102971,9400.615463
1084.376061,153.219100,-74.020594,9696.697840
1084.376377,-229.828649,-148.041188,9770.718434
1084.376693,-383.047749,-148.041188,10362.883188
1084.377008,-306.438199,-148.041188,10510.924376
1084.377324,0.000000,-148.041188,9844.739029
1084.377640,0.000000,518.144159,9918.759623
1084.377956,229.828649,222.061783,9400.615463
1084.378271,612.876398,814.226536,8882.471304
1084.378587,842.705048,888.247130,9178.553681
1084.378903,1072.533697,518.144159,8956.491898
1084.379219,842.705048,888.247130,9326.594869
1084.379535,459.657299,1110.308913,9030.512492
1084.379851,536.266849,740.205942,8956.491898
1084.380166,0.000000,444.123565,9252.574275
1084.380482,229.828649,-592.164754,9844.739029
1084.380798,-689.485948,-518.144159,10066.800811
1084.381114,-536.266849,-814.226536,10288.862594
1084.381430,-689.485948,-888.247130,10881.027347
1084.381746,-612.876398,-888.247130,10436.903782
1084.382061,0.000000,-1110.308913,9992.780217
1084.382377,229.828649,-222.061783,9622.677246
1084.382693,612.876398,-74.020594,9474.636058
1084.383009,995.924147,-0.000000,8808.450710
1084.383325,1072.533697,-148.041188,8808.450710
1084.383641,919.314598,296.082377,8586.388927
1084.383956,842.705048,-74.020594,9474.636058
1084.384272,995.924147,-296.082377,9400.615463
1084.384588,1149.143247,-0.000000,8882.471304
1084.384904,995.924147,-148.041188,9178.553681
1084.385220,842.705048,-518.144159,9548.656652
1084.385536,766.095498,-666.185348,9178.553681
1084.385851,612.876398,-1036.288319,9622.677246
1084.386167,306.438199,-962.267725,10214.842000
1084.386483,842.705048,-1628.453072,10140.821405
1084.386799,766.095498,-740.205942,9696.697840
1084.387115,766.095498,-370.102971,9104.533087
1084.387431,1225.752797,-444.123565,9326.594869
1084.387746,1608.800546,-296.082377,8586.388927
1084.388062,1455.581446,-148.041188,8882.471304
1084.388378,1225.752797,-222.061783,8660.409521
1084.388694,1149.143247,-222.061783,9104.533087
1084.389010,1455.581446,-370.102971,9400.615463
1084.389326,1072.533697,-222.061783,9400.615463
1084.389641,383.047749,-444.123565,9400.615463
1084.389957,306.438199,-814.226536,9474.636058
1084.390273,459.657299,-888.247130,9548.656652
1084.390589,0.000000,-962.267725,9844.739029
1084.390905,0.000000,-1406.391290,10214.842000
1084.391221,-76.609550,-1554.432478,10510.924376
1084.391536,0.000000,-1332.370696,9918.759623
1084.391852,306.438199,-888.247130,9696.697840
1084.392168,459.657299,-740.205942,9252.574275
1084.392484,1302.362347,-296.082377,8956.491898
1084.392800,1149.143247,-0.000000,8956.491898
1084.393116,612.876398,370.102971,8660.409521
1084.393431,766.095498,-0.000000,9178.553681
1084.393747,612.876398,-518.144159,9400.615463
1084.394063,536.266849,-740.205942,9400.615463
1084.394379,0.000000,-518.144159,9030.512492
1084.394695,0.000000,-1184.329507,9474.636058
1084.395011,0.000000,-1110.308913,10140.821405
1084.395326,-383.047749,-1332.370696,10140.821405
1084.395642,-766.095498,-1110.308913,10510.924376
1084.395958,0.000000,-888.247130,10436.903782
1084.396274,383.047749,-518.144159,9918.759623
1084.396590,536.266849,-0.000000,9178.553681
1084.396906,689.485948,518.144159,8660.409521
1084.397221,842.705048,1036.288319,8660.409521
1084.397537,1072.533697,1480.411884,8068.244768
1084.397853,919.314598,888.247130,8290.306550
1084.398169,459.657299,666.185348,9252.574275
1084.398485,612.876398,740.205942,9474.636058
1084.398801,459.657299,740.205942,8956.491898
1084.399116,0.000000,148.041188,9252.574275
1084.399432,-229.828649,-148.041188,9622.677246
1084.399748,-536.266849,-518.144159,9548.656652
1084.400064,-995.924147,-74.020594,10066.800811
1084.400380,-766.095498,-296.082377,10732.986159
1084.400696,0.000000,148.041188,10214.842000
1084.401011,0.000000,592.164754,9548.656652
1084.401327,153.219100,814.226536,9252.574275
1084.401643,0.000000,518.144159,9178.553681
1084.401959,1149.143247,888.247130,8660.409521
1084.402275,995.924147,1110.308913,8734.430116
1084.402591,919.314598,1110.308913,9178.553681
1084.402906,612.876398,962.267725,9474.636058
1084.403222,153.219100,962.267725,9474.636058
1084.403538,0.000000,962.267725,9474.636058
1084.403854,76.609550,296.082377,9844.739029
1084.404170,0.000000,-0.000000,9622.677246
1084.404486,0.000000,-74.020594,10436.903782
1084.404801,-842.705048,-814.226536,10288.862594
1084.405117,-612.876398,-1036.288319,10362.883188
1084.405433,0.000000,-1110.308913,10214.842000
1084.405749,76.609550,-888.247130,10140.821405
1084.406065,536.266849,-518.144159,9548.656652
1084.406381,689.485948,-148.041188,9770.718434
1084.406696,919.314598,-0.000000,9326.594869
1084.407012,1149.143247,666.185348,8512.368333
1084.407328,1225.752797,592.164754,8364.327145
1084.407644,995.924147,444.123565,9104.533087
1084.407960,1149.143247,-296.082377,9474.636058
1084.408276,919.314598,-296.082377,9400.615463
1084.408591,842.705048,-444.123565,9622.677246
1084.408907,153.219100,-962.267725,9400.615463
1084.409223,76.609550,-814.226536,9252.574275
1084.409539,0.000000,-1258.350101,9992.780217
1084.409855,229.828649,-1554.432478,10658.965565
1084.410171,536.266849,-1258.350101,10658.965565
1084.410487,842.705048,-592.164754,9844.739029
1084.410802,1149.143247,-148.041188,9400.615463
1084.411118,1685.410096,148.041188,8512.368333
1084.411434,1915.238745,444.123565,8290.306550
1084.411750,1762.019645,518.144159,8364.327145
1084.412066,919.314598,-0.000000,9104.533087
1084.412382,919.314598,-592.164754,9474.636058
1084.412697,1532.190996,-296.082377,9400.615463
1084.413013,383.047749,-370.102971,9474.636058
1084.413329,459.657299,-666.185348,9178.553681
1084.413645,229.828649,-814.226536,9474.636058
1084.413961,0.000000,-1036.288319,10066.800811
1084.414277,-306.438199,-1258.350101,9918.759623
1084.414592,-306.438199,-1628.453072,10362.883188
1084.414908,0.000000,-1702.473667,10214.842000
1084.415224,383.047749,-1480.411884,9474.636058
1084.415540,766.095498,-1258.350101,9178.553681
1084.415856,842.705048,-888.247130,8808.450710
1084.416172,1149.143247,-222.061783,8438.347739
1084.416487,842.705048,222.061783,8586.388927
1084.416803,536.266849,-0.000000,8364.327145
1084.417119,612.876398,-666.185348,9104.533087
1084.417435,306.438199,-814.226536,9326.594869
1084.417751,0.000000,-296.082377,9030.512492
1084.418067,-306.438199,-1184.329507,9474.636058
1084.418382,-306.438199,-1776.494261,9696.697840
1084.418698,-536.266849,-1480.411884,9548.656652
1084.419014,-766.095498,-1036.288319,9474.636058
1084.419330,-842.705048,-1406.391290,10288.862594
1084.419646,-229.828649,-1184.329507,9992.780217
1084.419962,229.828649,-592.164754,9474.636058
1084.420277,766.095498,-592.164754,9548.656652
1084.420593,766.095498,148.041188,8660.409521
1084.420909,1225.752797,666.185348,8438.347739
1084.421225,1072.533697,1258.350101,7846.182985
1084.421541,1225.752797,1184.329507,8734.430116
1084.421857,1302.362347,814.226536,8882.471304
1084.422172,766.095498,1332.370696,8586.388927
1084.422488,459.657299,1110.308913,9252.574275
1084.422804,306.438199,-0.000000,9474.636058
1084.423120,0.000000,-74.020594,9474.636058
1084.423436,0.000000,-370.102971,10140.821405
1084.423752,-153.219100,-0.000000,10066.800811
1084.424067,-306.438199,-148.041188,10955.047942
1084.424383,0.000000,222.061783,10436.903782
1084.424699,383.047749,666.185348,9474.636058
1084.425015,919.314598,814.226536,9104.533087
1084.425331,1225.752797,888.247130,9178.553681
1084.425647,1302.362347,1110.308913,8882.471304
1084.425962,766.095498,1406.391290,8586.388927
1084.426278,919.314598,1036.288319,9622.677246
1084.426594,995.924147,444.123565,9844.739029
1084.426910,766.095498,1258.350101,9696.697840
1084.427226,229.828649,1184.329507,9326.594869
1084.427542,-383.047749,296.082377,9474.636058
1084.427857,-229.828649,-370.102971,10436.903782
1084.428173,-766.095498,-1184.329507,10807.006753
1084.428489,-842.705048,-296.082377,10732.986159
1084.428805,-766.095498,-740.205942,10807.006753
1084.429121,-689.485948,-518.144159,10807.006753
1084.429437,153.219100,-296.082377,10362.883188
1084.429752,306.438199,-0.000000,9918.759623
1084.430068,459.657299,370.102971,9252.574275
1084.430384,689.485948,370.102971,9030.512492
1084.430700,383.047749,222.061783,9474.636058
1084.431016,612.876398,370.102971,9474.636058
1084.431332,995.924147,888.247130,9178.553681
1084.431647,766.095498,518.144159,9104.533087
1084.431963,842.705048,-0.000000,9252.574275
1084.432279,536.266849,-592.164754,9474.636058
1084.432595,459.657299,-1110.308913,9696.697840
1084.432911,0.000000,-1258.350101,9918.759623
1084.433227,0.000000,-1702.473667,10288.862594
1084.433542,0.000000,-1554.432478,10584.944971
1084.433858,766.095498,-1332.370696,10066.800811
1084.434174,919.314598,-592.164754,9400.615463
1084.434490,1378.971896,-444.123565,8734.430116
1084.434806,1608.800546,-0.000000,8512.368333
1084.435122,1762.019645,-0.000000,8216.285956
1084.435437,1685.410096,296.082377,8438.347739
1084.435753,1225.752797,-296.082377,8660.409521
1084.436069,1455.581446,-74.020594,8808.450710
1084.436385,1149.143247,-0.000000,9030.512492
1084.436701,766.095498,-296.082377,8882.471304
1084.437017,612.876398,-888.247130,9178.553681
1084.437332,459.657299,-1702.473667,9622.677246
1084.437648,-306.438199,-1628.453072,9770.718434
1084.437964,-306.438199,-2220.617826,10288.862594
1084.438280,-153.219100,-2368.659014,10362.883188
1084.438596,0.000000,-1776.494261,10066.800811
1084.438912,0.000000,-1258.350101,9622.677246
1084.439227,766.095498,-592.164754,8956.491898
1084.439543,1072.533697,-296.082377,8512.368333
1084.439859,1532.190996,-222.061783,8068.244768
1084.440175,766.095498,-0.000000,8438.347739
1084.440491,1149.143247,-518.144159,8438.347739
1084.440807,995.924147,-592.164754,9252.574275
1084.441122,842.705048,-592.164754,9178.553681
1084.441438,229.828649,-740.205942,9178.553681
1084.441754,153.219100,-666.185348,9178.553681
1084.442070,0.000000,-1036.288319,9252.574275
1084.442386,-229.828649,-1480.411884,9918.759623
1084.442702,-536.266849,-1628.453072,10066.800811
1084.443017,-229.828649,-1480.411884,10140.821405
1084.443333,0.000000,-1258.350101,9696.697840
1084.443649,306.438199,-962.267725,9548.656652
1084.443965,306.438199,-370.102971,9104.533087
1084.444281,842.705048,-0.000000,9030.512492
1084.444597,1072.533697,666.185348,8734.430116
1084.444912,919.314598,1184.329507,8512.368333
1084.445228,1072.533697,1258.350101,9030.512492
1084.445544,1302.362347,1110.308913,9326.594869
1084.445860,766.095498,1332.370696,8734.430116
1084.446176,689.485948,1110.308913,9104.533087
1084.446492,842.705048,-296.082377,9992.780217
1084.446807,153.219100,-0.000000,10066.800811
1084.447123,-536.266849,518.144159,9400.615463
1084.447439,-383.047749,-148.041188,10436.903782
1084.447755,0.000000,-0.000000,10732.986159
1084.448071,-153.219100,370.102971,10510.924376
1084.448387,229.828649,814.226536,9696.697840
1084.448702,383.047749,666.185348,9622.677246
1084.449018,459.657299,814.226536,9474.636058
1084.449334,689.485948,1258.350101,9252.574275
1084.449650,229.828649,1110.308913,9400.615463
1084.449966,383.047749,1036.288319,9400.615463
1084.450282,0.000000,740.205942,9696.697840
1084.450597,-306.438199,1258.350101,9474.636058
1084.450913,-229.828649,888.247130,9696.697840
1084.451229,-689.485948,-0.000000,9992.780217
1084.451545,-995.924147,-444.123565,10066.800811
1084.451861,-995.924147,-740.205942,10584.944971
1084.452177,-1149.143247,-962.267725,10362.883188
1084.452492,-995.924147,-962.267725,11177.109724
1084.452808,-459.657299,-666.185348,10288.862594
1084.453124,-153.219100,-0.000000,9548.656652
1084.453440,306.438199,296.082377,9474.636058
1084.453756,766.095498,-0.000000,9030.512492
1084.454072,1225.752797,444.123565,8660.409521
1084.454387,1072.533697,296.082377,8808.450710
1084.454703,1072.533697,-0.000000,8586.388927
1084.455019,1149.143247,-0.000000,9104.533087
1084.455335,995.924147,-74.020594,9178.553681
1084.455651,612.876398,-148.041188,8586.388927
1084.455967,383.047749,-444.123565,9252.574275
1084.456283,153.219100,-962.267725,9770.718434
1084.456598,76.609550,-1184.329507,9400.615463
1084.456914,-306.438199,-1110.308913,9474.636058
1084.457230,229.828649,-1702.473667,10362.883188
1084.457546,766.095498,-1480.411884,10140.821405
1084.457862,1302.362347,-1110.308913,9474.636058
1084.458178,1302.362347,-888.247130,8808.450710
1084.458493,2298.286494,-814.226536,9400.615463
1084.458809,2681.334243,-0.000000,8438.347739
1084.459125,2068.457845,296.082377,7920.203579
1084.459441,1838.629195,592.164754,9030.512492
1084.459757,2374.896044,222.061783,9252.574275
1084.460073,1762.019645,296.082377,8438.347739
1084.460388,1302.362347,-148.041188,8808.450710
1084.460704,1072.533697,-814.226536,9400.615463
1084.461020,842.705048,-962.267725,9696.697840
1084.461336,229.828649,-1258.350101,9770.718434
1084.461652,-459.657299,-1776.494261,10807.006753
1084.461968,76.609550,-1998.556043,10807.006753
1084.462283,0.000000,-1776.494261,10288.862594
1084.462599,612.876398,-1258.350101,9622.677246
1084.462915,229.828649,-1554.432478,9844.739029
1084.463231,1302.362347,-740.205942,9252.574275
1084.463547,1225.752797,-148.041188,8660.409521
1084.463863,919.314598,-148.041188,8512.368333
1084.464178,919.314598,-222.061783,8882.471304
1084.464494,1225.752797,-370.102971,8882.471304
1084.464810,612.876398,-0.000000,8956.491898
1084.465126,76.609550,-444.123565,9474.636058
1084.465442,-229.828649,-1110.308913,9474.636058
1084.465758,-383.047749,-1480.411884,9770.718434
1084.466073,-995.924147,-1702.473667,10140.821405
1084.466389,-689.485948,-1480.411884,10362.883188
1084.466705,-842.705048,-1110.308913,10214.842000
1084.467021,-306.438199,-518.144159,9696.697840
1084.467337,76.609550,-222.061783,9622.677246
1084.467653,229.828649,-148.041188,9252.574275
1084.467968,842.705048,-0.000000,8660.409521
1084.468284,766.095498,740.205942,8438.347739
1084.468600,919.314598,1406.391290,8438.347739
1084.468916,1149.143247,814.226536,9104.533087
1084.469232,1072.533697,1332.370696,8956.491898
1084.469548,153.219100,1110.308913,8956.491898
1084.469863,153.219100,666.185348,9326.594869
1084.470179,229.828649,296.082377,9474.636058
1084.470495,-153.219100,-0.000000,9770.718434
1084.470811,-612.876398,-74.020594,10584.944971
1084.471127,-689.485948,-0.000000,10436.903782
1084.471443,-459.657299,296.082377,10066.800811
1084.471758,0.000000,444.123565,9992.780217
1084.472074,76.609550,740.205942,10066.800811
1084.472390,306.438199,296.082377,9474.636058
1084.472706,536.266849,296.082377,9548.656652
1084.473022,842.705048,962.267725,9178.553681
1084.473338,842.705048,1110.308913,9252.574275
1084.473653,1225.752797,1110.308913,8956.491898
1084.473969,842.705048,1406.391290,9252.574275
1084.474285,689.485948,962.267725,9474.636058
1084.474601,536.266849,592.164754,9326.594869
1084.474917,229.828649,-148.041188,9474.636058
1084.475233,0.000000,-370.102971,10140.821405
1084.475548,-689.485948,-666.185348,10214.842000
1084.475864,-306.438199,-1110.308913,10881.027347
1084.476180,0.000000,-518.144159,10955.047942
1084.476496,-229.828649,-222.061783,10140.821405
1084.476812,76.609550,-222.061783,9770.718434
1084.477128,536.266849,-0.000000,9400.615463
1084.477443,842.705048,-370.102971,9178.553681
1084.477759,1225.752797,-0.000000,9400.615463
1084.478075,995.924147,592.164754,8882.471304
1084.478391,229.828649,518.144159,9030.512492
1084.478707,1225.752797,740.205942,9178.553681
1084.479023,1149.143247,592.164754,8956.491898
1084.479338,919.314598,444.123565,8956.491898
1084.479654,766.095498,-222.061783,8808.450710
1084.479970,383.047749,-1110.308913,9770.718434
1084.480286,0.000000,-1628.453072,10584.944971
1084.480601,76.609550,-1702.473667,10288.862594
1084.480917,0.000000,-666.185348,10288.862594
1084.481233,536.266849,-444.123565,9844.739029
1084.481549,459.657299,-666.185348,8438.347739
1084.481864,1378.971896,-370.102971,9252.574275
1084.482180,1915.238745,-518.144159,8956.491898
1084.482496,1532.190996,-0.000000,8882.471304
1084.482812,1149.143247,-296.082377,8734.430116
1084.483127,1378.971896,-370.102971,8956.491898
1084.483443,1455.581446,222.061783,9104.533087
1084.483759,1378.971896,-74.020594,8882.471304
1084.484075,919.314598,-296.082377,8808.450710
1084.484390,459.657299,-1480.411884,9696.697840
1084.484706,0.000000,-1628.453072,9548.656652
1084.485022,-306.438199,-1628.453072,10140.821405
1084.485338,-383.047749,-1998.556043,10140.821405
1084.485653,0.000000,-1776.494261,10288.862594
1084.485969,0.000000,-1480.411884,10066.800811
1084.486285,76.609550,-1480.411884,9400.615463
1084.486600,612.876398,-1850.514855,9400.615463
1084.486916,459.657299,-962.267725,9178.553681
1084.487232,383.047749,-370.102971,8586.388927
1084.487548,612.876398,-592.164754,8438.347739
1084.487863,459.657299,-962.267725,9178.553681
1084.488179,766.095498,-148.041188,9252.574275
1084.488495,536.266849,-370.102971,9104.533087
1084.488811,153.219100,-814.226536,8882.471304
1084.489126,229.828649,-814.226536,9474.636058
1084.489442,-229.828649,-740.205942,9252.574275
1084.489758,-153.219100,-740.205942,9548.656652
1084.490074,-383.047749,-962.267725,10288.862594
1084.490389,0.000000,-740.205942,10288.862594
1084.490705,-536.266849,-888.247130,9770.718434
1084.491021,0.000000,-666.185348,9622.677246
1084.491337,383.047749,-148.041188,9104.533087
1084.491652,766.095498,592.164754,8882.471304
1084.491968,995.924147,740.205942,8808.450710
1084.492284,842.705048,962.267725,8660.409521
1084.492600,766.095498,814.226536,9104.533087
1084.492915,1225.752797,962.267725,9474.636058
1084.493231,383.047749,962.267725,9474.636058
1084.493547,919.314598,740.205942,9474.636058
1084.493862,612.876398,-0.000000,9548.656652
1084.494178,536.266849,444.123565,9548.656652
1084.494494,383.047749,370.102971,10436.903782
1084.494810,0.000000,74.020594,10658.965565
1084.495125,766.095498,-0.000000,10214.842000
1084.495441,612.876398,444.123565,9770.718434
1084.495757,995.924147,740.205942,9548.656652
1084.496073,1225.752797,740.205942,9326.594869
1084.496388,1225.752797,740.205942,9178.553681
1084.496704,766.095498,1480.411884,9474.636058
1084.497020,919.314598,1036.288319,9696.697840
1084.497336,766.095498,1776.494261,9326.594869
1084.497651,229.828649,814.226536,9622.677246
1084.497967,306.438199,740.205942,9696.697840
1084.498283,-306.438199,-74.020594,9622.677246
1084.498599,0.000000,-74.020594,10066.800811
1084.498914,-536.266849,-296.082377,10732.986159
1084.499230,-842.705048,-666.185348,10436.903782
1084.499546,-766.095498,-148.041188,10362.883188
1084.499861,0.000000,-74.020594,10362.883188
1084.500177,76.609550,-0.000000,9770.718434
1084.500493,229.828649,-370.102971,9474.636058
1084.500809,383.047749,-296.082377,9400.615463
1084.501124,689.485948,-222.061783,9474.636058
1084.501440,995.924147,-296.082377,9474.636058
1084.501756,919.314598,370.102971,9178.553681
1084.502072,1149.143247,666.185348,9178.553681
1084.502387,842.705048,740.205942,8956.491898
1084.502703,1225.752797,-148.041188,8734.430116
1084.503019,612.876398,-0.000000,9326.594869
1084.503335,153.219100,-296.082377,9770.718434
1084.503650,0.000000,-666.185348,9696.697840
1084.503966,-153.219100,-1036.288319,10214.842000
1084.504282,229.828649,-1332.370696,10288.862594
1084.504598,306.438199,-666.185348,9918.759623
1084.504913,459.657299,-296.082377,9548.656652
1084.505229,459.657299,-592.164754,9474.636058
1084.505545,689.485948,-444.123565,9252.574275
1084.505860,1225.752797,-370.102971,9474.636058
1084.506176,1225.752797,148.041188,8808.450710
1084.506492,1225.752797,222.061783,8660.409521
1084.506808,1838.629195,-0.000000,8734.430116
1084.507123,1608.800546,-222.061783,8734.430116
1084.507439,1072.533697,-444.123565,9030.512492
1084.507755,612.876398,-444.123565,8808.450710
1084.508071,536.266849,-666.185348,9030.512492
1084.508386,76.609550,-1110.308913,9252.574275
1084.508702,-383.047749,-1702.473667,9918.759623
1084.509018,-306.438199,-1850.514855,10436.903782
1084.509334,-459.657299,-1776.494261,9696.697840
1084.509649,-612.876398,-1702.473667,9770.718434
1084.509965,-536.266849,-1850.514855,9696.697840
1084.510281,-306.438199,-1702.473667,9474.636058
1084.510597,0.000000,-1110.308913,9104.533087
1084.510912,459.657299,-222.061783,8882.471304
1084.511228,306.438199,-370.102971,9178.553681
1084.511544,459.657299,-518.144159,9252.574275
1084.511860,842.705048,-74.020594,8882.471304
1084.512175,383.047749,-0.000000,9104.533087
1084.512491,459.657299,-666.185348,8882.471304
1084.512807,536.266849,-666.185348,9178.553681
1084.513122,-306.438199,-444.123565,9548.656652
1084.513438,76.609550,-666.185348,10066.800811
1084.513754,306.438199,-1332.370696,9992.780217
1084.514070,0.000000,-740.205942,9696.697840
1084.514385,153.219100,-0.000000,9548.656652
1084.514701,612.876398,-444.123565,9326.594869
1084.515017,995.924147,-222.061783,9474.636058
1084.515333,842.705048,370.102971,9178.553681
1084.515648,842.705048,592.164754,8956.491898
1084.515964,766.095498,592.164754,9178.553681
1084.516280,766.095498,518.144159,9474.636058
1084.516596,1302.362347,814.226536,9252.574275
1084.516911,612.876398,740.205942,9400.615463
1084.517227,689.485948,-74.020594,9400.615463
1084.517543,536.266849,-0.000000,9770.718434
1084.517859,229.828649,296.082377,9696.697840
1084.518174,306.438199,296.082377,9844.739029
1084.518490,612.876398,370.102971,9992.780217
1084.518806,612.876398,-0.000000,10066.800811
1084.519121,459.657299,518.144159,9844.739029
1084.519437,689.485948,-370.102971,9622.677246
1084.519753,1378.971896,-296.082377,9400.615463
1084.520069,995.924147,296.082377,9474.636058
1084.520384,842.705048,1036.288319,9696.697840
1084.520700,536.266849,1110.308913,9696.697840
1084.521016,689.485948,1036.288319,9548.656652
1084.521332,459.657299,1036.288319,9474.636058
1084.521647,0.000000,962.267725,9326.594869
1084.521963,-153.219100,222.061783,9622.677246
1084.522279,-689.485948,-370.102971,9474.636058
1084.522595,-842.705048,-370.102971,10066.800811
1084.522910,-1532.190996,-518.144159,10881.027347
1084.523226,-1149.143247,-814.226536,10807.006753
1084.523542,-842.705048,-0.000000,9844.739029
1084.523858,-995.924147,-222.061783,9622.677246
1084.524173,-842.705048,-740.205942,10140.821405
1084.524489,-229.828649,-592.164754,9992.780217
1084.524805,0.000000,-148.041188,9252.574275
1084.525120,229.828649,444.123565,8956.491898
1084.525436,689.485948,148.041188,9326.594869
1084.525752,306.438199,-0.000000,8956.491898
1084.526068,766.095498,296.082377,8882.471304
1084.526383,1149.143247,222.061783,8882.471304
1084.526699,1149.143247,-0.000000,9030.512492
1084.527015,842.705048,-0.000000,9178.553681
1084.527331,842.705048,-592.164754,9400.615463
1084.527646,842.705048,-74.020594,9252.574275
1084.527962,766.095498,-296.082377,9400.615463
1084.528278,612.876398,-148.041188,9474.636058
1084.528594,689.485948,-666.185348,9622.677246
1084.528909,766.095498,-1184.329507,9178.553681
1084.529225,1225.752797,-814.226536,9474.636058
1084.529541,766.095498,-962.267725,9474.636058
1084.529857,995.924147,-222.061783,9030.512492
1084.530172,842.705048,-148.041188,9252.574275
1084.530488,1149.143247,-74.020594,9918.759623
1084.530804,766.095498,-0.000000,9030.512492
1084.531120,995.924147,-0.000000,8956.491898
1084.531435,1072.533697,-666.185348,9030.512492
1084.531751,689.485948,-1110.308913,9030.512492
1084.532067,383.047749,-962.267725,9918.759623
1084.532382,306.438199,-1480.411884,9696.697840
1084.532698,536.266849,-1406.391290,9992.780217
1084.533014,612.876398,-888.247130,9474.636058
1084.533330,306.438199,-1258.350101,9326.594869
1084.533645,612.876398,-1406.391290,9844.739029
1084.533961,995.924147,-740.205942,9622.677246
1084.534277,1072.533697,-74.020594,8808.450710
1084.534593,995.924147,-74.020594,8956.491898
1084.534908,919.314598,-1110.308913,9400.615463
1084.535224,919.314598,-962.267725,9548.656652
1084.535540,1072.533697,-74.020594,8956.491898
1084.535856,612.876398,-444.123565,9178.553681
1084.536171,306.438199,-296.082377,9252.574275
1084.536487,0.000000,-148.041188,9400.615463
1084.536803,0.000000,-888.247130,9770.718434
1084.537119,-229.828649,-740.205942,10288.862594
1084.537434,-153.219100,-740.205942,9844.739029
1084.537750,229.828649,-444.123565,9844.739029
1084.538066,229.828649,-296.082377,9400.615463
1084.538381,689.485948,-1110.308913,9326.594869
1084.538697,919.314598,-296.082377,9474.636058
1084.539013,612.876398,-74.020594,9252.574275
1084.539329,689.485948,444.123565,9030.512492
1084.539644,919.314598,666.185348,9252.574275
1084.539960,1072.533697,740.205942,9474.636058
1084.540276,766.095498,888.247130,8586.388927
1084.540592,995.924147,592.164754,8808.450710
1084.540907,766.095498,-0.000000,9030.512492
1084.541223,536.266849,148.041188,9474.636058
1084.541539,383.047749,222.061783,9918.759623
1084.541855,-383.047749,-370.102971,10140.821405
1084.542170,0.000000,-592.164754,10584.944971
1084.542486,-229.828649,-74.020594,9992.780217
1084.542802,-229.828649,444.123565,9252.574275
1084.543118,153.219100,-148.041188,9918.759623
1084.543433,229.828649,-0.000000,9770.718434
1084.543749,76.609550,740.205942,9252.574275
1084.544065,153.219100,740.205942,9474.636058
1084.544380,229.828649,814.226536,9918.759623
1084.544696,536.266849,148.041188,9622.677246
1084.545012,0.000000,518.144159,9030.512492
1084.545328,-229.828649,148.041188,9252.574275
1084.545643,-306.438199,-370.102971,9770.718434
1084.545959,-919.314598,-740.205942,9770.718434
1084.546275,-995.924147,-296.082377,10066.800811
1084.546591,-1072.533697,-518.144159,10362.883188
1084.546906,-689.485948,-222.061783,10362.883188
1084.547222,-689.485948,-370.102971,9696.697840
1084.547538,-536.266849,-444.123565,9918.759623
1084.547854,153.219100,-666.185348,9770.718434
1084.548169,459.657299,-296.082377,9104.533087
1084.548485,536.266849,-148.041188,9178.553681
1084.548801,689.485948,-0.000000,8882.471304
1084.549117,1149.143247,-148.041188,9622.677246
1084.549432,1149.143247,444.123565,8512.368333
1084.549748,1149.143247,-0.000000,8882.471304
1084.550064,1455.581446,-74.020594,9474.636058
1084.550380,383.047749,-296.082377,9326.594869
1084.550695,766.095498,-296.082377,8808.450710
1084.551011,919.314598,-296.082377,9400.615463
1084.551327,689.485948,-888.247130,9844.739029
1084.551642,1072.533697,-518.144159,9844.739029
1084.551958,919.314598,-370.102971,9696.697840
1084.552274,229.828649,-888.247130,9622.677246
1084.552590,995.924147,-592.164754,9622.677246
1084.552905,1378.971896,-296.082377,9030.512492
1084.553221,1225.752797,-0.000000,8734.430116
1084.553537,766.095498,-74.020594,9326.594869
1084.553853,1149.143247,-0.000000,9474.636058
1084.554168,995.924147,-444.123565,9252.574275
1084.554484,1072.533697,-296.082377,9474.636058
1084.554800,1455.581446,-444.123565,9030.512492
1084.555116,1072.533697,-296.082377,9474.636058
1084.555431,689.485948,-518.144159,9326.594869
1084.555747,536.266849,-592.164754,9696.697840
1084.556063,842.705048,-888.247130,10140.821405
1084.556379,689.485948,-740.205942,10140.821405
1084.556694,306.438199,-740.205942,9770.718434
1084.557010,536.266849,-814.226536,9474.636058
1084.557326,766.095498,-1332.370696,9474.636058
1084.557641,1072.533697,-740.205942,9770.718434
1084.557957,919.314598,-0.000000,9474.636058
1084.558273,76.609550,-148.041188,8734.430116
1084.558589,306.438199,-370.102971,9548.656652
1084.558904,306.438199,-222.061783,9622.677246
1084.559220,-306.438199,-74.020594,9400.615463
1084.559536,-229.828649,-444.123565,9474.636058
1084.559852,0.000000,-1332.370696,9918.759623
1084.560167,-459.657299,-1184.329507,9770.718434
1084.560483,-306.438199,-666.185348,9548.656652
1084.560799,-383.047749,-740.205942,9844.739029
1084.561115,-153.219100,-740.205942,10214.842000
1084.561430,153.219100,-444.123565,9548.656652
1084.561746,229.828649,-74.020594,9400.615463
1084.562062,383.047749,-222.061783,9474.636058
1084.562378,766.095498,-0.000000,9104.533087
1084.562693,536.266849,444.123565,9030.512492
1084.563009,766.095498,1258.350101,8808.450710
1084.563325,842.705048,1110.308913,8512.368333
1084.563641,919.314598,666.185348,9104.533087
1084.563956,612.876398,296.082377,9326.594869
1084.564272,536.266849,-0.000000,9178.553681
1084.564588,0.000000,-0.000000,9326.594869
1084.564903,153.219100,-0.000000,9992.780217
1084.565219,-383.047749,-0.000000,10066.800811
1084.565535,-459.657299,148.041188,10436.903782
1084.565851,0.000000,148.041188,10140.821405
1084.566166,0.000000,296.082377,9696.697840
1084.566482,0.000000,-0.000000,9622.677246
1084.566798,689.485948,148.041188,9252.574275
1084.567114,536.266849,740.205942,9696.697840
1084.567429,689.485948,962.267725,9326.594869
1084.567745,536.266849,1184.329507,9326.594869
1084.568061,612.876398,740.205942,9474.636058
1084.568377,383.047749,518.144159,9252.574275
1084.568692,306.438199,592.164754,9030.512492
1084.569008,153.219100,222.061783,9326.594869
1084.569324,0.000000,-148.041188,9770.718434
1084.569640,0.000000,-370.102971,9918.759623
1084.569955,-153.219100,-962.267725,10362.883188
1084.570271,-306.438199,-1110.308913,10288.862594
1084.570587,-536.266849,-814.226536,10140.821405
1084.570902,-536.266849,-592.164754,9696.697840
1084.571218,0.000000,-814.226536,9696.697840
1084.571534,76.609550,-814.226536,9622.677246
1084.571850,306.438199,-296.082377,9030.512492
1084.572165,383.047749,-0.000000,9030.512492
1084.572481,689.485948,-370.102971,8734.430116
1084.572797,536.266849,-74.020594,9104.533087
1084.573113,995.924147,148.041188,9104.533087
1084.573428,1838.629195,148.041188,9030.512492
1084.573744,1149.143247,370.102971,8734.430116
1084.574060,766.095498,-370.102971,9104.533087
1084.574376,536.266849,-592.164754,9474.636058
1084.574691,1072.533697,-1258.350101,9770.718434
1084.575007,383.047749,-962.267725,10362.883188
1084.575323,612.876398,-740.205942,9844.739029
1084.575639,459.657299,-74.020594,9326.594869
1084.575954,919.314598,-74.020594,9474.636058
1084.576270,1378.971896,-0.000000,9474.636058
1084.576586,1225.752797,814.226536,8956.491898
1084.576901,1455.581446,962.267725,8734.430116
1084.577217,995.924147,296.082377,9474.636058
1084.577533,1455.581446,-0.000000,9696.697840
1084.577849,1149.143247,-74.020594,9178.553681
1084.578164,842.705048,-222.061783,8808.450710
1084.578480,536.266849,-888.247130,9696.697840
1084.578796,536.266849,-1036.288319,9622.677246
1084.579112,0.000000,-1184.329507,9770.718434
1084.579427,0.000000,-1406.391290,10881.027347
1084.579743,0.000000,-888.247130,10584.944971
1084.580059,383.047749,-888.247130,9918.759623
1084.580375,76.609550,-592.164754,9696.697840
1084.580690,153.219100,-592.164754,9696.697840
1084.581006,995.924147,-444.123565,9030.512492
1084.581322,995.924147,-0.000000,8808.450710
1084.581638,229.828649,-666.185348,9104.533087
1084.581953,153.219100,-1110.308913,9696.697840
1084.582269,153.219100,-888.247130,9474.636058
1084.582585,306.438199,-814.226536,9844.739029
1084.582901,229.828649,-518.144159,9622.677246
1084.583216,76.609550,-740.205942,9474.636058
1084.583532,0.000000,-518.144159,9252.574275
1084.583848,76.609550,-148.041188,9252.574275
1084.584164,153.219100,-518.144159,9918.759623
1084.584480,229.828649,-592.164754,9548.656652
1084.584795,76.609550,-296.082377,9400.615463
1084.585111,459.657299,-740.205942,9622.677246
1084.585427,153.219100,-666.185348,9400.615463
1084.585743,842.705048,-0.000000,9030.512492
1084.586058,842.705048,740.205942,8586.388927
1084.586374,766.095498,962.267725,8512.368333
1084.586690,1072.533697,888.247130,8956.491898
1084.587006,995.924147,888.247130,9030.512492
1084.587321,995.924147,814.226536,8956.491898
1084.587637,689.485948,962.267725,8734.430116
1084.587953,306.438199,-296.082377,9104.533087
1084.588269,0.000000,-148.041188,9548.656652
1084.588584,0.000000,222.061783,9844.739029
1084.588900,-612.876398,222.061783,9844.739029
1084.589216,0.000000,148.041188,10140.821405
1084.589532,-76.609550,148.041188,9770.718434
1084.589848,153.219100,444.123565,9622.677246
1084.590163,76.609550,592.164754,9474.636058
1084.590479,689.485948,222.061783,9474.636058
1084.590795,842.705048,1036.288319,9252.574275
1084.591111,229.828649,592.164754,9104.533087
1084.591426,306.438199,740.205942,9770.718434
1084.591742,536.266849,814.226536,9548.656652
1084.592058,383.047749,1036.288319,9252.574275
1084.592374,0.000000,666.185348,9474.636058
1084.592689,0.000000,-296.082377,10140.821405
1084.593005,-383.047749,-0.000000,9918.759623
1084.593321,-383.047749,-444.123565,10807.006753
1084.593637,-612.876398,-592.164754,10288.862594
1084.593952,-153.219100,-518.144159,10732.986159
1084.594268,-76.609550,-74.020594,9844.739029
1084.594584,-153.219100,-74.020594,9918.759623
1084.594900,306.438199,-814.226536,9474.636058
1084.595216,612.876398,-222.061783,9548.656652
1084.595531,766.095498,370.102971,9104.533087
1084.595847,536.266849,370.102971,8808.450710
1084.596163,842.705048,518.144159,9400.615463
1084.596479,689.485948,370.102971,8882.471304
1084.596794,383.047749,518.144159,9252.574275
1084.597110,459.657299,-0.000000,9474.636058
1084.597426,306.438199,-666.185348,9474.636058
1084.597742,536.266849,-444.123565,9844.739029
1084.598057,0.000000,-1184.329507,9770.718434
1084.598373,229.828649,-1110.308913,10140.821405
1084.598689,76.609550,-1554.432478,9992.780217
1084.599005,306.438199,-814.226536,10066.800811
1084.599321,995.924147,-444.123565,9622.677246
1084.599636,1302.362347,-0.000000,9030.512492
1084.599952,1532.190996,296.082377,8586.388927
1084.600268,1378.971896,518.144159,8290.306550
1084.600584,1302.362347,-0.000000,9030.512492
1084.600899,1762.019645,-222.061783,9178.553681
1084.601215,919.314598,-370.102971,9178.553681
1084.601531,689.485948,-666.185348,8882.471304
1084.601847,306.438199,-1184.329507,9474.636058
1084.602162,612.876398,-1258.350101,9622.677246
1084.602478,153.219100,-1110.308913,9696.697840
1084.602794,229.828649,-1036.288319,9548.656652
1084.603110,-229.828649,-962.267725,9696.697840
1084.603425,0.000000,-1332.370696,9992.780217
1084.603741,76.609550,-1406.391290,9844.739029
1084.604057,459.657299,-1110.308913,9548.656652
1084.604373,842.705048,-888.247130,9104.533087
1084.604689,995.924147,-518.144159,8438.347739
1084.605004,1225.752797,-296.082377,8808.450710
1084.605320,1149.143247,-518.144159,8808.450710
1084.605636,919.314598,-74.020594,9400.615463
1084.605952,842.705048,222.061783,8734.430116
1084.606267,842.705048,-74.020594,9030.512492
1084.606583,383.047749,-370.102971,9252.574275
1084.606899,383.047749,-740.205942,9548.656652
1084.607215,153.219100,-740.205942,9548.656652
1084.607530,-153.219100,-962.267725,9474.636058
1084.607846,-306.438199,-1184.329507,10288.862594
1084.608162,153.219100,-1406.391290,10807.006753
1084.608478,0.000000,-370.102971,9770.718434
1084.608793,306.438199,-74.020594,9474.636058
1084.609109,842.705048,518.144159,9178.553681
1084.609425,1149.143247,592.164754,8734.430116
1084.609741,842.705048,1480.411884,8438.347739
1084.610057,842.705048,740.205942,8734.430116
1084.610372,1149.143247,148.041188,9696.697840
1084.610688,995.924147,1036.288319,9326.594869
1084.611004,383.047749,814.226536,9030.512492
1084.611320,306.438199,518.144159,9622.677246
1084.611635,229.828649,-0.000000,9992.780217
1084.611951,-229.828649,-0.000000,9992.780217
1084.612267,-229.828649,370.102971,10436.903782
1084.612583,-229.828649,-0.000000,10288.862594
1084.612898,-536.266849,-148.041188,10658.965565
1084.613214,0.000000,222.061783,10288.862594
1084.613530,153.219100,148.041188,9622.677246
1084.613846,919.314598,-0.000000,9844.739029
1084.614161,689.485948,592.164754,9326.594869
1084.614477,536.266849,962.267725,9252.574275
1084.614793,306.438199,592.164754,9474.636058
1084.615109,689.485948,814.226536,9474.636058
1084.615425,689.485948,888.247130,9326.594869
1084.615740,76.609550,666.185348,9400.615463
1084.616056,-229.828649,-148.041188,9844.739029
1084.616372,0.000000,-370.102971,9918.759623
1084.616688,-459.657299,-370.102971,9918.759623
1084.617003,-1072.533697,-740.205942,10288.862594
1084.617319,-766.095498,-518.144159,10584.944971
1084.617635,-612.876398,-666.185348,9622.677246
1084.617951,0.000000,-518.144159,9548.656652
1084.618266,306.438199,-444.123565,9622.677246
1084.618582,229.828649,-222.061783,8660.409521
1084.618898,1225.752797,-296.082377,8660.409521
1084.619214,612.876398,-222.061783,9104.533087
1084.619530,536.266849,-74.020594,9400.615463
1084.619845,689.485948,148.041188,9030.512492
1084.620161,766.095498,518.144159,8882.471304
1084.620477,766.095498,148.041188,8660.409521
1084.620793,306.438199,-666.185348,8734.430116
1084.621108,153.219100,-1258.350101,9474.636058
1084.621424,0.000000,-962.267725,9696.697840
1084.621740,0.000000,-888.247130,9474.636058
1084.622056,306.438199,-666.185348,9770.718434
1084.622371,306.438199,-888.247130,9622.677246
1084.622687,842.705048,-444.123565,9178.553681
1084.623003,689.485948,-296.082377,8660.409521
1084.623319,1455.581446,-592.164754,8956.491898
1084.623634,1685.410096,-592.164754,9178.553681
1084.623950,1532.190996,-148.041188,8734.430116
1084.624266,1532.190996,-222.061783,9030.512492
1084.624582,1378.971896,222.061783,9104.533087
1084.624898,1532.190996,444.123565,8734.430116
1084.625213,689.485948,222.061783,8734.430116
1084.625529,766.095498,-962.267725,9252.574275
1084.625845,536.266849,-1628.453072,9992.780217
1084.626161,459.657299,-1480.411884,9918.759623
1084.626476,689.485948,-1332.370696,10140.821405
1084.626792,383.047749,-1924.535449,9918.759623
1084.627108,536.266849,-1110.308913,10436.903782
1084.627424,689.485948,-962.267725,9474.636058
1084.627739,842.705048,-740.205942,9178.553681
1084.628055,1225.752797,-518.144159,9178.553681
1084.628371,1149.143247,-740.205942,8660.409521
1084.628687,842.705048,-74.020594,9178.553681
1084.629002,689.485948,-148.041188,9104.533087
1084.629318,919.314598,-296.082377,9992.780217
1084.629634,612.876398,148.041188,9622.677246
1084.629950,0.000000,-0.000000,8956.491898
1084.630266,383.047749,-518.144159,10140.821405
1084.630581,0.000000,-962.267725,9844.739029
1084.630897,-229.828649,-740.205942,10066.800811
1084.631213,-459.657299,-1110.308913,10066.800811
1084.631529,-229.828649,-1332.370696,10288.862594
1084.631844,383.047749,-740.205942,10510.924376
1084.632160,306.438199,148.041188,9474.636058
1084.632476,459.657299,666.185348,8956.491898
1084.632792,1302.362347,592.164754,8956.491898
1084.633107,1378.971896,1184.329507,8808.450710
1084.633423,1225.752797,1554.432478,8364.327145
1084.633739,1149.143247,1110.308913,8956.491898
1084.634055,919.314598,888.247130,9104.533087
1084.634370,689.485948,814.226536,8956.491898
1084.634686,153.219100,592.164754,9104.533087
1084.635002,-383.047749,-222.061783,9918.759623
1084.635318,-612.876398,-444.123565,10288.862594
1084.635634,0.000000,-592.164754,10362.883188
1084.635949,-459.657299,-814.226536,10214.842000
1084.636265,0.000000,-444.123565,10288.862594
1084.636581,229.828649,-0.000000,9992.780217
1084.636897,0.000000,518.144159,9400.615463
1084.637212,306.438199,666.185348,9178.553681
1084.637528,919.314598,222.061783,9474.636058
1084.637844,1072.533697,1036.288319,9252.574275
1084.638160,689.485948,1406.391290,8512.368333
1084.638475,536.266849,888.247130,8808.450710
1084.638791,1072.533697,222.061783,9622.677246
1084.639107,689.485948,-0.000000,9326.594869
1084.639423,0.000000,370.102971,9622.677246
1084.639739,-536.266849,-592.164754,9918.759623
1084.640054,-459.657299,-444.123565,10140.821405
1084.640370,-842.705048,-518.144159,10140.821405
1084.640686,-766.095498,-518.144159,10214.842000
1084.641002,-536.266849,-962.267725,10510.924376
1084.641317,-459.657299,-1110.308913,10362.883188
1084.641633,-383.047749,-1110.308913,9844.739029
1084.641949,306.438199,-592.164754,9696.697840
1084.642265,766.095498,148.041188,9178.553681
1084.642580,995.924147,814.226536,8808.450710
1084.642896,995.924147,1480.411884,8216.285956
1084.643212,1532.190996,1036.288319,8882.471304
1084.643528,1149.143247,666.185348,8512.368333
1084.643843,1149.143247,370.102971,8882.471304
1084.644159,766.095498,-296.082377,9474.636058
1084.644475,383.047749,-1184.329507,9696.697840
1084.644791,153.219100,-1480.411884,9622.677246
1084.645107,76.609550,-888.247130,9770.718434
1084.645422,0.000000,-444.123565,10140.821405
1084.645738,0.000000,-814.226536,9770.718434
1084.646054,766.095498,-666.185348,9696.697840
1084.646370,919.314598,-370.102971,10066.800811
1084.646685,1302.362347,-370.102971,9252.574275
1084.647001,1608.800546,-444.123565,9178.553681
1084.647317,1762.019645,-0.000000,8956.491898
1084.647633,1302.362347,-296.082377,8586.388927
1084.647948,1762.019645,148.041188,8734.430116
1084.648264,1608.800546,296.082377,9178.553681
1084.648580,995.924147,-0.000000,9326.594869
1084.648896,306.438199,-222.061783,9474.636058
1084.649211,153.219100,-666.185348,10510.924376
1084.649527,153.219100,-1332.370696,10214.842000
1084.649843,383.047749,-1258.350101,9548.656652
1084.650159,0.000000,-1036.288319,9992.780217
1084.650475,76.609550,-1110.308913,10362.883188
1084.650790,383.047749,-1332.370696,9992.780217
1084.651106,612.876398,-740.205942,9474.636058
1084.651422,459.657299,-444.123565,9178.553681
1084.651738,766.095498,-444.123565,8956.491898
1084.652053,1072.533697,-148.041188,8956.491898
1084.652369,612.876398,-222.061783,8808.450710
1084.652685,536.266849,-74.020594,9178.553681
1084.653001,229.828649,-0.000000,9030.512492
1084.653316,-306.438199,-370.102971,9104.533087
1084.653632,-229.828649,-444.123565,9400.615463
1084.653948,-536.266849,-740.205942,9992.780217
1084.654264,-612.876398,-888.247130,9696.697840
1084.654579,-766.095498,-888.247130,9992.780217
1084.654895,-612.876398,-1036.288319,10140.821405
1084.655211,-536.266849,-1406.391290,10140.821405
1084.655527,0.000000,-814.226536,9696.697840
1084.655843,153.219100,-0.000000,9104.533087
1084.656158,995.924147,148.041188,9252.574275
1084.656474,1532.190996,666.185348,8438.347739
1084.656790,1685.410096,1480.411884,8216.285956
1084.657106,1225.752797,1332.370696,8660.409521
1084.657421,1378.971896,1110.308913,8956.491898
1084.657737,995.924147,666.185348,9030.512492
1084.658053,383.047749,444.123565,8882.471304
1084.658369,0.000000,-370.102971,10140.821405
1084.658684,0.000000,-1110.308913,10732.986159
1084.659000,0.000000,-888.247130,10436.903782
1084.659316,-229.828649,-370.102971,10066.800811
1084.659632,0.000000,-148.041188,10140.821405
1084.659948,229.828649,-222.061783,10436.903782
1084.660263,383.047749,222.061783,10288.862594
1084.660579,919.314598,518.144159,9474.636058
1084.660895,1072.533697,518.144159,9252.574275
1084.661211,1072.533697,666.185348,8882.471304
1084.661526,1149.143247,1110.308913,8956.491898
1084.661842,1225.752797,1036.288319,8586.388927
1084.662158,459.657299,740.205942,9400.615463
1084.662474,995.924147,740.205942,9548.656652
1084.662789,0.000000,444.123565,9474.636058
1084.663105,-306.438199,-296.082377,9770.718434
1084.663421,-459.657299,-962.267725,10362.883188
1084.663737,-612.876398,-962.267725,10436.903782
1084.664052,-995.924147,-592.164754,10362.883188
1084.664368,-842.705048,-814.226536,10510.924376
1084.664684,-766.095498,-814.226536,10140.821405
1084.665000,-229.828649,-814.226536,10066.800811
1084.665316,0.000000,-518.144159,9178.553681
1084.665631,536.266849,-296.082377,9030.512492
1084.665947,1225.752797,296.082377,8882.471304
1084.666263,995.924147,370.102971,8734.430116
1084.666579,919.314598,740.205942,8290.306550
1084.666894,842.705048,518.144159,9030.512492
1084.667210,689.485948,148.041188,8808.450710
1084.667526,536.266849,-0.000000,9252.574275
1084.667842,766.095498,-888.247130,9326.594869
1084.668157,76.609550,-1258.350101,9474.636058
1084.668473,-229.828649,-1110.308913,10066.800811
1084.668789,-229.828649,-962.267725,9992.780217
1084.669105,0.000000,-1184.329507,10066.800811
1084.669420,1225.752797,-888.247130,10140.821405
1084.669736,842.705048,-666.185348,9548.656652
1084.670052,995.924147,-518.144159,9252.574275
1084.670368,1532.190996,-444.123565,9030.512492
1084.670684,1991.848295,-222.061783,8882.471304
1084.670999,2298.286494,518.144159,8216.285956
1084.671315,1838.629195,666.185348,7920.203579
1084.671631,1455.581446,296.082377,8956.491898
1084.671947,1302.362347,-0.000000,9252.574275
1084.672262,842.705048,-518.144159,8956.491898
1084.672578,536.266849,-1110.308913,9696.697840
1084.672894,0.000000,-1258.350101,10066.800811
1084.673210,76.609550,-1406.391290,10140.821405
1084.673525,-459.657299,-1258.350101,9548.656652
1084.673841,-229.828649,-1406.391290,10436.903782
1084.674157,612.876398,-1628.453072,9992.780217
1084.674473,306.438199,-814.226536,9548.656652
1084.674788,766.095498,-666.185348,9252.574275
1084.675104,995.924147,-814.226536,8956.491898
1084.675420,1225.752797,-222.061783,8734.430116
1084.675736,1072.533697,666.185348,8512.368333
1084.676052,536.266849,296.082377,8734.430116
1084.676367,459.657299,-0.000000,9030.512492
1084.676683,459.657299,-74.020594,9178.553681
1084.676999,0.000000,-296.082377,9696.697840
1084.677315,0.000000,-592.164754,9770.718434
1084.677630,-459.657299,-740.205942,10066.800811
1084.677946,-306.438199,-740.205942,9844.739029
1084.678262,-689.485948,-666.185348,10584.944971
1084.678578,0.000000,-1036.288319,10436.903782
1084.678893,-229.828649,-222.061783,9844.739029
1084.679209,306.438199,296.082377,9918.759623
1084.679525,842.705048,148.041188,8734.430116
1084.679841,1225.752797,444.123565,8586.388927
1084.680157,1532.190996,814.226536,8586.388927
1084.680472,1455.581446,740.205942,8808.450710
1084.680788,1302.362347,962.267725,8808.450710
1084.681104,766.095498,518.144159,8956.491898
1084.681420,689.485948,296.082377,9252.574275
1084.681735,459.657299,-148.041188,9548.656652
1084.682046,0.000000,296.082377,9474.636058
1084.682362,-153.219100,-370.102971,10066.800811
1084.682678,0.000000,-296.082377,9992.780217
1084.682993,0.000000,-222.061783,9918.759623
1084.683309,0.000000,-148.041188,10140.821405
1084.683625,0.000000,-148.041188,10214.842000
1084.683941,306.438199,-0.000000,9844.739029
1084.684256,459.657299,518.144159,9548.656652
1084.684572,1072.533697,592.164754,9178.553681
1084.684888,1072.533697,1036.288319,8882.471304
1084.685204,995.924147,1554.432478,8734.430116
1084.685519,536.266849,740.205942,9474.636058
1084.685835,459.657299,666.185348,9474.636058
1084.686151,229.828649,888.247130,9474.636058
1084.686467,-1072.533697,740.205942,9252.574275
1084.686782,-842.705048,-296.082377,10584.944971
1084.687098,-842.705048,-666.185348,10732.986159
1084.687414,-1302.362347,-444.123565,10214.842000
1084.687730,-1072.533697,-740.205942,10732.986159
1084.688045,-1225.752797,-962.267725,10584.944971
1084.688361,-459.657299,-814.226536,10436.903782
1084.688677,-383.047749,-296.082377,9918.759623
1084.688993,229.828649,-148.041188,9474.636058
1084.689308,842.705048,-74.020594,9474.636058
1084.689624,1378.971896,222.061783,8438.347739
1084.689940,1149.143247,888.247130,8512.368333
1084.690256,1149.143247,740.205942,8882.471304
1084.690571,1072.533697,444.123565,8882.471304
1084.690887,1149.143247,444.123565,8882.471304
1084.691203,536.266849,-296.082377,9030.512492
1084.691519,229.828649,-444.123565,9622.677246
1084.691834,229.828649,-962.267725,9770.718434
1084.692150,229.828649,-1036.288319,9696.697840
1084.692466,-612.876398,-1332.370696,10436.903782
1084.692782,-383.047749,-1406.391290,10658.965565
1084.693097,383.047749,-1184.329507,10140.821405
1084.693413,459.657299,-666.185348,9770.718434
1084.693729,842.705048,-814.226536,9474.636058
1084.694045,1762.019645,-444.123565,8808.450710
1084.694361,1915.238745,222.061783,8364.327145
1084.694676,1991.848295,814.226536,8660.409521
1084.694992,1838.629195,518.144159,8586.388927
1084.695308,1838.629195,370.102971,8660.409521
1084.695624,995.924147,370.102971,9104.533087
1084.695939,766.095498,-518.144159,8956.491898
1084.696255,536.266849,-666.185348,9400.615463
1084.696571,0.000000,-1406.391290,9918.759623
1084.696887,-229.828649,-1406.391290,9918.759623
1084.697202,-383.047749,-1480.411884,10066.800811
1084.697518,0.000000,-1406.391290,10362.883188
1084.697834,76.609550,-1628.453072,10066.800811
1084.698150,612.876398,-1184.329507,10214.842000
1084.698465,766.095498,-962.267725,9548.656652
1084.698781,1149.143247,-814.226536,9178.553681
1084.699097,1302.362347,-296.082377,8956.491898
1084.699413,1378.971896,-74.020594,8734.430116
1084.699728,766.095498,148.041188,8808.450710
1084.700044,842.705048,148.041188,9030.512492
1084.700360,919.314598,592.164754,8734.430116
1084.700676,306.438199,-0.000000,9104.533087
1084.700991,229.828649,-740.205942,9770.718434
1084.701307,0.000000,-814.226536,9622.677246
1084.701623,-612.876398,-888.247130,9844.739029
1084.701939,-766.095498,-1184.329507,10214.842000
1084.702254,-306.438199,-1184.329507,10510.924376
1084.702570,229.828649,-666.185348,10140.821405
1084.702886,383.047749,148.041188,9474.636058
1084.703202,842.705048,-0.000000,8882.471304
1084.703517,995.924147,370.102971,8512.368333
1084.703833,1378.971896,814.226536,8438.347739
1084.704149,1072.533697,1332.370696,8586.388927
1084.704465,1072.533697,666.185348,9030.512492
1084.704780,842.705048,666.185348,9178.553681
1084.705096,383.047749,740.205942,8956.491898
1084.705412,153.219100,518.144159,9326.594869
1084.705728,0.000000,-296.082377,9696.697840
1084.706043,-153.219100,-148.041188,10510.924376
1084.706359,-612.876398,-444.123565,10288.862594
1084.706675,-919.314598,-296.082377,10362.883188
1084.706991,-306.438199,-370.102971,10436.903782
1084.707306,153.219100,-518.144159,9992.780217
1084.707622,153.219100,370.102971,9844.739029
1084.707938,459.657299,148.041188,9326.594869
1084.708254,1072.533697,296.082377,9622.677246
1084.708570,1378.971896,740.205942,9326.594869
1084.708885,995.924147,1110.308913,8734.430116
1084.709201,1225.752797,1406.391290,9104.533087
1084.709517,766.095498,592.164754,9400.615463
1084.709833,536.266849,962.267725,9474.636058
1084.710148,0.000000,666.185348,9622.677246
1084.710464,-459.657299,-370.102971,9548.656652
1084.710780,-995.924147,-814.226536,10066.800811
1084.711096,-1378.971896,-962.267725,10436.903782
1084.711411,-1532.190996,-740.205942,10510.924376
1084.711727,-995.924147,-814.226536,10881.027347
1084.712043,-459.657299,-592.164754,10436.903782
1084.712359,76.609550,-296.082377,9992.780217
1084.712674,153.219100,-518.144159,8882.471304
1084.712990,766.095498,-370.102971,9104.533087
1084.713306,1378.971896,-0.000000,8956.491898
1084.713622,1455.581446,740.205942,8512.368333
1084.713937,1225.752797,740.205942,8660.409521
1084.714253,1302.362347,370.102971,8734.430116
1084.714569,689.485948,444.123565,8660.409521
1084.714885,842.705048,296.082377,8956.491898
1084.715200,842.705048,-1480.411884,9844.739029
1084.715516,536.266849,-444.123565,10066.800811
1084.715832,0.000000,-1110.308913,9326.594869
1084.716148,0.000000,-1332.370696,10214.842000
1084.716463,306.438199,-962.267725,10584.944971
1084.716779,153.219100,-518.144159,9326.594869
1084.717095,1225.752797,-74.020594,9326.594869
1084.717411,1149.143247,-518.144159,9474.636058
1084.717726,1532.190996,-814.226536,9252.574275
1084.718042,1685.410096,-296.082377,9178.553681
1084.718358,1225.752797,-0.000000,8956.491898
1084.718674,1838.629195,666.185348,8808.450710
1084.718989,1838.629195,592.164754,8660.409521
1084.719305,1532.190996,-222.061783,8956.491898
1084.719621,1072.533697,-222.061783,9622.677246
1084.719937,612.876398,-592.164754,9400.615463
1084.720252,306.438199,-518.144159,9178.553681
1084.720568,0.000000,-1036.288319,9400.615463
1084.720884,0.000000,-1850.514855,10658.965565
1084.721200,-153.219100,-1702.473667,10955.047942
1084.721515,0.000000,-1554.432478,9918.759623
1084.721831,306.438199,-1480.411884,9474.636058
1084.722147,0.000000,-1480.411884,9474.636058
1084.722463,766.095498,-1184.329507,9622.677246
1084.722779,459.657299,-592.164754,9622.677246
1084.723094,383.047749,370.102971,8512.368333
