#time,accel_x,accel_y,accel_z
705.110047,306.438199,-74.020594,9474.636058
705.110362,536.266849,-148.041188,9326.594869
705.110678,383.047749,-74.020594,9548.656652
705.110993,459.657299,-222.061783,9548.656652
705.111309,459.657299,-148.041188,9548.656652
705.111625,306.438199,-148.041188,9474.636058
705.111940,229.828649,-444.123565,9696.697840
705.112256,536.266849,-0.000000,9770.718434
705.112571,229.828649,-148.041188,9474.636058
705.112887,306.438199,-296.082377,9622.677246
705.113203,383.047749,-222.061783,9474.636058
705.113518,919.314598,-296.082377,9474.636058
705.113834,689.485948,-370.102971,9696.697840
705.114149,383.047749,-148.041188,9548.656652
705.114465,76.609550,-0.000000,9474.636058
705.114781,306.438199,-296.082377,9252.574275
705.115096,229.828649,148.041188,9474.636058
705.115412,612.876398,296.082377,9178.553681
705.115727,383.047749,-0.000000,9030.512492
705.116043,153.219100,-0.000000,9548.656652
705.116359,76.609550,-0.000000,9474.636058
705.116674,459.657299,-370.102971,9548.656652
705.116990,153.219100,-444.123565,9622.677246
705.117305,153.219100,-370.102971,9770.718434
705.117621,76.609550,-370.102971,9918.759623
705.117937,383.047749,-148.041188,9622.677246
705.118252,229.828649,296.082377,9474.636058
705.118568,383.047749,444.123565,9252.574275
705.118883,459.657299,592.164754,9400.615463
705.119199,689.485948,814.226536,9252.574275
705.119515,919.314598,740.205942,9030.512492
705.119830,766.095498,592.164754,9178.553681
705.120146,689.485948,444.123565,9178.553681
705.120461,689.485948,148.041188,9474.636058
705.120777,689.485948,-0.000000,9548.656652
705.121092,919.314598,222.061783,9770.718434
705.121408,536.266849,666.185348,9696.697840
705.121724,766.095498,444.123565,9696.697840
705.122039,919.314598,814.226536,9696.697840
705.122355,1225.752797,1110.308913,9474.636058
705.122670,1378.971896,1480.411884,9474.636058
705.122986,1608.800546,1628.453072,9178.553681
705.123302,2221.676944,1702.473667,8956.491898
705.123617,2221.676944,1480.411884,8808.450710
705.123933,2451.505594,1850.514855,9252.574275
705.124248,2451.505594,1776.494261,9252.574275
705.124564,2451.505594,1554.432478,9400.615463
705.124880,2528.115143,1924.535449,9474.636058
705.125195,2528.115143,1924.535449,9474.636058
705.125511,3447.429741,2072.576638,9474.636058
705.125826,2604.724693,2220.617826,9622.677246
705.126142,2911.162892,2368.659014,9548.656652
705.126458,2834.553343,2294.638420,9474.636058
705.126773,2834.553343,2664.741391,9400.615463
705.127089,3064.381992,2590.720797,9030.512492
705.127404,3447.429741,2664.741391,9104.533087
705.127720,3447.429741,2664.741391,9252.574275
705.128036,3524.039291,2664.741391,9252.574275
705.128351,3294.210641,2664.741391,9400.615463
705.128667,3524.039291,2442.679609,9474.636058
705.128982,3370.820191,2886.803174,9474.636058
705.129298,3064.381992,2886.803174,9696.697840
705.129614,2987.772442,2812.782580,10066.800811
705.129929,3064.381992,2590.720797,9770.718434
705.130245,2757.943793,2442.679609,9918.759623
705.130560,2528.115143,2294.638420,9844.739029
705.130876,2681.334243,2146.597232,10066.800811
705.131192,2451.505594,2146.597232,10066.800811
705.131507,2528.115143,1850.514855,10066.800811
705.131823,2757.943793,2442.679609,10066.800811
705.132138,2374.896044,2738.761985,10066.800811
705.132454,3064.381992,2368.659014,9696.697840
705.132770,2834.553343,2220.617826,9770.718434
705.133085,2757.943793,2294.638420,9622.677246
705.133401,2834.553343,2294.638420,9474.636058
705.133716,2681.334243,2220.617826,9548.656652
705.134032,2451.505594,2072.576638,9622.677246
705.134348,2451.505594,1850.514855,9548.656652
705.134663,1838.629195,1702.473667,9622.677246
705.134979,1685.410096,1258.350101,9696.697840
705.135294,919.314598,814.226536,10214.842000
705.135610,536.266849,296.082377,10436.903782
705.135925,306.438199,-74.020594,10436.903782
705.136241,536.266849,-444.123565,10807.006753
705.136557,842.705048,-740.205942,11103.089130
705.136872,1225.752797,-666.185348,10881.027347
705.137188,1608.800546,-0.000000,10066.800811
705.137503,2221.676944,888.247130,9622.677246
705.137819,3064.381992,1628.453072,8882.471304
705.138135,3600.648841,2738.761985,8216.285956
705.138450,4749.792088,2960.823768,7328.038826
705.138766,4596.572988,3034.844362,7105.977043
705.139081,4673.182538,2516.700203,7105.977043
705.139397,4519.963438,1776.494261,7328.038826
705.139713,3447.429741,1406.391290,7920.203579
705.140028,2451.505594,444.123565,8734.430116
705.140344,1378.971896,148.041188,9400.615463
705.140659,383.047749,-0.000000,9770.718434
705.140975,-153.219100,-518.144159,10214.842000
705.141291,-766.095498,-518.144159,10362.883188
705.141606,-1302.362347,-962.267725,11029.068536
705.141922,-995.924147,-962.267725,11177.109724
705.142237,-536.266849,-1036.288319,10807.006753
705.142553,76.609550,-444.123565,10955.047942
705.142869,1149.143247,-0.000000,10066.800811
705.143184,2221.676944,1332.370696,9104.533087
705.143500,3524.039291,2294.638420,8586.388927
705.143815,4903.011187,3256.906145,7698.141797
705.144131,5669.106685,3849.070898,7254.018232
705.144447,6435.202183,3997.112087,6809.894666
705.144762,6588.421283,4293.194464,6365.771101
705.145078,6588.421283,4441.235652,6735.874072
705.145393,6052.154434,3849.070898,7105.977043
705.145709,5132.839837,3108.864956,7772.162391
705.146025,3677.258390,2368.659014,9178.553681
705.146340,2298.286494,814.226536,10362.883188
705.146656,459.657299,-370.102971,11547.212695
705.146971,-229.828649,-814.226536,12879.583391
705.147287,-1455.581446,-1332.370696,13249.686362
705.147603,-1225.752797,-592.164754,13471.748144
705.147918,-766.095498,222.061783,12805.562797
705.148234,229.828649,1554.432478,11769.274478
705.148549,1455.581446,2886.803174,10436.903782
705.148865,2911.162892,3997.112087,8808.450710
705.149181,4596.572988,4663.297435,7402.059420
705.149496,5898.935335,4885.359217,7031.956449
705.149812,6818.249932,4441.235652,7105.977043
705.150127,6741.640382,3775.050304,7476.080014
705.150443,6128.763984,3478.967927,7846.182985
705.150758,5056.230287,2812.782580,8734.430116
705.151074,4290.134789,2220.617826,10066.800811
705.151390,3217.601092,1924.535449,11103.089130
705.151705,2145.067394,1702.473667,12065.356855
705.152021,612.876398,2220.617826,11991.336260
705.152336,306.438199,2812.782580,10955.047942
705.152652,0.000000,2590.720797,10881.027347
705.152968,612.876398,2368.659014,10436.903782
705.153283,995.924147,2146.597232,10066.800811
705.153599,612.876398,1258.350101,9844.739029
705.153914,536.266849,740.205942,9548.656652
705.154230,1072.533697,296.082377,9770.718434
705.154546,1762.019645,1184.329507,9474.636058
705.154861,2451.505594,1998.556043,9252.574275
705.155177,2221.676944,2072.576638,9178.553681
705.155492,1762.019645,1998.556043,9474.636058
705.155808,2145.067394,1850.514855,8956.491898
705.156124,2757.943793,1480.411884,9178.553681
705.156439,2911.162892,1406.391290,10140.821405
705.156755,2528.115143,1184.329507,9918.759623
705.157070,2145.067394,1480.411884,9992.780217
705.157386,2604.724693,1184.329507,10288.862594
705.157702,3140.991542,1258.350101,10288.862594
705.158017,2987.772442,2442.679609,8882.471304
705.158333,2451.505594,2886.803174,7698.141797
705.158648,3370.820191,2072.576638,7550.100608
705.158964,3830.477490,1406.391290,7402.059420
705.159280,3140.991542,888.247130,7698.141797
705.159595,1991.848295,-0.000000,8364.327145
705.159911,1378.971896,-1184.329507,9474.636058
705.160226,766.095498,-1702.473667,10362.883188
705.160542,0.000000,-1480.411884,11029.068536
705.160858,-1149.143247,-592.164754,11399.171507
705.161173,-1532.190996,222.061783,10807.006753
705.161489,-766.095498,148.041188,9474.636058
705.161804,229.828649,-74.020594,9622.677246
705.162120,383.047749,-74.020594,9400.615463
705.162436,842.705048,-370.102971,9400.615463
705.162751,1915.238745,-1036.288319,9104.533087
705.163067,2451.505594,-1110.308913,8882.471304
705.163382,2451.505594,444.123565,7994.224174
705.163698,2528.115143,1258.350101,7476.080014
705.164014,2834.553343,1184.329507,8290.306550
705.164329,3217.601092,222.061783,8142.265362
705.164645,2451.505594,222.061783,7994.224174
705.164960,1378.971896,518.144159,8808.450710
705.165276,995.924147,-444.123565,9696.697840
705.165592,536.266849,-814.226536,9992.780217
705.165907,-306.438199,-518.144159,10140.821405
705.166223,-1149.143247,-0.000000,10732.986159
705.166538,-919.314598,-148.041188,10955.047942
705.166854,-1072.533697,-1258.350101,10881.027347
705.167169,-842.705048,-1628.453072,10140.821405
705.167485,-689.485948,-1850.514855,9992.780217
705.167801,153.219100,-1702.473667,10066.800811
705.168116,536.266849,-1406.391290,10584.944971
705.168432,919.314598,-0.000000,9104.533087
705.168747,1149.143247,1554.432478,7772.162391
705.169063,1455.581446,1554.432478,8068.244768
705.169379,1225.752797,888.247130,8734.430116
705.169694,766.095498,296.082377,8956.491898
705.170010,306.438199,-222.061783,8808.450710
705.170325,-383.047749,-1036.288319,9992.780217
705.170641,-383.047749,-1480.411884,11251.130318
705.170956,-1302.362347,-740.205942,10362.883188
705.171272,-1915.238745,-0.000000,10066.800811
705.171588,-1378.971896,-0.000000,10732.986159
705.171903,-766.095498,-0.000000,10584.944971
705.172219,-536.266849,-148.041188,10140.821405
705.172534,-995.924147,-518.144159,9992.780217
705.172850,-689.485948,-1628.453072,9992.780217
705.173165,229.828649,-1776.494261,10584.944971
705.173481,383.047749,-0.000000,9622.677246
705.173797,612.876398,1406.391290,8808.450710
705.174112,995.924147,1406.391290,8586.388927
705.174428,1302.362347,962.267725,8956.491898
705.174743,995.924147,1628.453072,8586.388927
705.175059,1225.752797,1628.453072,8290.306550
705.175374,1455.581446,740.205942,9104.533087
705.175690,1072.533697,296.082377,9326.594869
705.176006,536.266849,740.205942,9400.615463
705.176321,306.438199,1110.308913,9104.533087
705.176637,0.000000,296.082377,9474.636058
705.176952,-383.047749,-296.082377,9696.697840
705.177268,-229.828649,-888.247130,10362.883188
705.177584,-689.485948,-666.185348,10214.842000
705.177899,-383.047749,-888.247130,10140.821405
705.178215,0.000000,-888.247130,10436.903782
705.178530,-383.047749,518.144159,9696.697840
705.178846,-383.047749,666.185348,8956.491898
705.179161,1072.533697,740.205942,8438.347739
705.179477,766.095498,296.082377,9030.512492
705.179793,689.485948,518.144159,8882.471304
705.180108,995.924147,962.267725,8438.347739
705.180424,1915.238745,222.061783,9252.574275
705.180739,1225.752797,444.123565,9252.574275
705.181055,1378.971896,1184.329507,8734.430116
705.181370,1072.533697,1628.453072,8660.409521
705.181686,1532.190996,-0.000000,9696.697840
705.182002,1149.143247,-666.185348,9844.739029
705.182317,459.657299,-222.061783,9474.636058
705.182633,536.266849,-888.247130,10362.883188
705.182948,459.657299,-1184.329507,10807.006753
705.183264,0.000000,-0.000000,10140.821405
705.183579,0.000000,888.247130,9474.636058
705.183895,76.609550,740.205942,9474.636058
705.184211,229.828649,740.205942,9104.533087
705.184526,612.876398,-74.020594,8808.450710
705.184842,0.000000,-148.041188,8882.471304
705.185157,1149.143247,-296.082377,10214.842000
705.185473,1455.581446,-296.082377,9474.636058
705.185789,1072.533697,222.061783,9104.533087
705.186104,842.705048,222.061783,9548.656652
705.186420,1608.800546,-370.102971,9548.656652
705.186735,766.095498,-370.102971,9474.636058
705.187051,76.609550,-296.082377,9548.656652
705.187366,76.609550,-666.185348,10362.883188
705.187682,229.828649,-888.247130,10362.883188
705.187998,0.000000,-222.061783,10140.821405
705.188313,-229.828649,518.144159,9622.677246
705.188629,153.219100,444.123565,9474.636058
705.188944,306.438199,-74.020594,9548.656652
705.189260,153.219100,-296.082377,9326.594869
705.189575,0.000000,-518.144159,9326.594869
705.189891,536.266849,-888.247130,9030.512492
705.190207,536.266849,-1184.329507,9622.677246
705.190522,306.438199,-740.205942,9918.759623
705.190838,0.000000,-148.041188,9474.636058
705.191153,0.000000,-296.082377,8808.450710
705.191469,0.000000,-814.226536,9918.759623
705.191784,-612.876398,-1184.329507,9400.615463
705.192100,-459.657299,-1258.350101,9400.615463
705.192416,-229.828649,-1924.535449,9844.739029
705.192731,-153.219100,-2220.617826,10658.965565
705.193047,-459.657299,-740.205942,9696.697840
705.193362,-306.438199,-0.000000,8882.471304
705.193678,229.828649,-222.061783,8808.450710
705.193994,1072.533697,-666.185348,8956.491898
705.194309,306.438199,-888.247130,8660.409521
705.194625,536.266849,-666.185348,8068.244768
705.194940,1225.752797,-814.226536,8734.430116
705.195256,995.924147,-1036.288319,9178.553681
705.195571,612.876398,-148.041188,9030.512492
705.195887,383.047749,-74.020594,8734.430116
705.196203,536.266849,-666.185348,9030.512492
705.196518,0.000000,-1406.391290,9548.656652
705.196834,-689.485948,-1776.494261,10584.944971
705.197149,-842.705048,-1702.473667,10510.924376
705.197465,-306.438199,-1702.473667,10436.903782
705.197780,-76.609550,-962.267725,10362.883188
705.198096,153.219100,148.041188,9992.780217
705.198412,459.657299,666.185348,9104.533087
705.198727,1915.238745,888.247130,8216.285956
705.199043,1915.238745,1036.288319,7846.182985
705.199358,2221.676944,962.267725,7698.141797
705.199674,2451.505594,666.185348,7846.182985
705.199989,2374.896044,-222.061783,8512.368333
705.200305,1072.533697,-0.000000,9548.656652
705.200621,766.095498,-0.000000,9252.574275
705.200936,0.000000,-0.000000,9474.636058
705.201252,0.000000,-518.144159,10510.924376
705.201567,-612.876398,-1036.288319,10807.006753
705.201883,-536.266849,-1184.329507,10658.965565
705.202198,-689.485948,-1258.350101,11029.068536
705.202514,-689.485948,-1258.350101,11473.192101
705.202830,-919.314598,-296.082377,10436.903782
705.203145,306.438199,740.205942,9474.636058
705.203461,995.924147,592.164754,8956.491898
705.203776,1455.581446,1628.453072,8364.327145
705.204092,1762.019645,1628.453072,7920.203579
705.204408,2298.286494,740.205942,7920.203579
705.204723,2298.286494,814.226536,8364.327145
705.205039,1915.238745,518.144159,9104.533087
705.205354,1378.971896,888.247130,9178.553681
705.205670,306.438199,592.164754,9844.739029
705.205985,229.828649,370.102971,9770.718434
705.206301,0.000000,-222.061783,10436.903782
705.206617,-1149.143247,-148.041188,10732.986159
705.206932,-1072.533697,-296.082377,11769.274478
705.207248,-842.705048,-814.226536,11547.212695
705.207563,-766.095498,-296.082377,11399.171507
705.207879,-612.876398,1480.411884,10362.883188
705.208194,766.095498,2072.576638,8956.491898
705.208510,1455.581446,1776.494261,8512.368333
705.208826,1762.019645,1258.350101,8216.285956
705.209141,1915.238745,1702.473667,7624.121203
705.209457,2528.115143,740.205942,7920.203579
705.209772,1608.800546,222.061783,8512.368333
705.210088,1378.971896,296.082377,9326.594869
705.210403,612.876398,518.144159,9252.574275
705.210719,459.657299,-0.000000,9770.718434
705.211035,-459.657299,-962.267725,10955.047942
705.211350,-1225.752797,-1332.370696,10955.047942
705.211666,-1225.752797,-888.247130,10881.027347
705.211981,-1608.800546,-1628.453072,11251.130318
705.212297,-919.314598,-1184.329507,10955.047942
705.212613,-536.266849,-222.061783,10436.903782
705.212928,153.219100,814.226536,9622.677246
705.213244,1302.362347,814.226536,8882.471304
705.213559,1302.362347,740.205942,7920.203579
705.213875,1685.410096,1110.308913,7402.059420
705.214190,1991.848295,888.247130,7402.059420
705.214506,2451.505594,222.061783,8364.327145
705.214822,1608.800546,-148.041188,8882.471304
705.215137,689.485948,-296.082377,9030.512492
705.215453,383.047749,-148.041188,9104.533087
705.215768,76.609550,-1332.370696,9548.656652
705.216084,-842.705048,-1850.514855,10066.800811
705.216399,-1302.362347,-1850.514855,11029.068536
705.216715,-689.485948,-2072.576638,11251.130318
705.217031,-1378.971896,-2516.700203,10955.047942
705.217346,-919.314598,-1776.494261,10881.027347
705.217662,-536.266849,-370.102971,9844.739029
705.217977,689.485948,-814.226536,8438.347739
705.218293,1225.752797,-296.082377,7698.141797
705.218608,1838.629195,-0.000000,7772.162391
705.218924,1915.238745,-518.144159,7476.080014
705.219240,2298.286494,-296.082377,7698.141797
705.219555,2145.067394,-592.164754,8290.306550
705.219871,1225.752797,-0.000000,8586.388927
705.220186,612.876398,-148.041188,9104.533087
705.220502,229.828649,-962.267725,9992.780217
705.220818,0.000000,-1702.473667,10584.944971
705.221133,-612.876398,-1924.535449,10732.986159
705.221449,-919.314598,-1924.535449,10881.027347
705.221764,-919.314598,-2220.617826,11399.171507
705.222080,-459.657299,-1702.473667,11251.130318
705.222395,0.000000,-296.082377,9918.759623
705.222711,842.705048,-0.000000,9548.656652
705.223027,1149.143247,444.123565,8364.327145
705.223342,1762.019645,296.082377,7994.224174
705.223658,1762.019645,148.041188,7402.059420
705.223973,1991.848295,-0.000000,7698.141797
705.224289,1838.629195,-592.164754,8808.450710
705.224604,1302.362347,-518.144159,9030.512492
705.224920,459.657299,148.041188,9104.533087
705.225236,0.000000,-222.061783,9474.636058
705.225551,-229.828649,-1036.288319,10362.883188
705.225867,-1302.362347,-1332.370696,10658.965565
705.226182,-1532.190996,-1776.494261,10881.027347
705.226498,-1608.800546,-2368.659014,11473.192101
705.226813,-1302.362347,-2072.576638,11325.150913
705.227129,-842.705048,-666.185348,10658.965565
705.227445,-459.657299,518.144159,9622.677246
705.227760,842.705048,888.247130,8734.430116
705.228076,1225.752797,888.247130,7698.141797
705.228391,1685.410096,1184.329507,7994.224174
705.228707,1991.848295,1184.329507,7476.080014
705.229022,1915.238745,814.226536,7624.121203
705.229338,1302.362347,592.164754,8660.409521
705.229654,612.876398,370.102971,9252.574275
705.229969,-153.219100,296.082377,9400.615463
705.230285,-383.047749,222.061783,9770.718434
705.230600,-1072.533697,-518.144159,10955.047942
705.230916,-1915.238745,-1036.288319,11177.109724
705.231232,-1608.800546,-1110.308913,11399.171507
705.231547,-1378.971896,-1110.308913,11473.192101
705.231863,-919.314598,-740.205942,10955.047942
705.232178,-306.438199,814.226536,10362.883188
705.232494,766.095498,1702.473667,9400.615463
705.232809,2298.286494,1628.453072,8142.265362
705.233125,1991.848295,1406.391290,7698.141797
705.233441,2068.457845,1628.453072,7550.100608
705.233756,2451.505594,1258.350101,7772.162391
705.234072,2451.505594,444.123565,8660.409521
705.234387,1378.971896,370.102971,8882.471304
705.234703,1149.143247,296.082377,9400.615463
705.235018,459.657299,666.185348,9474.636058
705.235334,0.000000,-0.000000,9992.780217
705.235650,-459.657299,-444.123565,10362.883188
705.235965,-1302.362347,-814.226536,10955.047942
705.236281,-459.657299,-592.164754,11177.109724
705.236596,-153.219100,-1110.308913,11177.109724
705.236912,76.609550,-148.041188,10510.924376
705.237227,536.266849,814.226536,9326.594869
705.237543,1762.019645,814.226536,8660.409521
705.237859,1915.238745,814.226536,8364.327145
705.238174,2145.067394,1554.432478,7846.182985
705.238490,2757.943793,1036.288319,7476.080014
705.238805,2834.553343,370.102971,8142.265362
705.239121,1991.848295,-148.041188,8216.285956
705.239437,1225.752797,-0.000000,9326.594869
705.239752,229.828649,148.041188,9474.636058
705.240068,-229.828649,-296.082377,9918.759623
705.240383,-995.924147,-888.247130,10140.821405
705.240699,-1378.971896,-1480.411884,11029.068536
705.241014,-1378.971896,-1776.494261,11399.171507
705.241330,-1072.533697,-1702.473667,11473.192101
705.241646,-766.095498,-1406.391290,10732.986159
705.241961,-153.219100,-444.123565,10510.924376
705.242277,766.095498,-74.020594,9696.697840
705.242592,1455.581446,370.102971,8142.265362
705.242908,1532.190996,518.144159,7772.162391
705.243223,1991.848295,370.102971,7994.224174
705.243539,2221.676944,-0.000000,7920.203579
705.243855,1762.019645,-74.020594,8290.306550
705.244170,612.876398,-666.185348,8808.450710
705.244486,76.609550,-370.102971,9474.636058
705.244801,-689.485948,-370.102971,9622.677246
705.245117,0.000000,-1406.391290,10288.862594
705.245432,-995.924147,-2220.617826,10955.047942
705.245748,-1608.800546,-1480.411884,10658.965565
705.246064,-1532.190996,-2368.659014,10955.047942
705.246379,-459.657299,-2516.700203,11473.192101
705.246695,76.609550,-814.226536,11103.089130
705.247010,76.609550,-0.000000,9104.533087
705.247326,1685.410096,222.061783,8512.368333
705.247642,1915.238745,-0.000000,7772.162391
705.247957,2068.457845,518.144159,7550.100608
705.248273,2528.115143,222.061783,7031.956449
705.248588,2068.457845,148.041188,7328.038826
705.248904,1378.971896,222.061783,8364.327145
705.249219,689.485948,-296.082377,8660.409521
705.249535,0.000000,-814.226536,9252.574275
705.249851,-995.924147,-1110.308913,10510.924376
705.250166,-1302.362347,-2368.659014,10510.924376
705.250482,-1762.019645,-1776.494261,10881.027347
705.250797,-1991.848295,-1628.453072,11029.068536
705.251113,-1225.752797,-1628.453072,11029.068536
705.251428,-766.095498,-962.267725,10955.047942
705.251744,-383.047749,-0.000000,9326.594869
705.252060,536.266849,370.102971,8586.388927
705.252375,1455.581446,-0.000000,8068.244768
705.252691,1991.848295,370.102971,7994.224174
705.253006,1608.800546,666.185348,7476.080014
705.253322,2068.457845,1036.288319,7624.121203
705.253637,2068.457845,814.226536,7994.224174
705.253953,995.924147,1036.288319,8438.347739
705.254269,536.266849,962.267725,8956.491898
705.254584,-383.047749,-74.020594,9548.656652
705.254900,-1149.143247,-1184.329507,11177.109724
705.255215,-1378.971896,-1480.411884,11399.171507
705.255531,-1532.190996,-1332.370696,11325.150913
705.255846,-1915.238745,-888.247130,11621.233289
705.256162,-995.924147,-814.226536,11547.212695
705.256478,0.000000,666.185348,10584.944971
705.256793,536.266849,1406.391290,9474.636058
705.257109,1378.971896,1110.308913,8882.471304
705.257424,2451.505594,1110.308913,8364.327145
705.257740,2604.724693,1406.391290,7698.141797
705.258056,3217.601092,1850.514855,7624.121203
705.258371,2757.943793,1184.329507,8364.327145
705.258687,2451.505594,1258.350101,8660.409521
705.259002,1455.581446,1332.370696,9030.512492
705.259318,842.705048,1036.288319,9400.615463
705.259633,459.657299,-0.000000,10584.944971
705.259949,-689.485948,-740.205942,11103.089130
705.260265,-842.705048,-1110.308913,11399.171507
705.260580,-995.924147,-1184.329507,11843.295072
705.260896,-689.485948,-888.247130,11621.233289
705.261211,-612.876398,-0.000000,11103.089130
705.261527,0.000000,740.205942,10066.800811
705.261842,1608.800546,1110.308913,9474.636058
705.262158,1838.629195,1258.350101,8290.306550
705.262474,2221.676944,962.267725,8068.244768
705.262789,2604.724693,1332.370696,7624.121203
705.263105,2604.724693,1258.350101,7476.080014
705.263420,2374.896044,592.164754,7772.162391
705.263736,1378.971896,296.082377,8734.430116
705.264051,459.657299,296.082377,9104.533087
705.264367,0.000000,-148.041188,9548.656652
705.264683,-689.485948,-1332.370696,9992.780217
705.264998,-1072.533697,-1924.535449,10807.006753
705.265314,-1608.800546,-1258.350101,10881.027347
705.265629,-1378.971896,-1998.556043,11621.233289
705.265945,-1378.971896,-1924.535449,11177.109724
705.266261,-842.705048,-888.247130,10288.862594
705.266576,0.000000,-0.000000,9104.533087
705.266892,1225.752797,-296.082377,8660.409521
705.267207,1838.629195,-222.061783,8216.285956
705.267523,1838.629195,666.185348,7550.100608
705.267838,2221.676944,444.123565,7031.956449
705.268154,2145.067394,444.123565,7476.080014
705.268470,1532.190996,74.020594,8216.285956
705.268785,919.314598,296.082377,8660.409521
705.269101,306.438199,-74.020594,9252.574275
705.269417,0.000000,-1406.391290,9992.780217
705.269733,-612.876398,-1998.556043,10955.047942
705.270048,-842.705048,-1924.535449,11547.212695
705.270364,-1225.752797,-1850.514855,11399.171507
705.270680,-306.438199,-2146.597232,11177.109724
705.270996,-306.438199,-1110.308913,10436.903782
705.271311,76.609550,-0.000000,9622.677246
705.271627,1149.143247,518.144159,8512.368333
705.271943,2145.067394,518.144159,7846.182985
705.272259,1762.019645,296.082377,7698.141797
705.272574,1991.848295,370.102971,7476.080014
705.272890,1991.848295,-0.000000,7550.100608
705.273206,1378.971896,-592.164754,8660.409521
705.273522,0.000000,-666.185348,9548.656652
705.273838,-229.828649,-962.267725,9992.780217
705.274153,-1149.143247,-740.205942,10066.800811
705.274469,-1378.971896,-1406.391290,10288.862594
705.274785,-1838.629195,-1924.535449,10881.027347
705.275101,-1762.019645,-1924.535449,11251.130318
705.275416,-1532.190996,-1998.556043,11547.212695
705.275732,-1302.362347,-1480.411884,10658.965565
705.276048,-536.266849,-296.082377,9622.677246
705.276364,229.828649,-0.000000,9104.533087
705.276679,1455.581446,-296.082377,8734.430116
705.276995,1532.190996,-0.000000,8142.265362
705.277311,1378.971896,740.205942,7179.997637
705.277627,1455.581446,740.205942,7772.162391
705.277942,1149.143247,222.061783,8290.306550
705.278258,842.705048,-0.000000,8734.430116
705.278574,0.000000,-74.020594,9326.594869
705.278890,-536.266849,-370.102971,10214.842000
705.279206,-842.705048,-666.185348,10510.924376
705.279521,-1302.362347,-888.247130,10584.944971
705.279837,-1532.190996,-1036.288319,10955.047942
705.280153,-1378.971896,-1406.391290,11695.253884
705.280469,-919.314598,-1036.288319,10807.006753
705.280784,-459.657299,-518.144159,10955.047942
705.281100,229.828649,444.123565,9770.718434
705.281416,1838.629195,888.247130,8438.347739
705.281732,2374.896044,962.267725,7846.182985
705.282047,2681.334243,1184.329507,8142.265362
705.282363,2451.505594,1776.494261,7624.121203
705.282679,2911.162892,1110.308913,7772.162391
705.282995,2145.067394,296.082377,8808.450710
705.283310,1532.190996,814.226536,9474.636058
705.283626,842.705048,296.082377,9696.697840
705.283942,306.438199,148.041188,9992.780217
705.284258,153.219100,-444.123565,10584.944971
705.284573,-306.438199,-148.041188,10732.986159
705.284889,-383.047749,-0.000000,10807.006753
705.285205,0.000000,-0.000000,10955.047942
705.285521,306.438199,-74.020594,10658.965565
705.285837,306.438199,666.185348,9622.677246
705.286152,1149.143247,1110.308913,10066.800811
705.286468,2068.457845,740.205942,8882.471304
705.286784,2451.505594,1332.370696,7846.182985
705.287100,2145.067394,1628.453072,7624.121203
705.287415,1991.848295,1628.453072,7846.182985
705.287731,2068.457845,888.247130,8734.430116
705.288047,1072.533697,962.267725,8734.430116
705.288363,306.438199,888.247130,9252.574275
705.288678,0.000000,-0.000000,10140.821405
705.288994,-459.657299,-666.185348,10584.944971
705.289310,-1072.533697,-814.226536,10288.862594
705.289626,-1608.800546,-1036.288319,11103.089130
705.289941,-1302.362347,-1184.329507,11177.109724
705.290257,-919.314598,-1184.329507,11029.068536
705.290573,-689.485948,-0.000000,10362.883188
705.290889,76.609550,518.144159,9770.718434
705.291205,995.924147,-74.020594,9326.594869
705.291520,1608.800546,-0.000000,8586.388927
705.291836,1378.971896,666.185348,8290.306550
705.292152,1608.800546,370.102971,7772.162391
705.292468,2145.067394,-444.123565,8660.409521
705.292783,1072.533697,-444.123565,9326.594869
705.293099,536.266849,-222.061783,9178.553681
705.293415,76.609550,-518.144159,9474.636058
705.293731,0.000000,-1258.350101,10436.903782
705.294046,-383.047749,-1850.514855,10140.821405
705.294362,-842.705048,-1480.411884,10807.006753
705.294678,-919.314598,-1628.453072,10807.006753
705.294994,-536.266849,-1998.556043,10584.944971
705.295309,-459.657299,-1702.473667,10807.006753
705.295625,0.000000,-592.164754,9548.656652
705.295941,842.705048,-0.000000,8882.471304
705.296257,1532.190996,-444.123565,8734.430116
705.296572,1532.190996,-0.000000,8364.327145
705.296888,1608.800546,-0.000000,7772.162391
705.297204,1455.581446,222.061783,7476.080014
705.297520,1378.971896,-740.205942,8364.327145
705.297836,383.047749,-962.267725,9178.553681
705.298151,-383.047749,-666.185348,9474.636058
705.298467,-306.438199,-888.247130,9992.780217
705.298783,-842.705048,-1776.494261,10214.842000
705.299099,-1225.752797,-1924.535449,10584.944971
705.299414,-1378.971896,-1702.473667,10658.965565
705.299730,-1225.752797,-1776.494261,10066.800811
705.300046,-459.657299,-1776.494261,10658.965565
705.300362,-689.485948,-814.226536,10140.821405
705.300677,229.828649,-0.000000,9030.512492
705.300993,1072.533697,-0.000000,8290.306550
705.301309,1685.410096,-296.082377,7698.141797
705.301625,1378.971896,-0.000000,7402.059420
705.301940,1608.800546,-148.041188,7179.997637
705.302256,1378.971896,-444.123565,8290.306550
705.302572,1072.533697,-740.205942,9030.512492
705.302888,383.047749,-666.185348,9326.594869
705.303204,-229.828649,-74.020594,9326.594869
705.303519,-306.438199,-1110.308913,10066.800811
705.303835,-689.485948,-1776.494261,10807.006753
705.304151,-1225.752797,-1406.391290,11103.089130
705.304467,-842.705048,-1406.391290,10881.027347
705.304782,-689.485948,-1332.370696,10881.027347
705.305098,612.876398,-444.123565,10584.944971
705.305414,842.705048,740.205942,9622.677246
705.305730,1915.238745,1258.350101,8660.409521
705.306045,2681.334243,1554.432478,8068.244768
705.306361,2757.943793,1406.391290,8068.244768
705.306677,2834.553343,1406.391290,7624.121203
705.306993,2911.162892,1258.350101,8290.306550
705.307308,2451.505594,814.226536,8808.450710
705.307624,1455.581446,888.247130,9474.636058
705.307940,995.924147,1036.288319,9474.636058
705.308256,842.705048,1036.288319,10214.842000
705.308571,229.828649,148.041188,10584.944971
705.308887,0.000000,-296.082377,11177.109724
705.309203,-383.047749,-222.061783,11325.150913
705.309519,-383.047749,-370.102971,11547.212695
705.309835,-153.219100,-0.000000,11251.130318
705.310150,306.438199,1258.350101,10288.862594
705.310466,1225.752797,1776.494261,9252.574275
705.310782,2068.457845,1850.514855,8512.368333
705.311098,2068.457845,1998.556043,7698.141797
705.311413,1915.238745,2146.597232,8290.306550
705.311729,2834.553343,518.144159,8734.430116
705.312045,2068.457845,1036.288319,8438.347739
705.312361,612.876398,1110.308913,8882.471304
705.312676,383.047749,-74.020594,10288.862594
705.312992,-306.438199,592.164754,10140.821405
705.313308,-1149.143247,-444.123565,10510.924376
705.313624,-1378.971896,-666.185348,10658.965565
705.313939,-1608.800546,-1036.288319,11251.130318
705.314255,-1685.410096,-1332.370696,11177.109724
705.314571,-766.095498,-1406.391290,11325.150913
705.314887,-1378.971896,-592.164754,10436.903782
705.315203,0.000000,592.164754,10066.800811
705.315518,1149.143247,222.061783,9178.553681
705.315834,1149.143247,296.082377,7624.121203
705.316150,1149.143247,962.267725,8290.306550
705.316466,1455.581446,740.205942,7179.997637
705.316781,1608.800546,222.061783,7550.100608
705.317097,1149.143247,-592.164754,9326.594869
705.317413,306.438199,-592.164754,8586.388927
705.317729,76.609550,-370.102971,9696.697840
705.318044,-689.485948,-1554.432478,9992.780217
705.318360,-995.924147,-1776.494261,10436.903782
705.318676,-1762.019645,-1554.432478,10658.965565
705.318992,-1225.752797,-1702.473667,11251.130318
705.319307,-995.924147,-1480.411884,10955.047942
705.319623,-919.314598,-1554.432478,10584.944971
705.319939,0.000000,-518.144159,9548.656652
705.320255,842.705048,-296.082377,8438.347739
705.320570,1608.800546,-0.000000,8438.347739
705.320886,2145.067394,-74.020594,7624.121203
705.321202,1608.800546,-296.082377,7772.162391
705.321518,2681.334243,-0.000000,7254.018232
705.321834,1838.629195,-444.123565,7994.224174
705.322149,1532.190996,-666.185348,8586.388927
705.322465,1225.752797,-592.164754,9104.533087
705.322781,76.609550,-592.164754,9030.512492
705.323097,-536.266849,-1406.391290,9844.739029
705.323412,-919.314598,-2294.638420,10436.903782
705.323728,-1378.971896,-2072.576638,11029.068536
705.324044,-1455.581446,-2294.638420,10658.965565
705.324360,-1072.533697,-1850.514855,10658.965565
705.324675,-689.485948,-1184.329507,10066.800811
705.324991,76.609550,-222.061783,9844.739029
705.325307,1072.533697,-296.082377,8808.450710
705.325623,1455.581446,-222.061783,8068.244768
705.325938,1532.190996,-0.000000,7772.162391
705.326254,1838.629195,-0.000000,8216.285956
705.326570,1915.238745,-74.020594,8364.327145
705.326886,1838.629195,-740.205942,8882.471304
705.327202,383.047749,-222.061783,8882.471304
705.327517,459.657299,-0.000000,9474.636058
705.327833,229.828649,-444.123565,9918.759623
705.328149,-306.438199,-740.205942,10584.944971
705.328465,-459.657299,-1258.350101,10362.883188
705.328780,-1072.533697,-1406.391290,11029.068536
705.329096,-995.924147,-1184.329507,11325.150913
705.329412,-306.438199,-666.185348,10881.027347
705.329728,383.047749,518.144159,10066.800811
705.330043,612.876398,666.185348,9548.656652
705.330359,1915.238745,962.267725,8586.388927
705.330675,1762.019645,1110.308913,7920.203579
705.330991,2145.067394,1480.411884,7772.162391
705.331306,2528.115143,1480.411884,8364.327145
705.331622,1991.848295,518.144159,8882.471304
705.331938,1225.752797,814.226536,9326.594869
705.332254,612.876398,1332.370696,9548.656652
705.332569,459.657299,888.247130,9992.780217
705.332885,76.609550,370.102971,10436.903782
705.333201,-229.828649,-74.020594,10658.965565
705.333517,-536.266849,-0.000000,11103.089130
705.333833,-306.438199,-518.144159,11029.068536
705.334148,-229.828649,-222.061783,11103.089130
705.334464,229.828649,666.185348,10510.924376
705.334780,919.314598,1702.473667,9104.533087
705.335096,1762.019645,2220.617826,8512.368333
705.335411,1991.848295,1850.514855,7846.182985
705.335727,1838.629195,1702.473667,7624.121203
705.336043,2145.067394,1406.391290,7846.182985
705.336359,1915.238745,666.185348,7698.141797
705.336674,1302.362347,370.102971,9030.512492
705.336990,229.828649,814.226536,9030.512492
705.337306,-612.876398,666.185348,9400.615463
705.337622,-1378.971896,-222.061783,10584.944971
705.337937,-1532.190996,-888.247130,11325.150913
705.338253,-1991.848295,-888.247130,11399.171507
705.338569,-2221.676944,-1036.288319,11251.130318
705.338885,-1685.410096,-1184.329507,11399.171507
705.339201,-766.095498,-666.185348,11251.130318
705.339516,-229.828649,962.267725,9696.697840
705.339832,766.095498,1406.391290,9104.533087
705.340148,1532.190996,888.247130,8364.327145
705.340464,1532.190996,888.247130,7402.059420
705.340779,1915.238745,666.185348,7920.203579
705.341095,2298.286494,296.082377,8438.347739
705.341411,2068.457845,-0.000000,8882.471304
705.341727,1302.362347,-74.020594,8734.430116
705.342042,766.095498,-74.020594,9326.594869
705.342358,0.000000,-1036.288319,9474.636058
705.342674,-612.876398,-1406.391290,10362.883188
705.342990,-1072.533697,-1998.556043,10584.944971
705.343305,-1072.533697,-2220.617826,11473.192101
705.343621,-1225.752797,-2516.700203,11473.192101
705.343937,-842.705048,-2146.597232,10955.047942
705.344253,-306.438199,-1332.370696,10140.821405
705.344568,766.095498,-444.123565,9474.636058
705.344884,1608.800546,-0.000000,8290.306550
705.345200,1915.238745,-0.000000,8068.244768
705.345516,2528.115143,74.020594,7624.121203
705.345832,2528.115143,-0.000000,7328.038826
705.346147,2757.943793,-296.082377,7846.182985
705.346463,2528.115143,-666.185348,8290.306550
705.346779,1302.362347,-740.205942,8216.285956
705.347095,536.266849,-962.267725,9178.553681
705.347410,229.828649,-1332.370696,9992.780217
705.347726,-842.705048,-2220.617826,10807.006753
705.348042,-1149.143247,-2220.617826,11029.068536
705.348358,-1608.800546,-2368.659014,11473.192101
705.348673,-1225.752797,-2368.659014,11029.068536
705.348989,-1072.533697,-1628.453072,10362.883188
705.349305,-153.219100,-592.164754,9696.697840
705.349621,459.657299,-148.041188,9104.533087
705.349936,1072.533697,-74.020594,8290.306550
705.350252,1225.752797,-0.000000,7402.059420
705.350568,1685.410096,-0.000000,7179.997637
705.350884,1762.019645,-148.041188,7698.141797
705.351200,1455.581446,-296.082377,8216.285956
705.351515,536.266849,-222.061783,8808.450710
705.351831,-306.438199,-296.082377,9104.533087
705.352147,-459.657299,-1184.329507,9548.656652
705.352463,-689.485948,-1998.556043,10584.944971
705.352778,-1532.190996,-1258.350101,11547.212695
705.353094,-2221.676944,-1702.473667,11547.212695
705.353410,-1838.629195,-1554.432478,11251.130318
705.353726,-1532.190996,-1110.308913,10881.027347
705.354041,-842.705048,592.164754,10362.883188
705.354357,383.047749,888.247130,9474.636058
705.354673,1225.752797,592.164754,8142.265362
705.354989,1532.190996,962.267725,7920.203579
705.355304,1838.629195,1184.329507,7328.038826
705.355620,2911.162892,1036.288319,8142.265362
705.355936,2604.724693,814.226536,8586.388927
705.356252,1225.752797,740.205942,8586.388927
705.356567,995.924147,888.247130,9178.553681
705.356883,383.047749,814.226536,9844.739029
705.357199,0.000000,-0.000000,10510.924376
705.357515,-153.219100,-444.123565,11029.068536
705.357831,-536.266849,-74.020594,10955.047942
705.358146,-536.266849,-0.000000,11177.109724
705.358462,0.000000,-444.123565,10955.047942
705.358778,229.828649,296.082377,10510.924376
705.359094,229.828649,1480.411884,9992.780217
705.359409,1838.629195,1850.514855,8956.491898
705.359725,2145.067394,1628.453072,8512.368333
705.360041,2068.457845,2294.638420,7772.162391
705.360357,2374.896044,1924.535449,7476.080014
705.360672,2528.115143,1406.391290,8068.244768
705.360988,2145.067394,888.247130,8956.491898
705.361304,995.924147,814.226536,8956.491898
705.361620,153.219100,814.226536,9474.636058
705.361935,0.000000,444.123565,10436.903782
705.362251,-612.876398,-666.185348,11177.109724
705.362567,-919.314598,-1036.288319,11251.130318
705.362883,-1608.800546,-888.247130,11695.253884
705.363199,-1378.971896,-1332.370696,11991.336260
705.363514,-1072.533697,-1110.308913,11251.130318
705.363830,-612.876398,-0.000000,10140.821405
705.364146,229.828649,518.144159,9770.718434
705.364462,1378.971896,370.102971,9252.574275
705.364777,1838.629195,1036.288319,7846.182985
705.365093,1608.800546,1036.288319,7920.203579
705.365409,1915.238745,518.144159,7846.182985
705.365725,2451.505594,444.123565,8438.347739
705.366040,1915.238745,-222.061783,8808.450710
705.366356,612.876398,-0.000000,8956.491898
705.366672,459.657299,-296.082377,9548.656652
705.366988,306.438199,-1628.453072,10288.862594
705.367303,-766.095498,-1776.494261,10584.944971
705.367619,-1302.362347,-1924.535449,10881.027347
705.367935,-1762.019645,-2220.617826,11473.192101
705.368251,-1072.533697,-2442.679609,11325.150913
705.368566,-1225.752797,-1776.494261,10584.944971
705.368882,-229.828649,-1036.288319,9918.759623
705.369198,842.705048,-370.102971,9030.512492
705.369514,1225.752797,-74.020594,8290.306550
705.369821,1915.238745,-148.041188,7254.018232
705.370136,2068.457845,-0.000000,7328.038826
705.370452,2451.505594,-148.041188,7550.100608
705.370768,1608.800546,-518.144159,7624.121203
705.371084,1149.143247,-444.123565,8660.409521
705.371399,383.047749,-444.123565,8808.450710
705.371715,0.000000,-1332.370696,8882.471304
705.372031,-612.876398,-1924.535449,10214.842000
705.372347,-1149.143247,-2516.700203,10658.965565
705.372662,-1915.238745,-2368.659014,11103.089130
705.372978,-1608.800546,-2220.617826,10955.047942
705.373294,-1225.752797,-2146.597232,10807.006753
705.373610,-766.095498,-814.226536,9474.636058
705.373925,229.828649,-222.061783,8956.491898
705.374241,842.705048,-518.144159,8956.491898
705.374557,1072.533697,-222.061783,7624.121203
705.374873,1378.971896,74.020594,7328.038826
705.375188,1608.800546,-0.000000,7105.977043
705.375504,1608.800546,-444.123565,8142.265362
705.375820,766.095498,-740.205942,8660.409521
705.376136,229.828649,-74.020594,8660.409521
705.376451,-229.828649,-148.041188,9474.636058
705.376767,-689.485948,-1258.350101,10140.821405
705.377083,-1455.581446,-2220.617826,10955.047942
705.377398,-1608.800546,-1998.556043,11325.150913
705.377714,-1378.971896,-1258.350101,11399.171507
705.378030,-689.485948,-1258.350101,11177.109724
705.378346,-459.657299,-222.061783,10066.800811
705.378661,612.876398,518.144159,9992.780217
705.378977,1302.362347,740.205942,9548.656652
705.379293,1685.410096,1036.288319,8068.244768
705.379609,1991.848295,1998.556043,7476.080014
705.379924,2911.162892,1850.514855,7994.224174
705.380240,2911.162892,1332.370696,8438.347739
705.380556,2451.505594,1554.432478,8660.409521
705.380872,1302.362347,1110.308913,8660.409521
705.381187,919.314598,814.226536,9474.636058
705.381503,306.438199,-0.000000,10955.047942
705.381819,229.828649,-296.082377,11251.130318
705.382135,-689.485948,-222.061783,11325.150913
705.382450,-689.485948,-148.041188,11695.253884
705.382766,-459.657299,-148.041188,11621.233289
705.383082,153.219100,444.123565,11177.109724
705.383398,76.609550,888.247130,10214.842000
705.383713,842.705048,1332.370696,9400.615463
705.384029,1838.629195,1850.514855,8586.388927
705.384345,1991.848295,1628.453072,8438.347739
705.384661,2604.724693,1776.494261,8068.244768
705.384976,2451.505594,1924.535449,7328.038826
705.385292,1991.848295,1110.308913,8142.265362
705.385608,1455.581446,1184.329507,9104.533087
705.385924,612.876398,740.205942,9178.553681
705.386239,459.657299,444.123565,10140.821405
705.386555,-536.266849,-0.000000,10214.842000
705.386871,-842.705048,-888.247130,10436.903782
705.387186,-1072.533697,-962.267725,10881.027347
705.387502,-1608.800546,-1406.391290,11103.089130
705.387818,-1149.143247,-1554.432478,11325.150913
705.388134,-1072.533697,-518.144159,10584.944971
705.388449,-459.657299,370.102971,9178.553681
705.388765,229.828649,444.123565,8882.471304
705.389081,995.924147,-148.041188,8290.306550
705.389397,1072.533697,222.061783,7772.162391
705.389712,1762.019645,666.185348,7550.100608
705.390028,1838.629195,148.041188,7624.121203
705.390344,1532.190996,-222.061783,8512.368333
705.390660,842.705048,-222.061783,8882.471304
705.390975,306.438199,-296.082377,9252.574275
705.391291,0.000000,-888.247130,9770.718434
705.391607,-766.095498,-1406.391290,9918.759623
705.391923,-919.314598,-1554.432478,11029.068536
705.392238,-842.705048,-2146.597232,10881.027347
705.392554,-842.705048,-1850.514855,11103.089130
705.392870,-536.266849,-1258.350101,10732.986159
705.393186,0.000000,-444.123565,9992.780217
705.393501,1072.533697,222.061783,9474.636058
705.393817,1532.190996,-0.000000,8364.327145
705.394133,1378.971896,-0.000000,7624.121203
705.394449,1685.410096,296.082377,7550.100608
705.394764,2298.286494,-370.102971,8068.244768
705.395080,1991.848295,-370.102971,8364.327145
705.395396,995.924147,-962.267725,9104.533087
705.395711,612.876398,-592.164754,8882.471304
705.396027,306.438199,-1110.308913,9474.636058
705.396343,0.000000,-1406.391290,10288.862594
705.396659,-383.047749,-1998.556043,10510.924376
705.396974,-919.314598,-1702.473667,10066.800811
705.397290,-1302.362347,-2294.638420,11177.109724
705.397606,-919.314598,-2072.576638,10658.965565
705.397922,-766.095498,-1406.391290,10436.903782
705.398237,0.000000,-518.144159,9696.697840
705.398553,995.924147,-592.164754,8438.347739
705.398869,1225.752797,-296.082377,7920.203579
705.399185,1072.533697,-296.082377,8068.244768
705.399500,1455.581446,-148.041188,7624.121203
705.399816,1455.581446,-814.226536,8142.265362
705.400132,536.266849,-370.102971,8808.450710
705.400448,0.000000,-0.000000,9030.512492
705.400763,0.000000,-0.000000,9178.553681
705.401079,-153.219100,-222.061783,10066.800811
705.401395,-919.314598,-1258.350101,10362.883188
705.401711,-919.314598,-1258.350101,10881.027347
705.402026,-766.095498,-1258.350101,10807.006753
705.402342,-1072.533697,-1036.288319,10881.027347
705.402658,-383.047749,-370.102971,11029.068536
705.402974,536.266849,592.164754,9918.759623
705.403289,1149.143247,1036.288319,9104.533087
705.403605,1685.410096,888.247130,8512.368333
705.403921,1915.238745,1480.411884,7698.141797
705.404236,2451.505594,1850.514855,7772.162391
705.404552,2451.505594,1702.473667,8290.306550
705.404868,1991.848295,1036.288319,8142.265362
705.405184,1455.581446,1036.288319,9252.574275
705.405499,689.485948,1406.391290,9178.553681
705.405815,612.876398,962.267725,9474.636058
705.406131,153.219100,370.102971,10732.986159
705.406447,-229.828649,-444.123565,11251.130318
705.406762,-766.095498,-296.082377,11251.130318
705.407078,-536.266849,-222.061783,11029.068536
705.407394,0.000000,148.041188,10584.944971
705.407710,229.828649,666.185348,10436.903782
705.408025,995.924147,1702.473667,9696.697840
705.408341,1532.190996,1480.411884,8438.347739
705.408657,2068.457845,1480.411884,7920.203579
705.408973,1685.410096,1036.288319,8216.285956
705.409288,1378.971896,1184.329507,8364.327145
705.409604,1762.019645,666.185348,9104.533087
705.409920,1072.533697,444.123565,9178.553681
705.410236,306.438199,1036.288319,9252.574275
705.410551,-383.047749,1110.308913,9992.780217
705.410867,-383.047749,296.082377,10584.944971
705.411183,-689.485948,-592.164754,10140.821405
705.411499,-919.314598,-370.102971,11029.068536
705.411814,-1455.581446,-962.267725,11029.068536
705.412130,-1072.533697,-1480.411884,11103.089130
705.412446,-766.095498,-666.185348,10807.006753
705.412761,-536.266849,-74.020594,10066.800811
705.413077,536.266849,-0.000000,9548.656652
705.413393,689.485948,592.164754,8364.327145
705.413709,1225.752797,740.205942,8216.285956
705.414024,1149.143247,592.164754,8216.285956
705.414340,1378.971896,148.041188,8364.327145
705.414656,1455.581446,-444.123565,9178.553681
705.414972,919.314598,-296.082377,8808.450710
705.415287,306.438199,-666.185348,8882.471304
705.415603,-153.219100,-1184.329507,9844.739029
705.415919,-536.266849,-1702.473667,10658.965565
705.416235,-689.485948,-1702.473667,10807.006753
705.416550,-459.657299,-1776.494261,10436.903782
705.416866,-919.314598,-1628.453072,10732.986159
705.417182,0.000000,-1702.473667,11103.089130
705.417498,383.047749,-814.226536,10066.800811
705.417813,919.314598,-0.000000,8882.471304
705.418129,1762.019645,-0.000000,8142.265362
705.418445,2374.896044,-148.041188,7772.162391
705.418761,1915.238745,-222.061783,7179.997637
705.419076,2298.286494,-0.000000,7846.182985
705.419392,1838.629195,-814.226536,8142.265362
705.419708,766.095498,-222.061783,8882.471304
705.420024,459.657299,-666.185348,8882.471304
705.420339,-153.219100,-666.185348,9178.553681
705.420655,-383.047749,-1850.514855,10436.903782
705.420971,-842.705048,-2442.679609,10658.965565
705.421287,-1149.143247,-2072.576638,10732.986159
705.421602,-1455.581446,-2368.659014,10881.027347
705.421918,-689.485948,-2368.659014,10732.986159
705.422234,-612.876398,-1406.391290,9918.759623
705.422549,76.609550,-518.144159,9474.636058
705.422865,919.314598,-148.041188,8660.409521
705.423181,766.095498,-222.061783,7846.182985
705.423497,1149.143247,-148.041188,7550.100608
705.423812,1455.581446,-74.020594,7698.141797
705.424128,2145.067394,-592.164754,8290.306550
705.424444,1225.752797,-370.102971,8512.368333
705.424760,612.876398,-0.000000,8290.306550
705.425075,76.609550,-296.082377,9178.553681
705.425391,459.657299,-740.205942,9992.780217
705.425707,-459.657299,-1480.411884,10732.986159
705.426023,-1225.752797,-1036.288319,10807.006753
705.426338,-1378.971896,-962.267725,10732.986159
705.426654,-1149.143247,-1406.391290,11251.130318
705.426970,-766.095498,-148.041188,11103.089130
705.427286,-153.219100,370.102971,10362.883188
705.427601,459.657299,1480.411884,9252.574275
705.427917,1149.143247,1258.350101,8512.368333
705.428233,1378.971896,962.267725,8364.327145
705.428549,2068.457845,1110.308913,8142.265362
705.428864,1991.848295,962.267725,8364.327145
705.429180,1378.971896,962.267725,8660.409521
705.429496,1149.143247,814.226536,9104.533087
705.429812,229.828649,1184.329507,9474.636058
705.430127,459.657299,740.205942,10362.883188
705.430443,76.609550,296.082377,10362.883188
705.430759,0.000000,-0.000000,10732.986159
705.431074,-306.438199,-0.000000,10732.986159
705.431390,459.657299,-296.082377,11177.109724
705.431706,0.000000,148.041188,10955.047942
705.432022,0.000000,1036.288319,10362.883188
705.432337,995.924147,1776.494261,9622.677246
705.432653,1762.019645,1702.473667,8882.471304
705.432969,1838.629195,1406.391290,8438.347739
705.433285,1685.410096,1480.411884,8290.306550
705.433600,1838.629195,1184.329507,7994.224174
705.433916,1915.238745,518.144159,8808.450710
705.434232,1149.143247,444.123565,9326.594869
705.434548,612.876398,296.082377,9400.615463
705.434863,-383.047749,222.061783,9770.718434
705.435179,0.000000,-74.020594,10140.821405
705.435495,-766.095498,-740.205942,10955.047942
705.435811,-1302.362347,-888.247130,10436.903782
705.436126,-1378.971896,-888.247130,10732.986159
705.436442,-689.485948,-1628.453072,11473.192101
705.436758,-842.705048,-888.247130,10362.883188
705.437074,0.000000,518.144159,9400.615463
705.437389,536.266849,296.082377,9252.574275
705.437705,1455.581446,-0.000000,8512.368333
705.438021,1608.800546,518.144159,8068.244768
705.438337,1838.629195,222.061783,7846.182985
705.438652,1762.019645,-0.000000,8290.306550
705.438968,1455.581446,-444.123565,8808.450710
705.439284,612.876398,-0.000000,9178.553681
705.439599,-153.219100,-296.082377,9474.636058
705.439915,-229.828649,-1036.288319,9992.780217
705.440231,-383.047749,-1776.494261,10066.800811
705.440547,-1072.533697,-1998.556043,11029.068536
705.440862,-1532.190996,-2072.576638,10881.027347
705.441178,-766.095498,-1850.514855,11251.130318
705.441494,76.609550,-1776.494261,10881.027347
705.441810,229.828649,-222.061783,9918.759623
705.442125,995.924147,518.144159,8512.368333
705.442441,1991.848295,518.144159,7624.121203
705.442757,2068.457845,-0.000000,7920.203579
705.443073,2068.457845,-0.000000,7550.100608
705.443388,2451.505594,-296.082377,7994.224174
705.443704,1838.629195,-888.247130,8512.368333
705.444020,919.314598,-814.226536,9030.512492
705.444336,229.828649,-518.144159,8660.409521
705.444651,0.000000,-592.164754,9622.677246
705.444967,-612.876398,-1258.350101,9918.759623
705.445283,-995.924147,-1924.535449,10658.965565
705.445599,-1225.752797,-2368.659014,11251.130318
705.445914,-1378.971896,-2516.700203,11029.068536
705.446230,-995.924147,-2294.638420,11251.130318
705.446546,-536.266849,-1110.308913,9992.780217
705.446862,153.219100,-0.000000,9104.533087
705.447177,842.705048,-296.082377,9104.533087
705.447493,1455.581446,148.041188,8216.285956
705.447809,1455.581446,814.226536,7254.018232
705.448124,1685.410096,444.123565,7476.080014
705.448440,1762.019645,-222.061783,7994.224174
705.448756,1225.752797,-740.205942,8586.388927
705.449072,153.219100,-296.082377,8882.471304
705.449387,-153.219100,-0.000000,9474.636058
705.449703,-459.657299,-740.205942,9844.739029
705.450019,-1072.533697,-1332.370696,10140.821405
705.450335,-1838.629195,-1776.494261,10436.903782
705.450650,-1685.410096,-1850.514855,11473.192101
705.450966,-995.924147,-1554.432478,11251.130318
705.451282,-689.485948,-962.267725,10658.965565
705.451598,0.000000,-0.000000,10214.842000
705.451913,612.876398,518.144159,9474.636058
705.452229,1532.190996,370.102971,8364.327145
705.452545,1762.019645,1036.288319,7920.203579
705.452861,2145.067394,1480.411884,7846.182985
705.453176,2221.676944,962.267725,7772.162391
705.453492,2604.724693,814.226536,8290.306550
705.453808,1838.629195,740.205942,9104.533087
705.454124,919.314598,1628.453072,9252.574275
705.454439,842.705048,1406.391290,9326.594869
705.454755,766.095498,296.082377,10288.862594
705.455071,-229.828649,-148.041188,10955.047942
705.455387,-612.876398,-0.000000,11103.089130
705.455702,-306.438199,-222.061783,11177.109724
705.456018,0.000000,-74.020594,11695.253884
705.456334,76.609550,888.247130,11103.089130
705.456650,536.266849,2072.576638,9622.677246
705.456965,1532.190996,2220.617826,8660.409521
705.457281,1838.629195,2220.617826,8290.306550
705.457597,1685.410096,2146.597232,8660.409521
705.457912,2145.067394,1998.556043,8216.285956
705.458228,1991.848295,1554.432478,8364.327145
705.458544,1455.581446,1110.308913,9030.512492
705.458860,842.705048,888.247130,9474.636058
705.459175,0.000000,1036.288319,10066.800811
705.459491,-459.657299,-370.102971,10436.903782
705.459807,-766.095498,-592.164754,11029.068536
705.460123,-995.924147,-444.123565,10584.944971
705.460438,-1149.143247,-888.247130,10807.006753
705.460754,-536.266849,-962.267725,11473.192101
705.461070,-229.828649,-444.123565,10510.924376
705.461386,0.000000,518.144159,9844.739029
705.461701,689.485948,962.267725,8882.471304
705.462017,1302.362347,-74.020594,8438.347739
705.462333,1608.800546,222.061783,7920.203579
705.462649,1302.362347,666.185348,7994.224174
705.462964,1532.190996,222.061783,7994.224174
705.463280,1455.581446,-148.041188,8290.306550
705.463596,766.095498,-740.205942,9548.656652
705.463912,-229.828649,-370.102971,9696.697840
705.464227,0.000000,-814.226536,10066.800811
705.464543,-919.314598,-1480.411884,10140.821405
705.464859,-1149.143247,-1628.453072,10732.986159
705.465175,-1302.362347,-2220.617826,10881.027347
705.465490,-1149.143247,-1776.494261,10881.027347
705.465806,-383.047749,-1628.453072,10732.986159
705.466122,-153.219100,-962.267725,9622.677246
705.466437,995.924147,-0.000000,9326.594869
705.466753,1608.800546,-222.061783,8290.306550
705.467069,2145.067394,-148.041188,8142.265362
705.467385,2068.457845,-0.000000,7698.141797
705.467700,2298.286494,-0.000000,7328.038826
705.468016,2451.505594,-74.020594,7920.203579
705.468332,1838.629195,-518.144159,8438.347739
705.468647,1072.533697,-740.205942,8586.388927
705.468963,0.000000,-1036.288319,9400.615463
705.469278,-766.095498,-1702.473667,10214.842000
705.469594,-612.876398,-2590.720797,10732.986159
705.469910,-1838.629195,-2146.597232,10436.903782
705.470225,-1532.190996,-2368.659014,11251.130318
705.470541,-1378.971896,-2516.700203,10807.006753
705.470857,-1455.581446,-1850.514855,10732.986159
705.471172,-459.657299,-1332.370696,9844.739029
705.471488,229.828649,-888.247130,8956.491898
705.471803,995.924147,-814.226536,8290.306550
705.472119,995.924147,-370.102971,8068.244768
705.472435,1225.752797,-0.000000,7402.059420
705.472750,2068.457845,-592.164754,7698.141797
705.473066,1608.800546,-0.000000,7920.203579
705.473382,-306.438199,222.061783,8364.327145
705.473697,-229.828649,-1110.308913,9030.512492
705.474013,229.828649,-888.247130,10066.800811
705.474328,-1302.362347,-1554.432478,10584.944971
705.474644,-1149.143247,-2220.617826,11029.068536
705.474960,-842.705048,-2220.617826,11029.068536
705.475275,-1455.581446,-1850.514855,10955.047942
705.475591,-306.438199,-1480.411884,11473.192101
705.475907,-383.047749,-0.000000,10362.883188
705.476222,76.609550,1406.391290,9104.533087
705.476538,1608.800546,1554.432478,8290.306550
705.476853,1838.629195,1406.391290,7994.224174
705.477169,2451.505594,962.267725,7772.162391
705.477485,2298.286494,1184.329507,7624.121203
705.477800,2221.676944,592.164754,8512.368333
705.478116,1455.581446,-0.000000,9326.594869
705.478432,766.095498,888.247130,9178.553681
705.478747,536.266849,1110.308913,9622.677246
705.479063,0.000000,592.164754,10214.842000
705.479378,-383.047749,148.041188,11177.109724
705.479694,-766.095498,-0.000000,10658.965565
705.480010,-153.219100,-0.000000,11473.192101
705.480325,-459.657299,-666.185348,10881.027347
705.480641,153.219100,148.041188,10955.047942
705.480957,842.705048,1406.391290,9918.759623
705.481272,1608.800546,2072.576638,9030.512492
705.481588,2451.505594,1998.556043,8734.430116
705.481903,2221.676944,2442.679609,8660.409521
705.482219,2221.676944,2220.617826,7254.018232
705.482535,2298.286494,2146.597232,8290.306550
705.482850,1991.848295,1258.350101,8660.409521
705.483166,919.314598,1258.350101,9252.574275
705.483482,536.266849,666.185348,9326.594869
705.483797,153.219100,296.082377,10288.862594
705.484113,0.000000,-296.082377,10807.006753
705.484428,-766.095498,-592.164754,10658.965565
705.484744,-1225.752797,-962.267725,11177.109724
705.485060,-1149.143247,-1258.350101,11843.295072
705.485375,-689.485948,-1036.288319,10807.006753
705.485691,-383.047749,-148.041188,10362.883188
705.486007,229.828649,296.082377,10066.800811
705.486322,1302.362347,-0.000000,9252.574275
705.486638,1302.362347,444.123565,8290.306550
705.486953,1838.629195,888.247130,7624.121203
705.487269,2068.457845,740.205942,7402.059420
705.487585,1991.848295,296.082377,8586.388927
705.487900,1608.800546,-0.000000,8512.368333
705.488216,383.047749,-0.000000,9252.574275
705.488531,0.000000,-370.102971,9400.615463
705.488847,-383.047749,-1258.350101,9770.718434
705.489163,-459.657299,-1998.556043,11177.109724
705.489478,-766.095498,-2442.679609,11103.089130
705.489794,-1149.143247,-1850.514855,11399.171507
705.490110,-842.705048,-1924.535449,11325.150913
705.490425,-229.828649,-1332.370696,10584.944971
705.490741,76.609550,-0.000000,9844.739029
705.491056,1072.533697,-74.020594,8808.450710
705.491372,2221.676944,-370.102971,8216.285956
705.491688,1915.238745,74.020594,7698.141797
705.492003,2374.896044,888.247130,7328.038826
705.492319,2604.724693,-148.041188,7105.977043
705.492635,1915.238745,-222.061783,8290.306550
705.492950,1149.143247,-592.164754,8660.409521
705.493266,459.657299,-888.247130,9178.553681
705.493581,0.000000,-1480.411884,9474.636058
705.493897,-919.314598,-2590.720797,10214.842000
705.494213,-1302.362347,-2590.720797,10807.006753
705.494528,-1225.752797,-2368.659014,10362.883188
705.494844,-1532.190996,-2368.659014,10807.006753
705.495160,-995.924147,-2072.576638,10658.965565
705.495475,-1378.971896,-1258.350101,9918.759623
705.495791,-612.876398,-740.205942,9178.553681
705.496106,306.438199,-814.226536,8142.265362
705.496422,995.924147,-740.205942,7846.182985
705.496738,1225.752797,-370.102971,7179.997637
705.497053,1532.190996,-444.123565,7105.977043
705.497369,1685.410096,-296.082377,8068.244768
705.497685,689.485948,-74.020594,8068.244768
705.498000,0.000000,-74.020594,8438.347739
705.498316,-306.438199,-0.000000,9178.553681
705.498631,-536.266849,-888.247130,9844.739029
705.498947,-1072.533697,-1406.391290,10584.944971
705.499263,-1378.971896,-1702.473667,10881.027347
705.499578,-1455.581446,-1406.391290,11251.130318
705.499894,-1302.362347,-1184.329507,11251.130318
705.500210,-995.924147,518.144159,10658.965565
705.500525,229.828649,1628.453072,9474.636058
705.500841,995.924147,1850.514855,8808.450710
705.501156,1762.019645,1850.514855,8364.327145
705.501472,2145.067394,1702.473667,7920.203579
705.501788,2374.896044,1776.494261,7476.080014
705.502103,2451.505594,1480.411884,8142.265362
705.502419,1838.629195,1036.288319,9178.553681
705.502735,1225.752797,1554.432478,9252.574275
705.503050,842.705048,1776.494261,9474.636058
705.503366,153.219100,1184.329507,10288.862594
705.503681,0.000000,-0.000000,11177.109724
705.503997,0.000000,-0.000000,11399.171507
705.504313,-536.266849,-296.082377,11547.212695
705.504628,-229.828649,-592.164754,11769.274478
705.504944,76.609550,-148.041188,11843.295072
705.505260,536.266849,1184.329507,10140.821405
705.505575,1378.971896,1702.473667,9548.656652
705.505891,2451.505594,1702.473667,8586.388927
705.506206,2451.505594,1702.473667,7994.224174
705.506522,2451.505594,1998.556043,7920.203579
705.506838,2681.334243,1480.411884,7994.224174
705.507153,2528.115143,666.185348,8660.409521
705.507469,1762.019645,370.102971,9326.594869
705.507785,766.095498,222.061783,9400.615463
705.508100,0.000000,370.102971,9770.718434
705.508416,-229.828649,-370.102971,10288.862594
705.508731,-919.314598,-1258.350101,11103.089130
705.509047,-1378.971896,-1628.453072,11547.212695
705.509363,-1302.362347,-1554.432478,11621.233289
705.509678,-919.314598,-1036.288319,11325.150913
705.509994,-689.485948,-444.123565,10214.842000
705.510310,153.219100,296.082377,9844.739029
705.510625,1072.533697,740.205942,9104.533087
705.510941,1838.629195,740.205942,8142.265362
705.511256,2374.896044,1258.350101,7402.059420
705.511572,2298.286494,962.267725,7254.018232
705.511888,2681.334243,444.123565,7772.162391
705.512203,1685.410096,-296.082377,8808.450710
705.512519,766.095498,-0.000000,8882.471304
705.512835,76.609550,74.020594,8882.471304
705.513150,-306.438199,-740.205942,9548.656652
705.513466,-766.095498,-1184.329507,10436.903782
705.513781,-1225.752797,-1332.370696,11029.068536
705.514097,-1532.190996,-2220.617826,10955.047942
705.514413,-1149.143247,-2072.576638,11621.233289
705.514728,-919.314598,-1554.432478,11177.109724
705.515044,153.219100,-814.226536,9770.718434
705.515360,766.095498,-296.082377,8660.409521
705.515675,1072.533697,-296.082377,8808.450710
705.515991,1532.190996,-222.061783,8216.285956
705.516306,1608.800546,-0.000000,6957.935855
705.516622,1685.410096,-74.020594,7402.059420
705.516938,1608.800546,-666.185348,7994.224174
705.517253,995.924147,-1258.350101,8808.450710
705.517569,229.828649,-1110.308913,8438.347739
705.517884,0.000000,-962.267725,9474.636058
705.518200,0.000000,-2590.720797,9992.780217
705.518516,-995.924147,-2886.803174,10066.800811
705.518831,-1378.971896,-2664.741391,11177.109724
705.519147,-1532.190996,-2960.823768,11325.150913
705.519463,-1302.362347,-2738.761985,10881.027347
705.519778,-1072.533697,-1258.350101,10362.883188
705.520094,-383.047749,-592.164754,9104.533087
705.520409,612.876398,-296.082377,8808.450710
705.520725,1072.533697,-444.123565,7920.203579
705.521041,919.314598,-666.185348,7402.059420
705.521356,995.924147,-888.247130,7920.203579
705.521672,1455.581446,-814.226536,8364.327145
705.521988,1225.752797,-888.247130,8808.450710
705.522303,383.047749,-444.123565,9178.553681
705.522619,0.000000,-0.000000,9548.656652
705.522934,-383.047749,-1036.288319,9770.718434
705.523250,-995.924147,-1480.411884,10584.944971
705.523566,-1378.971896,-1628.453072,11103.089130
705.523881,-842.705048,-888.247130,11251.130318
705.524197,-459.657299,-888.247130,10955.047942
705.524513,0.000000,-592.164754,10436.903782
705.524828,459.657299,740.205942,9770.718434
705.525144,1532.190996,1406.391290,9178.553681
705.525459,2221.676944,1406.391290,8142.265362
705.525775,1991.848295,1776.494261,7920.203579
705.526091,2374.896044,1850.514855,8216.285956
705.526406,2451.505594,1258.350101,8364.327145
705.526722,2145.067394,1036.288319,9178.553681
705.527038,1455.581446,1406.391290,9326.594869
705.527353,689.485948,1258.350101,9474.636058
705.527669,459.657299,740.205942,9696.697840
705.527984,76.609550,-0.000000,10732.986159
705.528300,-306.438199,-222.061783,10881.027347
705.528616,-459.657299,-296.082377,11103.089130
705.528931,-459.657299,-518.144159,11547.212695
705.529247,0.000000,-0.000000,11325.150913
705.529563,383.047749,1110.308913,10140.821405
705.529878,919.314598,2220.617826,9178.553681
705.530194,2068.457845,1480.411884,8438.347739
705.530509,2451.505594,1036.288319,8216.285956
705.530825,2221.676944,1406.391290,7624.121203
705.531141,2221.676944,1332.370696,7846.182985
705.531456,2221.676944,962.267725,8882.471304
705.531772,1532.190996,740.205942,9030.512492
705.532088,612.876398,740.205942,8660.409521
705.532403,0.000000,518.144159,9548.656652
705.532719,-383.047749,-148.041188,10658.965565
705.533034,-1072.533697,-962.267725,10510.924376
705.533350,-1915.238745,-666.185348,10881.027347
705.533666,-1378.971896,-1110.308913,11251.130318
705.533981,-1302.362347,-1110.308913,11177.109724
705.534297,-536.266849,-666.185348,10584.944971
705.534613,-536.266849,148.041188,9844.739029
705.534928,306.438199,666.185348,9030.512492
705.535244,689.485948,444.123565,8808.450710
705.535559,1225.752797,370.102971,8364.327145
705.535875,1302.362347,444.123565,7920.203579
705.536191,1838.629195,518.144159,7698.141797
705.536506,2068.457845,592.164754,8438.347739
705.536822,1149.143247,222.061783,8734.430116
705.537138,229.828649,296.082377,9104.533087
705.537453,0.000000,-296.082377,9918.759623
705.537769,153.219100,-1628.453072,10362.883188
705.538084,-766.095498,-1702.473667,10584.944971
705.538400,-1225.752797,-1406.391290,10955.047942
705.538716,-1149.143247,-2072.576638,11103.089130
705.539031,-536.266849,-2072.576638,11177.109724
705.539347,0.000000,-814.226536,9918.759623
705.539663,306.438199,-0.000000,9252.574275
705.539978,1149.143247,-296.082377,8882.471304
705.540294,1378.971896,-74.020594,8142.265362
705.540609,1762.019645,-74.020594,7476.080014
705.540925,1838.629195,-444.123565,7994.224174
705.541241,1991.848295,-1036.288319,7920.203579
705.541556,1378.971896,-1628.453072,8586.388927
705.541872,536.266849,-1258.350101,9326.594869
705.542188,383.047749,-1258.350101,9622.677246
705.542503,-612.876398,-1850.514855,9622.677246
705.542819,-995.924147,-2590.720797,10288.862594
705.543134,-1455.581446,-2664.741391,11473.192101
705.543450,-1149.143247,-2664.741391,11029.068536
705.543766,-766.095498,-2516.700203,10732.986159
705.544081,0.000000,-1702.473667,10066.800811
705.544397,153.219100,-814.226536,9252.574275
705.544713,919.314598,-444.123565,8808.450710
705.545028,1302.362347,-518.144159,7846.182985
705.545344,1455.581446,-74.020594,7920.203579
705.545659,1378.971896,-222.061783,7772.162391
705.545975,1838.629195,-814.226536,8216.285956
705.546291,1225.752797,-1406.391290,9178.553681
705.546606,-76.609550,-1036.288319,9030.512492
705.546922,-153.219100,-1036.288319,9844.739029
705.547237,-459.657299,-1332.370696,9622.677246
705.547553,-612.876398,-1480.411884,10362.883188
705.547869,-1072.533697,-1850.514855,10732.986159
705.548184,-919.314598,-1702.473667,11103.089130
705.548500,-1302.362347,-1702.473667,11177.109724
705.548816,-766.095498,-1036.288319,10732.986159
705.549131,153.219100,-0.000000,9844.739029
705.549447,766.095498,1110.308913,9030.512492
705.549762,1685.410096,1184.329507,7994.224174
705.550078,2451.505594,1184.329507,7920.203579
705.550394,2451.505594,1110.308913,7698.141797
705.550709,2451.505594,814.226536,7846.182985
705.551025,2451.505594,148.041188,8660.409521
705.551341,1838.629195,370.102971,9104.533087
705.551656,612.876398,962.267725,9474.636058
705.551972,536.266849,1702.473667,9844.739029
705.552287,0.000000,962.267725,9696.697840
705.552603,-536.266849,296.082377,10584.944971
705.552919,-995.924147,-74.020594,11029.068536
705.553234,-842.705048,-888.247130,11547.212695
705.553550,-536.266849,-370.102971,11547.212695
705.553866,0.000000,814.226536,10732.986159
705.554181,842.705048,1776.494261,9400.615463
705.554497,1838.629195,2812.782580,8660.409521
705.554812,2145.067394,2960.823768,8068.244768
705.555128,2221.676944,3256.906145,7476.080014
705.555444,2221.676944,3404.947333,7254.018232
705.555759,2221.676944,3034.844362,7846.182985
705.556075,1991.848295,2220.617826,8808.450710
705.556391,919.314598,1554.432478,9178.553681
705.556706,306.438199,1258.350101,9622.677246
705.557022,76.609550,518.144159,10362.883188
705.557337,-995.924147,-370.102971,11103.089130
705.557653,-1302.362347,-518.144159,11843.295072
705.557969,-1455.581446,444.123565,11103.089130
705.558284,-1072.533697,518.144159,11029.068536
705.558600,-1072.533697,666.185348,11251.130318
705.558916,-612.876398,1406.391290,10510.924376
705.559231,612.876398,1702.473667,9474.636058
705.559547,1149.143247,1776.494261,8512.368333
705.559862,1225.752797,1480.411884,8364.327145
705.560178,1532.190996,962.267725,7994.224174
705.560494,2145.067394,1258.350101,7920.203579
705.560809,1838.629195,370.102971,9104.533087
705.561125,689.485948,-0.000000,9474.636058
705.561441,76.609550,296.082377,10214.842000
705.561756,0.000000,-0.000000,10066.800811
705.562072,-153.219100,-0.000000,10732.986159
705.562387,-612.876398,-1110.308913,10584.944971
705.562703,-1149.143247,-1554.432478,11325.150913
705.563019,-612.876398,-1924.535449,11251.130318
705.563334,-536.266849,-1998.556043,11103.089130
705.563650,0.000000,-1332.370696,10584.944971
705.563966,306.438199,-666.185348,9622.677246
705.564281,1915.238745,-518.144159,9030.512492
705.564597,1991.848295,-0.000000,8512.368333
705.564912,2145.067394,222.061783,7328.038826
705.565228,2298.286494,-0.000000,7105.977043
705.565544,2451.505594,-518.144159,7920.203579
705.565859,1532.190996,-888.247130,8660.409521
705.566175,1072.533697,-1480.411884,8808.450710
705.566491,612.876398,-2072.576638,9252.574275
705.566806,229.828649,-2368.659014,9992.780217
705.567122,-766.095498,-2886.803174,10066.800811
705.567437,-1072.533697,-2960.823768,10807.006753
705.567753,-1225.752797,-2664.741391,11103.089130
705.568069,-1532.190996,-3256.906145,10362.883188
705.568384,-919.314598,-2220.617826,9844.739029
705.568700,-229.828649,-1332.370696,9178.553681
705.569016,766.095498,-1184.329507,8586.388927
705.569331,1302.362347,-1258.350101,7624.121203
705.569647,1685.410096,-962.267725,7254.018232
705.569963,1455.581446,-888.247130,7179.997637
705.570278,1302.362347,-1184.329507,7105.977043
705.570594,919.314598,-1702.473667,8290.306550
705.570910,0.000000,-1998.556043,8808.450710
705.571225,-459.657299,-1036.288319,9400.615463
705.571541,-766.095498,-1924.535449,9400.615463
705.571857,-1149.143247,-2368.659014,10140.821405
705.572172,-1685.410096,-2960.823768,10658.965565
705.572488,-1455.581446,-2368.659014,11177.109724
705.572804,-1762.019645,-2146.597232,10584.944971
705.573119,-1072.533697,-1998.556043,10436.903782
705.573435,-536.266849,-1110.308913,10214.842000
705.573751,459.657299,-74.020594,8882.471304
705.574066,1378.971896,-0.000000,8142.265362
705.574382,1838.629195,518.144159,7105.977043
705.574697,1838.629195,666.185348,7179.997637
705.575013,2221.676944,740.205942,7846.182985
705.575329,1991.848295,518.144159,8216.285956
705.575644,995.924147,-0.000000,8808.450710
705.575960,689.485948,518.144159,9326.594869
705.576276,76.609550,518.144159,9474.636058
705.576591,-153.219100,-74.020594,10584.944971
705.576907,-612.876398,-518.144159,11547.212695
705.577223,-842.705048,-370.102971,11103.089130
705.577538,-995.924147,-148.041188,11103.089130
705.577854,-612.876398,148.041188,11251.130318
705.578170,-153.219100,740.205942,10955.047942
705.578485,536.266849,1628.453072,10140.821405
705.578801,995.924147,2442.679609,9030.512492
705.579117,1915.238745,2442.679609,8660.409521
705.579432,2145.067394,2368.659014,8216.285956
705.579748,1762.019645,2442.679609,7550.100608
705.580064,2221.676944,1480.411884,7994.224174
705.580379,2451.505594,1702.473667,8956.491898
705.580695,995.924147,1850.514855,9474.636058
705.581011,306.438199,1924.535449,9474.636058
705.581326,0.000000,814.226536,10584.944971
705.581642,-383.047749,-74.020594,11399.171507
705.581958,-1302.362347,-74.020594,12139.377449
705.582273,-1225.752797,148.041188,11473.192101
705.582589,-995.924147,-148.041188,11473.192101
705.582905,-459.657299,-296.082377,11547.212695
705.583220,-383.047749,370.102971,9992.780217
705.583536,536.266849,1258.350101,9992.780217
705.583852,1455.581446,1554.432478,8882.471304
705.584167,1762.019645,1258.350101,8734.430116
705.584483,2068.457845,1036.288319,8216.285956
705.584799,1915.238745,1406.391290,8586.388927
705.585114,2298.286494,296.082377,8808.450710
705.585430,1762.019645,222.061783,9474.636058
705.585746,842.705048,370.102971,9104.533087
705.586061,689.485948,-0.000000,9548.656652
705.586377,459.657299,-888.247130,10881.027347
705.586693,229.828649,-1480.411884,10584.944971
705.587008,-612.876398,-1702.473667,11029.068536
705.587324,-536.266849,-1998.556043,11029.068536
705.587640,0.000000,-1924.535449,11177.109724
705.587955,306.438199,-1036.288319,10584.944971
705.588271,766.095498,-0.000000,9622.677246
705.588587,1378.971896,148.041188,8808.450710
705.588902,2374.896044,-0.000000,8290.306550
705.589218,2451.505594,222.061783,7105.977043
705.589534,2528.115143,-0.000000,7179.997637
705.589849,2298.286494,-814.226536,7402.059420
705.590165,1838.629195,-1036.288319,8364.327145
705.590480,766.095498,-1554.432478,8438.347739
705.590796,306.438199,-1184.329507,8956.491898
705.591112,-229.828649,-1924.535449,9252.574275
705.591427,-919.314598,-2960.823768,9770.718434
705.591743,-1685.410096,-3108.864956,10807.006753
705.592059,-1685.410096,-3256.906145,10732.986159
705.592374,-2068.457845,-3182.885551,10807.006753
705.592690,-1072.533697,-3034.844362,10288.862594
705.593006,-1072.533697,-1998.556043,9104.533087
705.593321,-153.219100,-1036.288319,8438.347739
705.593637,383.047749,-1036.288319,7550.100608
705.593953,919.314598,-1036.288319,7179.997637
705.594268,766.095498,-1110.308913,6957.935855
705.594584,766.095498,-1036.288319,7031.956449
705.594900,536.266849,-1110.308913,7624.121203
705.595215,0.000000,-1184.329507,8216.285956
705.595531,-536.266849,-1110.308913,8882.471304
705.595847,-919.314598,-1110.308913,9326.594869
705.596162,-1532.190996,-1850.514855,10066.800811
705.596478,-2068.457845,-2220.617826,10881.027347
705.596794,-2374.896044,-2368.659014,11399.171507
705.597109,-1991.848295,-1998.556043,11695.253884
705.597425,-1378.971896,-1332.370696,11103.089130
705.597741,-919.314598,296.082377,10732.986159
705.598056,-306.438199,1110.308913,9474.636058
705.598372,1149.143247,1776.494261,8586.388927
705.598688,1532.190996,1480.411884,7994.224174
705.599003,1991.848295,2294.638420,7624.121203
705.599319,2681.334243,2294.638420,7476.080014
705.599635,2757.943793,1776.494261,8068.244768
705.599950,2451.505594,1332.370696,8882.471304
705.600266,2068.457845,1480.411884,9770.718434
705.600582,1378.971896,1406.391290,9474.636058
705.600897,842.705048,1110.308913,10732.986159
705.601213,229.828649,370.102971,11103.089130
705.601529,-612.876398,444.123565,11251.130318
705.601844,-229.828649,1036.288319,11473.192101
705.602160,-76.609550,888.247130,11399.171507
705.602476,383.047749,962.267725,11325.150913
705.602791,689.485948,1332.370696,10584.944971
705.603107,1608.800546,1332.370696,9548.656652
705.603423,2221.676944,1258.350101,9548.656652
705.603738,2451.505594,1258.350101,8734.430116
705.604054,2374.896044,1702.473667,7920.203579
705.604370,2528.115143,1998.556043,8882.471304
705.604685,2451.505594,1850.514855,8882.471304
705.605001,1762.019645,2368.659014,8586.388927
705.605316,689.485948,2294.638420,9178.553681
705.605632,229.828649,1406.391290,9770.718434
705.605948,0.000000,-0.000000,10510.924376
705.606263,-689.485948,-1184.329507,11251.130318
705.606579,-536.266849,-1258.350101,11695.253884
705.606895,-766.095498,-1480.411884,11843.295072
705.607210,-612.876398,-888.247130,11473.192101
705.607526,-383.047749,444.123565,10881.027347
705.607842,0.000000,1924.535449,10214.842000
705.608157,1302.362347,2442.679609,8512.368333
705.608473,1455.581446,1850.514855,8216.285956
705.608789,1455.581446,1924.535449,7698.141797
705.609104,1838.629195,1554.432478,7550.100608
705.609420,2068.457845,370.102971,7920.203579
705.609736,1302.362347,296.082377,8586.388927
705.610051,383.047749,296.082377,8660.409521
705.610367,306.438199,-0.000000,9400.615463
705.610683,0.000000,-592.164754,10140.821405
705.610998,-1072.533697,-1184.329507,11029.068536
705.611314,-919.314598,-1036.288319,10955.047942
705.611630,-1225.752797,-962.267725,10658.965565
705.611945,-842.705048,-1184.329507,10955.047942
705.612261,0.000000,-1184.329507,9992.780217
705.612577,0.000000,-0.000000,9474.636058
705.612892,995.924147,148.041188,8216.285956
705.613208,1455.581446,-0.000000,7920.203579
705.613524,1915.238745,-222.061783,7328.038826
705.613839,2145.067394,-222.061783,7179.997637
705.614155,1991.848295,-370.102971,7476.080014
705.614471,1378.971896,-666.185348,8142.265362
705.614786,689.485948,-814.226536,8808.450710
705.615102,153.219100,-296.082377,8586.388927
705.615418,-383.047749,-1184.329507,9474.636058
705.615733,-766.095498,-2368.659014,9918.759623
705.616049,-1378.971896,-3256.906145,10584.944971
705.616365,-1762.019645,-3552.988522,11325.150913
705.616680,-1608.800546,-3701.029710,11695.253884
705.616996,-1225.752797,-3552.988522,11325.150913
705.617312,-995.924147,-2146.597232,10436.903782
705.617627,-76.609550,-740.205942,9548.656652
705.617943,612.876398,-222.061783,8734.430116
705.618259,689.485948,-518.144159,7402.059420
705.618574,1455.581446,-518.144159,7476.080014
705.618890,1838.629195,-814.226536,7698.141797
705.619206,2221.676944,-1628.453072,7846.182985
705.619521,995.924147,-1406.391290,7920.203579
705.619837,383.047749,-1702.473667,8882.471304
705.620153,153.219100,-1998.556043,9326.594869
705.620468,-766.095498,-2294.638420,10288.862594
705.620784,-1225.752797,-2738.761985,11177.109724
705.621099,-1762.019645,-3108.864956,11547.212695
705.621415,-1762.019645,-2590.720797,11547.212695
705.621731,-1302.362347,-2516.700203,11473.192101
705.622046,-689.485948,-1554.432478,11251.130318
705.622362,-153.219100,-296.082377,10066.800811
705.622678,1225.752797,296.082377,8882.471304
705.622993,2145.067394,518.144159,7994.224174
705.623309,2145.067394,444.123565,7624.121203
705.623625,2757.943793,666.185348,7328.038826
705.623940,2987.772442,444.123565,7772.162391
705.624256,2834.553343,740.205942,8512.368333
705.624572,1915.238745,1406.391290,8290.306550
705.624887,1455.581446,1332.370696,8512.368333
705.625203,689.485948,888.247130,9474.636058
705.625519,76.609550,-74.020594,10214.842000
705.625834,0.000000,-444.123565,10732.986159
705.626150,-306.438199,-370.102971,10732.986159
705.626466,-153.219100,-814.226536,11177.109724
705.626781,0.000000,-740.205942,11473.192101
705.627097,0.000000,666.185348,10584.944971
705.627413,0.000000,1998.556043,9622.677246
705.627728,919.314598,1628.453072,8512.368333
705.628044,1225.752797,1776.494261,8068.244768
705.628360,1685.410096,1924.535449,7846.182985
705.628675,2068.457845,1924.535449,7179.997637
705.628991,1991.848295,1258.350101,8364.327145
705.629307,1455.581446,814.226536,8808.450710
705.629622,919.314598,1036.288319,8660.409521
705.629938,229.828649,1110.308913,9178.553681
705.630254,0.000000,222.061783,10140.821405
705.630569,-1072.533697,-518.144159,10955.047942
705.630885,-1302.362347,-148.041188,11103.089130
705.631201,-1915.238745,-370.102971,11547.212695
705.631516,-1149.143247,-518.144159,11695.253884
705.631832,-995.924147,-0.000000,11325.150913
705.632148,-766.095498,1406.391290,9770.718434
705.632463,76.609550,1850.514855,9030.512492
705.632779,1685.410096,1406.391290,8586.388927
705.633095,1072.533697,740.205942,8216.285956
705.633410,995.924147,1924.535449,8364.327145
705.633726,1378.971896,666.185348,8216.285956
705.634042,1378.971896,-0.000000,9622.677246
705.634357,459.657299,962.267725,9104.533087
705.634673,-153.219100,518.144159,9770.718434
705.634989,536.266849,444.123565,10214.842000
705.635304,0.000000,-666.185348,10584.944971
705.635620,-536.266849,-370.102971,10658.965565
705.635936,-306.438199,-740.205942,11325.150913
705.636251,0.000000,-1406.391290,11177.109724
705.636567,995.924147,-74.020594,11325.150913
705.636882,995.924147,-0.000000,10066.800811
705.637198,1302.362347,148.041188,9104.533087
705.637514,1915.238745,888.247130,9326.594869
705.637829,2298.286494,222.061783,7846.182985
705.638145,2604.724693,444.123565,7698.141797
705.638461,2068.457845,444.123565,7550.100608
705.638776,2221.676944,-962.267725,8586.388927
705.639092,1608.800546,-666.185348,9104.533087
705.639408,612.876398,-296.082377,9252.574275
705.639723,229.828649,-1110.308913,9474.636058
705.640039,-153.219100,-2368.659014,9844.739029
705.640355,-919.314598,-3108.864956,10658.965565
705.640670,-995.924147,-3034.844362,10807.006753
705.640986,-919.314598,-2664.741391,10881.027347
705.641302,-1149.143247,-2886.803174,11177.109724
705.641617,-995.924147,-1924.535449,10288.862594
705.641933,76.609550,-666.185348,9474.636058
705.642249,842.705048,-666.185348,8216.285956
705.642564,1378.971896,-962.267725,8068.244768
705.642880,1455.581446,-1036.288319,7772.162391
705.643196,1378.971896,-1036.288319,6735.874072
705.643511,1225.752797,-1480.411884,7328.038826
705.643827,689.485948,-1850.514855,8586.388927
705.644143,-383.047749,-1258.350101,8808.450710
705.644458,-459.657299,-1036.288319,8808.450710
705.644774,-995.924147,-1406.391290,9326.594869
705.645090,-1225.752797,-2220.617826,9992.780217
705.645405,-1685.410096,-2590.720797,10436.903782
705.645721,-1378.971896,-2590.720797,10362.883188
705.646037,-1532.190996,-2516.700203,10807.006753
705.646352,-612.876398,-1406.391290,10288.862594
705.646668,0.000000,-0.000000,9474.636058
705.646984,612.876398,814.226536,8290.306550
705.647299,1378.971896,888.247130,7920.203579
705.647615,1915.238745,1110.308913,7476.080014
705.647931,1991.848295,666.185348,7105.977043
705.648246,2221.676944,1332.370696,7698.141797
705.648562,2221.676944,962.267725,8216.285956
705.648878,1608.800546,1554.432478,8290.306550
705.649193,1072.533697,2368.659014,8734.430116
705.649509,459.657299,1776.494261,9104.533087
705.649825,383.047749,1110.308913,10288.862594
705.650140,-153.219100,740.205942,11103.089130
705.650456,-459.657299,444.123565,11251.130318
705.650772,-536.266849,740.205942,11177.109724
705.651087,-153.219100,666.185348,11029.068536
705.651403,-153.219100,1998.556043,10955.047942
705.651719,306.438199,2590.720797,10066.800811
705.652034,1532.190996,2664.741391,9400.615463
705.652350,1991.848295,2664.741391,8438.347739
705.652665,1838.629195,2294.638420,8808.450710
705.652981,2451.505594,1924.535449,8734.430116
705.653297,2451.505594,1480.411884,8660.409521
705.653612,1608.800546,1184.329507,9548.656652
705.653928,766.095498,1850.514855,10140.821405
705.654244,306.438199,1776.494261,9844.739029
705.654559,-383.047749,814.226536,10214.842000
705.654875,-766.095498,-0.000000,11325.150913
705.655191,-1378.971896,-740.205942,11029.068536
705.655506,-1225.752797,-1036.288319,11917.315666
705.655822,-766.095498,-1406.391290,11843.295072
705.656138,-689.485948,-1036.288319,11399.171507
705.656453,0.000000,-74.020594,10881.027347
705.656769,306.438199,666.185348,9844.739029
705.657085,689.485948,1036.288319,9030.512492
705.657400,1302.362347,-0.000000,9104.533087
705.657716,1072.533697,1036.288319,8734.430116
705.658032,995.924147,370.102971,8734.430116
705.658347,1378.971896,-444.123565,9474.636058
705.658663,1378.971896,-296.082377,9622.677246
705.658979,229.828649,-148.041188,9622.677246
705.659294,995.924147,-74.020594,9474.636058
705.659610,383.047749,-666.185348,9696.697840
705.659926,0.000000,-1110.308913,10140.821405
705.660241,383.047749,-888.247130,10584.944971
705.660557,306.438199,-1332.370696,10436.903782
705.660873,306.438199,-1406.391290,10436.903782
705.661188,612.876398,-370.102971,9696.697840
705.661504,995.924147,-0.000000,8660.409521
705.661820,1838.629195,-0.000000,8512.368333
705.662135,1915.238745,-666.185348,7624.121203
705.662451,2068.457845,-148.041188,7179.997637
705.662767,2068.457845,-0.000000,7328.038826
705.663082,1762.019645,-888.247130,7624.121203
705.663398,1149.143247,-1036.288319,8438.347739
705.663714,536.266849,-1406.391290,8660.409521
705.664029,0.000000,-1258.350101,9030.512492
705.664345,-459.657299,-1628.453072,9474.636058
705.664661,-995.924147,-2368.659014,9548.656652
705.664976,-689.485948,-2220.617826,9770.718434
705.665292,-766.095498,-2368.659014,9770.718434
705.665608,-306.438199,-2664.741391,9696.697840
705.665923,-459.657299,-2368.659014,9770.718434
705.666239,-229.828649,-1480.411884,9178.553681
705.666555,229.828649,-1110.308913,8734.430116
705.666870,459.657299,-1036.288319,8290.306550
705.667186,612.876398,-518.144159,7624.121203
705.667502,459.657299,-740.205942,7698.141797
705.667817,612.876398,-1036.288319,8142.265362
705.668133,383.047749,-1702.473667,8660.409521
705.668448,0.000000,-2072.576638,8882.471304
705.668764,-306.438199,-1554.432478,9622.677246
705.669080,-1072.533697,-2146.597232,9844.739029
705.669395,-1302.362347,-2146.597232,10436.903782
705.669711,-1149.143247,-2146.597232,11177.109724
705.670027,-1532.190996,-1998.556043,10658.965565
705.670342,-995.924147,-1554.432478,10881.027347
705.670658,-689.485948,-1036.288319,11029.068536
705.670974,0.000000,148.041188,9992.780217
705.671289,612.876398,888.247130,9252.574275
705.671605,1532.190996,518.144159,8808.450710
705.671921,1991.848295,814.226536,8808.450710
705.672236,2221.676944,888.247130,7846.182985
705.672552,2374.896044,1036.288319,8290.306550
705.672868,2298.286494,814.226536,8956.491898
705.673183,1685.410096,666.185348,9548.656652
705.673499,1072.533697,1406.391290,9400.615463
705.673815,612.876398,888.247130,9770.718434
705.674130,766.095498,222.061783,10732.986159
705.674446,0.000000,-0.000000,11103.089130
705.674762,-383.047749,444.123565,10881.027347
705.675077,-229.828649,74.020594,11325.150913
705.675393,383.047749,444.123565,10807.006753
705.675709,459.657299,1184.329507,10881.027347
705.676024,919.314598,1776.494261,9474.636058
705.676340,1225.752797,1924.535449,9030.512492
705.676656,1915.238745,1776.494261,8586.388927
705.676971,1762.019645,2072.576638,8512.368333
705.677287,1762.019645,1702.473667,8290.306550
705.677602,1225.752797,1036.288319,8734.430116
705.677918,1149.143247,888.247130,9178.553681
705.678234,689.485948,1184.329507,9474.636058
705.678549,229.828649,1036.288319,10140.821405
705.678865,0.000000,370.102971,9770.718434
705.679181,-689.485948,-592.164754,10658.965565
705.679496,-612.876398,-370.102971,10658.965565
705.679812,-612.876398,-592.164754,10584.944971
705.680128,-919.314598,-740.205942,10584.944971
705.680443,0.000000,-444.123565,10288.862594
705.680759,-689.485948,-0.000000,9770.718434
705.681075,383.047749,814.226536,9030.512492
705.681390,536.266849,370.102971,8364.327145
705.681706,995.924147,370.102971,7994.224174
705.682022,766.095498,222.061783,7846.182985
705.682337,1302.362347,-0.000000,8364.327145
705.682653,1149.143247,-592.164754,9104.533087
705.682969,536.266849,-74.020594,8808.450710
705.683284,229.828649,-0.000000,9252.574275
705.683600,76.609550,-148.041188,9474.636058
705.683916,0.000000,-814.226536,10140.821405
705.684231,-306.438199,-592.164754,9992.780217
705.684547,-536.266849,-518.144159,10066.800811
705.684863,0.000000,-1332.370696,10584.944971
705.685178,229.828649,-1258.350101,10732.986159
705.685494,383.047749,-74.020594,9622.677246
705.685810,1072.533697,1036.288319,8512.368333
705.686125,1532.190996,592.164754,8438.347739
705.686441,2068.457845,444.123565,7994.224174
705.686756,1915.238745,370.102971,8216.285956
705.687072,1608.800546,-0.000000,8216.285956
705.687388,1378.971896,-666.185348,8734.430116
705.687703,919.314598,-888.247130,9326.594869
705.688019,306.438199,-370.102971,9326.594869
705.688335,-306.438199,-666.185348,9474.636058
705.688650,0.000000,-1036.288319,9770.718434
705.688966,-306.438199,-1998.556043,10288.862594
705.689282,-689.485948,-2368.659014,10140.821405
705.689597,-1072.533697,-2664.741391,11029.068536
705.689913,-612.876398,-2812.782580,10584.944971
705.690229,-536.266849,-1998.556043,10584.944971
705.690544,0.000000,-740.205942,9918.759623
705.690860,383.047749,-148.041188,9178.553681
705.691176,766.095498,-370.102971,8364.327145
705.691491,536.266849,-962.267725,8882.471304
705.691807,612.876398,-814.226536,8216.285956
705.692123,842.705048,-1258.350101,8734.430116
705.692438,612.876398,-1554.432478,9178.553681
705.692754,0.000000,-1554.432478,9400.615463
705.693070,-459.657299,-1184.329507,9918.759623
705.693385,-306.438199,-1184.329507,10066.800811
705.693701,-766.095498,-1776.494261,10658.965565
705.694017,-1072.533697,-1628.453072,10362.883188
705.694332,-1378.971896,-1702.473667,10584.944971
705.694648,-766.095498,-2220.617826,10732.986159
705.694964,-229.828649,-1998.556043,10955.047942
705.695279,0.000000,-814.226536,10214.842000
705.695595,459.657299,-74.020594,9252.574275
705.695910,1072.533697,-0.000000,8882.471304
705.696226,1302.362347,296.082377,8586.388927
705.696542,1762.019645,1258.350101,7402.059420
705.696857,1991.848295,1110.308913,7476.080014
705.697173,1685.410096,888.247130,7994.224174
705.697489,1608.800546,592.164754,8956.491898
705.697804,842.705048,666.185348,8956.491898
705.698120,766.095498,962.267725,9326.594869
705.698436,383.047749,296.082377,9474.636058
705.698751,536.266849,-74.020594,9918.759623
705.699067,0.000000,-296.082377,10436.903782
705.699383,229.828649,-0.000000,10288.862594
705.699698,76.609550,74.020594,10436.903782
705.700014,0.000000,962.267725,10510.924376
705.700330,153.219100,2072.576638,9252.574275
705.700645,1225.752797,2220.617826,8438.347739
705.700961,1762.019645,1998.556043,8586.388927
705.701277,1455.581446,1924.535449,8660.409521
705.701592,1685.410096,1924.535449,7772.162391
705.701908,1915.238745,2294.638420,8216.285956
705.702224,1378.971896,1332.370696,8882.471304
705.702539,1072.533697,1406.391290,9030.512492
705.702855,229.828649,1480.411884,9622.677246
705.703171,0.000000,814.226536,10288.862594
705.703486,-153.219100,-0.000000,10732.986159
705.703802,-536.266849,-222.061783,10658.965565
705.704117,-1072.533697,-0.000000,10584.944971
705.704433,-842.705048,-148.041188,11547.212695
705.704749,-459.657299,-0.000000,10584.944971
705.705064,-153.219100,592.164754,9918.759623
705.705380,153.219100,1036.288319,9474.636058
705.705696,766.095498,296.082377,9400.615463
705.706011,766.095498,-74.020594,8808.450710
705.706327,842.705048,-0.000000,8808.450710
705.706643,1225.752797,148.041188,9030.512492
705.706958,1225.752797,444.123565,9030.512492
705.707274,919.314598,518.144159,9178.553681
705.707590,229.828649,444.123565,8956.491898
705.707905,459.657299,-0.000000,9474.636058
705.708221,383.047749,-888.247130,10510.924376
705.708537,0.000000,-1332.370696,11029.068536
705.708852,-306.438199,-1110.308913,10436.903782
705.709168,-383.047749,-1036.288319,10881.027347
705.709484,0.000000,-1406.391290,11621.233289
705.709799,153.219100,-666.185348,10658.965565
705.710115,306.438199,962.267725,9622.677246
705.710431,919.314598,1036.288319,8512.368333
705.710746,1685.410096,222.061783,8734.430116
705.711062,1991.848295,296.082377,8660.409521
705.711378,1991.848295,296.082377,7698.141797
705.711693,1915.238745,-0.000000,8142.265362
705.712009,1608.800546,-888.247130,8734.430116
705.712325,919.314598,-962.267725,9252.574275
705.712640,612.876398,-1110.308913,9474.636058
705.712956,306.438199,-1406.391290,9622.677246
705.713271,-383.047749,-2072.576638,10584.944971
705.713587,-536.266849,-2516.700203,11177.109724
705.713903,-536.266849,-2442.679609,11103.089130
705.714218,-306.438199,-1850.514855,10288.862594
705.714534,-612.876398,-1850.514855,10066.800811
705.714850,0.000000,-1184.329507,9696.697840
705.715165,459.657299,-666.185348,9178.553681
705.715481,1149.143247,-1184.329507,7994.224174
705.715797,1302.362347,-1258.350101,8068.244768
705.716112,689.485948,-1480.411884,8142.265362
705.716428,1149.143247,-1258.350101,7846.182985
705.716744,995.924147,-1776.494261,8142.265362
705.717059,306.438199,-1628.453072,8882.471304
705.717375,0.000000,-1332.370696,8734.430116
705.717691,-919.314598,-1554.432478,9326.594869
705.718006,-919.314598,-2368.659014,9770.718434
705.718322,-1455.581446,-3182.885551,10510.924376
705.718638,-1378.971896,-3627.009116,10584.944971
705.718953,-1455.581446,-2664.741391,10807.006753
705.719269,-842.705048,-2442.679609,10066.800811
705.719585,-612.876398,-1110.308913,9548.656652
705.719900,-306.438199,222.061783,9178.553681
705.720216,-459.657299,296.082377,8142.265362
705.720532,842.705048,296.082377,7920.203579
705.720847,919.314598,370.102971,7772.162391
705.721163,1532.190996,814.226536,7846.182985
705.721479,1838.629195,888.247130,7550.100608
705.721794,1685.410096,666.185348,7772.162391
705.722110,842.705048,962.267725,8586.388927
705.722425,689.485948,1110.308913,9104.533087
705.722741,0.000000,962.267725,9622.677246
705.723057,0.000000,296.082377,10732.986159
705.723372,-612.876398,296.082377,11177.109724
705.723688,-612.876398,518.144159,11399.171507
705.724004,-536.266849,518.144159,11177.109724
705.724319,-153.219100,740.205942,11177.109724
705.724635,229.828649,1776.494261,10362.883188
705.724951,612.876398,2368.659014,9252.574275
705.725266,1991.848295,2146.597232,9030.512492
705.725582,1991.848295,2072.576638,8512.368333
705.725898,1991.848295,2220.617826,8438.347739
705.726213,2451.505594,1924.535449,8512.368333
705.726529,2221.676944,1406.391290,8956.491898
705.726845,1532.190996,1924.535449,9104.533087
705.727160,842.705048,2072.576638,9474.636058
705.727476,612.876398,1628.453072,9992.780217
705.727792,383.047749,1036.288319,10584.944971
705.728107,0.000000,-0.000000,11251.130318
705.728423,-306.438199,-296.082377,11547.212695
705.728739,-306.438199,-814.226536,11621.233289
705.729054,-459.657299,-1258.350101,11843.295072
705.729370,-383.047749,-518.144159,11621.233289
705.729686,-229.828649,444.123565,10362.883188
705.730001,612.876398,814.226536,9844.739029
705.730317,842.705048,1628.453072,9104.533087
705.730632,919.314598,1924.535449,8068.244768
705.730948,1685.410096,1702.473667,7920.203579
705.731264,1685.410096,666.185348,8512.368333
705.731579,1225.752797,-0.000000,9400.615463
705.731895,995.924147,-222.061783,9622.677246
705.732211,689.485948,-296.082377,9696.697840
705.732526,612.876398,-222.061783,10436.903782
705.732842,306.438199,-370.102971,10807.006753
705.733158,0.000000,-74.020594,10807.006753
705.733473,0.000000,-0.000000,10955.047942
705.733789,76.609550,-962.267725,10881.027347
705.734105,76.609550,-962.267725,11029.068536
705.734420,229.828649,-0.000000,9844.739029
705.734736,1225.752797,518.144159,9326.594869
705.735052,1838.629195,-0.000000,8956.491898
705.735367,1915.238745,-592.164754,7994.224174
705.735683,1915.238745,-0.000000,7328.038826
705.735999,1838.629195,-370.102971,7624.121203
705.736314,1608.800546,-1036.288319,8512.368333
705.736630,842.705048,-1554.432478,8660.409521
705.736946,0.000000,-1332.370696,8438.347739
705.737261,153.219100,-1480.411884,9104.533087
705.737577,0.000000,-2294.638420,9548.656652
705.737893,-612.876398,-2738.761985,8956.491898
705.738208,-1225.752797,-3182.885551,9992.780217
705.738524,-919.314598,-3849.070898,10214.842000
705.738840,-1149.143247,-3701.029710,10510.924376
705.739155,-919.314598,-3108.864956,9622.677246
705.739471,-536.266849,-2294.638420,8882.471304
705.739786,0.000000,-1924.535449,8290.306550
705.740102,689.485948,-1776.494261,6957.935855
705.740418,459.657299,-1184.329507,7105.977043
705.740733,0.000000,-1110.308913,7031.956449
705.741049,459.657299,-1480.411884,7402.059420
705.741365,1149.143247,-1628.453072,7920.203579
705.741680,-229.828649,-2072.576638,8290.306550
705.741996,-766.095498,-2072.576638,8956.491898
705.742312,-1532.190996,-2442.679609,9326.594869
705.742627,-1915.238745,-2812.782580,10584.944971
705.742943,-2221.676944,-2812.782580,11177.109724
705.743259,-2528.115143,-1924.535449,10807.006753
705.743574,-1762.019645,-1628.453072,11177.109724
705.743890,-1149.143247,-370.102971,10807.006753
705.744206,-689.485948,666.185348,9474.636058
705.744521,1072.533697,1702.473667,8512.368333
705.744837,1991.848295,1332.370696,8142.265362
705.745153,2374.896044,1480.411884,7624.121203
705.745468,2528.115143,1998.556043,7105.977043
705.745784,2757.943793,1258.350101,7846.182985
705.746100,2451.505594,1406.391290,8364.327145
705.746415,1302.362347,1998.556043,8882.471304
705.746731,995.924147,1998.556043,9770.718434
705.747047,842.705048,1110.308913,10436.903782
705.747362,229.828649,444.123565,11695.253884
705.747678,0.000000,-148.041188,11621.233289
705.747994,0.000000,-74.020594,11769.274478
705.748309,0.000000,518.144159,11843.295072
705.748625,229.828649,666.185348,11769.274478
705.748940,306.438199,1628.453072,11325.150913
705.749256,1149.143247,2812.782580,10288.862594
705.749572,1838.629195,2368.659014,9252.574275
705.749887,2145.067394,2146.597232,9030.512492
705.750203,2604.724693,1998.556043,8808.450710
705.750519,2374.896044,1628.453072,8216.285956
705.750834,3064.381992,1628.453072,9104.533087
705.751150,2145.067394,1332.370696,9622.677246
705.751466,1685.410096,1480.411884,9474.636058
705.751781,1378.971896,1554.432478,9844.739029
705.752097,76.609550,888.247130,10584.944971
705.752413,0.000000,-74.020594,11251.130318
705.752728,-919.314598,-740.205942,11547.212695
705.753044,-1149.143247,-1184.329507,11917.315666
705.753360,-1455.581446,-1406.391290,11917.315666
705.753675,-612.876398,-370.102971,11251.130318
705.753991,-459.657299,370.102971,10214.842000
705.754307,229.828649,814.226536,9252.574275
705.754622,766.095498,814.226536,8660.409521
705.754938,1608.800546,-0.000000,8068.244768
705.755254,1455.581446,592.164754,7402.059420
705.755569,1608.800546,370.102971,7920.203579
705.755885,1685.410096,370.102971,8216.285956
705.756201,842.705048,740.205942,7994.224174
705.756516,153.219100,222.061783,8438.347739
705.756832,306.438199,-148.041188,9400.615463
705.757147,0.000000,-1184.329507,9548.656652
705.757463,-766.095498,-1480.411884,10732.986159
705.757779,-536.266849,-1184.329507,10732.986159
705.758094,-229.828649,-1258.350101,10362.883188
705.758410,76.609550,-444.123565,9992.780217
705.758726,383.047749,222.061783,9622.677246
705.759041,842.705048,888.247130,8586.388927
705.759357,2451.505594,666.185348,7994.224174
705.759673,1991.848295,814.226536,7179.997637
705.759988,1915.238745,814.226536,7031.956449
705.760304,1838.629195,296.082377,7402.059420
705.760620,1378.971896,-296.082377,8142.265362
705.760935,995.924147,-740.205942,8586.388927
705.761251,-229.828649,-888.247130,9104.533087
705.761567,-842.705048,-1110.308913,9770.718434
705.761882,-919.314598,-1628.453072,10288.862594
705.762198,-1225.752797,-2294.638420,10881.027347
705.762514,-1455.581446,-2072.576638,10584.944971
705.762829,-1149.143247,-2146.597232,10510.924376
705.763145,-842.705048,-2590.720797,10510.924376
705.763461,-536.266849,-2220.617826,10140.821405
705.763776,0.000000,-1406.391290,9474.636058
705.764092,383.047749,-1110.308913,9104.533087
705.764408,842.705048,-1332.370696,8512.368333
705.764723,1149.143247,-1036.288319,7772.162391
705.765039,1378.971896,-666.185348,7772.162391
705.765355,1378.971896,-1332.370696,7846.182985
705.765670,842.705048,-1702.473667,9326.594869
705.765986,153.219100,-1406.391290,9474.636058
705.766301,-919.314598,-1554.432478,9104.533087
705.766617,-1149.143247,-2072.576638,9918.759623
705.766933,-1455.581446,-2590.720797,11399.171507
705.767248,-1532.190996,-3256.906145,11399.171507
705.767564,-1915.238745,-2368.659014,11473.192101
705.767880,-1685.410096,-2220.617826,11695.253884
705.768195,-766.095498,-1924.535449,11399.171507
705.768511,-306.438199,-444.123565,10288.862594
705.768827,995.924147,666.185348,9178.553681
705.769142,1991.848295,1110.308913,8734.430116
705.769458,2451.505594,1258.350101,7920.203579
705.769774,2374.896044,1258.350101,7328.038826
705.770089,2298.286494,1406.391290,7772.162391
705.770405,2757.943793,962.267725,8586.388927
705.770721,1915.238745,1184.329507,8660.409521
705.771036,1378.971896,1480.411884,9030.512492
705.771352,1072.533697,1110.308913,9474.636058
705.771668,995.924147,814.226536,10288.862594
705.771983,459.657299,518.144159,10510.924376
705.772299,-76.609550,-0.000000,10362.883188
705.772615,-153.219100,148.041188,11029.068536
705.772930,0.000000,-518.144159,11399.171507
705.773246,76.609550,-74.020594,10807.006753
705.773562,383.047749,1258.350101,9696.697840
705.773877,995.924147,1480.411884,9104.533087
705.774193,1838.629195,1332.370696,8364.327145
705.774509,1762.019645,1850.514855,7550.100608
705.774824,1991.848295,1850.514855,7550.100608
705.775140,2145.067394,814.226536,8364.327145
705.775456,1532.190996,740.205942,8586.388927
705.775771,919.314598,814.226536,8660.409521
705.776087,153.219100,370.102971,9400.615463
705.776403,0.000000,222.061783,10066.800811
705.776718,-306.438199,-518.144159,10584.944971
705.777034,-612.876398,-740.205942,10807.006753
705.777350,-995.924147,-666.185348,10881.027347
705.777665,-842.705048,-740.205942,11103.089130
705.777981,0.000000,-444.123565,10510.924376
705.778297,0.000000,370.102971,10362.883188
705.778612,536.266849,1110.308913,9252.574275
705.778928,1225.752797,666.185348,8586.388927
705.779244,689.485948,444.123565,8216.285956
705.779559,919.314598,1332.370696,7846.182985
705.779875,995.924147,740.205942,7920.203579
705.780191,1225.752797,296.082377,8956.491898
705.780506,306.438199,-0.000000,9400.615463
705.780822,0.000000,-0.000000,9622.677246
705.781138,0.000000,-296.082377,9548.656652
705.781453,-153.219100,-666.185348,10362.883188
705.781769,-995.924147,-1406.391290,11325.150913
705.782085,-306.438199,-1406.391290,11473.192101
705.782400,-459.657299,-518.144159,10658.965565
705.782716,0.000000,-370.102971,10807.006753
705.783032,536.266849,-0.000000,10140.821405
705.783347,919.314598,1036.288319,8956.491898
705.783663,1149.143247,888.247130,9104.533087
705.783979,2068.457845,592.164754,7994.224174
705.784294,2298.286494,370.102971,8216.285956
705.784610,2145.067394,518.144159,7476.080014
705.784926,2451.505594,-222.061783,8142.265362
705.785241,919.314598,-0.000000,9178.553681
705.785557,612.876398,-592.164754,9622.677246
705.785873,0.000000,-888.247130,9622.677246
705.786188,-689.485948,-1332.370696,10436.903782
705.786504,-1455.581446,-2146.597232,10658.965565
705.786820,-1608.800546,-2738.761985,10955.047942
705.787135,-1685.410096,-2368.659014,11029.068536
705.787451,-1762.019645,-2664.741391,11473.192101
705.787767,-1072.533697,-2146.597232,10955.047942
705.788082,-153.219100,-1184.329507,9696.697840
705.788398,153.219100,-740.205942,8956.491898
705.788714,995.924147,-740.205942,8142.265362
705.789029,1455.581446,-592.164754,7402.059420
705.789345,1302.362347,-370.102971,6883.915261
705.789661,1608.800546,-1110.308913,7772.162391
705.789976,1378.971896,-1554.432478,9252.574275
705.790292,689.485948,-1406.391290,8882.471304
705.790608,-383.047749,-1110.308913,8734.430116
705.790923,-459.657299,-1702.473667,9992.780217
705.791239,-459.657299,-2368.659014,10510.924376
705.791555,-689.485948,-2738.761985,10732.986159
705.791870,-1149.143247,-2220.617826,11177.109724
705.792186,-995.924147,-1850.514855,11103.089130
705.792502,-153.219100,-1036.288319,10584.944971
705.792817,0.000000,-296.082377,9696.697840
705.793133,612.876398,740.205942,8660.409521
705.793449,1838.629195,666.185348,8586.388927
705.793764,2451.505594,740.205942,7624.121203
705.794080,2145.067394,814.226536,7254.018232
705.794396,2834.553343,444.123565,7402.059420
705.794711,2757.943793,-0.000000,7772.162391
705.795027,1838.629195,-0.000000,8808.450710
705.795343,766.095498,518.144159,9844.739029
705.795658,842.705048,1110.308913,9548.656652
705.795974,1072.533697,814.226536,9548.656652
705.796290,459.657299,-0.000000,10362.883188
705.796605,76.609550,222.061783,10436.903782
705.796921,306.438199,-0.000000,10066.800811
705.797237,229.828649,-0.000000,10658.965565
705.797552,383.047749,666.185348,10658.965565
705.797868,1608.800546,2072.576638,9474.636058
705.798184,1149.143247,2368.659014,8586.388927
705.798499,1532.190996,1702.473667,8364.327145
705.798815,1838.629195,1258.350101,8438.347739
705.799131,1608.800546,1184.329507,8216.285956
705.799446,1225.752797,1332.370696,8734.430116
705.799762,919.314598,592.164754,8956.491898
705.800078,229.828649,518.144159,9770.718434
705.800393,-459.657299,740.205942,10214.842000
705.800709,-229.828649,222.061783,10436.903782
705.801025,-995.924147,-370.102971,11325.150913
705.801340,-1225.752797,-666.185348,11695.253884
705.801656,-1378.971896,-740.205942,11399.171507
705.801972,-766.095498,-518.144159,11621.233289
705.802287,-459.657299,-740.205942,11399.171507
705.802603,306.438199,444.123565,10140.821405
705.802919,766.095498,1258.350101,9178.553681
705.803234,1532.190996,1406.391290,8438.347739
705.803550,1608.800546,666.185348,8438.347739
705.803866,1149.143247,444.123565,7846.182985
705.804181,1532.190996,888.247130,8364.327145
705.804497,1302.362347,-0.000000,9104.533087
705.804813,459.657299,-444.123565,9326.594869
705.805128,-229.828649,-74.020594,9992.780217
705.805444,-689.485948,-296.082377,10436.903782
705.805760,-995.924147,-592.164754,10214.842000
705.806075,-842.705048,-1184.329507,10436.903782
705.806391,-1532.190996,-1406.391290,11473.192101
705.806707,-689.485948,-1406.391290,11621.233289
705.807022,-306.438199,-1258.350101,10955.047942
705.807338,0.000000,296.082377,9918.759623
705.807654,689.485948,222.061783,9178.553681
705.807969,1685.410096,444.123565,8660.409521
705.808285,2221.676944,518.144159,7920.203579
705.808601,2374.896044,1332.370696,7179.997637
705.808916,2451.505594,1332.370696,7550.100608
705.809232,2451.505594,518.144159,7846.182985
705.809548,1838.629195,-0.000000,8364.327145
705.809863,1225.752797,-0.000000,9326.594869
705.810179,229.828649,-222.061783,9622.677246
705.810495,-153.219100,-592.164754,9992.780217
705.810810,-689.485948,-1480.411884,10288.862594
705.811126,-1072.533697,-1998.556043,10658.965565
705.811442,-1149.143247,-2368.659014,11029.068536
705.811757,-1378.971896,-2294.638420,10658.965565
705.812073,-919.314598,-1924.535449,10510.924376
705.812389,-689.485948,-1406.391290,9770.718434
705.812704,0.000000,-962.267725,8808.450710
705.813020,689.485948,-740.205942,8956.491898
705.813336,689.485948,-1184.329507,8216.285956
705.813651,1225.752797,-962.267725,7031.956449
705.813967,1302.362347,-814.226536,7624.121203
705.814283,2068.457845,-1702.473667,8216.285956
705.814598,689.485948,-1110.308913,8512.368333
705.814914,229.828649,-740.205942,8290.306550
705.815230,0.000000,-1332.370696,9474.636058
705.815545,-612.876398,-2368.659014,10288.862594
705.815861,-919.314598,-2738.761985,10732.986159
705.816177,-1149.143247,-2442.679609,10436.903782
705.816492,-1072.533697,-2294.638420,10881.027347
705.816808,-766.095498,-1554.432478,10955.047942
705.817124,-306.438199,-740.205942,9918.759623
705.817439,76.609550,296.082377,9104.533087
705.817755,1455.581446,740.205942,8512.368333
705.818071,1991.848295,592.164754,7920.203579
705.818386,1915.238745,1554.432478,7772.162391
705.818702,2221.676944,1628.453072,7698.141797
705.819018,2451.505594,1036.288319,7920.203579
705.819333,1991.848295,1036.288319,8438.347739
705.819649,612.876398,1184.329507,8734.430116
705.819965,842.705048,1184.329507,9548.656652
705.820280,383.047749,222.061783,10362.883188
705.820596,0.000000,-296.082377,10807.006753
705.820912,-459.657299,-148.041188,10881.027347
705.821227,-612.876398,-0.000000,10807.006753
705.821543,-153.219100,-148.041188,11399.171507
705.821859,0.000000,296.082377,10658.965565
705.822174,229.828649,1184.329507,9992.780217
705.822490,995.924147,1554.432478,9474.636058
705.822806,1762.019645,1184.329507,8364.327145
705.823121,1991.848295,1554.432478,8290.306550
705.823437,1685.410096,1480.411884,7994.224174
705.823753,1915.238745,1036.288319,8586.388927
705.824068,1685.410096,962.267725,8808.450710
705.824384,689.485948,888.247130,9400.615463
705.824700,153.219100,592.164754,9696.697840
705.825015,0.000000,-0.000000,10288.862594
705.825331,-689.485948,-518.144159,10881.027347
705.825647,-919.314598,-888.247130,11177.109724
705.825962,-1532.190996,-1036.288319,11621.233289
705.826278,-1225.752797,-888.247130,11843.295072
705.826594,-1302.362347,-740.205942,11547.212695
705.826909,-919.314598,-0.000000,10881.027347
705.827225,153.219100,962.267725,9844.739029
705.827541,612.876398,962.267725,9178.553681
705.827856,1225.752797,592.164754,8956.491898
705.828172,1532.190996,740.205942,8290.306550
705.828488,1608.800546,592.164754,7624.121203
705.828803,1455.581446,740.205942,8660.409521
705.829119,1072.533697,-0.000000,9104.533087
705.829435,459.657299,-0.000000,9030.512492
705.829750,0.000000,592.164754,9326.594869
705.830066,-612.876398,-962.267725,10436.903782
705.830382,-612.876398,-1184.329507,10881.027347
705.830697,-1302.362347,-1554.432478,11103.089130
705.831013,-1225.752797,-1998.556043,11251.130318
705.831329,-689.485948,-1776.494261,11473.192101
705.831644,-229.828649,-1110.308913,10436.903782
705.831960,383.047749,222.061783,9548.656652
705.832276,1532.190996,370.102971,8512.368333
705.832591,1838.629195,592.164754,7476.080014
705.832907,1915.238745,296.082377,7402.059420
705.833223,2451.505594,592.164754,6587.832884
705.833538,2681.334243,222.061783,7402.059420
705.833854,2374.896044,-444.123565,7920.203579
705.834170,1378.971896,-518.144159,7994.224174
705.834485,842.705048,-888.247130,8882.471304
705.834801,0.000000,-962.267725,9474.636058
705.835117,-229.828649,-1776.494261,9918.759623
705.835432,-842.705048,-2960.823768,10436.903782
705.835748,-1378.971896,-2442.679609,10955.047942
705.836064,-1072.533697,-2368.659014,11103.089130
705.836379,-766.095498,-2146.597232,10584.944971
705.836695,-612.876398,-1258.350101,9548.656652
705.837011,-153.219100,-888.247130,8882.471304
705.837326,689.485948,-444.123565,8068.244768
705.837642,766.095498,-1036.288319,7698.141797
705.837958,689.485948,-370.102971,7624.121203
705.838273,1149.143247,-1036.288319,7476.080014
705.838589,1302.362347,-962.267725,7772.162391
705.838905,229.828649,-1036.288319,8512.368333
705.839220,-459.657299,-1332.370696,9326.594869
705.839536,-612.876398,-1332.370696,9474.636058
705.839852,-1149.143247,-1628.453072,10362.883188
705.840167,-1762.019645,-2368.659014,10881.027347
705.840483,-1608.800546,-2146.597232,11251.130318
705.840799,-1302.362347,-1554.432478,11325.150913
705.841114,-766.095498,-1332.370696,11325.150913
705.841430,-536.266849,-592.164754,10881.027347
705.841746,0.000000,592.164754,9770.718434
705.842061,1302.362347,1406.391290,8882.471304
705.842377,2298.286494,1332.370696,8142.265362
705.842693,2604.724693,1776.494261,7994.224174
705.843008,2604.724693,1924.535449,7476.080014
705.843324,2451.505594,1628.453072,8290.306550
705.843639,2298.286494,1258.350101,8882.471304
705.843955,1378.971896,1184.329507,8956.491898
705.844271,766.095498,1554.432478,9474.636058
705.844586,919.314598,740.205942,10807.006753
705.844902,0.000000,222.061783,11251.130318
705.845218,0.000000,-0.000000,11473.192101
705.845533,-842.705048,-222.061783,11917.315666
705.845849,-383.047749,-296.082377,11769.274478
705.846165,76.609550,148.041188,11325.150913
705.846480,76.609550,888.247130,10362.883188
705.846796,1072.533697,1850.514855,9474.636058
705.847112,1915.238745,1628.453072,8808.450710
705.847427,2451.505594,1776.494261,8586.388927
705.847743,2221.676944,1628.453072,7920.203579
705.848059,2604.724693,1776.494261,7476.080014
705.848374,2145.067394,1332.370696,7994.224174
705.848690,1455.581446,518.144159,8956.491898
705.849006,919.314598,518.144159,9474.636058
705.849321,153.219100,592.164754,10066.800811
705.849637,-383.047749,-592.164754,10362.883188
705.849953,-766.095498,-1480.411884,11325.150913
705.850268,-1532.190996,-1406.391290,11251.130318
705.850584,-1378.971896,-1554.432478,11843.295072
705.850900,-1378.971896,-1184.329507,11547.212695
705.851215,-842.705048,-740.205942,10881.027347
705.851531,-306.438199,814.226536,9548.656652
705.851847,536.266849,1036.288319,8660.409521
705.852162,1378.971896,518.144159,8216.285956
705.852478,1455.581446,370.102971,7772.162391
705.852794,1608.800546,666.185348,7402.059420
705.853109,1685.410096,148.041188,7846.182985
705.853425,1225.752797,-0.000000,8586.388927
705.853741,383.047749,-444.123565,8512.368333
705.854056,-306.438199,-0.000000,9474.636058
705.854372,-459.657299,-592.164754,9918.759623
705.854688,-766.095498,-1258.350101,10436.903782
705.855003,-1225.752797,-1406.391290,10732.986159
705.855319,-919.314598,-1406.391290,10881.027347
705.855635,-459.657299,-1554.432478,10881.027347
705.855950,-689.485948,-1110.308913,10658.965565
705.856266,0.000000,-0.000000,9696.697840
705.856582,459.657299,370.102971,9104.533087
705.856897,2068.457845,370.102971,8586.388927
705.857213,2221.676944,666.185348,7550.100608
705.857529,2451.505594,962.267725,6883.915261
705.857844,2528.115143,518.144159,7031.956449
705.858160,2145.067394,-74.020594,7920.203579
705.858476,1302.362347,-370.102971,8438.347739
705.858791,306.438199,-296.082377,9030.512492
705.859107,-153.219100,-518.144159,9770.718434
705.859423,0.000000,-1776.494261,10140.821405
705.859738,-766.095498,-2516.700203,10807.006753
705.860054,-1455.581446,-2886.803174,11325.150913
705.860370,-1225.752797,-2738.761985,11695.253884
705.860685,-306.438199,-2442.679609,11473.192101
705.861001,0.000000,-1702.473667,10584.944971
705.861317,153.219100,-0.000000,9400.615463
705.861632,919.314598,370.102971,8438.347739
705.861948,1608.800546,370.102971,7772.162391
705.862264,1455.581446,-0.000000,7179.997637
705.862579,1455.581446,-296.082377,7402.059420
705.862895,1685.410096,-814.226536,7846.182985
705.863211,995.924147,-814.226536,8586.388927
705.863526,0.000000,-814.226536,9252.574275
705.863842,-383.047749,-1332.370696,9548.656652
705.864158,-919.314598,-1702.473667,10436.903782
705.864473,-1685.410096,-1924.535449,11325.150913
705.864789,-2298.286494,-2368.659014,11473.192101
705.865105,-2145.067394,-2146.597232,11769.274478
705.865420,-1608.800546,-1850.514855,11843.295072
705.865736,-689.485948,-1036.288319,11177.109724
705.866052,76.609550,148.041188,9844.739029
705.866367,689.485948,1184.329507,8734.430116
705.866683,2068.457845,1184.329507,8586.388927
705.866999,2834.553343,1036.288319,7920.203579
705.867314,2604.724693,1924.535449,7105.977043
705.867630,2911.162892,2072.576638,7328.038826
705.867946,2681.334243,1406.391290,8364.327145
705.868261,2068.457845,1406.391290,8216.285956
705.868577,766.095498,1702.473667,8734.430116
705.868893,995.924147,592.164754,9696.697840
705.869208,459.657299,-0.000000,10362.883188
705.869524,-153.219100,-148.041188,10436.903782
705.869840,-612.876398,-74.020594,10658.965565
705.870155,-612.876398,-592.164754,11325.150913
705.870471,0.000000,-370.102971,11473.192101
705.870787,-229.828649,444.123565,10140.821405
705.871102,306.438199,1258.350101,9548.656652
705.871418,1149.143247,1406.391290,9030.512492
705.871734,2145.067394,1036.288319,7772.162391
705.872050,2145.067394,1628.453072,7476.080014
705.872365,2068.457845,1702.473667,7254.018232
705.872681,2145.067394,888.247130,7772.162391
705.872997,1762.019645,592.164754,8660.409521
705.873312,1072.533697,592.164754,8734.430116
705.873628,306.438199,444.123565,9474.636058
705.873944,-229.828649,-222.061783,9696.697840
705.874260,-995.924147,-1110.308913,10658.965565
705.874575,-1378.971896,-1406.391290,11177.109724
705.874891,-995.924147,-1184.329507,11621.233289
705.875207,-1225.752797,-1554.432478,10955.047942
705.875523,-995.924147,-962.267725,11029.068536
705.875838,-536.266849,-370.102971,10214.842000
705.876154,306.438199,-148.041188,9474.636058
705.876470,1455.581446,-0.000000,9104.533087
705.876785,1378.971896,-0.000000,8512.368333
705.877101,1685.410096,740.205942,7920.203579
705.877417,1762.019645,666.185348,7920.203579
705.877733,1378.971896,-0.000000,8438.347739
705.878048,1302.362347,-0.000000,9104.533087
705.878364,689.485948,-0.000000,9326.594869
705.878680,383.047749,-296.082377,9548.656652
705.878996,0.000000,-1036.288319,10807.006753
705.879311,-153.219100,-1998.556043,11325.150913
705.879627,-536.266849,-1406.391290,11251.130318
705.879943,-383.047749,-1110.308913,11325.150913
705.880259,-383.047749,-666.185348,10658.965565
705.880574,383.047749,-0.000000,9844.739029
705.880890,1225.752797,888.247130,8956.491898
705.881206,2145.067394,962.267725,8734.430116
705.881521,2374.896044,888.247130,7920.203579
705.881837,2221.676944,814.226536,7328.038826
705.882153,2145.067394,518.144159,7550.100608
705.882469,2068.457845,-296.082377,8290.306550
705.882784,1072.533697,-518.144159,9104.533087
705.883100,229.828649,-518.144159,9326.594869
705.883416,-306.438199,-666.185348,9696.697840
705.883732,-536.266849,-962.267725,10288.862594
705.884047,-1455.581446,-1480.411884,11029.068536
705.884363,-1532.190996,-2072.576638,10732.986159
705.884679,-995.924147,-2294.638420,11473.192101
705.884994,-919.314598,-2146.597232,10955.047942
705.885310,-536.266849,-1406.391290,9992.780217
705.885626,0.000000,-740.205942,9400.615463
705.885942,1225.752797,-148.041188,8512.368333
705.886257,1302.362347,-444.123565,8216.285956
705.886573,1302.362347,-518.144159,7550.100608
705.886889,842.705048,-148.041188,7624.121203
705.887205,1072.533697,-740.205942,7550.100608
705.887520,995.924147,-1036.288319,8216.285956
705.887836,-306.438199,-814.226536,8882.471304
705.888152,-995.924147,-814.226536,9178.553681
705.888467,-1225.752797,-1924.535449,9548.656652
705.888783,-1608.800546,-2294.638420,11029.068536
705.889099,-2451.505594,-2442.679609,10881.027347
705.889415,-2068.457845,-2072.576638,11399.171507
705.889730,-1532.190996,-1924.535449,11473.192101
705.890046,-1302.362347,-1406.391290,10732.986159
705.890362,-229.828649,-222.061783,10140.821405
705.890678,842.705048,1036.288319,9104.533087
705.890993,1915.238745,1406.391290,7994.224174
705.891309,2451.505594,1702.473667,7550.100608
705.891625,2604.724693,1406.391290,7105.977043
705.891940,2528.115143,814.226536,7772.162391
705.892256,2834.553343,888.247130,7920.203579
705.892572,1991.848295,1406.391290,8364.327145
705.892888,1225.752797,1184.329507,9178.553681
705.893203,919.314598,1554.432478,9696.697840
705.893519,229.828649,592.164754,10288.862594
705.893835,-612.876398,-0.000000,10955.047942
705.894151,-842.705048,-370.102971,11473.192101
705.894466,-612.876398,-740.205942,11621.233289
705.894782,-383.047749,-888.247130,11177.109724
705.895098,0.000000,-0.000000,11103.089130
705.895414,536.266849,1702.473667,10214.842000
705.895729,1608.800546,1480.411884,8956.491898
705.896045,2221.676944,1332.370696,7846.182985
705.896361,2298.286494,1480.411884,7920.203579
705.896676,2451.505594,1702.473667,7476.080014
705.896992,2374.896044,1332.370696,8512.368333
705.897308,1991.848295,888.247130,8660.409521
705.897624,1455.581446,1036.288319,8956.491898
705.897939,842.705048,740.205942,9400.615463
705.898255,153.219100,-148.041188,9992.780217
705.898571,-306.438199,-1036.288319,11029.068536
705.898887,-612.876398,-1480.411884,11103.089130
705.899202,-1302.362347,-1258.350101,11325.150913
705.899518,-995.924147,-1036.288319,11325.150913
705.899834,-766.095498,-1332.370696,11103.089130
705.900149,-306.438199,-0.000000,10584.944971
705.900465,76.609550,444.123565,9548.656652
705.900781,919.314598,592.164754,9030.512492
705.901097,1225.752797,370.102971,8438.347739
705.901412,1149.143247,666.185348,7772.162391
705.901728,1915.238745,222.061783,7920.203579
705.902044,1455.581446,-0.000000,8808.450710
705.902360,1149.143247,-0.000000,8734.430116
705.902675,229.828649,444.123565,8956.491898
705.902991,0.000000,-0.000000,9326.594869
705.903307,0.000000,-444.123565,10066.800811
705.903622,-229.828649,-1184.329507,10955.047942
705.903938,-612.876398,-1036.288319,10881.027347
705.904254,-306.438199,-1332.370696,10658.965565
705.904570,0.000000,-1554.432478,10732.986159
705.904885,0.000000,-296.082377,9844.739029
705.905201,842.705048,222.061783,8956.491898
705.905517,1455.581446,444.123565,8882.471304
705.905833,1302.362347,-0.000000,8142.265362
705.906148,1532.190996,888.247130,7846.182985
705.906464,1685.410096,814.226536,7624.121203
705.906780,1378.971896,-0.000000,7994.224174
705.907095,766.095498,-592.164754,8882.471304
705.907411,153.219100,-370.102971,8882.471304
705.907727,-459.657299,-444.123565,9400.615463
705.908043,-612.876398,-1332.370696,10140.821405
705.908358,-612.876398,-2368.659014,10584.944971
705.908674,-1378.971896,-2294.638420,10510.924376
705.908990,-1225.752797,-1924.535449,10436.903782
705.909306,-689.485948,-2294.638420,10807.006753
705.909621,229.828649,-1554.432478,10362.883188
705.909937,-383.047749,-370.102971,9696.697840
705.910253,536.266849,444.123565,8290.306550
705.910568,1455.581446,370.102971,7550.100608
705.910884,1225.752797,-222.061783,7624.121203
705.911200,995.924147,-1110.308913,7772.162391
705.911516,842.705048,-666.185348,8142.265362
705.911831,689.485948,-1110.308913,8956.491898
705.912147,-153.219100,-1628.453072,9622.677246
705.912463,-1072.533697,-1184.329507,9622.677246
705.912779,-1455.581446,-1702.473667,10066.800811
705.913094,-1378.971896,-1776.494261,10807.006753
705.913410,-1762.019645,-2146.597232,11399.171507
705.913726,-1762.019645,-1850.514855,11103.089130
705.914042,-1149.143247,-1406.391290,11029.068536
705.914357,-766.095498,-1184.329507,11029.068536
705.914673,153.219100,-0.000000,9918.759623
705.914989,766.095498,666.185348,9252.574275
705.915304,1685.410096,666.185348,8512.368333
705.915620,2451.505594,740.205942,8438.347739
705.915936,2451.505594,1258.350101,7846.182985
705.916252,2604.724693,1554.432478,7328.038826
705.916567,2681.334243,740.205942,8068.244768
705.916883,2451.505594,592.164754,9104.533087
705.917199,1302.362347,888.247130,9400.615463
705.917515,689.485948,444.123565,9400.615463
