#time,accel_x,accel_y,accel_z
1165.272193,612.876398,-0.000000,9474.636058
1165.272509,306.438199,-74.020594,9548.656652
1165.272824,383.047749,-222.061783,9474.636058
1165.273140,383.047749,-74.020594,9474.636058
1165.273456,153.219100,-444.123565,9548.656652
1165.273772,383.047749,-148.041188,9474.636058
1165.274087,459.657299,-148.041188,9474.636058
1165.274403,459.657299,-222.061783,9474.636058
1165.274719,612.876398,-148.041188,9474.636058
1165.275034,612.876398,-0.000000,9548.656652
1165.275350,612.876398,-74.020594,9474.636058
1165.275666,153.219100,-222.061783,9326.594869
1165.275982,459.657299,-0.000000,9548.656652
1165.276297,459.657299,-74.020594,9474.636058
1165.276613,689.485948,-444.123565,9474.636058
1165.276929,536.266849,-222.061783,9474.636058
1165.277245,383.047749,-222.061783,9178.553681
1165.277560,229.828649,-74.020594,9474.636058
1165.277876,153.219100,-74.020594,9474.636058
1165.278192,306.438199,-666.185348,9474.636058
1165.278507,536.266849,-0.000000,9474.636058
1165.278823,229.828649,222.061783,9474.636058
1165.279139,153.219100,296.082377,9178.553681
1165.279455,76.609550,444.123565,9400.615463
1165.279770,536.266849,296.082377,9474.636058
1165.280086,612.876398,518.144159,9178.553681
1165.280402,459.657299,518.144159,9178.553681
1165.280718,536.266849,370.102971,9474.636058
1165.281033,383.047749,-0.000000,8882.471304
1165.281349,1302.362347,148.041188,9770.718434
1165.281665,689.485948,-0.000000,9474.636058
1165.281980,536.266849,666.185348,9326.594869
1165.282296,306.438199,444.123565,9326.594869
1165.282612,383.047749,518.144159,9622.677246
1165.282928,383.047749,518.144159,9326.594869
1165.283243,229.828649,888.247130,9622.677246
1165.283559,306.438199,962.267725,9104.533087
1165.283875,153.219100,740.205942,9400.615463
1165.284191,383.047749,962.267725,9622.677246
1165.284506,76.609550,370.102971,9104.533087
1165.284822,0.000000,740.205942,9326.594869
1165.285138,0.000000,962.267725,9326.594869
1165.285453,-306.438199,1036.288319,9178.553681
1165.285769,-689.485948,1110.308913,9400.615463
1165.286085,-459.657299,1258.350101,9400.615463
1165.286401,-842.705048,1332.370696,9400.615463
1165.286716,-1149.143247,1258.350101,9400.615463
1165.287032,-1378.971896,1258.350101,9400.615463
1165.287348,-1608.800546,1258.350101,9548.656652
1165.287664,-1685.410096,1480.411884,9548.656652
1165.287979,-1838.629195,1480.411884,9622.677246
1165.288295,-1991.848295,1406.391290,9844.739029
1165.288611,-2298.286494,1406.391290,9622.677246
1165.288926,-2068.457845,1406.391290,9474.636058
1165.289242,-1991.848295,1480.411884,9622.677246
1165.289558,-2068.457845,1702.473667,9474.636058
1165.289874,-1685.410096,1850.514855,9474.636058
1165.290189,-1532.190996,1776.494261,9474.636058
1165.290505,-1378.971896,1480.411884,9548.656652
1165.290821,-1378.971896,1776.494261,9474.636058
1165.291137,-1302.362347,1702.473667,9474.636058
1165.291452,-1072.533697,1702.473667,9770.718434
1165.291768,-1149.143247,1776.494261,9622.677246
1165.292084,-1225.752797,2146.597232,9770.718434
1165.292399,-1302.362347,2072.576638,9474.636058
1165.292715,-1302.362347,2294.638420,9252.574275
1165.293031,-1225.752797,2368.659014,9474.636058
1165.293347,-919.314598,2220.617826,9104.533087
1165.293662,-1455.581446,2368.659014,9400.615463
1165.293978,-1455.581446,1998.556043,9252.574275
1165.294294,-1455.581446,1480.411884,9548.656652
1165.294610,-1991.848295,1406.391290,9770.718434
1165.294925,-2068.457845,814.226536,9918.759623
1165.295241,-2374.896044,1258.350101,9770.718434
1165.295557,-2374.896044,1184.329507,9918.759623
1165.295872,-2298.286494,1406.391290,9696.697840
1165.296188,-2221.676944,1184.329507,9696.697840
1165.296504,-2221.676944,1406.391290,9622.677246
1165.296820,-1915.238745,1332.370696,9622.677246
1165.297135,-1991.848295,1480.411884,9622.677246
1165.297451,-2068.457845,1480.411884,9474.636058
1165.297767,-1608.800546,1480.411884,9474.636058
1165.298083,-1915.238745,1924.535449,9030.512492
1165.298398,-2068.457845,1998.556043,9104.533087
1165.298714,-2068.457845,2072.576638,8882.471304
1165.299030,-2145.067394,2368.659014,9104.533087
1165.299345,-2451.505594,2664.741391,9400.615463
1165.299661,-2681.334243,1702.473667,9400.615463
1165.299977,-2834.553343,1184.329507,9548.656652
1165.300293,-2834.553343,814.226536,9844.739029
1165.300608,-2451.505594,518.144159,9992.780217
1165.300924,-2145.067394,-0.000000,10140.821405
1165.301240,-1915.238745,370.102971,10288.862594
1165.301556,-1532.190996,444.123565,9844.739029
1165.301871,-1072.533697,888.247130,9548.656652
1165.302187,-306.438199,1850.514855,9474.636058
1165.302503,229.828649,2146.597232,9030.512492
1165.302818,383.047749,2960.823768,8290.306550
1165.303134,459.657299,3330.926739,8438.347739
1165.303450,689.485948,2738.761985,7994.224174
1165.303766,459.657299,3404.947333,8142.265362
1165.304081,-459.657299,3182.885551,7920.203579
1165.304397,-995.924147,2664.741391,8586.388927
1165.304713,-1838.629195,2072.576638,9178.553681
1165.305029,-2757.943793,1480.411884,9622.677246
1165.305344,-3447.429741,1332.370696,10214.842000
1165.305660,-3907.087040,962.267725,10807.006753
1165.305976,-4213.525239,-0.000000,10955.047942
1165.306291,-4060.306139,-0.000000,11325.150913
1165.306607,-3447.429741,-0.000000,11029.068536
1165.306923,-2757.943793,148.041188,10807.006753
1165.307239,-1685.410096,888.247130,10214.842000
1165.307554,-689.485948,1184.329507,9326.594869
1165.307870,229.828649,2146.597232,8956.491898
1165.308186,842.705048,2812.782580,8216.285956
1165.308502,1149.143247,3923.091493,7846.182985
1165.308817,1149.143247,4663.297435,7698.141797
1165.309133,919.314598,4811.338623,7550.100608
1165.309449,153.219100,4737.318029,7328.038826
1165.309764,-459.657299,3923.091493,7772.162391
1165.310080,-1762.019645,3330.926739,8660.409521
1165.310396,-2987.772442,2590.720797,10066.800811
1165.310712,-4136.915689,666.185348,11325.150913
1165.311027,-5286.058936,-222.061783,11917.315666
1165.311343,-5286.058936,-1184.329507,12805.562797
1165.311659,-5439.278036,-1702.473667,12879.583391
1165.311975,-4826.401637,-1406.391290,12287.418637
1165.312290,-3830.477490,-666.185348,11843.295072
1165.312606,-2298.286494,814.226536,10732.986159
1165.312922,-842.705048,2368.659014,9252.574275
1165.313237,766.095498,4145.153275,7698.141797
1165.313553,1302.362347,5181.441594,6513.812290
1165.313869,1685.410096,5921.647536,5921.647536
1165.314185,1685.410096,5773.606348,5995.668130
1165.314500,1302.362347,5477.523971,6883.915261
1165.314816,229.828649,3923.091493,7772.162391
1165.315132,-1455.581446,2146.597232,9030.512492
1165.315448,-2834.553343,740.205942,10362.883188
1165.315763,-3294.210641,-740.205942,11399.171507
1165.316079,-4519.963438,-1258.350101,12731.542202
1165.316395,-4826.401637,-1036.288319,12583.501014
1165.316710,-4443.353888,-296.082377,11991.336260
1165.317026,-4060.306139,592.164754,10955.047942
1165.317342,-3370.820191,1184.329507,10362.883188
1165.317658,-2068.457845,2368.659014,9400.615463
1165.317973,-612.876398,3552.988522,8216.285956
1165.318289,-306.438199,3923.091493,7402.059420
1165.318605,153.219100,3849.070898,7476.080014
1165.318921,383.047749,3256.906145,7550.100608
1165.319236,689.485948,2812.782580,8512.368333
1165.319552,383.047749,2072.576638,8512.368333
1165.319868,-306.438199,1850.514855,8586.388927
1165.320183,-1302.362347,1554.432478,9178.553681
1165.320499,-1685.410096,1258.350101,10214.842000
1165.320815,-2068.457845,1184.329507,10140.821405
1165.321131,-2681.334243,1554.432478,10214.842000
1165.321446,-3753.867940,1480.411884,9992.780217
1165.321762,-3907.087040,814.226536,9992.780217
1165.322078,-3064.381992,148.041188,10140.821405
1165.322394,-2834.553343,370.102971,9992.780217
1165.322709,-2451.505594,1110.308913,9400.615463
1165.323025,-2374.896044,1258.350101,9326.594869
1165.323341,-1838.629195,1628.453072,8734.430116
1165.323656,-1378.971896,1998.556043,9178.553681
1165.323972,-1685.410096,2220.617826,9548.656652
1165.324288,-1608.800546,2368.659014,9696.697840
1165.324604,-1455.581446,2220.617826,9474.636058
1165.324919,-1149.143247,1628.453072,9474.636058
1165.325235,-1225.752797,1554.432478,9400.615463
1165.325551,-612.876398,1258.350101,9326.594869
1165.325866,-536.266849,1184.329507,9178.553681
1165.326182,-1072.533697,1406.391290,9030.512492
1165.326498,-1072.533697,1332.370696,8882.471304
1165.326814,-1225.752797,1628.453072,9474.636058
1165.327129,-1149.143247,2220.617826,9622.677246
1165.327445,-1455.581446,3034.844362,8956.491898
1165.327761,-1302.362347,2664.741391,8808.450710
1165.328077,-1378.971896,2294.638420,9030.512492
1165.328392,-1455.581446,2368.659014,9474.636058
1165.328708,-1608.800546,2368.659014,8956.491898
1165.329024,-2145.067394,1554.432478,9992.780217
1165.329339,-2528.115143,1184.329507,10510.924376
1165.329655,-2604.724693,740.205942,11103.089130
1165.329971,-2528.115143,1110.308913,9992.780217
1165.330287,-2374.896044,1110.308913,10214.842000
1165.330602,-2145.067394,666.185348,10140.821405
1165.330918,-1302.362347,1110.308913,9844.739029
1165.331234,-306.438199,1924.535449,9326.594869
1165.331550,306.438199,2220.617826,9030.512492
1165.331865,612.876398,3108.864956,8290.306550
1165.332181,766.095498,3478.967927,7624.121203
1165.332497,459.657299,3627.009116,7179.997637
1165.332812,0.000000,3404.947333,8142.265362
1165.333128,-1149.143247,3108.864956,9178.553681
1165.333444,-1685.410096,2664.741391,9178.553681
1165.333760,-2528.115143,1998.556043,9770.718434
1165.334075,-3370.820191,1998.556043,9918.759623
1165.334391,-3753.867940,592.164754,10584.944971
1165.334707,-3983.696590,-0.000000,10955.047942
1165.335023,-4213.525239,-148.041188,11473.192101
1165.335338,-4213.525239,-370.102971,11473.192101
1165.335654,-2911.162892,-222.061783,11473.192101
1165.335970,-2298.286494,-0.000000,10732.986159
1165.336285,-1149.143247,1258.350101,9474.636058
1165.336601,0.000000,2368.659014,8364.327145
1165.336917,306.438199,2590.720797,7846.182985
1165.337233,459.657299,3552.988522,7698.141797
1165.337548,1149.143247,3997.112087,7031.956449
1165.337864,1072.533697,3701.029710,7105.977043
1165.338180,76.609550,2886.803174,8290.306550
1165.338496,-612.876398,1628.453072,8290.306550
1165.338811,-1838.629195,1036.288319,9400.615463
1165.339127,-3064.381992,444.123565,11547.212695
1165.339443,-3524.039291,-370.102971,11177.109724
1165.339758,-3294.210641,-148.041188,11843.295072
1165.340074,-3830.477490,-962.267725,11695.253884
1165.340390,-4290.134789,-814.226536,11177.109724
1165.340706,-3830.477490,-888.247130,10362.883188
1165.341021,-2604.724693,-370.102971,10732.986159
1165.341337,-1838.629195,1036.288319,9252.574275
1165.341653,-689.485948,1924.535449,9400.615463
1165.341969,153.219100,2738.761985,7846.182985
1165.342284,153.219100,3034.844362,7031.956449
1165.342600,229.828649,2442.679609,7402.059420
1165.342916,459.657299,1332.370696,8512.368333
1165.343231,689.485948,1110.308913,9104.533087
1165.343547,612.876398,296.082377,8956.491898
1165.343863,-383.047749,-370.102971,10066.800811
1165.344179,-536.266849,-370.102971,9918.759623
1165.344494,-306.438199,-518.144159,9992.780217
1165.344810,-459.657299,148.041188,9918.759623
1165.345126,0.000000,888.247130,10066.800811
1165.345442,-153.219100,296.082377,9400.615463
1165.345757,0.000000,-0.000000,9252.574275
1165.346073,153.219100,-0.000000,9178.553681
1165.346389,536.266849,-0.000000,8438.347739
1165.346704,229.828649,740.205942,8734.430116
1165.347020,306.438199,-0.000000,9474.636058
1165.347336,76.609550,-148.041188,9696.697840
1165.347652,-459.657299,-296.082377,9992.780217
1165.347967,-383.047749,-518.144159,9696.697840
1165.348283,0.000000,222.061783,9770.718434
1165.348599,459.657299,296.082377,9400.615463
1165.348914,459.657299,-0.000000,8956.491898
1165.349230,689.485948,148.041188,10436.903782
1165.349546,459.657299,-0.000000,9474.636058
1165.349862,995.924147,-74.020594,8734.430116
1165.350177,1072.533697,740.205942,8956.491898
1165.350493,1149.143247,-0.000000,8660.409521
1165.350809,995.924147,-148.041188,9104.533087
1165.351125,0.000000,592.164754,9918.759623
1165.351440,383.047749,1184.329507,9474.636058
1165.351756,459.657299,1850.514855,9252.574275
1165.352072,-229.828649,1776.494261,8956.491898
1165.352387,-995.924147,666.185348,9178.553681
1165.352703,-1302.362347,-222.061783,11177.109724
1165.353019,-1225.752797,-1036.288319,11251.130318
1165.353335,-612.876398,-148.041188,10510.924376
1165.353650,76.609550,-148.041188,10510.924376
1165.353966,-612.876398,-962.267725,9770.718434
1165.354282,153.219100,-74.020594,9696.697840
1165.354598,383.047749,-666.185348,10066.800811
1165.354913,1532.190996,222.061783,9252.574275
1165.355229,2451.505594,1554.432478,8438.347739
1165.355545,2145.067394,1702.473667,7550.100608
1165.355860,1838.629195,2146.597232,8290.306550
1165.356176,2068.457845,1332.370696,8586.388927
1165.356492,1685.410096,740.205942,8734.430116
1165.356808,1302.362347,518.144159,8660.409521
1165.357123,0.000000,-370.102971,9400.615463
1165.357439,-689.485948,-1776.494261,10658.965565
1165.357755,-1225.752797,-2294.638420,11251.130318
1165.358071,-919.314598,-2368.659014,11843.295072
1165.358386,-612.876398,-1554.432478,10881.027347
1165.358702,0.000000,-962.267725,10066.800811
1165.359018,-919.314598,-0.000000,9548.656652
1165.359333,-153.219100,-370.102971,9770.718434
1165.359649,1685.410096,-444.123565,9770.718434
1165.359965,1608.800546,1924.535449,9400.615463
1165.360281,1838.629195,1628.453072,7254.018232
1165.360596,2068.457845,1480.411884,7105.977043
1165.360912,1378.971896,518.144159,8808.450710
1165.361228,459.657299,-592.164754,10066.800811
1165.361544,1302.362347,-0.000000,9622.677246
1165.361859,612.876398,148.041188,9326.594869
1165.362175,-306.438199,-222.061783,9400.615463
1165.362491,-1225.752797,-444.123565,9844.739029
1165.362806,-766.095498,-1628.453072,11325.150913
1165.363122,0.000000,-1110.308913,11473.192101
1165.363438,-229.828649,-592.164754,9992.780217
1165.363754,-229.828649,-1184.329507,9252.574275
1165.364069,-612.876398,-888.247130,9326.594869
1165.364385,-383.047749,-1406.391290,9474.636058
1165.364701,1378.971896,-1332.370696,10066.800811
1165.365017,1608.800546,296.082377,8512.368333
1165.365332,1455.581446,370.102971,9104.533087
1165.365648,1302.362347,592.164754,7846.182985
1165.365964,1608.800546,222.061783,8068.244768
1165.366279,1532.190996,-814.226536,9844.739029
1165.366595,2068.457845,296.082377,9252.574275
1165.366911,1608.800546,-0.000000,8290.306550
1165.367227,229.828649,-296.082377,9104.533087
1165.367542,229.828649,-1036.288319,10362.883188
1165.367858,612.876398,-1110.308913,9844.739029
1165.368174,459.657299,-222.061783,9992.780217
1165.368489,0.000000,-518.144159,9104.533087
1165.368805,-76.609550,-1480.411884,9252.574275
1165.369121,0.000000,-888.247130,10066.800811
1165.369437,0.000000,-1258.350101,10436.903782
1165.369752,995.924147,444.123565,9326.594869
1165.370068,689.485948,740.205942,8808.450710
1165.370384,153.219100,962.267725,8068.244768
1165.370700,0.000000,-0.000000,9252.574275
1165.371015,0.000000,-888.247130,9770.718434
1165.371331,306.438199,-0.000000,9622.677246
1165.371647,229.828649,-0.000000,9844.739029
1165.371962,0.000000,-1110.308913,9104.533087
1165.372278,-536.266849,-962.267725,9252.574275
1165.372594,0.000000,-1776.494261,10510.924376
1165.372910,995.924147,-1258.350101,10362.883188
1165.373225,995.924147,370.102971,9696.697840
1165.373541,842.705048,296.082377,8808.450710
1165.373857,842.705048,-0.000000,8586.388927
1165.374173,995.924147,-0.000000,9178.553681
1165.374488,1991.848295,444.123565,9030.512492
1165.374804,1532.190996,740.205942,9400.615463
1165.375120,766.095498,148.041188,8512.368333
1165.375435,76.609550,-222.061783,8808.450710
1165.375751,-689.485948,-740.205942,10584.944971
1165.376067,0.000000,-1480.411884,10881.027347
1165.376383,76.609550,-592.164754,10288.862594
1165.376698,-766.095498,-666.185348,10658.965565
1165.377014,-1378.971896,-444.123565,10288.862594
1165.377330,-612.876398,-1332.370696,10066.800811
1165.377646,0.000000,-1554.432478,11029.068536
1165.377961,919.314598,148.041188,9844.739029
1165.378277,766.095498,-0.000000,8808.450710
1165.378593,842.705048,222.061783,9104.533087
1165.378908,612.876398,148.041188,9474.636058
1165.379224,2451.505594,148.041188,9104.533087
1165.379540,2298.286494,1850.514855,8956.491898
1165.379856,1685.410096,1036.288319,8364.327145
1165.380171,1685.410096,592.164754,9030.512492
1165.380487,1225.752797,444.123565,9030.512492
1165.380803,1225.752797,-296.082377,9548.656652
1165.381119,1455.581446,-0.000000,10362.883188
1165.381434,919.314598,148.041188,9696.697840
1165.381750,536.266849,-148.041188,9104.533087
1165.382066,-536.266849,592.164754,9178.553681
1165.382381,-229.828649,-592.164754,10436.903782
1165.382697,919.314598,-1110.308913,10658.965565
1165.383013,0.000000,1258.350101,7920.203579
1165.383329,-842.705048,-0.000000,8364.327145
1165.383644,-306.438199,296.082377,9178.553681
1165.383960,306.438199,-370.102971,9326.594869
1165.384276,0.000000,296.082377,9474.636058
1165.384591,0.000000,1110.308913,9030.512492
1165.384907,-1072.533697,-0.000000,8512.368333
1165.385223,-1302.362347,-222.061783,9400.615463
1165.385539,-1225.752797,-962.267725,9770.718434
1165.385854,-383.047749,-370.102971,10288.862594
1165.386170,0.000000,1036.288319,9178.553681
1165.386486,-383.047749,-296.082377,8808.450710
1165.386802,-995.924147,-296.082377,9400.615463
1165.387117,-383.047749,-444.123565,9770.718434
1165.387433,536.266849,-0.000000,8808.450710
1165.387749,612.876398,370.102971,9918.759623
1165.388064,383.047749,-222.061783,9104.533087
1165.388380,-229.828649,-0.000000,9030.512492
1165.388696,76.609550,-444.123565,9104.533087
1165.389012,689.485948,-740.205942,10140.821405
1165.389327,1302.362347,518.144159,10140.821405
1165.389643,842.705048,370.102971,9104.533087
1165.389959,383.047749,-222.061783,8956.491898
1165.390275,76.609550,-666.185348,9844.739029
1165.390590,536.266849,-814.226536,11251.130318
1165.390906,919.314598,-74.020594,9770.718434
1165.391222,766.095498,518.144159,8734.430116
1165.391537,383.047749,-296.082377,9474.636058
1165.391853,0.000000,-962.267725,9474.636058
1165.392169,76.609550,-1332.370696,10584.944971
1165.392485,1072.533697,-740.205942,9992.780217
1165.392800,919.314598,148.041188,9696.697840
1165.393116,383.047749,-148.041188,8956.491898
1165.393432,153.219100,-444.123565,9252.574275
1165.393748,459.657299,-1036.288319,10140.821405
1165.394063,842.705048,-370.102971,10362.883188
1165.394379,536.266849,148.041188,9548.656652
1165.394695,76.609550,-148.041188,9622.677246
1165.395010,0.000000,222.061783,8734.430116
1165.395326,153.219100,-592.164754,9992.780217
1165.395642,1072.533697,-370.102971,10214.842000
1165.395958,1072.533697,740.205942,9992.780217
1165.396273,1072.533697,-0.000000,8882.471304
1165.396589,306.438199,-74.020594,9030.512492
1165.396905,689.485948,-962.267725,9622.677246
1165.397221,1608.800546,-222.061783,9918.759623
1165.397536,1685.410096,962.267725,8956.491898
1165.397852,689.485948,370.102971,8512.368333
1165.398168,306.438199,-0.000000,9548.656652
1165.398483,612.876398,-740.205942,9252.574275
1165.398799,383.047749,-814.226536,9696.697840
1165.399115,919.314598,518.144159,9474.636058
1165.399431,383.047749,-0.000000,8290.306550
1165.399746,229.828649,-0.000000,8586.388927
1165.400062,-459.657299,-1258.350101,9992.780217
1165.400378,0.000000,-1332.370696,10214.842000
1165.400694,383.047749,-0.000000,9252.574275
1165.401009,-306.438199,-148.041188,8660.409521
1165.401325,-459.657299,-814.226536,9104.533087
1165.401641,-612.876398,-1036.288319,9770.718434
1165.401956,153.219100,-814.226536,9474.636058
1165.402272,383.047749,-0.000000,9474.636058
1165.402588,0.000000,-0.000000,8734.430116
1165.402904,0.000000,-592.164754,8956.491898
1165.403219,-536.266849,-148.041188,8808.450710
1165.403535,306.438199,-592.164754,9992.780217
1165.403851,766.095498,222.061783,9622.677246
1165.404166,229.828649,888.247130,9104.533087
1165.404482,383.047749,-74.020594,9252.574275
1165.404798,-383.047749,-666.185348,9178.553681
1165.405114,306.438199,-1036.288319,9992.780217
1165.405429,995.924147,-518.144159,10140.821405
1165.405745,1149.143247,740.205942,9252.574275
1165.406061,306.438199,-74.020594,9030.512492
1165.406377,76.609550,-370.102971,9474.636058
1165.406692,536.266849,-1036.288319,9918.759623
1165.407008,612.876398,-0.000000,9918.759623
1165.407324,995.924147,296.082377,9548.656652
1165.407639,612.876398,-444.123565,9252.574275
1165.407955,-459.657299,-444.123565,9622.677246
1165.408271,-229.828649,-814.226536,9770.718434
1165.408587,536.266849,-888.247130,10807.006753
1165.408902,383.047749,-222.061783,10584.944971
1165.409218,0.000000,-148.041188,9992.780217
1165.409534,-459.657299,-0.000000,9696.697840
1165.409850,0.000000,-74.020594,9474.636058
1165.410165,612.876398,-888.247130,10066.800811
1165.410481,1532.190996,666.185348,9696.697840
1165.410797,919.314598,-0.000000,9326.594869
1165.411112,153.219100,-148.041188,9474.636058
1165.411428,612.876398,-666.185348,9770.718434
1165.411744,1302.362347,-444.123565,10658.965565
1165.412060,2298.286494,814.226536,9104.533087
1165.412375,1225.752797,-0.000000,9252.574275
1165.412691,1378.971896,-518.144159,9770.718434
1165.413007,919.314598,-444.123565,9326.594869
1165.413323,1455.581446,-222.061783,9622.677246
1165.413638,2298.286494,962.267725,9844.739029
1165.413954,2145.067394,1036.288319,8956.491898
1165.414270,689.485948,1258.350101,7994.224174
1165.414585,229.828649,-0.000000,10288.862594
1165.414901,536.266849,-1480.411884,10066.800811
1165.415217,1455.581446,222.061783,9918.759623
1165.415533,995.924147,-0.000000,9696.697840
1165.415848,0.000000,-222.061783,8808.450710
1165.416164,229.828649,-148.041188,9474.636058
1165.416480,612.876398,-370.102971,9474.636058
1165.416796,995.924147,592.164754,9696.697840
1165.417111,383.047749,740.205942,9252.574275
1165.417427,306.438199,518.144159,8512.368333
1165.417743,-459.657299,222.061783,9030.512492
1165.418058,0.000000,-1332.370696,9696.697840
1165.418374,689.485948,-296.082377,9696.697840
1165.418690,766.095498,370.102971,8586.388927
1165.419006,0.000000,-0.000000,8438.347739
1165.419321,-306.438199,-814.226536,9030.512492
1165.419637,-1302.362347,-1554.432478,10140.821405
1165.419953,0.000000,-888.247130,10214.842000
1165.420268,229.828649,222.061783,8882.471304
1165.420584,-306.438199,-0.000000,8808.450710
1165.420900,-612.876398,-740.205942,9104.533087
1165.421216,-459.657299,-1924.535449,9622.677246
1165.421531,76.609550,-1184.329507,10140.821405
1165.421847,306.438199,-370.102971,9400.615463
1165.422163,383.047749,-444.123565,9178.553681
1165.422479,306.438199,-592.164754,9104.533087
1165.422794,0.000000,-666.185348,8956.491898
1165.423110,306.438199,-888.247130,9770.718434
1165.423426,689.485948,-148.041188,9400.615463
1165.423741,689.485948,-296.082377,9252.574275
1165.424057,0.000000,-888.247130,9474.636058
1165.424373,0.000000,-74.020594,9104.533087
1165.424689,229.828649,-814.226536,9696.697840
1165.425004,1302.362347,-296.082377,9992.780217
1165.425320,766.095498,296.082377,9326.594869
1165.425636,229.828649,-666.185348,8512.368333
1165.425952,0.000000,-666.185348,10140.821405
1165.426267,0.000000,-1258.350101,10510.924376
1165.426583,383.047749,-0.000000,10066.800811
1165.426899,1149.143247,962.267725,9548.656652
1165.427214,306.438199,592.164754,9030.512492
1165.427530,153.219100,-0.000000,9770.718434
1165.427846,306.438199,-370.102971,9474.636058
1165.428162,1225.752797,222.061783,10066.800811
1165.428477,1608.800546,962.267725,10214.842000
1165.428793,919.314598,296.082377,9400.615463
1165.429109,1149.143247,222.061783,9104.533087
1165.429425,1378.971896,-592.164754,10066.800811
1165.429740,1915.238745,-0.000000,9918.759623
1165.430056,1532.190996,814.226536,9770.718434
1165.430372,1455.581446,592.164754,8512.368333
1165.430687,1225.752797,518.144159,8882.471304
1165.431003,1072.533697,592.164754,9178.553681
1165.431319,1455.581446,-0.000000,9844.739029
1165.431635,995.924147,222.061783,9548.656652
1165.431951,536.266849,-0.000000,9474.636058
1165.432267,0.000000,-222.061783,8882.471304
1165.432582,-689.485948,-370.102971,9326.594869
1165.432898,0.000000,-1110.308913,11029.068536
1165.433214,306.438199,-0.000000,10140.821405
1165.433530,-306.438199,-0.000000,8882.471304
1165.433846,-919.314598,296.082377,8808.450710
1165.434162,-919.314598,-0.000000,9918.759623
1165.434477,0.000000,-962.267725,9474.636058
1165.434793,536.266849,-0.000000,9474.636058
1165.435109,306.438199,740.205942,9326.594869
1165.435425,0.000000,296.082377,8660.409521
1165.435741,0.000000,-222.061783,9030.512492
1165.436057,306.438199,-962.267725,10066.800811
1165.436373,842.705048,-0.000000,9992.780217
1165.436688,919.314598,518.144159,9178.553681
1165.437004,0.000000,296.082377,8956.491898
1165.437320,0.000000,-0.000000,9474.636058
1165.437636,459.657299,-592.164754,9696.697840
1165.437952,842.705048,-74.020594,9548.656652
1165.438268,383.047749,444.123565,8882.471304
1165.438583,459.657299,-148.041188,8882.471304
1165.438899,0.000000,-592.164754,8956.491898
1165.439215,0.000000,-814.226536,9474.636058
1165.439531,766.095498,-814.226536,10066.800811
1165.439847,842.705048,-74.020594,9252.574275
1165.440163,76.609550,-296.082377,8882.471304
1165.440479,-229.828649,-74.020594,9252.574275
1165.440794,0.000000,-666.185348,9622.677246
1165.441110,689.485948,-1480.411884,10140.821405
1165.441426,1072.533697,518.144159,9474.636058
1165.441742,689.485948,-222.061783,8586.388927
1165.442058,76.609550,-518.144159,8660.409521
1165.442374,0.000000,-1036.288319,9326.594869
1165.442689,612.876398,-1406.391290,10584.944971
1165.443005,1072.533697,74.020594,9400.615463
1165.443321,306.438199,-0.000000,8956.491898
1165.443637,-229.828649,-0.000000,9252.574275
1165.443953,306.438199,-740.205942,9696.697840
1165.444269,536.266849,-962.267725,10066.800811
1165.444585,766.095498,666.185348,9696.697840
1165.444900,766.095498,148.041188,9178.553681
1165.445216,383.047749,-296.082377,9252.574275
1165.445532,229.828649,-518.144159,9696.697840
1165.445848,842.705048,-1554.432478,10140.821405
1165.446164,1225.752797,-0.000000,10066.800811
1165.446480,536.266849,592.164754,8882.471304
1165.446795,842.705048,444.123565,9252.574275
1165.447111,536.266849,-148.041188,10066.800811
1165.447427,1225.752797,-0.000000,9622.677246
1165.447743,1455.581446,888.247130,9030.512492
1165.448059,1302.362347,740.205942,9104.533087
1165.448375,842.705048,222.061783,7994.224174
1165.448691,153.219100,-296.082377,9252.574275
1165.449006,229.828649,-1184.329507,10510.924376
1165.449322,1072.533697,-740.205942,10362.883188
1165.449638,383.047749,518.144159,9252.574275
1165.449954,-229.828649,666.185348,8882.471304
1165.450270,-612.876398,-518.144159,9400.615463
1165.450586,-153.219100,-888.247130,9918.759623
1165.450901,612.876398,296.082377,10510.924376
1165.451217,153.219100,666.185348,9548.656652
1165.451533,689.485948,222.061783,8882.471304
1165.451849,0.000000,-0.000000,8734.430116
1165.452165,76.609550,-888.247130,9918.759623
1165.452481,612.876398,-444.123565,10214.842000
1165.452797,842.705048,444.123565,8956.491898
1165.453112,306.438199,888.247130,9252.574275
1165.453428,0.000000,-0.000000,9696.697840
1165.453744,459.657299,-0.000000,9104.533087
1165.454060,766.095498,222.061783,9696.697840
1165.454376,1225.752797,370.102971,9918.759623
1165.454692,995.924147,-296.082377,9252.574275
1165.455007,459.657299,-222.061783,9030.512492
1165.455323,0.000000,-0.000000,10066.800811
1165.455639,229.828649,-1406.391290,10066.800811
1165.455955,919.314598,-148.041188,10140.821405
1165.456271,153.219100,-0.000000,9696.697840
1165.456587,-995.924147,-0.000000,8882.471304
1165.456903,-612.876398,-962.267725,10362.883188
1165.457218,0.000000,-1480.411884,10807.006753
1165.457534,459.657299,-0.000000,9548.656652
1165.457850,229.828649,-0.000000,9030.512492
1165.458166,-76.609550,-296.082377,9030.512492
1165.458482,0.000000,-1110.308913,9918.759623
1165.458798,306.438199,-1776.494261,10510.924376
1165.459114,689.485948,222.061783,9474.636058
1165.459429,1072.533697,666.185348,8956.491898
1165.459745,76.609550,-0.000000,8364.327145
1165.460061,0.000000,-222.061783,9622.677246
1165.460377,919.314598,-1110.308913,10362.883188
1165.460693,1378.971896,-0.000000,9770.718434
1165.461009,766.095498,814.226536,9104.533087
1165.461324,919.314598,-74.020594,8956.491898
1165.461640,306.438199,-518.144159,9474.636058
1165.461956,306.438199,-444.123565,9622.677246
1165.462272,1225.752797,-148.041188,9548.656652
1165.462588,1149.143247,-0.000000,9252.574275
1165.462904,612.876398,-0.000000,9104.533087
1165.463220,459.657299,-0.000000,8882.471304
1165.463535,842.705048,-1036.288319,9770.718434
1165.463851,995.924147,-370.102971,9844.739029
1165.464167,766.095498,1332.370696,8512.368333
1165.464483,995.924147,518.144159,7994.224174
1165.464799,-229.828649,-74.020594,9178.553681
1165.465115,153.219100,-666.185348,9548.656652
1165.465430,919.314598,-814.226536,9770.718434
1165.465746,76.609550,296.082377,9326.594869
1165.466062,0.000000,-518.144159,9474.636058
1165.466378,-229.828649,-74.020594,8882.471304
1165.466694,-459.657299,-370.102971,9696.697840
1165.467010,0.000000,-592.164754,10214.842000
1165.467326,1149.143247,814.226536,9622.677246
1165.467641,612.876398,740.205942,8586.388927
1165.467957,0.000000,-0.000000,9474.636058
1165.468273,229.828649,-1184.329507,10066.800811
1165.468589,383.047749,-1332.370696,9992.780217
1165.468905,842.705048,-74.020594,10066.800811
1165.469221,459.657299,-74.020594,9622.677246
1165.469536,306.438199,-0.000000,9326.594869
1165.469852,-229.828649,-222.061783,9696.697840
1165.470168,153.219100,-962.267725,10732.986159
1165.470484,842.705048,-0.000000,9696.697840
1165.470800,842.705048,-222.061783,9252.574275
1165.471116,383.047749,-888.247130,9992.780217
1165.471432,76.609550,-1184.329507,9918.759623
1165.471747,766.095498,-1332.370696,9770.718434
1165.472063,995.924147,-666.185348,9548.656652
1165.472379,1149.143247,592.164754,9844.739029
1165.472695,536.266849,296.082377,8512.368333
1165.473011,-383.047749,814.226536,8290.306550
1165.473327,0.000000,-592.164754,10436.903782
1165.473642,536.266849,-1184.329507,10436.903782
1165.473958,383.047749,-148.041188,9770.718434
1165.474274,0.000000,-1036.288319,9622.677246
1165.474590,-153.219100,-888.247130,9474.636058
1165.474906,0.000000,-1184.329507,10288.862594
1165.475222,229.828649,-148.041188,9548.656652
1165.475538,1225.752797,1184.329507,9696.697840
1165.475853,612.876398,1036.288319,7920.203579
1165.476169,-306.438199,814.226536,8660.409521
1165.476485,0.000000,-222.061783,9474.636058
1165.476801,1072.533697,-888.247130,10140.821405
1165.477117,1915.238745,592.164754,9252.574275
1165.477433,995.924147,-74.020594,8512.368333
1165.477748,995.924147,-592.164754,8734.430116
1165.478064,842.705048,-1036.288319,9474.636058
1165.478380,1302.362347,-814.226536,10288.862594
1165.478696,1991.848295,962.267725,9622.677246
1165.479012,1149.143247,666.185348,9030.512492
1165.479328,459.657299,222.061783,8216.285956
1165.479644,306.438199,-148.041188,9104.533087
1165.479959,995.924147,-518.144159,9474.636058
1165.480275,1455.581446,444.123565,9400.615463
1165.480591,1149.143247,962.267725,8142.265362
1165.480907,689.485948,-0.000000,8660.409521
1165.481223,153.219100,-444.123565,8734.430116
1165.481539,229.828649,-1036.288319,9992.780217
1165.481854,459.657299,-148.041188,10288.862594
1165.482170,0.000000,296.082377,8734.430116
1165.482486,-536.266849,-222.061783,9252.574275
1165.482802,-919.314598,-74.020594,9696.697840
1165.483118,-842.705048,-1406.391290,10584.944971
1165.483434,0.000000,-0.000000,9696.697840
1165.483750,0.000000,1036.288319,8882.471304
1165.484065,-76.609550,-0.000000,8956.491898
1165.484381,-766.095498,-592.164754,9474.636058
1165.484697,-383.047749,-1184.329507,9622.677246
1165.485013,612.876398,-370.102971,9992.780217
1165.485329,689.485948,592.164754,9844.739029
1165.485645,229.828649,444.123565,9326.594869
1165.485960,-306.438199,740.205942,9030.512492
1165.486276,76.609550,-74.020594,9696.697840
1165.486592,1072.533697,-740.205942,10658.965565
1165.486908,1225.752797,296.082377,9918.759623
1165.487224,459.657299,-222.061783,9770.718434
1165.487540,76.609550,-666.185348,9622.677246
1165.487856,-76.609550,-1184.329507,9622.677246
1165.488171,842.705048,-518.144159,10732.986159
1165.488487,1072.533697,962.267725,9252.574275
1165.488803,459.657299,666.185348,8808.450710
1165.489119,0.000000,-0.000000,9770.718434
1165.489435,-153.219100,-814.226536,10362.883188
1165.489751,459.657299,-888.247130,10362.883188
1165.490066,766.095498,370.102971,9696.697840
1165.490382,766.095498,-296.082377,9696.697840
1165.490698,536.266849,-1184.329507,9474.636058
1165.491014,0.000000,-1110.308913,9252.574275
1165.491330,306.438199,-1258.350101,10510.924376
1165.491646,766.095498,-370.102971,10362.883188
1165.491962,919.314598,370.102971,9326.594869
1165.492277,536.266849,666.185348,8068.244768
1165.492593,229.828649,444.123565,9178.553681
1165.492909,919.314598,-666.185348,9474.636058
1165.493225,1378.971896,666.185348,9548.656652
1165.493541,1072.533697,370.102971,8586.388927
1165.493857,536.266849,-1554.432478,9252.574275
1165.494172,153.219100,-1036.288319,10066.800811
1165.494488,536.266849,-2072.576638,9696.697840
1165.494804,842.705048,-888.247130,9918.759623
1165.495120,1072.533697,296.082377,9548.656652
1165.495436,842.705048,370.102971,7772.162391
1165.495752,0.000000,148.041188,8808.450710
1165.496068,-383.047749,-74.020594,9474.636058
1165.496383,1149.143247,-0.000000,8808.450710
1165.496699,1149.143247,962.267725,8660.409521
1165.497015,689.485948,-148.041188,8364.327145
1165.497331,-153.219100,-592.164754,9104.533087
1165.497647,153.219100,-1628.453072,9400.615463
1165.497963,459.657299,-1332.370696,10140.821405
1165.498278,689.485948,518.144159,9400.615463
1165.498594,0.000000,370.102971,8438.347739
1165.498910,-76.609550,666.185348,8808.450710
1165.499226,-689.485948,-0.000000,9770.718434
1165.499542,306.438199,-518.144159,10066.800811
1165.499858,459.657299,814.226536,9178.553681
1165.500174,0.000000,444.123565,9030.512492
1165.500489,0.000000,-296.082377,9104.533087
1165.500805,-306.438199,-962.267725,9696.697840
1165.501121,153.219100,-962.267725,10140.821405
1165.501437,919.314598,-0.000000,10436.903782
1165.501753,766.095498,518.144159,10140.821405
1165.502069,-229.828649,888.247130,8734.430116
1165.502384,-229.828649,148.041188,9474.636058
1165.502700,842.705048,-1184.329507,10807.006753
1165.503016,1608.800546,-148.041188,10362.883188
1165.503332,1455.581446,1110.308913,9548.656652
1165.503648,536.266849,-0.000000,8956.491898
1165.503964,536.266849,-592.164754,9548.656652
1165.504280,919.314598,-370.102971,9696.697840
1165.504595,1378.971896,-0.000000,9770.718434
1165.504911,536.266849,-148.041188,9696.697840
1165.505227,229.828649,-592.164754,9326.594869
1165.505543,-689.485948,-444.123565,9400.615463
1165.505859,-383.047749,-1406.391290,10807.006753
1165.506175,459.657299,-962.267725,10362.883188
1165.506490,459.657299,518.144159,9178.553681
1165.506806,-229.828649,-0.000000,9474.636058
1165.507122,-306.438199,-1776.494261,9844.739029
1165.507438,-766.095498,-2072.576638,10584.944971
1165.507754,612.876398,-888.247130,10436.903782
1165.508070,383.047749,-0.000000,9326.594869
1165.508386,229.828649,296.082377,9030.512492
1165.508701,0.000000,-0.000000,8290.306550
1165.509017,153.219100,-518.144159,9844.739029
1165.509333,612.876398,-222.061783,10732.986159
1165.509649,766.095498,740.205942,9104.533087
1165.509965,919.314598,370.102971,8956.491898
1165.510281,689.485948,-740.205942,9178.553681
1165.510596,689.485948,-962.267725,9696.697840
1165.510912,1378.971896,-592.164754,9844.739029
1165.511228,1532.190996,-74.020594,9400.615463
1165.511544,1378.971896,222.061783,8438.347739
1165.511860,536.266849,-74.020594,8586.388927
1165.512176,0.000000,-592.164754,9326.594869
1165.512492,1072.533697,-666.185348,9622.677246
1165.512807,1378.971896,666.185348,9030.512492
1165.513123,1149.143247,666.185348,7846.182985
1165.513439,306.438199,-740.205942,8660.409521
1165.513755,229.828649,-1480.411884,9252.574275
1165.514071,229.828649,-1184.329507,9548.656652
1165.514387,306.438199,-444.123565,9696.697840
1165.514702,612.876398,222.061783,8882.471304
1165.515018,-383.047749,-0.000000,8142.265362
1165.515334,-995.924147,-1110.308913,9474.636058
1165.515650,-306.438199,-888.247130,9696.697840
1165.515966,459.657299,-0.000000,9844.739029
1165.516282,383.047749,370.102971,8364.327145
1165.516598,153.219100,222.061783,8438.347739
1165.516913,0.000000,-592.164754,9104.533087
1165.517229,153.219100,-592.164754,9474.636058
1165.517545,995.924147,-370.102971,10288.862594
1165.517861,689.485948,518.144159,9400.615463
1165.518177,459.657299,296.082377,8882.471304
1165.518493,0.000000,-74.020594,9770.718434
1165.518808,-229.828649,-148.041188,10214.842000
1165.519124,612.876398,-666.185348,10214.842000
1165.519440,1378.971896,666.185348,9844.739029
1165.519756,689.485948,518.144159,8438.347739
1165.520072,0.000000,-740.205942,9844.739029
1165.520388,0.000000,-1110.308913,10214.842000
1165.520704,1072.533697,-888.247130,10362.883188
1165.521019,1149.143247,740.205942,9474.636058
1165.521335,536.266849,-370.102971,9696.697840
1165.521651,153.219100,-74.020594,9548.656652
1165.521967,0.000000,-740.205942,9992.780217
1165.522283,306.438199,-592.164754,10214.842000
1165.522599,842.705048,370.102971,10658.965565
1165.522914,536.266849,222.061783,10214.842000
1165.523230,0.000000,-148.041188,8956.491898
1165.523546,0.000000,-222.061783,10362.883188
1165.523862,536.266849,-962.267725,10288.862594
1165.524178,995.924147,74.020594,10510.924376
1165.524494,689.485948,444.123565,9696.697840
1165.524810,0.000000,-74.020594,9326.594869
1165.525125,76.609550,-222.061783,9622.677246
1165.525441,689.485948,-0.000000,9844.739029
1165.525757,1378.971896,888.247130,9622.677246
1165.526073,1455.581446,1258.350101,9474.636058
1165.526389,1149.143247,814.226536,8660.409521
1165.526705,766.095498,-0.000000,8438.347739
1165.527020,995.924147,-962.267725,9992.780217
1165.527336,1378.971896,-148.041188,9918.759623
1165.527652,1225.752797,296.082377,9178.553681
1165.527968,842.705048,-370.102971,8882.471304
1165.528284,-306.438199,-148.041188,9696.697840
1165.528600,-76.609550,-74.020594,9770.718434
1165.528916,766.095498,-74.020594,9104.533087
1165.529231,459.657299,888.247130,9178.553681
1165.529547,459.657299,-74.020594,8438.347739
1165.529863,-383.047749,-370.102971,8586.388927
1165.530179,0.000000,-1554.432478,9474.636058
1165.530495,306.438199,-592.164754,9770.718434
1165.530811,536.266849,444.123565,8512.368333
1165.531127,-153.219100,222.061783,8586.388927
1165.531442,-612.876398,-222.061783,8216.285956
1165.531758,-766.095498,-1406.391290,9548.656652
1165.532074,0.000000,-1258.350101,10066.800811
1165.532390,153.219100,-74.020594,9326.594869
1165.532705,153.219100,-222.061783,9178.553681
1165.533021,0.000000,-0.000000,7994.224174
1165.533337,0.000000,-518.144159,8956.491898
1165.533652,536.266849,-1480.411884,9918.759623
1165.533968,536.266849,-148.041188,9474.636058
1165.534283,153.219100,-222.061783,9030.512492
1165.534599,-689.485948,-1110.308913,8586.388927
1165.534915,-689.485948,-1184.329507,9770.718434
1165.535230,229.828649,-1184.329507,10362.883188
1165.535546,459.657299,-148.041188,10140.821405
1165.535862,766.095498,296.082377,9474.636058
1165.536177,229.828649,-0.000000,8808.450710
1165.536493,383.047749,-370.102971,9326.594869
1165.536809,919.314598,-1406.391290,10288.862594
1165.537124,1302.362347,296.082377,9474.636058
1165.537440,1225.752797,814.226536,9548.656652
1165.537755,306.438199,-74.020594,8808.450710
1165.538071,-306.438199,-74.020594,9548.656652
1165.538387,153.219100,-888.247130,10955.047942
1165.538702,536.266849,-592.164754,10510.924376
1165.539018,459.657299,518.144159,10066.800811
1165.539334,306.438199,296.082377,9770.718434
1165.539649,306.438199,-222.061783,9400.615463
1165.539965,536.266849,-666.185348,10214.842000
1165.540280,1302.362347,-222.061783,10510.924376
1165.540596,919.314598,740.205942,9992.780217
1165.540912,0.000000,296.082377,9400.615463
1165.541227,-306.438199,444.123565,9474.636058
1165.541543,536.266849,-0.000000,9918.759623
1165.541859,1072.533697,-370.102971,10362.883188
1165.542174,1378.971896,962.267725,10362.883188
1165.542490,1302.362347,74.020594,9548.656652
1165.542806,689.485948,-592.164754,9030.512492
1165.543121,842.705048,-444.123565,9918.759623
1165.543437,2145.067394,-1332.370696,10881.027347
1165.543752,1991.848295,666.185348,9474.636058
1165.544068,1225.752797,296.082377,8364.327145
1165.544384,459.657299,-222.061783,9326.594869
1165.544699,459.657299,-222.061783,9622.677246
1165.545015,1072.533697,-518.144159,10066.800811
1165.545331,995.924147,814.226536,9104.533087
1165.545646,383.047749,-0.000000,7994.224174
1165.545962,0.000000,-666.185348,8438.347739
1165.546277,0.000000,-1258.350101,9844.739029
1165.546593,0.000000,-1406.391290,10732.986159
1165.546909,153.219100,-0.000000,9474.636058
1165.547224,0.000000,444.123565,8808.450710
1165.547540,-995.924147,-888.247130,9326.594869
1165.547856,-1149.143247,-444.123565,9992.780217
1165.548171,-383.047749,-518.144159,9548.656652
1165.548487,76.609550,592.164754,9178.553681
1165.548802,76.609550,1480.411884,8216.285956
1165.549118,-536.266849,-592.164754,8290.306550
1165.549434,153.219100,-444.123565,9178.553681
1165.549749,383.047749,-1110.308913,9326.594869
1165.550065,919.314598,-74.020594,9548.656652
1165.550381,689.485948,518.144159,8660.409521
1165.550696,459.657299,-148.041188,8660.409521
1165.551012,153.219100,-74.020594,9104.533087
1165.551328,0.000000,-592.164754,9400.615463
1165.551643,612.876398,-666.185348,9770.718434
1165.551959,612.876398,962.267725,9030.512492
1165.552274,306.438199,-370.102971,9178.553681
1165.552590,0.000000,-814.226536,9474.636058
1165.552906,0.000000,-1332.370696,10288.862594
1165.553221,612.876398,-1258.350101,9992.780217
1165.553537,536.266849,444.123565,9400.615463
1165.553853,536.266849,-370.102971,9400.615463
1165.554168,-459.657299,-518.144159,9770.718434
1165.554484,-306.438199,-444.123565,9844.739029
1165.554799,612.876398,-888.247130,9696.697840
1165.555115,306.438199,444.123565,9474.636058
1165.555431,766.095498,-148.041188,9918.759623
1165.555746,459.657299,-518.144159,9178.553681
1165.556062,76.609550,-0.000000,9548.656652
1165.556378,766.095498,-518.144159,10510.924376
1165.556693,842.705048,-148.041188,9770.718434
1165.557009,689.485948,296.082377,9474.636058
1165.557325,-536.266849,296.082377,9474.636058
1165.557640,-306.438199,-148.041188,9696.697840
1165.557956,612.876398,-888.247130,10214.842000
1165.558271,689.485948,370.102971,10288.862594
1165.558587,459.657299,-0.000000,9622.677246
1165.558903,0.000000,-592.164754,9918.759623
1165.559218,0.000000,-666.185348,9770.718434
1165.559534,-229.828649,-814.226536,10288.862594
1165.559850,1149.143247,-0.000000,10140.821405
1165.560165,995.924147,814.226536,8808.450710
1165.560481,766.095498,-0.000000,9104.533087
1165.560796,383.047749,-0.000000,8956.491898
1165.561112,536.266849,-296.082377,9844.739029
1165.561428,1532.190996,-0.000000,10362.883188
1165.561743,1608.800546,962.267725,9030.512492
1165.562059,995.924147,814.226536,7994.224174
1165.562375,153.219100,-0.000000,8660.409521
1165.562690,842.705048,-1110.308913,9844.739029
1165.563006,1532.190996,-222.061783,9918.759623
1165.563322,612.876398,888.247130,8808.450710
1165.563637,-229.828649,-0.000000,9326.594869
1165.563953,-612.876398,-814.226536,9400.615463
1165.564268,-306.438199,-1184.329507,10362.883188
1165.564584,0.000000,-888.247130,10214.842000
1165.564900,229.828649,296.082377,10066.800811
1165.565215,459.657299,-0.000000,9030.512492
1165.565531,306.438199,-0.000000,8956.491898
1165.565847,76.609550,-592.164754,9326.594869
1165.566162,1149.143247,-962.267725,9696.697840
1165.566478,1608.800546,444.123565,9326.594869
1165.566793,1149.143247,-0.000000,8586.388927
1165.567109,842.705048,-0.000000,8808.450710
1165.567425,995.924147,-592.164754,9474.636058
1165.567740,995.924147,-666.185348,9918.759623
1165.568056,1455.581446,962.267725,9178.553681
1165.568372,1149.143247,444.123565,8586.388927
1165.568687,1149.143247,-296.082377,8512.368333
1165.569003,0.000000,-1406.391290,9548.656652
1165.569319,459.657299,-1850.514855,10510.924376
1165.569634,689.485948,-666.185348,9844.739029
1165.569950,0.000000,-222.061783,9474.636058
1165.570265,-766.095498,-148.041188,9548.656652
1165.570581,-689.485948,-592.164754,10140.821405
1165.570897,-153.219100,-888.247130,9918.759623
1165.571212,536.266849,-0.000000,9622.677246
1165.571528,459.657299,444.123565,9030.512492
1165.571844,306.438199,-962.267725,9474.636058
1165.572159,306.438199,-1258.350101,9326.594869
1165.572475,229.828649,-962.267725,9474.636058
1165.572790,1302.362347,-148.041188,9696.697840
1165.573106,1378.971896,740.205942,8882.471304
1165.573422,689.485948,518.144159,9030.512492
1165.573737,153.219100,148.041188,9326.594869
1165.574053,0.000000,-888.247130,9622.677246
1165.574369,1072.533697,-518.144159,9918.759623
1165.574684,1149.143247,296.082377,9548.656652
1165.575000,459.657299,-370.102971,9622.677246
1165.575316,459.657299,-370.102971,9030.512492
1165.575631,-229.828649,-740.205942,9474.636058
1165.575947,612.876398,-1036.288319,10584.944971
1165.576262,1532.190996,740.205942,9696.697840
1165.576578,689.485948,444.123565,8808.450710
1165.576894,-229.828649,222.061783,9252.574275
1165.577209,306.438199,-518.144159,10140.821405
1165.577525,1072.533697,-962.267725,9400.615463
1165.577841,919.314598,518.144159,9696.697840
1165.578156,919.314598,518.144159,9030.512492
1165.578472,229.828649,-0.000000,8586.388927
1165.578787,229.828649,-222.061783,9104.533087
1165.579103,689.485948,-74.020594,10288.862594
1165.579419,995.924147,666.185348,9326.594869
1165.579734,1149.143247,814.226536,8660.409521
1165.580050,-842.705048,-0.000000,8660.409521
1165.580366,-383.047749,-1332.370696,10436.903782
1165.580681,76.609550,-592.164754,10288.862594
1165.580997,76.609550,-0.000000,9622.677246
1165.581313,229.828649,592.164754,9770.718434
1165.581628,0.000000,-814.226536,9548.656652
1165.581944,-995.924147,-148.041188,9104.533087
1165.582259,0.000000,-1110.308913,10288.862594
1165.582575,536.266849,-666.185348,10214.842000
1165.582891,536.266849,222.061783,9474.636058
1165.583206,76.609550,-592.164754,9252.574275
1165.583522,76.609550,-74.020594,9474.636058
1165.583838,306.438199,-370.102971,9030.512492
1165.584153,766.095498,148.041188,9992.780217
1165.584469,1072.533697,666.185348,9326.594869
1165.584784,919.314598,-0.000000,9326.594869
1165.585100,306.438199,-222.061783,8808.450710
1165.585416,0.000000,-740.205942,9474.636058
1165.585731,689.485948,-666.185348,9844.739029
1165.586047,689.485948,222.061783,9326.594869
1165.586363,0.000000,148.041188,8882.471304
1165.586678,-766.095498,296.082377,9178.553681
1165.586994,-766.095498,-814.226536,10140.821405
1165.587310,-153.219100,-888.247130,9770.718434
1165.587625,-153.219100,-148.041188,9992.780217
1165.587941,-766.095498,-666.185348,9474.636058
1165.588256,-842.705048,-814.226536,9474.636058
1165.588572,-536.266849,-1036.288319,9844.739029
1165.588888,536.266849,-888.247130,10140.821405
1165.589203,1762.019645,592.164754,9104.533087
1165.589519,536.266849,1184.329507,8660.409521
1165.589835,536.266849,962.267725,8512.368333
1165.590150,306.438199,-0.000000,9178.553681
1165.590466,1149.143247,-0.000000,10214.842000
1165.590781,1991.848295,814.226536,9030.512492
1165.591097,1532.190996,740.205942,8142.265362
1165.591413,1149.143247,-0.000000,9030.512492
1165.591728,536.266849,-814.226536,9252.574275
1165.592044,842.705048,-888.247130,10362.883188
1165.592360,1072.533697,-0.000000,10584.944971
1165.592675,689.485948,1184.329507,9622.677246
1165.592991,459.657299,666.185348,8734.430116
1165.593307,0.000000,-148.041188,9030.512492
1165.593622,229.828649,-740.205942,10510.924376
1165.593938,689.485948,-74.020594,9104.533087
1165.594253,1072.533697,740.205942,9252.574275
1165.594569,-76.609550,-222.061783,8660.409521
1165.594885,-536.266849,-740.205942,9770.718434
1165.595200,0.000000,-666.185348,9844.739029
1165.595516,306.438199,-888.247130,9918.759623
1165.595832,383.047749,592.164754,9992.780217
1165.596147,76.609550,-0.000000,8956.491898
1165.596463,-612.876398,-148.041188,9474.636058
1165.596778,229.828649,-444.123565,9918.759623
1165.597094,842.705048,-0.000000,9844.739029
1165.597410,766.095498,740.205942,9918.759623
1165.597725,536.266849,-0.000000,9178.553681
1165.598041,153.219100,-666.185348,9252.574275
1165.598357,153.219100,-148.041188,9400.615463
1165.598672,766.095498,-1110.308913,10955.047942
1165.598988,1072.533697,370.102971,10214.842000
1165.599303,459.657299,592.164754,8586.388927
1165.599619,0.000000,-296.082377,9548.656652
1165.599935,0.000000,-740.205942,10362.883188
1165.600250,-153.219100,-814.226536,10362.883188
1165.600566,995.924147,962.267725,9474.636058
1165.600882,612.876398,-0.000000,9474.636058
1165.601197,229.828649,-888.247130,9474.636058
1165.601513,459.657299,-518.144159,9622.677246
1165.601829,612.876398,-1554.432478,10362.883188
1165.602144,1149.143247,-444.123565,9474.636058
1165.602460,1072.533697,-0.000000,8882.471304
1165.602775,306.438199,-222.061783,8808.450710
1165.603091,612.876398,-518.144159,9326.594869
1165.603407,536.266849,-740.205942,9178.553681
1165.603722,1378.971896,-0.000000,9474.636058
1165.604038,1225.752797,-222.061783,9474.636058
1165.604354,536.266849,-740.205942,8882.471304
1165.604669,766.095498,-666.185348,9252.574275
1165.604985,306.438199,-1776.494261,10510.924376
1165.605300,1072.533697,-592.164754,9474.636058
1165.605616,689.485948,592.164754,8438.347739
1165.605932,0.000000,-148.041188,8956.491898
1165.606247,-306.438199,-666.185348,9770.718434
1165.606563,-306.438199,-1480.411884,9474.636058
1165.606879,766.095498,-0.000000,9622.677246
1165.607194,536.266849,444.123565,9178.553681
1165.607510,459.657299,-74.020594,9030.512492
1165.607826,229.828649,-518.144159,9104.533087
1165.608141,0.000000,-740.205942,9400.615463
1165.608457,995.924147,-666.185348,10066.800811
1165.608772,1302.362347,518.144159,8586.388927
1165.609088,536.266849,666.185348,8882.471304
1165.609404,229.828649,-222.061783,9474.636058
1165.609719,383.047749,-222.061783,9178.553681
1165.610035,842.705048,592.164754,9474.636058
1165.610351,1149.143247,1184.329507,8956.491898
1165.610666,459.657299,222.061783,8586.388927
1165.610982,536.266849,-74.020594,9252.574275
1165.611297,-383.047749,-444.123565,9474.636058
1165.611613,306.438199,-1110.308913,10510.924376
1165.611929,383.047749,296.082377,10066.800811
1165.612244,0.000000,814.226536,8808.450710
1165.612560,-536.266849,-222.061783,9326.594869
1165.612876,-842.705048,-518.144159,9992.780217
1165.613191,-612.876398,-740.205942,10436.903782
1165.613507,306.438199,518.144159,10436.903782
1165.613823,0.000000,148.041188,9548.656652
1165.614138,0.000000,148.041188,9030.512492
1165.614454,76.609550,-148.041188,9696.697840
1165.614769,536.266849,-888.247130,10066.800811
1165.615085,1149.143247,-0.000000,9844.739029
1165.615401,842.705048,518.144159,9474.636058
1165.615716,536.266849,666.185348,9104.533087
1165.616032,612.876398,-518.144159,9548.656652
1165.616348,766.095498,-592.164754,10066.800811
1165.616663,1685.410096,296.082377,10066.800811
1165.616979,1455.581446,-370.102971,9252.574275
1165.617294,1149.143247,-148.041188,9474.636058
1165.617610,459.657299,-592.164754,9696.697840
1165.617926,536.266849,-962.267725,9474.636058
1165.618241,1838.629195,-592.164754,10140.821405
1165.618557,1378.971896,592.164754,8512.368333
1165.618873,459.657299,-222.061783,9400.615463
1165.619188,-383.047749,-1110.308913,9918.759623
1165.619504,-459.657299,-1332.370696,9548.656652
1165.619820,76.609550,-1184.329507,10288.862594
1165.620135,689.485948,-0.000000,9696.697840
1165.620451,229.828649,-74.020594,8734.430116
1165.620766,-612.876398,-740.205942,9548.656652
1165.621082,-229.828649,-1554.432478,10288.862594
1165.621398,459.657299,-1406.391290,10510.924376
1165.621713,383.047749,740.205942,9178.553681
1165.622029,306.438199,666.185348,8290.306550
1165.622345,153.219100,-148.041188,9474.636058
1165.622660,153.219100,-592.164754,9474.636058
1165.622976,536.266849,-296.082377,9548.656652
1165.623291,1455.581446,666.185348,9696.697840
1165.623607,842.705048,296.082377,8586.388927
1165.623923,459.657299,-444.123565,9104.533087
1165.624238,919.314598,-888.247130,9548.656652
1165.624554,766.095498,-1184.329507,10066.800811
1165.624870,1455.581446,-0.000000,9474.636058
1165.625185,842.705048,666.185348,8512.368333
1165.625501,0.000000,-0.000000,9178.553681
1165.625817,153.219100,-74.020594,9474.636058
1165.626132,153.219100,-222.061783,9474.636058
1165.626448,1302.362347,444.123565,9252.574275
1165.626763,766.095498,444.123565,8438.347739
1165.627079,153.219100,-518.144159,8882.471304
1165.627395,-459.657299,-1184.329507,8882.471304
1165.627710,0.000000,-1184.329507,9992.780217
1165.628026,459.657299,-148.041188,10066.800811
1165.628342,383.047749,-0.000000,8882.471304
1165.628657,0.000000,-222.061783,8660.409521
1165.628973,-919.314598,-444.123565,9326.594869
1165.629288,0.000000,-740.205942,9622.677246
1165.629604,306.438199,-370.102971,10140.821405
1165.629920,383.047749,444.123565,9622.677246
1165.630235,459.657299,222.061783,8512.368333
1165.630551,-306.438199,-74.020594,9178.553681
1165.630867,0.000000,-740.205942,9918.759623
1165.631182,1378.971896,-296.082377,9992.780217
1165.631498,1302.362347,962.267725,8808.450710
1165.631814,229.828649,666.185348,8734.430116
1165.632129,-153.219100,-74.020594,9030.512492
1165.632445,306.438199,-222.061783,9548.656652
1165.632760,383.047749,-0.000000,10658.965565
1165.633076,766.095498,666.185348,10066.800811
1165.633392,766.095498,-0.000000,9326.594869
1165.633707,76.609550,-592.164754,10214.842000
1165.634023,229.828649,-1036.288319,10066.800811
1165.634339,995.924147,-1184.329507,9918.759623
1165.634654,1455.581446,296.082377,10214.842000
1165.634970,1302.362347,222.061783,9252.574275
1165.635286,459.657299,-296.082377,8956.491898
1165.635601,0.000000,-0.000000,9770.718434
1165.635917,536.266849,-592.164754,10807.006753
1165.636232,1302.362347,592.164754,9474.636058
1165.636548,1072.533697,222.061783,8660.409521
1165.636864,383.047749,-666.185348,9622.677246
1165.637179,0.000000,-1110.308913,10140.821405
1165.637495,842.705048,-1406.391290,10362.883188
1165.637811,766.095498,-370.102971,9918.759623
1165.638126,536.266849,740.205942,9622.677246
1165.638442,766.095498,370.102971,9326.594869
1165.638758,-766.095498,-0.000000,9252.574275
1165.639073,0.000000,-666.185348,10658.965565
1165.639389,995.924147,-814.226536,9992.780217
1165.639704,919.314598,592.164754,8956.491898
1165.640020,536.266849,-370.102971,9474.636058
1165.640336,536.266849,-962.267725,9030.512492
1165.640651,919.314598,-444.123565,9474.636058
1165.640967,1149.143247,-592.164754,9992.780217
1165.641283,1378.971896,814.226536,9030.512492
1165.641598,995.924147,222.061783,7920.203579
1165.641914,612.876398,-74.020594,8956.491898
1165.642230,229.828649,-962.267725,9770.718434
1165.642545,1072.533697,-74.020594,9622.677246
1165.642861,1378.971896,814.226536,8660.409521
1165.643177,689.485948,370.102971,8290.306550
1165.643492,306.438199,-592.164754,8512.368333
1165.643808,0.000000,-1110.308913,8808.450710
1165.644123,-383.047749,-962.267725,9992.780217
1165.644439,842.705048,-518.144159,9770.718434
1165.644755,0.000000,-148.041188,8660.409521
1165.645070,-1455.581446,-0.000000,8586.388927
1165.645386,-1991.848295,-444.123565,9178.553681
1165.645702,-689.485948,-1184.329507,10362.883188
1165.646017,153.219100,296.082377,9770.718434
1165.646333,-459.657299,-0.000000,8956.491898
1165.646649,-689.485948,-1110.308913,9326.594869
1165.646964,-842.705048,-1332.370696,9178.553681
1165.647280,-306.438199,-1258.350101,9548.656652
1165.647595,919.314598,-222.061783,10140.821405
1165.647911,689.485948,962.267725,8808.450710
1165.648227,229.828649,814.226536,8290.306550
1165.648542,0.000000,-74.020594,9326.594869
1165.648858,689.485948,-666.185348,10140.821405
1165.649174,1378.971896,-0.000000,9548.656652
1165.649489,1532.190996,518.144159,8290.306550
1165.649805,1072.533697,-296.082377,8438.347739
1165.650121,689.485948,-814.226536,9918.759623
1165.650436,1685.410096,-1110.308913,10214.842000
1165.650752,1608.800546,-444.123565,9770.718434
1165.651068,459.657299,148.041188,9696.697840
1165.651383,459.657299,-0.000000,9918.759623
1165.651699,0.000000,-518.144159,9696.697840
1165.652014,0.000000,-592.164754,10140.821405
1165.652330,383.047749,-1036.288319,10732.986159
1165.652646,919.314598,-148.041188,9844.739029
1165.652961,842.705048,-592.164754,9474.636058
1165.653277,536.266849,-1036.288319,9918.759623
1165.653593,459.657299,-666.185348,10066.800811
1165.653908,1608.800546,-962.267725,10288.862594
1165.654224,1838.629195,1184.329507,10288.862594
1165.654540,1455.581446,1258.350101,9030.512492
1165.654855,1225.752797,370.102971,9104.533087
1165.655171,1225.752797,740.205942,9400.615463
1165.655486,1455.581446,-0.000000,10066.800811
1165.655802,1991.848295,592.164754,9548.656652
1165.656118,1838.629195,592.164754,8808.450710
1165.656433,1072.533697,-296.082377,9400.615463
1165.656749,612.876398,-888.247130,9844.739029
1165.657065,459.657299,-1184.329507,10140.821405
1165.657380,1149.143247,-0.000000,9992.780217
1165.657696,459.657299,296.082377,9474.636058
1165.658012,0.000000,-444.123565,9548.656652
1165.658327,-536.266849,592.164754,9548.656652
1165.658643,0.000000,-592.164754,10140.821405
1165.658959,536.266849,-296.082377,9622.677246
1165.659274,766.095498,814.226536,8142.265362
1165.659590,76.609550,-370.102971,8364.327145
1165.659905,-306.438199,-1480.411884,9030.512492
1165.660221,0.000000,-1258.350101,9696.697840
1165.660537,383.047749,-814.226536,9548.656652
1165.660852,76.609550,740.205942,8734.430116
1165.661168,-612.876398,814.226536,7846.182985
1165.661484,-1225.752797,666.185348,8586.388927
1165.661799,-612.876398,-222.061783,9030.512492
1165.662115,0.000000,-1036.288319,10140.821405
1165.662431,-153.219100,592.164754,9178.553681
1165.662746,-612.876398,-74.020594,8734.430116
1165.663062,-842.705048,-1258.350101,9030.512492
1165.663377,-1225.752797,-1332.370696,9474.636058
1165.663693,-766.095498,-1258.350101,10658.965565
1165.664009,0.000000,-74.020594,10066.800811
1165.664324,-689.485948,370.102971,8956.491898
1165.664640,-1225.752797,-222.061783,9178.553681
1165.664956,-689.485948,-666.185348,9918.759623
1165.665271,612.876398,-0.000000,9474.636058
1165.665587,1302.362347,1184.329507,9474.636058
1165.665903,766.095498,666.185348,8586.388927
1165.666218,766.095498,-666.185348,9178.553681
1165.666534,919.314598,-592.164754,9918.759623
1165.666850,995.924147,-592.164754,10140.821405
1165.667165,1378.971896,592.164754,9178.553681
1165.667481,1302.362347,666.185348,9178.553681
1165.667796,459.657299,296.082377,9030.512492
1165.668112,383.047749,-0.000000,10510.924376
1165.668428,995.924147,-0.000000,9844.739029
1165.668743,1455.581446,444.123565,8660.409521
1165.669059,1149.143247,370.102971,9622.677246
1165.669375,536.266849,-1480.411884,9918.759623
1165.669690,76.609550,-1406.391290,10362.883188
1165.670006,306.438199,-1110.308913,10732.986159
1165.670322,766.095498,-592.164754,9770.718434
1165.670637,612.876398,740.205942,9326.594869
1165.670953,76.609550,518.144159,9326.594869
1165.671268,0.000000,-0.000000,9326.594869
1165.671584,306.438199,-444.123565,10881.027347
1165.671900,1149.143247,666.185348,9992.780217
1165.672215,1532.190996,962.267725,9178.553681
1165.672531,1225.752797,-222.061783,9326.594869
1165.672847,842.705048,-592.164754,9326.594869
1165.673162,1302.362347,-666.185348,9992.780217
1165.673478,2145.067394,-814.226536,10288.862594
1165.673794,1685.410096,1110.308913,9178.553681
1165.674109,1378.971896,1628.453072,8734.430116
1165.674425,995.924147,-0.000000,8512.368333
1165.674741,689.485948,-0.000000,9400.615463
1165.675056,1762.019645,148.041188,10510.924376
1165.675372,1838.629195,1184.329507,8734.430116
1165.675687,1149.143247,1628.453072,7920.203579
1165.676003,229.828649,-518.144159,9548.656652
1165.676319,459.657299,-1036.288319,9400.615463
1165.676634,229.828649,-370.102971,9548.656652
1165.676950,459.657299,-148.041188,10140.821405
1165.677266,-229.828649,-0.000000,9400.615463
1165.677581,-1072.533697,-148.041188,9400.615463
1165.677897,-1072.533697,-370.102971,9622.677246
1165.678213,-229.828649,-592.164754,9918.759623
1165.678528,306.438199,666.185348,9252.574275
1165.678844,459.657299,888.247130,7994.224174
1165.679159,0.000000,-814.226536,9104.533087
1165.679475,-306.438199,-1776.494261,9696.697840
1165.679791,229.828649,-1850.514855,10066.800811
1165.680106,536.266849,-370.102971,9104.533087
1165.680422,536.266849,518.144159,9326.594869
1165.680738,-306.438199,-148.041188,8882.471304
1165.681053,-229.828649,-370.102971,9400.615463
1165.681369,0.000000,-814.226536,10066.800811
1165.681685,536.266849,-296.082377,9178.553681
1165.682000,153.219100,148.041188,8734.430116
1165.682316,153.219100,-1480.411884,9696.697840
1165.682632,-459.657299,-1850.514855,10214.842000
1165.682947,-459.657299,-1554.432478,9918.759623
1165.683263,383.047749,-370.102971,9474.636058
1165.683578,76.609550,148.041188,9104.533087
1165.683894,-383.047749,-666.185348,9474.636058
1165.684210,-612.876398,-666.185348,9696.697840
1165.684525,-919.314598,-814.226536,9474.636058
1165.684841,306.438199,-592.164754,10066.800811
1165.685157,842.705048,222.061783,9400.615463
1165.685472,229.828649,-740.205942,8216.285956
1165.685788,0.000000,-888.247130,9992.780217
1165.686104,383.047749,-1258.350101,10140.821405
1165.686419,612.876398,-444.123565,9030.512492
1165.686735,842.705048,1258.350101,9252.574275
1165.687050,-153.219100,-0.000000,8808.450710
1165.687366,76.609550,-1036.288319,9918.759623
1165.687682,0.000000,-74.020594,9622.677246
1165.687997,153.219100,-222.061783,10288.862594
1165.688313,1225.752797,666.185348,9622.677246
1165.688629,1149.143247,962.267725,8660.409521
1165.688944,612.876398,-296.082377,9844.739029
1165.689260,842.705048,-888.247130,10214.842000
1165.689576,919.314598,-1110.308913,9992.780217
1165.689891,1532.190996,-148.041188,9400.615463
1165.690207,1302.362347,148.041188,9696.697840
1165.690523,842.705048,296.082377,9400.615463
1165.690838,536.266849,666.185348,9178.553681
1165.691154,919.314598,592.164754,9252.574275
1165.691469,1915.238745,814.226536,10066.800811
1165.691785,2068.457845,1110.308913,8142.265362
1165.692101,995.924147,-0.000000,8438.347739
1165.692416,689.485948,-1110.308913,9992.780217
1165.692732,1149.143247,-1406.391290,10288.862594
1165.693048,1608.800546,444.123565,8956.491898
1165.693363,306.438199,1258.350101,9252.574275
1165.693679,229.828649,-0.000000,9400.615463
1165.693995,-536.266849,-74.020594,9400.615463
1165.694310,-229.828649,-0.000000,9696.697840
1165.694626,229.828649,-592.164754,10288.862594
1165.694941,689.485948,740.205942,9844.739029
1165.695257,0.000000,-0.000000,8734.430116
1165.695573,0.000000,-1036.288319,9770.718434
1165.695888,-229.828649,-1258.350101,10362.883188
1165.696204,689.485948,-962.267725,10881.027347
1165.696520,153.219100,740.205942,8734.430116
1165.696835,0.000000,518.144159,9548.656652
1165.697151,-689.485948,-148.041188,9252.574275
1165.697467,0.000000,-296.082377,9696.697840
1165.697782,766.095498,-666.185348,10807.006753
1165.698098,919.314598,296.082377,9252.574275
1165.698414,536.266849,888.247130,7772.162391
1165.698729,306.438199,-740.205942,9474.636058
1165.699045,536.266849,-1406.391290,10658.965565
1165.699360,1532.190996,-666.185348,9844.739029
1165.699676,766.095498,962.267725,9178.553681
1165.699992,306.438199,444.123565,8882.471304
1165.700307,-306.438199,-1184.329507,9844.739029
1165.700623,0.000000,-74.020594,10066.800811
1165.700939,0.000000,-518.144159,9622.677246
1165.701254,459.657299,-518.144159,10066.800811
1165.701570,0.000000,-148.041188,9400.615463
1165.701886,-536.266849,-740.205942,8660.409521
1165.702201,-536.266849,-1628.453072,9844.739029
1165.702517,383.047749,-2220.617826,10658.965565
1165.702832,76.609550,-370.102971,9474.636058
1165.703148,306.438199,370.102971,8956.491898
1165.703464,-459.657299,-740.205942,9030.512492
1165.703779,0.000000,-444.123565,9474.636058
1165.704095,229.828649,-518.144159,9474.636058
1165.704411,1762.019645,-0.000000,9992.780217
1165.704726,1685.410096,518.144159,8734.430116
1165.705042,1072.533697,-296.082377,8512.368333
1165.705358,995.924147,-296.082377,8808.450710
1165.705673,1072.533697,-1332.370696,9178.553681
1165.705989,1762.019645,148.041188,9474.636058
1165.706305,1302.362347,592.164754,8438.347739
1165.706620,459.657299,-74.020594,9622.677246
1165.706936,306.438199,-518.144159,9622.677246
1165.707251,-306.438199,-148.041188,9030.512492
1165.707567,1225.752797,-148.041188,9992.780217
1165.707883,536.266849,444.123565,9104.533087
1165.708198,0.000000,222.061783,9400.615463
1165.708514,-153.219100,-740.205942,9326.594869
1165.708830,-383.047749,-1036.288319,9474.636058
1165.709145,76.609550,-0.000000,10140.821405
1165.709461,76.609550,370.102971,8956.491898
1165.709777,-229.828649,-0.000000,9178.553681
1165.710092,-229.828649,-518.144159,9622.677246
1165.710408,-689.485948,-0.000000,9252.574275
1165.710723,229.828649,-592.164754,10066.800811
1165.711039,229.828649,-0.000000,9844.739029
1165.711355,153.219100,740.205942,8586.388927
1165.711670,0.000000,-148.041188,9326.594869
1165.711986,-229.828649,-592.164754,9622.677246
1165.712302,459.657299,-0.000000,10140.821405
1165.712617,995.924147,370.102971,9252.574275
1165.712933,-383.047749,814.226536,8808.450710
1165.713249,0.000000,-74.020594,9770.718434
1165.713564,0.000000,-740.205942,9622.677246
1165.713880,306.438199,-0.000000,9992.780217
1165.714196,459.657299,592.164754,9992.780217
1165.714511,612.876398,1110.308913,9474.636058
1165.714827,612.876398,-592.164754,9770.718434
1165.715142,306.438199,-888.247130,10510.924376
1165.715458,766.095498,-518.144159,10214.842000
1165.715774,1915.238745,-296.082377,10066.800811
1165.716089,1455.581446,888.247130,8438.347739
1165.716405,766.095498,296.082377,9474.636058
1165.716721,612.876398,-370.102971,10362.883188
1165.717036,459.657299,296.082377,9030.512492
1165.717352,1378.971896,444.123565,9696.697840
1165.717668,1225.752797,296.082377,9400.615463
1165.717983,995.924147,-592.164754,9474.636058
1165.718299,766.095498,-1184.329507,9696.697840
1165.718614,612.876398,-1258.350101,9622.677246
1165.718930,1225.752797,-518.144159,10066.800811
1165.719246,1378.971896,-0.000000,9548.656652
1165.719561,76.609550,296.082377,8142.265362
1165.719877,0.000000,-148.041188,9696.697840
1165.720193,306.438199,-740.205942,9474.636058
1165.720508,153.219100,-888.247130,9252.574275
1165.720824,995.924147,-0.000000,9696.697840
1165.721140,612.876398,-518.144159,9326.594869
1165.721455,536.266849,-1184.329507,9178.553681
1165.721771,153.219100,-888.247130,9252.574275
1165.722087,1072.533697,-888.247130,9178.553681
1165.722402,1685.410096,-74.020594,9326.594869
1165.722718,995.924147,814.226536,8586.388927
1165.723033,0.000000,222.061783,8734.430116
1165.723349,919.314598,-592.164754,9104.533087
1165.723665,383.047749,-0.000000,9474.636058
1165.723980,1302.362347,444.123565,8586.388927
1165.724296,1149.143247,-0.000000,8512.368333
1165.724612,229.828649,-740.205942,9696.697840
1165.724927,-229.828649,-444.123565,9030.512492
1165.725243,919.314598,-1036.288319,9030.512492
1165.725559,612.876398,148.041188,9696.697840
1165.725874,0.000000,148.041188,9178.553681
1165.726190,-383.047749,-518.144159,9770.718434
1165.726505,-383.047749,-740.205942,9770.718434
1165.726821,-1302.362347,-814.226536,10214.842000
1165.727137,383.047749,-370.102971,9918.759623
1165.727452,459.657299,296.082377,8586.388927
1165.727768,-306.438199,-296.082377,9326.594869
1165.728084,-383.047749,-962.267725,9844.739029
1165.728399,-153.219100,-592.164754,9400.615463
1165.728715,536.266849,-518.144159,9696.697840
1165.729031,689.485948,148.041188,9252.574275
1165.729346,153.219100,-370.102971,9178.553681
1165.729662,0.000000,-888.247130,9844.739029
1165.729978,-383.047749,-1110.308913,10214.842000
1165.730293,995.924147,-444.123565,9918.759623
1165.730609,919.314598,666.185348,9252.574275
1165.730924,306.438199,296.082377,8438.347739
1165.731240,536.266849,-962.267725,10362.883188
1165.731556,995.924147,-1332.370696,9918.759623
1165.731871,1072.533697,-0.000000,9622.677246
1165.732187,1378.971896,518.144159,9252.574275
1165.732503,1072.533697,148.041188,8956.491898
1165.732818,153.219100,-370.102971,9548.656652
1165.733134,0.000000,-444.123565,10214.842000
1165.733450,383.047749,-740.205942,10288.862594
1165.733765,766.095498,148.041188,9770.718434
1165.734081,0.000000,222.061783,8512.368333
1165.734401,-229.828649,-444.123565,10510.924376
1165.734716,-153.219100,-2072.576638,10955.047942
1165.735032,76.609550,-814.226536,9918.759623
1165.735348,306.438199,370.102971,10288.862594
1165.735664,689.485948,814.226536,9326.594869
1165.735980,0.000000,222.061783,9400.615463
1165.736295,0.000000,-222.061783,9474.636058
1165.736611,229.828649,-370.102971,9696.697840
1165.736927,1532.190996,592.164754,10584.944971
1165.737243,1302.362347,962.267725,8216.285956
1165.737558,1378.971896,222.061783,8734.430116
1165.737874,1072.533697,-518.144159,9844.739029
1165.738190,1225.752797,-296.082377,9548.656652
1165.738506,2221.676944,518.144159,9474.636058
1165.738822,1915.238745,592.164754,8586.388927
1165.739137,383.047749,814.226536,8438.347739
1165.739453,306.438199,-0.000000,9030.512492
1165.739769,689.485948,-740.205942,9770.718434
1165.740085,1302.362347,-296.082377,10436.903782
1165.740400,536.266849,1036.288319,8586.388927
1165.740716,153.219100,296.082377,8956.491898
1165.741032,-229.828649,-888.247130,9918.759623
1165.741348,229.828649,-666.185348,9326.594869
1165.741664,689.485948,-0.000000,9474.636058
1165.741979,459.657299,888.247130,8734.430116
1165.742295,-459.657299,-592.164754,8808.450710
1165.742611,0.000000,-370.102971,9474.636058
1165.742927,-229.828649,-888.247130,9400.615463
1165.743242,-76.609550,222.061783,9622.677246
1165.743558,229.828649,592.164754,8734.430116
1165.743874,-306.438199,-444.123565,8586.388927
1165.744190,76.609550,-1184.329507,10362.883188
1165.744506,-383.047749,-444.123565,9104.533087
1165.744821,0.000000,-148.041188,8956.491898
1165.745137,689.485948,-0.000000,9992.780217
1165.745453,0.000000,-222.061783,9104.533087
1165.745769,0.000000,-74.020594,9918.759623
1165.746084,-689.485948,-444.123565,9252.574275
1165.746400,-306.438199,-444.123565,9622.677246
1165.746716,383.047749,-0.000000,9918.759623
1165.747032,76.609550,-296.082377,9326.594869
1165.747348,0.000000,-888.247130,10510.924376
1165.747663,0.000000,-740.205942,9770.718434
1165.747979,153.219100,-592.164754,9252.574275
1165.748295,766.095498,-444.123565,9918.759623
1165.748611,842.705048,-148.041188,9548.656652
1165.748926,76.609550,-296.082377,9030.512492
1165.749242,-536.266849,-888.247130,9326.594869
1165.749558,0.000000,-888.247130,10510.924376
1165.749874,919.314598,-444.123565,10140.821405
1165.750190,919.314598,148.041188,9178.553681
1165.750505,383.047749,-222.061783,9474.636058
1165.750821,153.219100,-740.205942,9992.780217
1165.751137,536.266849,-444.123565,9104.533087
1165.751453,1149.143247,-518.144159,9770.718434
1165.751768,995.924147,-74.020594,9474.636058
1165.752084,842.705048,-370.102971,9474.636058
1165.752400,-153.219100,-666.185348,9326.594869
1165.752716,0.000000,-370.102971,10436.903782
1165.753032,995.924147,-666.185348,10436.903782
1165.753347,1072.533697,296.082377,9252.574275
1165.753663,919.314598,222.061783,9178.553681
1165.753979,842.705048,-1332.370696,9844.739029
1165.754295,689.485948,-740.205942,9474.636058
1165.754610,1608.800546,-296.082377,9400.615463
1165.754926,2068.457845,444.123565,9918.759623
1165.755242,1685.410096,962.267725,8438.347739
1165.755558,842.705048,962.267725,8734.430116
1165.755874,919.314598,592.164754,8734.430116
1165.756189,766.095498,-148.041188,9178.553681
1165.756505,612.876398,222.061783,9474.636058
1165.756821,612.876398,-370.102971,9474.636058
1165.757137,-383.047749,-1184.329507,9770.718434
1165.757452,-536.266849,-740.205942,9770.718434
1165.757768,-306.438199,-592.164754,9474.636058
1165.758084,-306.438199,-0.000000,9844.739029
1165.758400,0.000000,814.226536,9622.677246
1165.758716,-612.876398,592.164754,9178.553681
1165.759031,-689.485948,444.123565,8808.450710
1165.759347,-919.314598,-666.185348,9474.636058
1165.759663,0.000000,-0.000000,9992.780217
1165.759979,383.047749,296.082377,8882.471304
1165.760294,0.000000,-74.020594,8882.471304
1165.760610,-306.438199,-222.061783,9104.533087
1165.760926,383.047749,-0.000000,9696.697840
1165.761242,1072.533697,666.185348,9622.677246
1165.761558,383.047749,1258.350101,9030.512492
1165.761873,306.438199,962.267725,8734.430116
1165.762189,0.000000,-148.041188,9696.697840
1165.762505,-229.828649,-740.205942,9992.780217
1165.762821,536.266849,-444.123565,10362.883188
1165.763136,766.095498,666.185348,9400.615463
1165.763452,0.000000,296.082377,9030.512492
1165.763768,76.609550,-814.226536,10362.883188
1165.764084,229.828649,-666.185348,10214.842000
1165.764400,689.485948,-296.082377,9844.739029
1165.764715,1072.533697,814.226536,9622.677246
1165.765031,689.485948,296.082377,9400.615463
1165.765347,153.219100,-0.000000,9622.677246
1165.765663,76.609550,-370.102971,9696.697840
1165.765978,842.705048,-74.020594,10214.842000
1165.766294,919.314598,370.102971,9474.636058
1165.766610,995.924147,-74.020594,9326.594869
1165.766926,76.609550,-1036.288319,9622.677246
1165.767242,76.609550,-1184.329507,10584.944971
1165.767557,1149.143247,-1480.411884,10362.883188
1165.767873,1378.971896,-740.205942,9696.697840
1165.768189,612.876398,740.205942,9400.615463
1165.768505,229.828649,-222.061783,9252.574275
1165.768820,76.609550,-222.061783,9400.615463
1165.769136,995.924147,-0.000000,9992.780217
1165.769452,1455.581446,444.123565,9696.697840
1165.769768,689.485948,962.267725,8290.306550
1165.770084,153.219100,-814.226536,9104.533087
1165.770399,153.219100,-1554.432478,10140.821405
1165.770715,0.000000,-1850.514855,10362.883188
1165.771031,766.095498,-370.102971,10288.862594
1165.771347,459.657299,296.082377,9326.594869
1165.771662,229.828649,-0.000000,9104.533087
1165.771978,153.219100,-296.082377,9918.759623
1165.772294,1149.143247,-148.041188,9178.553681
1165.772610,1302.362347,666.185348,8586.388927
1165.772926,1378.971896,370.102971,8586.388927
1165.773241,536.266849,-296.082377,8734.430116
1165.773557,689.485948,-1258.350101,9474.636058
1165.773873,1455.581446,-296.082377,8808.450710
1165.774189,1149.143247,222.061783,9178.553681
1165.774504,1149.143247,666.185348,8956.491898
1165.774820,689.485948,-222.061783,9178.553681
1165.775136,-153.219100,-0.000000,8956.491898
1165.775452,-383.047749,-962.267725,9622.677246
1165.775768,383.047749,-740.205942,9992.780217
1165.776083,306.438199,-0.000000,9252.574275
1165.776399,306.438199,-296.082377,9326.594869
1165.776715,-612.876398,-1258.350101,9252.574275
1165.777031,-612.876398,-1258.350101,9548.656652
1165.777346,0.000000,-592.164754,9770.718434
1165.777662,612.876398,-296.082377,9474.636058
1165.777978,306.438199,-296.082377,9178.553681
1165.778294,0.000000,-518.144159,9326.594869
1165.778610,0.000000,-74.020594,9252.574275
1165.778925,766.095498,-0.000000,9474.636058
1165.779241,1455.581446,296.082377,9474.636058
1165.779557,1149.143247,-296.082377,9104.533087
1165.779873,689.485948,-814.226536,9400.615463
1165.780188,995.924147,-962.267725,9474.636058
1165.780504,842.705048,-666.185348,9400.615463
1165.780820,1532.190996,-0.000000,9696.697840
1165.781136,919.314598,444.123565,9326.594869
1165.781452,612.876398,-222.061783,9326.594869
1165.781767,-306.438199,-222.061783,9622.677246
1165.782083,-153.219100,-444.123565,9918.759623
1165.782399,0.000000,-592.164754,9548.656652
1165.782715,689.485948,-148.041188,10140.821405
1165.783030,-229.828649,-814.226536,9844.739029
1165.783346,-459.657299,-1184.329507,9548.656652
1165.783662,-459.657299,-1406.391290,10214.842000
1165.783978,383.047749,-814.226536,9548.656652
1165.784294,766.095498,814.226536,9104.533087
1165.784609,0.000000,518.144159,8290.306550
1165.784925,-689.485948,-296.082377,10214.842000
1165.785241,229.828649,-740.205942,10288.862594
1165.785557,612.876398,370.102971,9400.615463
1165.785872,1455.581446,814.226536,9104.533087
1165.786188,919.314598,-222.061783,9178.553681
1165.786504,689.485948,-1110.308913,9474.636058
1165.786820,536.266849,-518.144159,9696.697840
1165.787136,1532.190996,-74.020594,9844.739029
1165.787451,1762.019645,370.102971,9400.615463
1165.787767,995.924147,962.267725,9104.533087
1165.788083,459.657299,592.164754,9178.553681
1165.788399,306.438199,-74.020594,8956.491898
1165.788714,766.095498,74.020594,9844.739029
1165.789030,1302.362347,592.164754,9770.718434
1165.789346,995.924147,148.041188,9030.512492
1165.789662,229.828649,-74.020594,8586.388927
1165.789978,-383.047749,-1110.308913,9696.697840
1165.790293,919.314598,-814.226536,10436.903782
1165.790609,689.485948,370.102971,9252.574275
1165.790925,76.609550,814.226536,9030.512492
1165.791241,-766.095498,-518.144159,9844.739029
1165.791556,-689.485948,-1184.329507,9918.759623
1165.791872,-153.219100,148.041188,9770.718434
1165.792188,612.876398,888.247130,9104.533087
1165.792504,536.266849,740.205942,8586.388927
1165.792820,153.219100,-222.061783,9474.636058
1165.793135,0.000000,-1184.329507,9918.759623
1165.793451,306.438199,-962.267725,10214.842000
1165.793767,153.219100,-222.061783,9326.594869
1165.794083,459.657299,740.205942,9104.533087
1165.794398,0.000000,-0.000000,9030.512492
1165.794714,0.000000,-296.082377,9918.759623
1165.795030,0.000000,222.061783,10288.862594
1165.795346,766.095498,-518.144159,9622.677246
1165.795662,383.047749,-370.102971,9252.574275
1165.795977,766.095498,-370.102971,9326.594869
1165.796293,536.266849,-1332.370696,9474.636058
1165.796609,612.876398,-666.185348,9844.739029
1165.796925,842.705048,-296.082377,10140.821405
1165.797240,1225.752797,592.164754,9030.512492
1165.797556,306.438199,444.123565,8512.368333
1165.797872,-229.828649,-222.061783,9770.718434
1165.798188,153.219100,-296.082377,9918.759623
1165.798504,612.876398,-0.000000,9992.780217
1165.798819,766.095498,-0.000000,9252.574275
1165.799135,612.876398,-888.247130,9548.656652
1165.799451,612.876398,-1110.308913,10362.883188
1165.799767,0.000000,-1110.308913,9622.677246
1165.800082,153.219100,-518.144159,9696.697840
1165.800398,383.047749,-0.000000,9918.759623
1165.800714,229.828649,222.061783,9474.636058
1165.801030,76.609550,592.164754,9548.656652
1165.801346,0.000000,370.102971,9326.594869
1165.801661,383.047749,222.061783,9252.574275
1165.801977,1378.971896,222.061783,9474.636058
1165.802293,1532.190996,-0.000000,9548.656652
1165.802609,842.705048,-1110.308913,9400.615463
1165.802924,1149.143247,-1036.288319,9474.636058
1165.803240,995.924147,-1110.308913,9326.594869
1165.803556,1378.971896,-0.000000,9992.780217
1165.803872,1455.581446,518.144159,9474.636058
1165.804188,536.266849,222.061783,8734.430116
1165.804503,383.047749,444.123565,9030.512492
1165.804819,689.485948,-0.000000,9104.533087
1165.805135,1225.752797,-0.000000,9548.656652
1165.805451,612.876398,-370.102971,9252.574275
1165.805766,306.438199,-1036.288319,8956.491898
1165.806082,0.000000,-1184.329507,9548.656652
1165.806398,0.000000,-666.185348,9696.697840
1165.806714,153.219100,-0.000000,10362.883188
1165.807030,76.609550,370.102971,9548.656652
1165.807345,0.000000,-0.000000,9030.512492
1165.807661,-995.924147,-74.020594,9252.574275
1165.807977,-842.705048,-666.185348,10140.821405
1165.808293,153.219100,-1110.308913,10436.903782
1165.808608,229.828649,-74.020594,9326.594869
1165.808924,536.266849,-0.000000,8882.471304
1165.809240,-383.047749,-74.020594,9400.615463
1165.809556,0.000000,-592.164754,9474.636058
1165.809871,229.828649,-0.000000,9474.636058
1165.810187,383.047749,444.123565,9548.656652
1165.810503,459.657299,-370.102971,8956.491898
1165.810819,229.828649,-0.000000,9696.697840
1165.811135,76.609550,-592.164754,8956.491898
1165.811450,689.485948,-592.164754,9326.594869
1165.811766,1685.410096,-0.000000,9400.615463
1165.812082,1225.752797,-0.000000,8734.430116
1165.812398,383.047749,-518.144159,8882.471304
1165.812713,306.438199,-1332.370696,9770.718434
1165.813029,612.876398,-1406.391290,9918.759623
1165.813345,536.266849,-74.020594,9622.677246
1165.813661,306.438199,-74.020594,9178.553681
1165.813977,-153.219100,-296.082377,9030.512492
1165.814292,-766.095498,-296.082377,10066.800811
1165.814608,76.609550,-1406.391290,10066.800811
1165.814924,689.485948,-296.082377,9696.697840
1165.815240,689.485948,148.041188,9548.656652
1165.815555,459.657299,-814.226536,9030.512492
1165.815871,612.876398,-1406.391290,10066.800811
1165.816187,766.095498,-1776.494261,10288.862594
1165.816503,1225.752797,-0.000000,10362.883188
1165.816819,1378.971896,1628.453072,8882.471304
1165.817134,995.924147,888.247130,7994.224174
1165.817450,995.924147,444.123565,9104.533087
1165.817766,1149.143247,-0.000000,9474.636058
1165.818082,1608.800546,-592.164754,10066.800811
1165.818397,1225.752797,-74.020594,9622.677246
1165.818713,1378.971896,-370.102971,9696.697840
1165.819029,612.876398,-444.123565,8882.471304
1165.819345,612.876398,-74.020594,9474.636058
1165.819661,919.314598,-148.041188,9326.594869
1165.819976,1072.533697,-148.041188,9918.759623
1165.820292,0.000000,296.082377,9178.553681
1165.820608,-229.828649,-148.041188,9696.697840
1165.820924,-306.438199,-666.185348,9474.636058
1165.821239,689.485948,-666.185348,9992.780217
1165.821555,1072.533697,592.164754,9030.512492
1165.821871,766.095498,518.144159,8808.450710
1165.822187,0.000000,-74.020594,8512.368333
1165.822503,459.657299,-148.041188,9918.759623
1165.822818,153.219100,-592.164754,9030.512492
1165.823134,306.438199,444.123565,10066.800811
1165.823450,229.828649,740.205942,9474.636058
1165.823766,-229.828649,-74.020594,8586.388927
1165.824081,-383.047749,-74.020594,9696.697840
1165.824397,-229.828649,-296.082377,9622.677246
1165.824713,76.609550,814.226536,10214.842000
1165.825029,306.438199,-0.000000,8956.491898
1165.825345,-459.657299,-666.185348,9400.615463
1165.825660,0.000000,-888.247130,9548.656652
1165.825976,0.000000,-740.205942,9548.656652
1165.826292,459.657299,-222.061783,10214.842000
1165.826608,0.000000,-296.082377,9622.677246
1165.826923,-306.438199,222.061783,8808.450710
1165.827239,-612.876398,-74.020594,9696.697840
1165.827555,76.609550,-592.164754,9548.656652
1165.827871,1302.362347,-222.061783,9474.636058
1165.828187,1532.190996,-74.020594,9252.574275
1165.828502,689.485948,-1110.308913,8882.471304
1165.828818,612.876398,-1184.329507,9844.739029
1165.829134,383.047749,-1184.329507,9696.697840
1165.829450,383.047749,-74.020594,9548.656652
1165.829765,842.705048,1628.453072,8586.388927
1165.830081,459.657299,518.144159,8734.430116
1165.830397,-383.047749,-296.082377,9548.656652
1165.830713,-383.047749,-888.247130,10362.883188
1165.831029,689.485948,-888.247130,10362.883188
1165.831344,0.000000,-666.185348,9844.739029
1165.831660,0.000000,-1110.308913,10066.800811
1165.831976,0.000000,-1036.288319,9918.759623
1165.832292,0.000000,-370.102971,9252.574275
1165.832607,0.000000,-444.123565,10510.924376
1165.832923,229.828649,-0.000000,9992.780217
1165.833239,153.219100,296.082377,9696.697840
1165.833555,306.438199,518.144159,8882.471304
1165.833871,0.000000,-0.000000,8808.450710
1165.834186,1685.410096,-222.061783,9992.780217
1165.834502,1991.848295,740.205942,9474.636058
1165.834818,1149.143247,888.247130,8734.430116
1165.835134,919.314598,-0.000000,8734.430116
1165.835450,536.266849,-888.247130,9696.697840
1165.835765,1302.362347,-1036.288319,9696.697840
1165.836081,1072.533697,-370.102971,10288.862594
1165.836397,1149.143247,-0.000000,9548.656652
1165.836713,383.047749,-0.000000,9030.512492
1165.837029,-229.828649,-0.000000,8808.450710
1165.837344,306.438199,-74.020594,9622.677246
1165.837660,995.924147,-0.000000,10066.800811
1165.837976,1302.362347,-0.000000,8512.368333
1165.838292,229.828649,-518.144159,8808.450710
1165.838608,76.609550,-1480.411884,10140.821405
1165.838923,229.828649,-1554.432478,9844.739029
1165.839239,919.314598,-370.102971,9770.718434
1165.839555,612.876398,1036.288319,9030.512492
1165.839871,153.219100,518.144159,8808.450710
1165.840187,383.047749,-74.020594,9474.636058
1165.840503,459.657299,-0.000000,9474.636058
1165.840818,995.924147,-222.061783,9992.780217
1165.841134,919.314598,-296.082377,9030.512492
1165.841450,536.266849,-148.041188,8438.347739
1165.841766,689.485948,-592.164754,9622.677246
1165.842082,383.047749,-592.164754,10214.842000
1165.842397,383.047749,-222.061783,9548.656652
1165.842713,536.266849,518.144159,9178.553681
1165.843029,0.000000,666.185348,9104.533087
1165.843345,-306.438199,-296.082377,9178.553681
1165.843661,-153.219100,-370.102971,9474.636058
1165.843977,0.000000,-1036.288319,10510.924376
1165.844292,842.705048,-518.144159,10214.842000
1165.844608,689.485948,-148.041188,8586.388927
1165.844924,383.047749,-1036.288319,9326.594869
1165.845240,0.000000,-1258.350101,10066.800811
1165.845556,842.705048,-740.205942,9770.718434
1165.845871,919.314598,-0.000000,9178.553681
1165.846187,842.705048,444.123565,9326.594869
1165.846503,689.485948,-370.102971,9030.512492
1165.846819,0.000000,-148.041188,8956.491898
1165.847135,0.000000,-444.123565,9696.697840
1165.847451,919.314598,-222.061783,10140.821405
1165.847766,766.095498,222.061783,8586.388927
1165.848082,0.000000,-518.144159,9252.574275
1165.848398,-306.438199,-1554.432478,10066.800811
1165.848714,76.609550,-1480.411884,10362.883188
1165.849030,153.219100,-222.061783,9992.780217
1165.849345,229.828649,-74.020594,9696.697840
1165.849661,153.219100,-74.020594,9326.594869
1165.849977,0.000000,222.061783,8808.450710
1165.850293,76.609550,-0.000000,9696.697840
1165.850609,689.485948,-0.000000,9548.656652
1165.850925,1455.581446,222.061783,9548.656652
1165.851240,1302.362347,-666.185348,8882.471304
1165.851556,842.705048,-1406.391290,9622.677246
1165.851872,919.314598,-1554.432478,9918.759623
1165.852188,1685.410096,-888.247130,10658.965565
1165.852504,1685.410096,-0.000000,9918.759623
1165.852819,1685.410096,-0.000000,8882.471304
1165.853135,766.095498,1036.288319,8068.244768
1165.853451,919.314598,-0.000000,9178.553681
1165.853767,1608.800546,-444.123565,9474.636058
1165.854083,2068.457845,-296.082377,9252.574275
1165.854399,612.876398,-0.000000,8882.471304
1165.854714,-306.438199,-1480.411884,9696.697840
1165.855030,-459.657299,-1850.514855,10214.842000
1165.855346,-842.705048,-1110.308913,10436.903782
1165.855662,-766.095498,-740.205942,9622.677246
1165.855978,-1915.238745,-1332.370696,9030.512492
1165.856293,-2145.067394,-1184.329507,10362.883188
1165.856609,-1915.238745,-2590.720797,11251.130318
1165.856925,-1378.971896,-2146.597232,10807.006753
1165.857241,0.000000,-74.020594,9548.656652
1165.857557,-383.047749,-296.082377,8290.306550
1165.857873,0.000000,-518.144159,8364.327145
1165.858188,0.000000,-1554.432478,9400.615463
1165.858504,1072.533697,-1406.391290,8882.471304
1165.858820,1455.581446,-1628.453072,9696.697840
1165.859136,1608.800546,-1184.329507,9030.512492
1165.859452,1225.752797,-2146.597232,9178.553681
1165.859767,1149.143247,-2442.679609,9400.615463
1165.860083,1608.800546,-1850.514855,10066.800811
1165.860399,1991.848295,-592.164754,9474.636058
1165.860715,2528.115143,-740.205942,8956.491898
1165.861031,2068.457845,-1258.350101,8808.450710
1165.861347,1915.238745,-2072.576638,9548.656652
1165.861662,1991.848295,-2368.659014,9400.615463
1165.861978,1991.848295,-2220.617826,9696.697840
1165.862294,2298.286494,-2220.617826,9844.739029
1165.862610,2528.115143,-1480.411884,9030.512492
1165.862926,1762.019645,-1480.411884,8882.471304
1165.863241,1991.848295,-1776.494261,10140.821405
1165.863557,2145.067394,-1776.494261,9104.533087
1165.863873,3370.820191,-1776.494261,9548.656652
1165.864189,3064.381992,-1628.453072,9474.636058
1165.864505,3294.210641,-2516.700203,9474.636058
1165.864821,3983.696590,-3404.947333,10732.986159
1165.865136,3370.820191,-2738.761985,9252.574275
1165.865452,3294.210641,-1554.432478,9326.594869
1165.865768,4136.915689,-962.267725,8808.450710
1165.866084,3753.867940,-222.061783,8586.388927
1165.866400,3753.867940,-962.267725,9104.533087
1165.866715,3217.601092,-1258.350101,9474.636058
1165.867031,3140.991542,-888.247130,8734.430116
1165.867347,3064.381992,-1258.350101,8956.491898
1165.867663,2834.553343,-1776.494261,9548.656652
1165.867979,2221.676944,-1702.473667,9548.656652
1165.868295,2451.505594,-1998.556043,9696.697840
1165.868610,1838.629195,-2220.617826,9622.677246
1165.868926,1378.971896,-2516.700203,10584.944971
1165.869242,1532.190996,-2960.823768,10584.944971
1165.869558,1915.238745,-2516.700203,10362.883188
1165.869874,2298.286494,-2590.720797,10807.006753
1165.870189,3140.991542,-2220.617826,10066.800811
1165.870505,3677.258390,-2294.638420,9622.677246
1165.870821,4366.744339,-1998.556043,8882.471304
1165.871137,4903.011187,-962.267725,8660.409521
1165.871453,5056.230287,-592.164754,7920.203579
1165.871769,5056.230287,-296.082377,8512.368333
1165.872084,4673.182538,-148.041188,8068.244768
1165.872400,3600.648841,-1036.288319,7920.203579
1165.872716,3064.381992,-1776.494261,8586.388927
1165.873032,2145.067394,-2220.617826,9252.574275
1165.873348,1915.238745,-2442.679609,9844.739029
1165.873663,1455.581446,-2516.700203,10140.821405
1165.873979,689.485948,-2368.659014,10288.862594
1165.874295,383.047749,-3256.906145,10362.883188
1165.874611,306.438199,-3330.926739,10436.903782
1165.874927,76.609550,-2886.803174,9992.780217
1165.875243,306.438199,-2442.679609,10732.986159
1165.875558,1072.533697,-2294.638420,10214.842000
1165.875874,1762.019645,-1480.411884,9770.718434
1165.876190,2068.457845,-1184.329507,8808.450710
1165.876506,2451.505594,-1702.473667,8586.388927
1165.876822,3294.210641,-1406.391290,8882.471304
1165.877137,3140.991542,-1258.350101,8734.430116
1165.877453,3140.991542,-1406.391290,8956.491898
1165.877769,3294.210641,-1850.514855,9474.636058
1165.878085,2987.772442,-2294.638420,9326.594869
1165.878401,2528.115143,-2442.679609,9030.512492
1165.878717,2221.676944,-2664.741391,9918.759623
1165.879032,1378.971896,-2812.782580,9992.780217
1165.879348,1378.971896,-1628.453072,9696.697840
1165.879664,842.705048,-2368.659014,10584.944971
1165.879980,1225.752797,-3330.926739,10732.986159
1165.880296,995.924147,-3256.906145,10140.821405
1165.880611,995.924147,-3552.988522,9992.780217
1165.880927,1685.410096,-3404.947333,9844.739029
1165.881243,2298.286494,-3552.988522,9992.780217
1165.881559,2374.896044,-3108.864956,9474.636058
1165.881875,2298.286494,-2368.659014,9400.615463
1165.882191,2604.724693,-2146.597232,9326.594869
1165.882506,2911.162892,-1998.556043,9400.615463
1165.882822,3217.601092,-1998.556043,9104.533087
1165.883138,3294.210641,-2072.576638,9400.615463
1165.883454,3294.210641,-1998.556043,9030.512492
1165.883770,3830.477490,-2590.720797,9474.636058
1165.884085,4060.306139,-2886.803174,9770.718434
1165.884401,3600.648841,-2738.761985,9548.656652
1165.884717,2987.772442,-2738.761985,9770.718434
1165.885033,3600.648841,-2516.700203,9474.636058
1165.885349,3907.087040,-2442.679609,9474.636058
1165.885665,3600.648841,-1776.494261,9474.636058
1165.885980,3064.381992,-1850.514855,8808.450710
1165.886296,3140.991542,-1332.370696,8734.430116
1165.886612,3294.210641,-1258.350101,8808.450710
1165.886928,2604.724693,-1406.391290,8734.430116
1165.887244,2221.676944,-1998.556043,8882.471304
1165.887559,1762.019645,-2812.782580,9770.718434
1165.887875,2451.505594,-3478.967927,9844.739029
1165.888191,2221.676944,-2886.803174,9844.739029
1165.888507,2145.067394,-2368.659014,9474.636058
1165.888823,2221.676944,-2220.617826,9178.553681
1165.889138,2451.505594,-1998.556043,9030.512492
1165.889454,2834.553343,-1406.391290,9400.615463
1165.889770,3064.381992,-1406.391290,8808.450710
1165.890086,3064.381992,-1628.453072,9178.553681
1165.890402,3294.210641,-2442.679609,9400.615463
1165.890718,3217.601092,-3552.988522,9474.636058
1165.891033,3677.258390,-3182.885551,9770.718434
1165.891349,3447.429741,-2368.659014,9474.636058
1165.891665,2834.553343,-1998.556043,9252.574275
1165.891981,2604.724693,-1332.370696,9178.553681
1165.892297,2757.943793,-962.267725,9252.574275
1165.892612,2374.896044,-518.144159,9326.594869
1165.892928,2374.896044,-666.185348,9400.615463
1165.893244,1838.629195,-1850.514855,9548.656652
1165.893560,1762.019645,-3108.864956,10362.883188
1165.893876,1455.581446,-4145.153275,10658.965565
1165.894192,2145.067394,-4293.194464,10732.986159
1165.894507,1915.238745,-3404.947333,10140.821405
1165.894823,1991.848295,-2294.638420,9400.615463
1165.895139,2604.724693,-1702.473667,9104.533087
1165.895455,2298.286494,-1628.453072,9104.533087
1165.895771,2298.286494,-814.226536,9104.533087
1165.896086,2221.676944,-296.082377,8956.491898
1165.896402,2374.896044,-740.205942,8808.450710
1165.896718,2221.676944,-1554.432478,9104.533087
1165.897034,2298.286494,-2590.720797,10140.821405
1165.897350,2451.505594,-3627.009116,10288.862594
1165.897666,2451.505594,-3923.091493,10584.944971
1165.897981,2451.505594,-4145.153275,10658.965565
1165.898297,2298.286494,-3997.112087,10584.944971
1165.898613,2987.772442,-2960.823768,10288.862594
1165.898929,2757.943793,-1776.494261,9770.718434
1165.899245,3140.991542,-370.102971,8882.471304
1165.899560,3294.210641,296.082377,8142.265362
1165.899876,3600.648841,666.185348,7772.162391
1165.900192,2911.162892,370.102971,7698.141797
1165.900508,2681.334243,-666.185348,8142.265362
1165.900824,2068.457845,-1776.494261,9104.533087
1165.901140,1302.362347,-3701.029710,9918.759623
1165.901455,536.266849,-4959.379811,10807.006753
1165.901771,153.219100,-5181.441594,11769.274478
1165.902087,0.000000,-5033.400406,11843.295072
1165.902403,766.095498,-4367.215058,11621.233289
1165.902719,1685.410096,-3330.926739,10881.027347
1165.903034,2451.505594,-2664.741391,10436.903782
1165.903350,3677.258390,-2220.617826,9030.512492
1165.903666,4673.182538,-1480.411884,7920.203579
1165.903982,5209.449386,-592.164754,7328.038826
1165.904298,5439.278036,-148.041188,6883.915261
1165.904614,5056.230287,-0.000000,6735.874072
1165.904929,4213.525239,-222.061783,7402.059420
1165.905245,3064.381992,-888.247130,7994.224174
1165.905561,1762.019645,-1776.494261,9400.615463
1165.905877,766.095498,-3034.844362,9992.780217
1165.906193,-383.047749,-4145.153275,11325.150913
1165.906508,-306.438199,-5033.400406,11991.336260
1165.906824,0.000000,-5329.482782,12065.356855
1165.907140,0.000000,-4959.379811,11621.233289
1165.907456,842.705048,-4737.318029,11325.150913
1165.907772,2221.676944,-4219.173869,10584.944971
1165.908088,3140.991542,-2886.803174,9992.780217
1165.908403,4290.134789,-1998.556043,8512.368333
1165.908719,5132.839837,-296.082377,7772.162391
1165.909035,6128.763984,592.164754,7031.956449
1165.909351,6205.373534,1184.329507,6513.812290
1165.909667,6128.763984,1036.288319,6809.894666
1165.909982,5745.716235,-0.000000,7328.038826
1165.910298,4596.572988,-1480.411884,8068.244768
1165.910614,3217.601092,-2590.720797,9474.636058
1165.910930,2145.067394,-3923.091493,11029.068536
1165.911246,919.314598,-4293.194464,11103.089130
1165.911562,76.609550,-3775.050304,11473.192101
1165.911877,-459.657299,-3330.926739,11473.192101
1165.912193,-842.705048,-3108.864956,10807.006753
1165.912509,-536.266849,-2886.803174,10658.965565
1165.912825,306.438199,-2442.679609,10288.862594
1165.913141,1378.971896,-2146.597232,9474.636058
1165.913456,2298.286494,-1554.432478,8660.409521
1165.913772,3294.210641,-1332.370696,8438.347739
1165.914088,3907.087040,-1332.370696,8142.265362
1165.914404,4060.306139,-1184.329507,8512.368333
1165.914720,3447.429741,-1480.411884,8586.388927
1165.915036,3217.601092,-1924.535449,9178.553681
1165.915351,2604.724693,-1998.556043,9548.656652
1165.915667,2451.505594,-1924.535449,9844.739029
1165.915983,1915.238745,-1850.514855,10214.842000
1165.916299,1915.238745,-1776.494261,10214.842000
1165.916615,1991.848295,-2072.576638,10140.821405
1165.916930,1532.190996,-2368.659014,9992.780217
1165.917246,1685.410096,-2664.741391,9918.759623
1165.917562,2145.067394,-2590.720797,9770.718434
1165.917878,2145.067394,-2368.659014,9548.656652
1165.918194,2221.676944,-2220.617826,9400.615463
1165.918510,2298.286494,-1628.453072,9548.656652
1165.918825,2145.067394,-1628.453072,9474.636058
1165.919141,1685.410096,-1554.432478,9400.615463
1165.919457,1915.238745,-2368.659014,9548.656652
1165.919773,1762.019645,-1998.556043,9474.636058
1165.920089,1991.848295,-1480.411884,9252.574275
1165.920404,1915.238745,-1406.391290,9104.533087
1165.920720,1915.238745,-814.226536,8956.491898
1165.921036,1991.848295,-888.247130,8956.491898
1165.921352,1378.971896,-888.247130,8808.450710
1165.921668,1302.362347,-1258.350101,9178.553681
1165.921984,842.705048,-1702.473667,9400.615463
1165.922299,1149.143247,-2072.576638,9474.636058
1165.922615,1455.581446,-2368.659014,9548.656652
1165.922931,1608.800546,-2368.659014,10140.821405
1165.923247,2221.676944,-2368.659014,9992.780217
1165.923563,2681.334243,-2442.679609,9844.739029
1165.923878,2757.943793,-2294.638420,9770.718434
1165.924194,2911.162892,-1776.494261,9548.656652
1165.924510,3370.820191,-1480.411884,9400.615463
1165.924826,3447.429741,-814.226536,9622.677246
1165.925142,3217.601092,-740.205942,9104.533087
1165.925458,3447.429741,-740.205942,9104.533087
1165.925773,3524.039291,-1110.308913,9400.615463
1165.926089,3524.039291,-1776.494261,9474.636058
1165.926405,3907.087040,-1998.556043,9548.656652
1165.926721,4060.306139,-2516.700203,9696.697840
1165.927037,4366.744339,-3182.885551,9918.759623
1165.927352,4290.134789,-3478.967927,9992.780217
1165.927668,4136.915689,-3330.926739,10066.800811
1165.927984,3830.477490,-3182.885551,10140.821405
1165.928300,3447.429741,-3108.864956,10140.821405
1165.928616,3217.601092,-3108.864956,9992.780217
1165.928932,2911.162892,-2442.679609,10362.883188
1165.929247,2681.334243,-2590.720797,9548.656652
1165.929563,2987.772442,-2516.700203,9474.636058
1165.929879,2987.772442,-2442.679609,9326.594869
1165.930195,3370.820191,-2664.741391,9104.533087
1165.930511,2987.772442,-3034.844362,9252.574275
1165.930826,2681.334243,-3627.009116,9474.636058
1165.931142,2221.676944,-3552.988522,9622.677246
1165.931458,2298.286494,-3330.926739,10066.800811
1165.931774,2451.505594,-3478.967927,10510.924376
1165.932090,2068.457845,-3849.070898,9696.697840
1165.932406,2451.505594,-3330.926739,9770.718434
1165.932721,2604.724693,-3108.864956,9326.594869
1165.933037,2757.943793,-2812.782580,9030.512492
1165.933353,2911.162892,-2368.659014,8882.471304
1165.933669,2911.162892,-2220.617826,8586.388927
1165.933985,2757.943793,-2072.576638,8586.388927
1165.934300,2757.943793,-2516.700203,8956.491898
1165.934616,2681.334243,-3108.864956,9326.594869
1165.934932,3370.820191,-3701.029710,9770.718434
1165.935248,2451.505594,-4145.153275,9696.697840
1165.935564,2451.505594,-4293.194464,9918.759623
1165.935880,2451.505594,-4219.173869,9918.759623
1165.936195,3064.381992,-3775.050304,9622.677246
1165.936511,2987.772442,-2812.782580,8808.450710
1165.936827,3064.381992,-1554.432478,8142.265362
1165.937143,3140.991542,-962.267725,7772.162391
1165.937459,2681.334243,-740.205942,7698.141797
1165.937775,2528.115143,-592.164754,7772.162391
1165.938090,1302.362347,-444.123565,8068.244768
1165.938406,612.876398,-1480.411884,8586.388927
1165.938722,536.266849,-2516.700203,9474.636058
1165.939038,153.219100,-3849.070898,10362.883188
1165.939354,153.219100,-4589.276840,11103.089130
1165.939670,229.828649,-4589.276840,11251.130318
1165.939985,536.266849,-4885.359217,11399.171507
1165.940301,1072.533697,-4293.194464,11251.130318
1165.940617,2068.457845,-3108.864956,10658.965565
1165.940933,2911.162892,-1998.556043,9696.697840
1165.941249,3983.696590,-740.205942,9326.594869
1165.941565,4596.572988,444.123565,7772.162391
1165.941880,4290.134789,1258.350101,7105.977043
1165.942196,4519.963438,1554.432478,7105.977043
1165.942512,3830.477490,1554.432478,7105.977043
1165.942828,3064.381992,962.267725,7550.100608
1165.943144,2298.286494,-74.020594,8512.368333
1165.943460,1072.533697,-1110.308913,9992.780217
1165.943775,229.828649,-2738.761985,11325.150913
1165.944091,-383.047749,-4441.235652,12287.418637
1165.944407,-766.095498,-4737.318029,13027.624579
1165.944723,-306.438199,-4589.276840,13101.645173
1165.945039,229.828649,-3775.050304,12509.480420
1165.945355,1302.362347,-2960.823768,11843.295072
1165.945671,2834.553343,-2220.617826,10732.986159
1165.945986,3600.648841,-888.247130,9548.656652
1165.946302,4903.011187,148.041188,8068.244768
1165.946618,6052.154434,1850.514855,7328.038826
1165.946934,6818.249932,2516.700203,6735.874072
1165.947250,6435.202183,2516.700203,7105.977043
1165.947566,6052.154434,1258.350101,7476.080014
1165.947881,4903.011187,-222.061783,8438.347739
1165.948197,3677.258390,-2220.617826,10140.821405
1165.948513,2911.162892,-3701.029710,11103.089130
1165.948829,1149.143247,-4293.194464,11917.315666
1165.949145,919.314598,-4219.173869,12139.377449
1165.949461,383.047749,-3256.906145,12287.418637
1165.949776,612.876398,-2812.782580,11547.212695
1165.950092,995.924147,-2146.597232,10658.965565
1165.950408,1608.800546,-1480.411884,9992.780217
1165.950724,2374.896044,-1406.391290,9178.553681
1165.951040,2834.553343,-2220.617826,9178.553681
1165.951356,3830.477490,-2368.659014,8808.450710
1165.951671,4749.792088,-2368.659014,8808.450710
1165.951987,4673.182538,-2516.700203,8808.450710
1165.952303,4443.353888,-2886.803174,8586.388927
1165.952619,4596.572988,-3701.029710,9104.533087
1165.952935,4519.963438,-3552.988522,9252.574275
1165.953251,4213.525239,-2664.741391,9030.512492
1165.953567,3753.867940,-2368.659014,8660.409521
1165.953882,2604.724693,-1776.494261,8956.491898
1165.954198,2221.676944,-2220.617826,9030.512492
1165.954514,1762.019645,-2664.741391,9104.533087
1165.954830,1608.800546,-3034.844362,8808.450710
1165.955146,536.266849,-3404.947333,8882.471304
1165.955462,766.095498,-4367.215058,9474.636058
1165.955777,1149.143247,-4737.318029,9400.615463
1165.956093,1149.143247,-3627.009116,9326.594869
1165.956409,919.314598,-3330.926739,9104.533087
1165.956725,919.314598,-3256.906145,9844.739029
1165.957041,1302.362347,-3552.988522,10214.842000
1165.957357,1762.019645,-3330.926739,9474.636058
1165.957672,2221.676944,-2738.761985,9400.615463
1165.957988,2528.115143,-3182.885551,9326.594869
1165.958304,3064.381992,-2812.782580,8290.306550
1165.958620,3907.087040,-2368.659014,8290.306550
1165.958936,3677.258390,-1924.535449,8068.244768
1165.959252,3447.429741,-2072.576638,8586.388927
1165.959567,3524.039291,-1554.432478,8586.388927
1165.959883,3217.601092,-1702.473667,8438.347739
1165.960199,3064.381992,-1628.453072,8808.450710
1165.960515,2834.553343,-1628.453072,8882.471304
1165.960831,2681.334243,-2146.597232,9252.574275
1165.961147,1915.238745,-2146.597232,9104.533087
1165.961463,1149.143247,-2516.700203,9844.739029
1165.961778,766.095498,-3627.009116,10362.883188
1165.962094,0.000000,-3775.050304,11251.130318
1165.962410,-153.219100,-3923.091493,11843.295072
1165.962726,0.000000,-4071.132681,11621.233289
1165.963042,766.095498,-3330.926739,11251.130318
1165.963358,1608.800546,-2516.700203,10436.903782
1165.963673,2757.943793,-2220.617826,10066.800811
1165.963989,3983.696590,-1036.288319,9548.656652
1165.964305,4903.011187,-592.164754,8438.347739
1165.964621,5592.497135,-370.102971,8216.285956
1165.964937,6052.154434,-0.000000,8216.285956
1165.965253,5745.716235,-74.020594,8290.306550
1165.965568,4903.011187,-74.020594,8438.347739
1165.965884,4213.525239,-1036.288319,9252.574275
1165.966200,3064.381992,-1110.308913,9696.697840
1165.966516,1608.800546,-888.247130,10362.883188
1165.966832,842.705048,-1554.432478,11029.068536
1165.967148,-153.219100,-2220.617826,11325.150913
1165.967464,-766.095498,-2220.617826,11695.253884
1165.967779,-766.095498,-2368.659014,11399.171507
1165.968095,-153.219100,-3182.885551,11917.315666
1165.968411,306.438199,-2960.823768,11769.274478
1165.968727,1149.143247,-2960.823768,11399.171507
1165.969043,2298.286494,-2960.823768,10214.842000
1165.969359,2834.553343,-2072.576638,9474.636058
1165.969674,3677.258390,-592.164754,8882.471304
1165.969990,4519.963438,-296.082377,8142.265362
1165.970306,5515.887586,962.267725,7698.141797
1165.970622,5822.325785,1110.308913,7624.121203
1165.970938,5515.887586,518.144159,7402.059420
1165.971254,4596.572988,666.185348,7179.997637
1165.971569,3753.867940,592.164754,7550.100608
1165.971885,2834.553343,-444.123565,8586.388927
1165.972201,1762.019645,-962.267725,9548.656652
1165.972517,1149.143247,-1554.432478,10288.862594
1165.972833,459.657299,-3108.864956,10510.924376
1165.973149,-76.609550,-3701.029710,10362.883188
1165.973464,-229.828649,-5107.421000,11843.295072
1165.973780,383.047749,-4959.379811,11843.295072
1165.974096,1149.143247,-3034.844362,10584.944971
1165.974412,2374.896044,-2220.617826,10362.883188
1165.974728,3064.381992,-1036.288319,8216.285956
1165.975044,3294.210641,296.082377,7698.141797
1165.975360,5209.449386,-888.247130,7328.038826
1165.975675,4903.011187,962.267725,6365.771101
1165.975991,3907.087040,1924.535449,7328.038826
1165.976307,3983.696590,-296.082377,6661.853478
1165.976623,3600.648841,1480.411884,7550.100608
1165.976939,1838.629195,-148.041188,8290.306550
1165.977255,766.095498,-1406.391290,8882.471304
1165.977570,229.828649,-1184.329507,10140.821405
1165.977886,-1455.581446,-3034.844362,10436.903782
1165.978202,-1225.752797,-3701.029710,11769.274478
1165.978518,-2451.505594,-3627.009116,11473.192101
1165.978834,-2145.067394,-3034.844362,11399.171507
1165.979150,-1149.143247,-2516.700203,10955.047942
1165.979465,-1302.362347,-1258.350101,10510.924376
1165.979781,-229.828649,370.102971,9844.739029
1165.980097,-229.828649,1258.350101,9326.594869
1165.980413,766.095498,-222.061783,8290.306550
1165.980729,1378.971896,-592.164754,8956.491898
1165.981045,995.924147,-74.020594,8364.327145
1165.981360,2528.115143,-740.205942,9252.574275
1165.981676,2145.067394,-0.000000,8660.409521
1165.981992,1302.362347,-444.123565,8364.327145
1165.982308,1762.019645,-962.267725,9770.718434
1165.982624,1685.410096,-814.226536,9992.780217
1165.982940,919.314598,-148.041188,9326.594869
1165.983256,995.924147,-370.102971,9992.780217
1165.983571,919.314598,-666.185348,9696.697840
1165.983887,842.705048,-1332.370696,9696.697840
1165.984203,1149.143247,-1406.391290,10658.965565
1165.984519,1225.752797,-740.205942,9622.677246
1165.984835,612.876398,-740.205942,9844.739029
1165.985151,153.219100,-370.102971,9622.677246
1165.985466,-306.438199,-740.205942,9474.636058
1165.985782,459.657299,-74.020594,9918.759623
1165.986098,153.219100,370.102971,9104.533087
1165.986414,-383.047749,-0.000000,8808.450710
1165.986730,-612.876398,-962.267725,9918.759623
1165.987046,-1455.581446,-2220.617826,10214.842000
1165.987361,-612.876398,-1554.432478,10881.027347
1165.987677,0.000000,-888.247130,10288.862594
1165.987993,153.219100,-1110.308913,9178.553681
1165.988309,153.219100,-0.000000,9252.574275
1165.988625,536.266849,-740.205942,9326.594869
1165.988941,229.828649,-592.164754,8808.450710
1165.989256,1685.410096,370.102971,9178.553681
1165.989572,1302.362347,518.144159,9104.533087
1165.989888,459.657299,740.205942,8438.347739
1165.990204,306.438199,370.102971,9030.512492
1165.990520,153.219100,-0.000000,9474.636058
1165.990836,0.000000,-74.020594,9474.636058
1165.991152,-306.438199,-222.061783,8956.491898
1165.991467,-1072.533697,-962.267725,9474.636058
1165.991783,-2068.457845,-2294.638420,9696.697840
1165.992099,-1685.410096,-2442.679609,10510.924376
1165.992415,-1149.143247,-1332.370696,10510.924376
1165.992731,0.000000,-1480.411884,9622.677246
1165.993047,-612.876398,-0.000000,9178.553681
1165.993362,-153.219100,-74.020594,8808.450710
1165.993678,919.314598,-814.226536,8956.491898
1165.993994,1915.238745,814.226536,8660.409521
1165.994310,2451.505594,1036.288319,7550.100608
1165.994626,2911.162892,296.082377,7624.121203
1165.994942,2068.457845,666.185348,8290.306550
1165.995257,1915.238745,-0.000000,8660.409521
1165.995573,2221.676944,148.041188,9178.553681
1165.995889,1455.581446,1480.411884,9178.553681
1165.996205,842.705048,888.247130,8882.471304
1165.996521,76.609550,962.267725,9326.594869
1165.996837,-766.095498,-296.082377,9918.759623
1165.997152,-153.219100,-0.000000,10732.986159
1165.997468,153.219100,-74.020594,10214.842000
1165.997784,0.000000,-0.000000,9622.677246
1165.998100,76.609550,-222.061783,10362.883188
1165.998416,0.000000,-666.185348,9622.677246
1165.998732,995.924147,-0.000000,10066.800811
1165.999048,1762.019645,888.247130,9622.677246
1165.999363,1762.019645,1554.432478,8586.388927
1165.999679,1302.362347,1998.556043,8290.306550
1165.999995,766.095498,1332.370696,9474.636058
1166.000311,1455.581446,-0.000000,9992.780217
1166.000627,1532.190996,888.247130,9770.718434
1166.000943,1532.190996,888.247130,9178.553681
1166.001258,689.485948,-148.041188,9474.636058
1166.001574,0.000000,-1776.494261,10288.862594
1166.001890,-306.438199,-1480.411884,10436.903782
1166.002206,-306.438199,-740.205942,11103.089130
1166.002522,-306.438199,-518.144159,10288.862594
1166.002838,-766.095498,-296.082377,10140.821405
1166.003153,-1532.190996,-814.226536,9770.718434
1166.003469,-536.266849,-888.247130,10436.903782
1166.003785,306.438199,-148.041188,10066.800811
1166.004101,612.876398,444.123565,8882.471304
1166.004417,76.609550,-148.041188,9474.636058
1166.004733,229.828649,-814.226536,9104.533087
1166.005048,0.000000,-888.247130,9178.553681
1166.005364,0.000000,-592.164754,9696.697840
1166.005680,0.000000,-740.205942,10288.862594
1166.005996,-76.609550,-962.267725,9474.636058
1166.006312,-766.095498,-444.123565,9548.656652
1166.006628,-689.485948,-888.247130,9696.697840
1166.006944,153.219100,-888.247130,9622.677246
1166.007259,766.095498,-0.000000,9178.553681
1166.007575,995.924147,-814.226536,8882.471304
1166.007891,1378.971896,-518.144159,8660.409521
1166.008207,689.485948,-740.205942,8290.306550
1166.008523,1149.143247,-814.226536,8660.409521
1166.008839,1378.971896,-148.041188,9178.553681
1166.009154,1532.190996,444.123565,8364.327145
1166.009470,459.657299,888.247130,8660.409521
1166.009786,-306.438199,-296.082377,8068.244768
1166.010102,-153.219100,-1628.453072,9474.636058
1166.010418,536.266849,-888.247130,10066.800811
1166.010734,-306.438199,-814.226536,9178.553681
1166.011049,-536.266849,-1036.288319,8956.491898
1166.011365,-766.095498,-1702.473667,9770.718434
1166.011681,-229.828649,-1036.288319,9770.718434
1166.011997,229.828649,-0.000000,9696.697840
1166.012313,1072.533697,-148.041188,8660.409521
1166.012629,0.000000,-518.144159,9400.615463
1166.012944,229.828649,-0.000000,8808.450710
1166.013260,766.095498,518.144159,9326.594869
1166.013576,1608.800546,1258.350101,9104.533087
1166.013892,1685.410096,1036.288319,8956.491898
1166.014208,995.924147,296.082377,8660.409521
1166.014524,153.219100,74.020594,9030.512492
1166.014840,536.266849,-592.164754,9770.718434
1166.015155,306.438199,-1110.308913,10584.944971
1166.015471,229.828649,-0.000000,10732.986159
1166.015787,-153.219100,-444.123565,10140.821405
1166.016103,-383.047749,-74.020594,10066.800811
1166.016419,-383.047749,-74.020594,9918.759623
1166.016735,153.219100,-148.041188,9992.780217
1166.017050,1532.190996,518.144159,9770.718434
1166.017366,842.705048,-222.061783,9326.594869
1166.017682,842.705048,-0.000000,9252.574275
1166.017998,1225.752797,-962.267725,9252.574275
1166.018314,1072.533697,-666.185348,9326.594869
1166.018630,1378.971896,370.102971,9696.697840
1166.018945,995.924147,666.185348,9178.553681
1166.019261,229.828649,814.226536,9030.512492
1166.019577,-612.876398,518.144159,9178.553681
1166.019893,-536.266849,-0.000000,10807.006753
1166.020209,612.876398,-0.000000,10140.821405
1166.020525,229.828649,-592.164754,9104.533087
1166.020840,-536.266849,-888.247130,9918.759623
1166.021156,-612.876398,-1924.535449,10584.944971
1166.021472,229.828649,-1258.350101,10584.944971
1166.021788,306.438199,444.123565,10066.800811
1166.022104,0.000000,1332.370696,8808.450710
1166.022420,383.047749,1110.308913,9400.615463
1166.022736,0.000000,666.185348,8808.450710
1166.023051,383.047749,296.082377,9844.739029
1166.023367,1378.971896,222.061783,10362.883188
1166.023683,1608.800546,-0.000000,9104.533087
1166.023999,995.924147,148.041188,8660.409521
1166.024315,459.657299,-370.102971,9252.574275
1166.024631,459.657299,-1850.514855,9622.677246
1166.024946,689.485948,-518.144159,10066.800811
1166.025262,0.000000,-518.144159,9548.656652
1166.025578,383.047749,-370.102971,10288.862594
1166.025894,-153.219100,-370.102971,8882.471304
1166.026210,-689.485948,-1184.329507,9548.656652
1166.026526,229.828649,-962.267725,10362.883188
1166.026841,1225.752797,-592.164754,8882.471304
1166.027157,766.095498,-0.000000,8290.306550
1166.027473,153.219100,-740.205942,9548.656652
1166.027789,153.219100,-1850.514855,9696.697840
1166.028105,689.485948,-444.123565,9104.533087
1166.028421,919.314598,740.205942,8586.388927
1166.028736,612.876398,-222.061783,9252.574275
1166.029052,-383.047749,-740.205942,9992.780217
1166.029368,-153.219100,-0.000000,8586.388927
1166.029684,153.219100,-518.144159,9548.656652
1166.030000,1149.143247,-296.082377,9474.636058
1166.030316,842.705048,-444.123565,9178.553681
1166.030632,919.314598,-74.020594,9030.512492
1166.030947,536.266849,-444.123565,9326.594869
1166.031263,842.705048,-814.226536,9770.718434
1166.031579,1072.533697,740.205942,9474.636058
1166.031895,1455.581446,1036.288319,8586.388927
1166.032211,1149.143247,592.164754,8586.388927
1166.032527,383.047749,370.102971,8808.450710
1166.032842,689.485948,-444.123565,9918.759623
1166.033158,1378.971896,-148.041188,9992.780217
1166.033474,1378.971896,222.061783,8956.491898
1166.033790,76.609550,-1036.288319,9178.553681
1166.034106,229.828649,-1406.391290,10362.883188
1166.034422,536.266849,-1258.350101,10362.883188
1166.034737,1149.143247,-0.000000,9400.615463
1166.035053,919.314598,-0.000000,9252.574275
1166.035369,766.095498,-148.041188,9696.697840
1166.035685,153.219100,-74.020594,9622.677246
1166.036001,383.047749,-814.226536,9548.656652
1166.036317,1225.752797,-0.000000,10066.800811
1166.036632,1762.019645,740.205942,9474.636058
1166.036948,766.095498,-0.000000,8586.388927
1166.037264,0.000000,-740.205942,9326.594869
1166.037580,76.609550,-2220.617826,10955.047942
1166.037896,306.438199,-1628.453072,10955.047942
1166.038211,0.000000,148.041188,9622.677246
1166.038527,153.219100,222.061783,9622.677246
1166.038843,-383.047749,-296.082377,9844.739029
1166.039159,-995.924147,-740.205942,10140.821405
1166.039474,766.095498,-296.082377,10584.944971
1166.039790,766.095498,-0.000000,8956.491898
1166.040106,612.876398,-592.164754,8956.491898
1166.040422,306.438199,-1184.329507,9992.780217
1166.040737,76.609550,-1998.556043,9770.718434
1166.041053,1072.533697,-1702.473667,10288.862594
1166.041369,1225.752797,296.082377,9178.553681
1166.041685,766.095498,592.164754,7920.203579
1166.042000,612.876398,296.082377,8734.430116
1166.042316,-383.047749,-518.144159,8734.430116
1166.042632,153.219100,-444.123565,9918.759623
1166.042948,536.266849,814.226536,9326.594869
1166.043263,383.047749,666.185348,8068.244768
1166.043579,0.000000,-370.102971,9178.553681
1166.043895,-229.828649,-1184.329507,9992.780217
1166.044210,0.000000,-1406.391290,9622.677246
1166.044526,306.438199,370.102971,9696.697840
1166.044842,0.000000,592.164754,9474.636058
1166.045158,-229.828649,296.082377,9696.697840
1166.045473,-459.657299,370.102971,9474.636058
1166.045789,229.828649,518.144159,9474.636058
1166.046105,1072.533697,1184.329507,9770.718434
1166.046421,1072.533697,1184.329507,9104.533087
1166.046736,919.314598,370.102971,8956.491898
1166.047052,766.095498,-592.164754,9770.718434
1166.047368,842.705048,-592.164754,9844.739029
1166.047684,1532.190996,444.123565,9474.636058
1166.047999,1225.752797,1184.329507,9030.512492
1166.048315,842.705048,444.123565,8734.430116
1166.048631,766.095498,518.144159,9474.636058
1166.048947,459.657299,-666.185348,10510.924376
1166.049262,919.314598,-0.000000,9622.677246
1166.049578,919.314598,370.102971,9030.512492
1166.049894,766.095498,-518.144159,9030.512492
1166.050210,76.609550,-1110.308913,9844.739029
1166.050525,153.219100,-1702.473667,10066.800811
1166.050841,153.219100,-1184.329507,10288.862594
1166.051157,612.876398,-0.000000,9400.615463
1166.051473,-153.219100,-222.061783,9104.533087
1166.051788,-689.485948,-296.082377,10066.800811
1166.052104,-612.876398,-666.185348,10362.883188
1166.052420,0.000000,444.123565,9326.594869
1166.052736,229.828649,1480.411884,8882.471304
1166.053051,0.000000,-518.144159,9030.512492
1166.053367,153.219100,-666.185348,9474.636058
1166.053683,-536.266849,-666.185348,9474.636058
1166.053998,-383.047749,-1184.329507,10066.800811
1166.054314,76.609550,-74.020594,9770.718434
1166.054630,0.000000,-0.000000,9548.656652
1166.054946,76.609550,370.102971,9918.759623
1166.055261,0.000000,666.185348,9474.636058
1166.055577,-383.047749,-0.000000,9104.533087
1166.055893,383.047749,-0.000000,9696.697840
1166.056209,766.095498,444.123565,9178.553681
1166.056524,919.314598,-0.000000,8364.327145
1166.056840,0.000000,-518.144159,9400.615463
1166.057156,306.438199,-1702.473667,10140.821405
1166.057472,995.924147,-888.247130,9548.656652
1166.057787,612.876398,-370.102971,8808.450710
1166.058103,0.000000,-592.164754,9548.656652
1166.058419,-229.828649,-1036.288319,10214.842000
1166.058735,-306.438199,-666.185348,9104.533087
1166.059050,383.047749,-0.000000,10066.800811
1166.059366,1225.752797,-148.041188,9400.615463
1166.059682,1225.752797,-0.000000,8290.306550
1166.059998,383.047749,-444.123565,9030.512492
1166.060313,229.828649,-1406.391290,9918.759623
1166.060629,689.485948,-1258.350101,10140.821405
1166.060945,1072.533697,148.041188,9622.677246
1166.061261,1072.533697,814.226536,8882.471304
1166.061576,153.219100,296.082377,8882.471304
1166.061892,0.000000,518.144159,8956.491898
1166.062208,383.047749,222.061783,9992.780217
1166.062524,995.924147,-0.000000,9918.759623
1166.062839,1378.971896,-222.061783,9622.677246
1166.063155,306.438199,-666.185348,9400.615463
1166.063471,0.000000,-1184.329507,9474.636058
1166.063786,842.705048,-888.247130,10510.924376
1166.064102,1455.581446,222.061783,9548.656652
1166.064418,1302.362347,370.102971,9104.533087
1166.064734,536.266849,518.144159,9178.553681
1166.065049,229.828649,444.123565,8586.388927
1166.065365,536.266849,-222.061783,9622.677246
1166.065681,1149.143247,222.061783,9696.697840
1166.065997,1608.800546,444.123565,8956.491898
1166.066312,766.095498,-74.020594,8438.347739
1166.066628,383.047749,-1332.370696,9770.718434
1166.066944,689.485948,-1776.494261,10510.924376
1166.067260,1378.971896,-740.205942,10288.862594
1166.067575,689.485948,74.020594,8956.491898
1166.067891,536.266849,296.082377,8956.491898
1166.068207,-153.219100,296.082377,8882.471304
1166.068523,-229.828649,-296.082377,9770.718434
1166.068838,229.828649,-0.000000,10881.027347
1166.069154,536.266849,74.020594,9474.636058
1166.069470,-153.219100,-0.000000,8734.430116
1166.069786,-536.266849,-1036.288319,9918.759623
1166.070101,0.000000,-1406.391290,10510.924376
1166.070417,1225.752797,-148.041188,9696.697840
1166.070733,842.705048,222.061783,8660.409521
1166.071049,229.828649,-222.061783,9844.739029
1166.071364,0.000000,-444.123565,10140.821405
1166.071680,-689.485948,-814.226536,9696.697840
1166.071996,153.219100,-370.102971,10288.862594
1166.072311,689.485948,370.102971,9474.636058
1166.072627,842.705048,296.082377,8734.430116
1166.072943,689.485948,-222.061783,9252.574275
