#time,accel_x,accel_y,accel_z
908.474096,-459.657299,444.123565,9400.615463
908.474412,-459.657299,518.144159,9252.574275
908.474729,-383.047749,666.185348,9400.615463
908.475045,-383.047749,814.226536,9326.594869
908.475361,-153.219100,1110.308913,9474.636058
908.475677,-76.609550,814.226536,9474.636058
908.475993,-229.828649,-0.000000,9474.636058
908.476309,-229.828649,592.164754,9474.636058
908.476625,0.000000,518.144159,9548.656652
908.476941,229.828649,518.144159,9474.636058
908.477257,306.438199,962.267725,9474.636058
908.477573,459.657299,962.267725,8956.491898
908.477889,842.705048,1036.288319,8956.491898
908.478206,766.095498,666.185348,9326.594869
908.478522,995.924147,1110.308913,9400.615463
908.478838,842.705048,814.226536,9474.636058
908.479154,689.485948,518.144159,9918.759623
908.479470,306.438199,444.123565,9992.780217
908.479786,153.219100,296.082377,9770.718434
908.480102,229.828649,370.102971,9474.636058
908.480418,0.000000,814.226536,9474.636058
908.480734,-306.438199,1110.308913,9178.553681
908.481050,-459.657299,1036.288319,8882.471304
908.481366,-459.657299,1184.329507,9326.594869
908.481683,-842.705048,1036.288319,9104.533087
908.481999,-1532.190996,444.123565,9178.553681
908.482315,-1455.581446,296.082377,9474.636058
908.482631,-1838.629195,-0.000000,9844.739029
908.482947,-1838.629195,-444.123565,9992.780217
908.483263,-2221.676944,-592.164754,10214.842000
908.483579,-2298.286494,-444.123565,9992.780217
908.483895,-2221.676944,-74.020594,10140.821405
908.484211,-1991.848295,-0.000000,9918.759623
908.484527,-1685.410096,666.185348,9622.677246
908.484843,-1532.190996,888.247130,9696.697840
908.485159,-1302.362347,1332.370696,9326.594869
908.485476,-1225.752797,1110.308913,8734.430116
908.485792,-919.314598,1110.308913,8734.430116
908.486108,-1072.533697,592.164754,8734.430116
908.486424,-842.705048,666.185348,8586.388927
908.486740,-1149.143247,888.247130,8882.471304
908.487056,-1072.533697,296.082377,9104.533087
908.487372,-1532.190996,-0.000000,9622.677246
908.487688,-1225.752797,-0.000000,9474.636058
908.488004,-1762.019645,-0.000000,9696.697840
908.488320,-1378.971896,-0.000000,10214.842000
908.488636,-1072.533697,-148.041188,9992.780217
908.488953,-766.095498,296.082377,10140.821405
908.489269,-306.438199,592.164754,9622.677246
908.489585,153.219100,814.226536,9474.636058
908.489901,229.828649,962.267725,9104.533087
908.490217,766.095498,1184.329507,8882.471304
908.490533,1072.533697,1850.514855,8734.430116
908.490849,1455.581446,1998.556043,8808.450710
908.491165,1608.800546,1702.473667,8586.388927
908.491481,1225.752797,1406.391290,9030.512492
908.491797,1685.410096,814.226536,9326.594869
908.492113,1149.143247,814.226536,9474.636058
908.492429,995.924147,592.164754,9696.697840
908.492746,842.705048,444.123565,9918.759623
908.493062,842.705048,444.123565,9696.697840
908.493378,689.485948,370.102971,10066.800811
908.493694,842.705048,666.185348,9918.759623
908.494010,689.485948,592.164754,9844.739029
908.494326,919.314598,444.123565,9770.718434
908.494642,1225.752797,666.185348,9992.780217
908.494958,1302.362347,370.102971,10066.800811
908.495274,1455.581446,592.164754,10066.800811
908.495590,1608.800546,296.082377,9844.739029
908.495906,1455.581446,222.061783,9918.759623
908.496223,1608.800546,-148.041188,9622.677246
908.496539,1608.800546,-0.000000,9918.759623
908.496855,1455.581446,-148.041188,9992.780217
908.497171,1532.190996,-148.041188,9992.780217
908.497487,1532.190996,-222.061783,9548.656652
908.497803,1302.362347,-296.082377,9770.718434
908.498119,1225.752797,-370.102971,9844.739029
908.498435,1378.971896,-518.144159,9474.636058
908.498751,1302.362347,-740.205942,9474.636058
908.499067,1302.362347,-592.164754,9178.553681
908.499383,919.314598,-740.205942,9326.594869
908.499699,459.657299,-666.185348,9474.636058
908.500015,153.219100,-814.226536,9548.656652
908.500331,0.000000,-888.247130,9696.697840
908.500647,0.000000,-1036.288319,9918.759623
908.500962,-459.657299,-1258.350101,9770.718434
908.501278,-689.485948,-1332.370696,10140.821405
908.501594,-689.485948,-1184.329507,9622.677246
908.501910,-459.657299,-1480.411884,9548.656652
908.502226,-306.438199,-1406.391290,9178.553681
908.502542,0.000000,-1480.411884,9030.512492
908.502858,153.219100,-1036.288319,8734.430116
908.503173,76.609550,-666.185348,8586.388927
908.503489,306.438199,-518.144159,8290.306550
908.503805,383.047749,-148.041188,8734.430116
908.504121,306.438199,-444.123565,8734.430116
908.504437,306.438199,-74.020594,8586.388927
908.504753,-153.219100,-518.144159,8660.409521
908.505069,-383.047749,-740.205942,9030.512492
908.505384,-229.828649,-1036.288319,9178.553681
908.505700,-76.609550,-1554.432478,9696.697840
908.506016,-612.876398,-1184.329507,9474.636058
908.506332,-766.095498,-1406.391290,9696.697840
908.506648,-766.095498,-1480.411884,9696.697840
908.506964,-536.266849,-1480.411884,9770.718434
908.507280,-229.828649,-888.247130,9696.697840
908.507596,0.000000,-888.247130,9252.574275
908.507911,76.609550,-592.164754,9104.533087
908.508227,612.876398,-148.041188,8660.409521
908.508543,919.314598,-0.000000,8660.409521
908.508859,995.924147,296.082377,8808.450710
908.509175,919.314598,-0.000000,8956.491898
908.509491,766.095498,-0.000000,9252.574275
908.509807,612.876398,-370.102971,9548.656652
908.510122,536.266849,-518.144159,9844.739029
908.510438,306.438199,-1184.329507,9992.780217
908.510754,459.657299,-814.226536,10288.862594
908.511070,536.266849,-666.185348,10362.883188
908.511386,766.095498,-518.144159,10214.842000
908.511702,1072.533697,-0.000000,10066.800811
908.512018,1149.143247,296.082377,9918.759623
908.512333,1532.190996,518.144159,9548.656652
908.512649,1762.019645,888.247130,9696.697840
908.512965,1991.848295,1184.329507,9400.615463
908.513281,1915.238745,962.267725,9252.574275
908.513597,1762.019645,1184.329507,9400.615463
908.513913,2145.067394,962.267725,9400.615463
908.514229,1532.190996,814.226536,9474.636058
908.514544,1685.410096,740.205942,9770.718434
908.514860,1378.971896,666.185348,9992.780217
908.515176,1302.362347,592.164754,10140.821405
908.515492,1378.971896,370.102971,10066.800811
908.515808,1225.752797,370.102971,9992.780217
908.516124,1225.752797,740.205942,9844.739029
908.516440,1149.143247,888.247130,9770.718434
908.516755,842.705048,962.267725,9252.574275
908.517071,919.314598,1110.308913,9400.615463
908.517387,766.095498,1332.370696,9252.574275
908.517703,459.657299,1332.370696,9178.553681
908.518019,76.609550,1110.308913,9326.594869
908.518335,-76.609550,740.205942,9474.636058
908.518651,-459.657299,222.061783,9844.739029
908.518966,-842.705048,-74.020594,9844.739029
908.519282,-919.314598,-370.102971,10066.800811
908.519598,-459.657299,-518.144159,10288.862594
908.519914,-1378.971896,-518.144159,10214.842000
908.520230,-995.924147,-148.041188,10140.821405
908.520546,-995.924147,-296.082377,9992.780217
908.520862,-842.705048,-0.000000,9548.656652
908.521178,-306.438199,-0.000000,9474.636058
908.521493,0.000000,148.041188,9104.533087
908.521809,0.000000,-0.000000,8956.491898
908.522125,0.000000,296.082377,8882.471304
908.522441,0.000000,-74.020594,9030.512492
908.522757,0.000000,-444.123565,8808.450710
908.523073,0.000000,-370.102971,9252.574275
908.523389,-229.828649,-740.205942,9326.594869
908.523704,-306.438199,-1110.308913,9474.636058
908.524020,-536.266849,-1184.329507,9992.780217
908.524336,-536.266849,-1184.329507,9918.759623
908.524652,0.000000,-1184.329507,9770.718434
908.524968,0.000000,-1036.288319,9474.636058
908.525284,76.609550,-666.185348,9178.553681
908.525600,995.924147,-740.205942,9104.533087
908.525915,995.924147,-518.144159,8660.409521
908.526231,689.485948,-148.041188,8734.430116
908.526547,1072.533697,-0.000000,8660.409521
908.526863,1149.143247,-222.061783,9030.512492
908.527179,1302.362347,-370.102971,9030.512492
908.527495,919.314598,-518.144159,9326.594869
908.527811,689.485948,-592.164754,9474.636058
908.528126,842.705048,-962.267725,9474.636058
908.528442,612.876398,-1184.329507,9622.677246
908.528758,689.485948,-740.205942,9474.636058
908.529074,689.485948,-962.267725,9622.677246
908.529390,842.705048,-740.205942,9622.677246
908.529706,919.314598,-518.144159,9474.636058
908.530022,995.924147,-444.123565,9104.533087
908.530337,995.924147,-444.123565,9326.594869
908.530653,1302.362347,-148.041188,9252.574275
908.530969,1149.143247,-518.144159,9178.553681
908.531285,1608.800546,-592.164754,8956.491898
908.531601,995.924147,-666.185348,9326.594869
908.531917,995.924147,-740.205942,9622.677246
908.532233,919.314598,-814.226536,9548.656652
908.532549,919.314598,-888.247130,9844.739029
908.532864,383.047749,-962.267725,10288.862594
908.533180,229.828649,-888.247130,10140.821405
908.533496,459.657299,-666.185348,10140.821405
908.533812,306.438199,-666.185348,9844.739029
908.534128,459.657299,-296.082377,9252.574275
908.534444,919.314598,-74.020594,9326.594869
908.534760,766.095498,-0.000000,8956.491898
908.535075,689.485948,148.041188,9104.533087
908.535391,536.266849,296.082377,9104.533087
908.535707,153.219100,-74.020594,9252.574275
908.536023,-229.828649,-74.020594,9548.656652
908.536339,-383.047749,-222.061783,9844.739029
908.536655,-689.485948,-74.020594,10140.821405
908.536971,-612.876398,-0.000000,9918.759623
908.537286,-842.705048,-0.000000,9992.780217
908.537602,-766.095498,296.082377,9992.780217
908.537918,-383.047749,296.082377,9918.759623
908.538234,-766.095498,666.185348,9918.759623
908.538550,-459.657299,740.205942,9622.677246
908.538866,153.219100,814.226536,9548.656652
908.539182,0.000000,1184.329507,9326.594869
908.539497,229.828649,1258.350101,9252.574275
908.539813,383.047749,1258.350101,8956.491898
908.540129,459.657299,962.267725,8882.471304
908.540445,459.657299,814.226536,9178.553681
908.540761,536.266849,666.185348,9696.697840
908.541077,153.219100,148.041188,9474.636058
908.541393,0.000000,148.041188,9844.739029
908.541708,0.000000,-74.020594,9770.718434
908.542024,-306.438199,-148.041188,9696.697840
908.542340,-306.438199,-0.000000,10066.800811
908.542656,-306.438199,-148.041188,9770.718434
908.542972,0.000000,-0.000000,9474.636058
908.543288,306.438199,148.041188,9326.594869
908.543604,842.705048,296.082377,9178.553681
908.543920,919.314598,-0.000000,9178.553681
908.544235,612.876398,296.082377,9104.533087
908.544551,766.095498,148.041188,9178.553681
908.544867,842.705048,-0.000000,9474.636058
908.545183,612.876398,-0.000000,9548.656652
908.545499,229.828649,-296.082377,9918.759623
908.545815,229.828649,-814.226536,9696.697840
908.546131,536.266849,-592.164754,9918.759623
908.546446,612.876398,-888.247130,9474.636058
908.546762,612.876398,-592.164754,9844.739029
908.547078,612.876398,-518.144159,9844.739029
908.547394,919.314598,-370.102971,9474.636058
908.547710,1072.533697,-222.061783,9548.656652
908.548026,1072.533697,-148.041188,9326.594869
908.548342,1378.971896,-0.000000,9326.594869
908.548657,1378.971896,-0.000000,9326.594869
908.548973,1225.752797,-148.041188,9252.574275
908.549289,1225.752797,-296.082377,9030.512492
908.549605,919.314598,-592.164754,9474.636058
908.549921,919.314598,-1036.288319,9474.636058
908.550237,689.485948,-888.247130,9696.697840
908.550553,536.266849,-962.267725,9696.697840
908.550868,306.438199,-962.267725,9844.739029
908.551184,689.485948,-814.226536,9696.697840
908.551500,842.705048,-666.185348,9474.636058
908.551816,1149.143247,-370.102971,9400.615463
908.552132,842.705048,-148.041188,9400.615463
908.552448,1302.362347,-148.041188,8808.450710
908.552764,919.314598,-74.020594,8808.450710
908.553079,842.705048,-0.000000,9030.512492
908.553395,229.828649,-74.020594,9178.553681
908.553711,229.828649,-296.082377,9400.615463
908.554027,-229.828649,-666.185348,9548.656652
908.554343,-383.047749,-666.185348,9696.697840
908.554659,-383.047749,-814.226536,9844.739029
908.554975,-536.266849,-962.267725,9992.780217
908.555290,-383.047749,-814.226536,9844.739029
908.555606,-536.266849,-888.247130,9696.697840
908.555922,-229.828649,-666.185348,9696.697840
908.556238,0.000000,-296.082377,9030.512492
908.556554,0.000000,-148.041188,9178.553681
908.556870,383.047749,-222.061783,8882.471304
908.557186,459.657299,-0.000000,9030.512492
908.557502,766.095498,-0.000000,8660.409521
908.557817,842.705048,-0.000000,8882.471304
908.558133,459.657299,-74.020594,9178.553681
908.558449,383.047749,-444.123565,9252.574275
908.558765,383.047749,-518.144159,9474.636058
908.559081,153.219100,-666.185348,9770.718434
908.559397,-229.828649,-740.205942,9844.739029
908.559713,0.000000,-666.185348,10066.800811
908.560028,76.609550,-518.144159,10066.800811
908.560344,0.000000,-296.082377,9622.677246
908.560660,459.657299,-222.061783,9474.636058
908.560976,383.047749,-148.041188,9326.594869
908.561292,995.924147,74.020594,9252.574275
908.561608,995.924147,444.123565,9252.574275
908.561924,919.314598,592.164754,8956.491898
908.562239,1302.362347,518.144159,9030.512492
908.562555,1072.533697,370.102971,9400.615463
908.562871,919.314598,222.061783,9548.656652
908.563187,842.705048,-0.000000,9548.656652
908.563503,766.095498,-0.000000,9696.697840
908.563819,919.314598,-74.020594,9770.718434
908.564135,1302.362347,-370.102971,9992.780217
908.564450,536.266849,-0.000000,9622.677246
908.564766,689.485948,-0.000000,9844.739029
908.565082,842.705048,-0.000000,9622.677246
908.565398,842.705048,-0.000000,9474.636058
908.565714,1072.533697,-0.000000,8734.430116
908.566030,842.705048,148.041188,9178.553681
908.566346,1072.533697,296.082377,9252.574275
908.566661,919.314598,222.061783,9030.512492
908.566977,919.314598,296.082377,9474.636058
908.567293,153.219100,-74.020594,9844.739029
908.567609,383.047749,-148.041188,9844.739029
908.567925,229.828649,-296.082377,9696.697840
908.568241,0.000000,-444.123565,9844.739029
908.568557,229.828649,-444.123565,9992.780217
908.568873,306.438199,-296.082377,10140.821405
908.569188,229.828649,-222.061783,9474.636058
908.569504,306.438199,-0.000000,9400.615463
908.569820,383.047749,-0.000000,9178.553681
908.570136,306.438199,296.082377,9400.615463
908.570452,306.438199,-0.000000,9474.636058
908.570768,229.828649,296.082377,9030.512492
908.571084,0.000000,-0.000000,9030.512492
908.571399,-306.438199,-74.020594,9326.594869
908.571715,-306.438199,-518.144159,9474.636058
908.572031,-536.266849,-296.082377,9474.636058
908.572347,-459.657299,-296.082377,9548.656652
908.572663,-842.705048,-444.123565,9696.697840
908.572979,-689.485948,-666.185348,9770.718434
908.573295,-1302.362347,-666.185348,9844.739029
908.573610,-383.047749,-444.123565,9548.656652
908.573926,0.000000,-296.082377,9548.656652
908.574242,76.609550,-0.000000,9178.553681
908.574558,383.047749,-74.020594,9252.574275
908.574874,689.485948,-0.000000,9622.677246
908.575190,842.705048,222.061783,8956.491898
908.575506,766.095498,296.082377,9104.533087
908.575821,842.705048,222.061783,9104.533087
908.576137,536.266849,-222.061783,9252.574275
908.576453,919.314598,-444.123565,9400.615463
908.576769,459.657299,-518.144159,9696.697840
908.577085,306.438199,-592.164754,10066.800811
908.577401,306.438199,-592.164754,9918.759623
908.577717,766.095498,-740.205942,9918.759623
908.578032,612.876398,-518.144159,9844.739029
908.578348,612.876398,-222.061783,9474.636058
908.578664,995.924147,-296.082377,9400.615463
908.578980,1225.752797,-148.041188,9178.553681
908.579296,995.924147,148.041188,9400.615463
908.579612,766.095498,-74.020594,9178.553681
908.579928,766.095498,74.020594,9548.656652
908.580243,919.314598,-148.041188,9474.636058
908.580559,612.876398,-518.144159,9622.677246
908.580875,1149.143247,-666.185348,9770.718434
908.581191,536.266849,-666.185348,9622.677246
908.581507,459.657299,-518.144159,9622.677246
908.581823,459.657299,-666.185348,9770.718434
908.582139,612.876398,-518.144159,9844.739029
908.582455,1072.533697,-444.123565,9474.636058
908.582770,842.705048,-74.020594,9622.677246
908.583086,995.924147,148.041188,9252.574275
908.583402,842.705048,296.082377,9252.574275
908.583718,995.924147,148.041188,9104.533087
908.584034,766.095498,-0.000000,8956.491898
908.584350,919.314598,-0.000000,9104.533087
908.584666,689.485948,-0.000000,9252.574275
908.584981,383.047749,-222.061783,9548.656652
908.585297,306.438199,-444.123565,9770.718434
908.585613,76.609550,-444.123565,10140.821405
908.585929,0.000000,-592.164754,9918.759623
908.586245,0.000000,-518.144159,9992.780217
908.586561,0.000000,-370.102971,9622.677246
908.586877,153.219100,-148.041188,9548.656652
908.587192,76.609550,222.061783,9252.574275
908.587508,383.047749,296.082377,9030.512492
908.587824,306.438199,148.041188,8882.471304
908.588140,612.876398,444.123565,8290.306550
908.588456,0.000000,592.164754,8882.471304
908.588772,76.609550,592.164754,9030.512492
908.589088,-306.438199,296.082377,9178.553681
908.589403,0.000000,-0.000000,9548.656652
908.589719,-919.314598,-0.000000,9696.697840
908.590035,-766.095498,-296.082377,9770.718434
908.590351,-689.485948,-148.041188,9696.697840
908.590667,-842.705048,-296.082377,9844.739029
908.590983,-689.485948,-296.082377,9992.780217
908.591299,-229.828649,148.041188,10140.821405
908.591614,-383.047749,-0.000000,9548.656652
908.591930,0.000000,370.102971,9474.636058
908.592246,0.000000,296.082377,9252.574275
908.592562,689.485948,518.144159,9178.553681
908.592878,612.876398,370.102971,8882.471304
908.593194,766.095498,814.226536,9178.553681
908.593510,842.705048,444.123565,9030.512492
908.593826,459.657299,222.061783,9178.553681
908.594141,689.485948,-0.000000,9548.656652
908.594457,459.657299,-444.123565,9622.677246
908.594773,153.219100,-222.061783,9844.739029
908.595089,153.219100,-592.164754,10140.821405
908.595405,459.657299,-518.144159,10066.800811
908.595721,536.266849,-444.123565,9770.718434
908.596037,842.705048,-370.102971,9548.656652
908.596352,995.924147,-148.041188,9178.553681
908.596668,1072.533697,-148.041188,9252.574275
908.596984,1378.971896,148.041188,9400.615463
908.597300,1378.971896,-0.000000,9104.533087
908.597616,1608.800546,-222.061783,9400.615463
908.597932,1302.362347,-222.061783,9548.656652
908.598248,1149.143247,-296.082377,9474.636058
908.598563,919.314598,-740.205942,9622.677246
908.598879,995.924147,-666.185348,9770.718434
908.599195,536.266849,-1332.370696,9844.739029
908.599511,1149.143247,-592.164754,9918.759623
908.599827,1072.533697,-666.185348,9770.718434
908.600143,919.314598,-740.205942,9696.697840
908.600458,919.314598,-444.123565,9548.656652
908.600774,612.876398,-814.226536,9326.594869
908.601090,995.924147,-370.102971,9326.594869
908.601406,1762.019645,-296.082377,8956.491898
908.601722,1302.362347,-666.185348,9178.553681
908.602037,1149.143247,-444.123565,9178.553681
908.602353,995.924147,-666.185348,9474.636058
908.602669,842.705048,-962.267725,9474.636058
908.602985,536.266849,-962.267725,9548.656652
908.603300,612.876398,-888.247130,9696.697840
908.603616,229.828649,-1184.329507,9992.780217
908.603932,229.828649,-888.247130,9770.718434
908.604248,229.828649,-962.267725,9622.677246
908.604563,153.219100,-740.205942,9474.636058
908.604879,76.609550,-518.144159,9104.533087
908.605195,229.828649,-518.144159,9178.553681
908.605511,306.438199,-444.123565,8734.430116
908.605827,0.000000,-296.082377,8956.491898
908.606142,0.000000,-148.041188,8882.471304
908.606458,0.000000,-296.082377,9104.533087
908.606774,-306.438199,-222.061783,9400.615463
908.607090,-459.657299,-444.123565,9474.636058
908.607405,-689.485948,-370.102971,9474.636058
908.607721,-766.095498,-370.102971,9474.636058
908.608037,-612.876398,-444.123565,9622.677246
908.608353,-842.705048,-222.061783,9696.697840
908.608668,-842.705048,-148.041188,9770.718434
908.608984,-536.266849,-74.020594,9622.677246
908.609300,-153.219100,-0.000000,9252.574275
908.609616,0.000000,222.061783,9474.636058
908.609932,153.219100,370.102971,9252.574275
908.610247,536.266849,666.185348,9252.574275
908.610563,536.266849,370.102971,9104.533087
908.610879,612.876398,518.144159,8882.471304
908.611195,766.095498,370.102971,9252.574275
908.611510,306.438199,148.041188,9252.574275
908.611826,536.266849,-0.000000,9770.718434
908.612142,689.485948,148.041188,9622.677246
908.612458,229.828649,-0.000000,9696.697840
908.612773,383.047749,-296.082377,9696.697840
908.613089,842.705048,-222.061783,9770.718434
908.613405,766.095498,-0.000000,9696.697840
908.613721,1072.533697,444.123565,9696.697840
908.614037,1072.533697,296.082377,9474.636058
908.614352,995.924147,666.185348,9252.574275
908.614668,1608.800546,370.102971,9178.553681
908.614984,1455.581446,666.185348,9326.594869
908.615300,1072.533697,444.123565,9474.636058
908.615615,1225.752797,370.102971,9622.677246
908.615931,1378.971896,-222.061783,9918.759623
908.616247,995.924147,-148.041188,9770.718434
908.616563,919.314598,-74.020594,9918.759623
908.616878,842.705048,-74.020594,10066.800811
908.617194,766.095498,-148.041188,10214.842000
908.617510,766.095498,-74.020594,10066.800811
908.617826,919.314598,-0.000000,9992.780217
908.618142,842.705048,-74.020594,9622.677246
908.618457,919.314598,-74.020594,9474.636058
908.618773,1072.533697,-0.000000,9474.636058
908.619089,995.924147,-0.000000,9622.677246
908.619405,995.924147,-0.000000,9178.553681
908.619720,995.924147,-0.000000,9178.553681
908.620036,842.705048,-222.061783,9400.615463
908.620352,306.438199,-666.185348,9326.594869
908.620668,306.438199,-814.226536,9548.656652
908.620983,0.000000,-962.267725,9548.656652
908.621299,-153.219100,-888.247130,9844.739029
908.621615,0.000000,-740.205942,9696.697840
908.621931,0.000000,-740.205942,9548.656652
908.622247,0.000000,-518.144159,9474.636058
908.622562,153.219100,-444.123565,9178.553681
908.622878,229.828649,-222.061783,8882.471304
908.623194,229.828649,-0.000000,8660.409521
908.623510,383.047749,-74.020594,8734.430116
908.623825,76.609550,-0.000000,8660.409521
908.624141,76.609550,-0.000000,8808.450710
908.624457,-306.438199,-222.061783,8956.491898
908.624773,-766.095498,-666.185348,9326.594869
908.625088,-919.314598,-814.226536,9474.636058
908.625404,-1072.533697,-1110.308913,9400.615463
908.625720,-995.924147,-814.226536,9474.636058
908.626036,-842.705048,-962.267725,9474.636058
908.626352,-842.705048,-888.247130,9548.656652
908.626667,-919.314598,-666.185348,9548.656652
908.626983,-459.657299,-444.123565,9178.553681
908.627299,-306.438199,-222.061783,9178.553681
908.627615,153.219100,-0.000000,9030.512492
908.627930,229.828649,74.020594,8956.491898
908.628246,612.876398,370.102971,8660.409521
908.628562,689.485948,296.082377,8808.450710
908.628878,612.876398,296.082377,9030.512492
908.629193,536.266849,-0.000000,9252.574275
908.629509,459.657299,-518.144159,9696.697840
908.629825,306.438199,-296.082377,9770.718434
908.630141,0.000000,-296.082377,10288.862594
908.630457,229.828649,-592.164754,9992.780217
908.630772,306.438199,-444.123565,9992.780217
908.631088,1225.752797,-74.020594,9844.739029
908.631404,689.485948,-74.020594,9844.739029
908.631720,919.314598,74.020594,9622.677246
908.632035,1225.752797,148.041188,9474.636058
908.632351,1378.971896,148.041188,9252.574275
908.632667,1225.752797,370.102971,9400.615463
908.632983,1072.533697,444.123565,9548.656652
908.633298,1302.362347,222.061783,9770.718434
908.633614,842.705048,-222.061783,9696.697840
908.633930,689.485948,-0.000000,9770.718434
908.634246,842.705048,-148.041188,10140.821405
908.634562,689.485948,-370.102971,9992.780217
908.634877,766.095498,-296.082377,9844.739029
908.635193,842.705048,-222.061783,9992.780217
908.635509,919.314598,-74.020594,10066.800811
908.635825,919.314598,-74.020594,9770.718434
908.636140,842.705048,-0.000000,9548.656652
908.636456,1225.752797,296.082377,9622.677246
908.636772,1302.362347,-0.000000,9326.594869
908.637088,995.924147,-0.000000,9474.636058
908.637403,919.314598,-0.000000,8882.471304
908.637719,766.095498,-148.041188,9326.594869
908.638035,536.266849,-296.082377,9622.677246
908.638351,383.047749,-592.164754,9622.677246
908.638667,76.609550,-370.102971,10066.800811
908.638982,0.000000,-592.164754,9770.718434
908.639298,-76.609550,-666.185348,9918.759623
908.639614,0.000000,-592.164754,9548.656652
908.639930,306.438199,-518.144159,9474.636058
908.640245,153.219100,-222.061783,9400.615463
908.640561,0.000000,-0.000000,9104.533087
908.640877,76.609550,-148.041188,8734.430116
908.641193,0.000000,-0.000000,8808.450710
908.641508,-383.047749,-0.000000,8956.491898
908.641824,-306.438199,-0.000000,9030.512492
908.642140,-612.876398,-74.020594,9030.512492
908.642456,-612.876398,-222.061783,9400.615463
908.642772,-689.485948,-518.144159,9400.615463
908.643087,-766.095498,-296.082377,9474.636058
908.643403,-995.924147,-518.144159,9548.656652
908.643719,-919.314598,-518.144159,9548.656652
908.644035,-842.705048,-666.185348,9474.636058
908.644350,-842.705048,-444.123565,9474.636058
908.644666,-612.876398,-370.102971,9548.656652
908.644982,-383.047749,-74.020594,9252.574275
908.645298,153.219100,-0.000000,9104.533087
908.645613,383.047749,-0.000000,8956.491898
908.645929,536.266849,-0.000000,8956.491898
908.646245,612.876398,296.082377,9030.512492
908.646561,842.705048,-0.000000,9178.553681
908.646877,766.095498,-370.102971,9178.553681
908.647192,536.266849,-296.082377,9400.615463
908.647508,536.266849,-444.123565,9548.656652
908.647824,459.657299,-222.061783,9844.739029
908.648140,689.485948,-592.164754,10066.800811
908.648455,919.314598,-592.164754,9992.780217
908.648771,1072.533697,-370.102971,9770.718434
908.649087,1149.143247,-148.041188,9474.636058
908.649403,1455.581446,-222.061783,9400.615463
908.649718,1225.752797,-0.000000,9548.656652
908.650034,1378.971896,-0.000000,9400.615463
908.650350,1455.581446,222.061783,9400.615463
908.650666,1378.971896,-0.000000,9400.615463
908.650982,1149.143247,-0.000000,9844.739029
908.651297,995.924147,-370.102971,9918.759623
908.651613,1149.143247,-592.164754,9918.759623
908.651929,842.705048,-592.164754,9992.780217
908.652245,766.095498,-814.226536,9696.697840
908.652560,919.314598,-1258.350101,10214.842000
908.652876,1072.533697,-444.123565,10066.800811
908.653192,1149.143247,-0.000000,9844.739029
908.653508,919.314598,-74.020594,9918.759623
908.653823,1225.752797,-0.000000,9622.677246
908.654139,1302.362347,-0.000000,9474.636058
908.654455,1149.143247,-0.000000,9104.533087
908.654771,1302.362347,-0.000000,9104.533087
908.655087,842.705048,-0.000000,9178.553681
908.655402,842.705048,-370.102971,9326.594869
908.655718,689.485948,-518.144159,9474.636058
908.656034,383.047749,-740.205942,9622.677246
908.656350,229.828649,-962.267725,9918.759623
908.656665,76.609550,-518.144159,9844.739029
908.656981,306.438199,-592.164754,9474.636058
908.657297,76.609550,-666.185348,9622.677246
908.657613,0.000000,-370.102971,9400.615463
908.657928,76.609550,-148.041188,9178.553681
908.658244,76.609550,-0.000000,8882.471304
908.658560,306.438199,-74.020594,8660.409521
908.658876,0.000000,-0.000000,8808.450710
908.659192,76.609550,444.123565,8882.471304
908.659507,0.000000,-74.020594,8956.491898
908.659823,-536.266849,-0.000000,9178.553681
908.660139,-383.047749,-296.082377,9178.553681
908.660455,-842.705048,-370.102971,9474.636058
908.660770,-1149.143247,-370.102971,9474.636058
908.661086,-1149.143247,-296.082377,9622.677246
908.661402,-383.047749,-518.144159,9474.636058
908.661718,-689.485948,-518.144159,9622.677246
908.662033,-459.657299,-74.020594,9474.636058
908.662349,-612.876398,-0.000000,9104.533087
908.662665,0.000000,222.061783,9178.553681
908.662981,-229.828649,444.123565,9030.512492
908.663297,153.219100,666.185348,8956.491898
908.663612,766.095498,814.226536,8734.430116
908.663928,383.047749,666.185348,8882.471304
908.664244,153.219100,444.123565,9030.512492
908.664560,459.657299,296.082377,9178.553681
908.664875,306.438199,222.061783,9622.677246
908.665191,229.828649,-0.000000,9474.636058
908.665507,76.609550,-222.061783,9992.780217
908.665823,306.438199,-296.082377,10066.800811
908.666138,536.266849,-296.082377,10288.862594
908.666454,612.876398,-0.000000,9992.780217
908.666770,766.095498,222.061783,9696.697840
908.667086,995.924147,148.041188,9622.677246
908.667402,1378.971896,370.102971,9400.615463
908.667717,1685.410096,592.164754,9622.677246
908.668033,1762.019645,592.164754,9400.615463
908.668349,1838.629195,296.082377,9326.594869
908.668665,1378.971896,370.102971,9844.739029
908.668980,1302.362347,-0.000000,9844.739029
908.669296,1149.143247,-222.061783,9992.780217
908.669612,995.924147,-370.102971,9992.780217
908.669928,1072.533697,-296.082377,10288.862594
908.670243,842.705048,-296.082377,10140.821405
908.670559,1378.971896,-518.144159,10510.924376
908.670875,1378.971896,-74.020594,9992.780217
908.671191,1225.752797,-222.061783,9770.718434
908.671506,1302.362347,-74.020594,9696.697840
908.671822,1302.362347,-0.000000,9474.636058
908.672138,1072.533697,-74.020594,9548.656652
908.672454,1072.533697,-0.000000,9400.615463
908.672770,995.924147,-74.020594,9326.594869
908.673085,995.924147,-296.082377,9548.656652
908.673401,1225.752797,-888.247130,9622.677246
908.673717,766.095498,-1036.288319,9622.677246
908.674033,229.828649,-814.226536,9548.656652
908.674348,0.000000,-814.226536,9918.759623
908.674664,383.047749,-962.267725,9770.718434
908.674980,76.609550,-888.247130,9622.677246
908.675296,229.828649,-740.205942,9474.636058
908.675611,153.219100,-518.144159,8882.471304
908.675927,0.000000,-370.102971,8882.471304
908.676243,153.219100,-518.144159,8660.409521
908.676559,0.000000,-592.164754,8660.409521
908.676875,-229.828649,-222.061783,8734.430116
908.677190,-153.219100,-370.102971,8956.491898
908.677506,-459.657299,-444.123565,9178.553681
908.677822,-612.876398,-592.164754,9104.533087
908.678138,-919.314598,-1258.350101,9252.574275
908.678453,-1608.800546,-1036.288319,9252.574275
908.678769,-766.095498,-592.164754,9400.615463
908.679085,-842.705048,-592.164754,9474.636058
908.679401,-842.705048,-592.164754,9400.615463
908.679716,-842.705048,-296.082377,9474.636058
908.680032,-459.657299,-222.061783,9178.553681
908.680348,0.000000,-0.000000,9178.553681
908.680664,0.000000,-74.020594,8882.471304
908.680980,153.219100,-0.000000,8956.491898
908.681295,766.095498,-0.000000,9030.512492
908.681611,383.047749,74.020594,8882.471304
908.681927,459.657299,148.041188,9030.512492
908.682243,842.705048,-0.000000,9252.574275
908.682558,536.266849,-222.061783,9400.615463
908.682874,383.047749,-370.102971,10066.800811
908.683190,229.828649,-444.123565,9622.677246
908.683506,306.438199,-222.061783,9992.780217
908.683821,766.095498,-444.123565,10066.800811
908.684137,842.705048,-296.082377,9844.739029
908.684453,1225.752797,-592.164754,9474.636058
908.684769,1072.533697,-0.000000,9400.615463
908.685085,1302.362347,370.102971,9622.677246
908.685400,1072.533697,444.123565,9696.697840
908.685716,1072.533697,518.144159,9474.636058
908.686032,995.924147,-0.000000,9696.697840
908.686348,1072.533697,-0.000000,9770.718434
908.686663,919.314598,-0.000000,9992.780217
908.686979,919.314598,-148.041188,10140.821405
908.687295,689.485948,296.082377,10140.821405
908.687611,612.876398,-0.000000,10658.965565
908.687926,919.314598,-444.123565,10214.842000
908.688242,766.095498,-74.020594,10288.862594
908.688558,1072.533697,-0.000000,9918.759623
908.688874,1072.533697,222.061783,9696.697840
908.689190,1149.143247,370.102971,9474.636058
908.689505,1072.533697,296.082377,9474.636058
908.689821,1149.143247,444.123565,9474.636058
908.690137,1149.143247,296.082377,9326.594869
908.690453,1072.533697,148.041188,9474.636058
908.690768,995.924147,-74.020594,9696.697840
908.691084,766.095498,-222.061783,9474.636058
908.691400,383.047749,-740.205942,9992.780217
908.691716,76.609550,-518.144159,9992.780217
908.692031,0.000000,-592.164754,9844.739029
908.692347,229.828649,-1184.329507,9992.780217
908.692663,229.828649,-592.164754,9622.677246
908.692979,306.438199,-296.082377,9400.615463
908.693295,306.438199,-0.000000,9252.574275
908.693610,383.047749,-148.041188,8956.491898
908.693926,383.047749,-0.000000,8956.491898
908.694242,383.047749,-74.020594,8438.347739
908.694558,153.219100,-0.000000,8512.368333
908.694873,76.609550,-0.000000,8734.430116
908.695189,0.000000,-74.020594,8956.491898
908.695505,-306.438199,-444.123565,9104.533087
908.695821,-689.485948,-592.164754,9326.594869
908.696136,-842.705048,-740.205942,9474.636058
908.696452,-842.705048,-740.205942,9548.656652
908.696768,-842.705048,-814.226536,9474.636058
908.697084,-995.924147,-962.267725,9400.615463
908.697400,-689.485948,-518.144159,9474.636058
908.697715,-383.047749,-444.123565,9326.594869
908.698031,-153.219100,-222.061783,8882.471304
908.698347,153.219100,-148.041188,8882.471304
908.698663,0.000000,-0.000000,9104.533087
908.698978,536.266849,-0.000000,8586.388927
908.699294,612.876398,-0.000000,8660.409521
908.699610,536.266849,-0.000000,8734.430116
908.699926,766.095498,-74.020594,9400.615463
908.700241,459.657299,-222.061783,9696.697840
908.700557,536.266849,-296.082377,9770.718434
908.700873,306.438199,-592.164754,9548.656652
908.701189,0.000000,-666.185348,9844.739029
908.701504,459.657299,-592.164754,9844.739029
908.701820,842.705048,-592.164754,9844.739029
908.702136,995.924147,-148.041188,9548.656652
908.702452,1072.533697,-74.020594,9548.656652
908.702767,1455.581446,-0.000000,9178.553681
908.703083,1455.581446,444.123565,9400.615463
908.703399,1378.971896,370.102971,9548.656652
908.703714,1685.410096,-0.000000,9474.636058
908.704030,1072.533697,-0.000000,9548.656652
908.704346,1072.533697,-296.082377,9696.697840
908.704662,1072.533697,-222.061783,9992.780217
908.704977,1302.362347,-370.102971,10214.842000
908.705293,766.095498,-370.102971,9844.739029
908.705609,766.095498,-592.164754,10288.862594
908.705924,766.095498,-370.102971,10066.800811
908.706240,919.314598,-148.041188,10066.800811
908.706556,995.924147,-148.041188,9992.780217
908.706872,995.924147,-0.000000,9770.718434
908.707187,1072.533697,74.020594,9474.636058
908.707503,1225.752797,148.041188,9474.636058
908.707819,1378.971896,-0.000000,9400.615463
908.708134,1072.533697,-0.000000,9326.594869
908.708450,919.314598,-0.000000,9474.636058
908.708766,919.314598,-296.082377,9696.697840
908.709082,536.266849,-370.102971,9844.739029
908.709397,383.047749,-444.123565,9992.780217
908.709713,153.219100,-222.061783,9844.739029
908.710029,229.828649,-444.123565,9696.697840
908.710344,0.000000,-296.082377,9918.759623
908.710660,76.609550,-0.000000,9474.636058
908.710976,383.047749,-0.000000,8956.491898
908.711292,153.219100,-74.020594,9178.553681
908.711607,229.828649,222.061783,8882.471304
908.711923,76.609550,296.082377,8882.471304
908.712239,536.266849,296.082377,8956.491898
908.712554,153.219100,-222.061783,8882.471304
908.712870,0.000000,-0.000000,9030.512492
908.713186,-536.266849,-222.061783,9178.553681
908.713501,-766.095498,-296.082377,9252.574275
908.713817,-689.485948,-148.041188,9400.615463
908.714133,-919.314598,-148.041188,9474.636058
908.714449,-766.095498,-370.102971,9474.636058
908.714764,-766.095498,-518.144159,9400.615463
908.715080,-766.095498,-74.020594,9400.615463
908.715396,-919.314598,-0.000000,9326.594869
908.715711,-153.219100,-74.020594,9104.533087
908.716027,229.828649,-0.000000,8808.450710
908.716343,76.609550,370.102971,8956.491898
908.716659,689.485948,296.082377,8808.450710
908.716974,536.266849,296.082377,8808.450710
908.717290,689.485948,-0.000000,9030.512492
908.717606,766.095498,-0.000000,9104.533087
908.717921,536.266849,-148.041188,9548.656652
908.718237,612.876398,-296.082377,9548.656652
908.718553,229.828649,-666.185348,9400.615463
908.718869,306.438199,-666.185348,9918.759623
908.719184,612.876398,-518.144159,9918.759623
908.719500,842.705048,-592.164754,9844.739029
908.719816,1072.533697,-0.000000,9548.656652
908.720131,689.485948,-222.061783,9770.718434
908.720447,1225.752797,-0.000000,9326.594869
908.720763,1378.971896,296.082377,9474.636058
908.721079,1378.971896,370.102971,9400.615463
908.721394,1378.971896,-0.000000,9474.636058
908.721710,1149.143247,-74.020594,9696.697840
908.722026,919.314598,-222.061783,9844.739029
908.722341,612.876398,-518.144159,9992.780217
908.722657,766.095498,-518.144159,10214.842000
908.722973,766.095498,-592.164754,10214.842000
908.723289,689.485948,-1036.288319,10140.821405
908.723604,842.705048,-444.123565,10214.842000
908.723920,1072.533697,-296.082377,9992.780217
908.724236,842.705048,-148.041188,9770.718434
908.724551,1072.533697,-148.041188,9548.656652
908.724867,1302.362347,-74.020594,9548.656652
908.725183,995.924147,-0.000000,9548.656652
908.725498,1072.533697,-0.000000,9622.677246
908.725814,1225.752797,-74.020594,9326.594869
908.726130,689.485948,-222.061783,9474.636058
908.726446,689.485948,-666.185348,9696.697840
908.726761,459.657299,-888.247130,9696.697840
908.727077,229.828649,-740.205942,9770.718434
908.727393,153.219100,-666.185348,9844.739029
908.727708,-229.828649,-1036.288319,10066.800811
908.728024,0.000000,-888.247130,9696.697840
908.728340,383.047749,-296.082377,9474.636058
908.728656,459.657299,-370.102971,9030.512492
908.728971,306.438199,-148.041188,8808.450710
908.729287,153.219100,-222.061783,8660.409521
908.729603,229.828649,-0.000000,8660.409521
908.729918,153.219100,-0.000000,8734.430116
908.730234,0.000000,-0.000000,8734.430116
908.730550,-306.438199,-222.061783,9104.533087
908.730866,-306.438199,-666.185348,9104.533087
908.731181,-995.924147,-592.164754,9548.656652
908.731497,-842.705048,-814.226536,9326.594869
908.731813,-1149.143247,-1036.288319,9474.636058
908.732128,-995.924147,-888.247130,9400.615463
908.732444,-1302.362347,-962.267725,9474.636058
908.732760,-689.485948,-740.205942,9252.574275
908.733076,-459.657299,-296.082377,9030.512492
908.733391,0.000000,-0.000000,8956.491898
908.733707,-76.609550,-0.000000,8956.491898
908.734023,153.219100,444.123565,8512.368333
908.734338,612.876398,518.144159,8586.388927
908.734654,842.705048,592.164754,8586.388927
908.734970,306.438199,296.082377,8660.409521
908.735286,766.095498,296.082377,9104.533087
908.735601,612.876398,-0.000000,9400.615463
908.735917,306.438199,-74.020594,9474.636058
908.736233,76.609550,-222.061783,9696.697840
908.736548,76.609550,-370.102971,9992.780217
908.736864,306.438199,-296.082377,9992.780217
908.737180,459.657299,-74.020594,9696.697840
908.737495,459.657299,-0.000000,9548.656652
908.737811,1072.533697,444.123565,9474.636058
908.738127,1838.629195,370.102971,9474.636058
908.738443,1225.752797,592.164754,9252.574275
908.738758,1378.971896,370.102971,9400.615463
908.739074,1225.752797,370.102971,9696.697840
908.739390,1302.362347,-0.000000,9844.739029
908.739705,1225.752797,-74.020594,9474.636058
908.740021,995.924147,-74.020594,10066.800811
908.740337,766.095498,-296.082377,10066.800811
908.740653,919.314598,-296.082377,10214.842000
908.740968,919.314598,-222.061783,9992.780217
908.741284,1072.533697,-444.123565,10288.862594
908.741600,995.924147,-0.000000,10066.800811
908.741915,995.924147,-74.020594,9696.697840
908.742231,1072.533697,-0.000000,9918.759623
908.742547,1302.362347,-0.000000,9844.739029
908.742863,995.924147,444.123565,9918.759623
908.743178,995.924147,-0.000000,9548.656652
908.743494,1149.143247,-0.000000,9474.636058
908.743810,766.095498,-0.000000,9548.656652
908.744125,842.705048,-444.123565,9844.739029
908.744441,229.828649,-296.082377,9918.759623
908.744757,229.828649,-666.185348,9992.780217
908.745073,153.219100,-592.164754,10066.800811
908.745388,153.219100,-740.205942,9844.739029
908.745704,153.219100,-814.226536,9696.697840
908.746020,76.609550,-592.164754,9474.636058
908.746335,0.000000,-444.123565,9400.615463
908.746651,229.828649,-370.102971,8882.471304
908.746967,306.438199,-222.061783,9030.512492
908.747283,383.047749,-148.041188,8956.491898
908.747598,-306.438199,-74.020594,8660.409521
908.747914,0.000000,-444.123565,8956.491898
908.748230,0.000000,-444.123565,8956.491898
908.748545,-383.047749,-444.123565,9326.594869
908.748861,-306.438199,-1036.288319,9400.615463
908.749177,-1072.533697,-666.185348,9400.615463
908.749492,-766.095498,-592.164754,9474.636058
908.749808,-766.095498,-740.205942,9252.574275
908.750124,-766.095498,-518.144159,9252.574275
908.750440,-536.266849,-518.144159,9178.553681
908.750755,-153.219100,-148.041188,9252.574275
908.751071,-229.828649,-518.144159,8956.491898
908.751387,153.219100,-296.082377,8660.409521
908.751702,306.438199,-0.000000,8734.430116
908.752018,536.266849,-148.041188,9030.512492
908.752334,612.876398,-0.000000,8586.388927
908.752650,612.876398,-74.020594,8956.491898
908.752965,383.047749,-148.041188,9104.533087
908.753281,536.266849,-296.082377,9252.574275
908.753597,459.657299,-0.000000,9622.677246
908.753912,919.314598,-370.102971,9770.718434
908.754228,612.876398,-370.102971,9770.718434
908.754544,612.876398,-296.082377,9770.718434
908.754860,689.485948,-148.041188,9622.677246
908.755175,919.314598,-74.020594,9622.677246
908.755491,1455.581446,148.041188,9326.594869
908.755807,1532.190996,-0.000000,9474.636058
908.756122,1532.190996,444.123565,9252.574275
908.756438,1149.143247,518.144159,9400.615463
908.756754,1838.629195,-0.000000,9696.697840
908.757070,1378.971896,296.082377,9992.780217
908.757385,1149.143247,-0.000000,9918.759623
908.757701,1072.533697,-148.041188,10140.821405
908.758017,842.705048,-444.123565,9992.780217
908.758332,689.485948,-444.123565,10140.821405
908.758648,689.485948,-222.061783,10288.862594
908.758964,842.705048,-148.041188,10288.862594
908.759280,842.705048,-148.041188,10066.800811
908.759595,1378.971896,-74.020594,10214.842000
908.759911,1072.533697,370.102971,10066.800811
908.760227,995.924147,370.102971,9770.718434
908.760542,1302.362347,592.164754,9474.636058
908.760858,995.924147,444.123565,9548.656652
908.761174,1302.362347,296.082377,9548.656652
908.761489,766.095498,-0.000000,9622.677246
908.761805,306.438199,-370.102971,9696.697840
908.762121,229.828649,-518.144159,9918.759623
908.762437,153.219100,-444.123565,9992.780217
908.762752,0.000000,-592.164754,10140.821405
908.763068,153.219100,-518.144159,10066.800811
908.763384,306.438199,-370.102971,9770.718434
908.763699,0.000000,-148.041188,9474.636058
908.764015,306.438199,-0.000000,9252.574275
908.764331,383.047749,-148.041188,9030.512492
908.764647,306.438199,-148.041188,8956.491898
908.764962,0.000000,148.041188,8808.450710
908.765278,76.609550,-0.000000,8734.430116
908.765594,0.000000,-0.000000,8808.450710
908.765909,-306.438199,-296.082377,9030.512492
908.766225,-612.876398,-592.164754,9474.636058
908.766541,-612.876398,-518.144159,9178.553681
908.766857,-995.924147,-740.205942,9474.636058
908.767172,-995.924147,-666.185348,9474.636058
908.767488,-766.095498,-888.247130,9696.697840
908.767804,-842.705048,-888.247130,9400.615463
908.768119,-536.266849,-592.164754,9400.615463
908.768435,-306.438199,-296.082377,9178.553681
908.768751,306.438199,-148.041188,9030.512492
908.769067,536.266849,-0.000000,8808.450710
908.769382,766.095498,296.082377,8438.347739
908.769698,383.047749,148.041188,8586.388927
908.770014,842.705048,148.041188,8512.368333
908.770329,995.924147,-0.000000,8586.388927
908.770645,766.095498,-370.102971,9104.533087
908.770961,536.266849,-296.082377,9252.574275
908.771277,306.438199,-518.144159,9622.677246
908.771592,76.609550,-592.164754,9696.697840
908.771908,76.609550,-592.164754,10140.821405
908.772224,536.266849,-666.185348,9770.718434
908.772539,766.095498,-296.082377,9696.697840
908.772855,689.485948,-222.061783,9474.636058
908.773171,919.314598,-148.041188,9326.594869
908.773486,1455.581446,-444.123565,9178.553681
908.773802,1455.581446,222.061783,8956.491898
908.774118,1532.190996,370.102971,9252.574275
908.774434,1455.581446,148.041188,9400.615463
908.774749,1225.752797,-74.020594,9622.677246
908.775065,842.705048,-74.020594,9992.780217
908.775381,919.314598,-444.123565,9992.780217
908.775696,612.876398,-148.041188,9992.780217
908.776012,995.924147,-148.041188,10066.800811
908.776328,766.095498,-370.102971,10066.800811
908.776644,842.705048,-518.144159,9992.780217
908.776959,995.924147,-222.061783,9992.780217
908.777275,919.314598,-0.000000,9918.759623
908.777591,1149.143247,-0.000000,9992.780217
908.777906,1225.752797,-74.020594,9622.677246
908.778222,1149.143247,222.061783,9548.656652
908.778538,766.095498,148.041188,9918.759623
908.778854,1149.143247,-0.000000,9326.594869
908.779169,689.485948,-0.000000,9622.677246
908.779485,383.047749,-222.061783,9696.697840
908.779801,383.047749,-444.123565,9844.739029
908.780116,76.609550,-592.164754,10066.800811
908.780432,0.000000,-592.164754,9992.780217
908.780748,0.000000,-1036.288319,9918.759623
908.781064,153.219100,-592.164754,9770.718434
908.781379,306.438199,-222.061783,9548.656652
908.781695,76.609550,-222.061783,9178.553681
908.782011,153.219100,-296.082377,9030.512492
908.782326,0.000000,222.061783,8882.471304
908.782642,0.000000,370.102971,9030.512492
908.782958,0.000000,296.082377,8956.491898
908.783274,0.000000,-74.020594,9104.533087
908.783589,-612.876398,-0.000000,9178.553681
908.783905,0.000000,-370.102971,9326.594869
908.784221,-689.485948,-444.123565,9400.615463
908.784536,-995.924147,-592.164754,9326.594869
908.784852,-766.095498,-518.144159,9548.656652
908.785168,-689.485948,-518.144159,9474.636058
908.785483,-842.705048,-518.144159,9474.636058
908.785799,-842.705048,-370.102971,9178.553681
908.786115,-459.657299,-0.000000,9104.533087
908.786431,-459.657299,-0.000000,8882.471304
908.786746,153.219100,-0.000000,8956.491898
908.787062,229.828649,370.102971,9326.594869
908.787378,459.657299,-0.000000,8586.388927
908.787693,459.657299,222.061783,8734.430116
908.788009,612.876398,-0.000000,8808.450710
908.788325,919.314598,-74.020594,8956.491898
908.788641,612.876398,-74.020594,9178.553681
908.788956,536.266849,-148.041188,9400.615463
908.789272,612.876398,-222.061783,9844.739029
908.789588,766.095498,-370.102971,9696.697840
908.789903,919.314598,-370.102971,9696.697840
908.790219,995.924147,-518.144159,9696.697840
908.790535,1072.533697,-148.041188,9400.615463
908.790851,1302.362347,-148.041188,9400.615463
908.791166,1378.971896,-0.000000,9474.636058
908.791482,1378.971896,-0.000000,9326.594869
908.791798,1532.190996,-148.041188,9474.636058
908.792113,1225.752797,-0.000000,9474.636058
908.792429,995.924147,-148.041188,9918.759623
908.792745,995.924147,-222.061783,9992.780217
908.793061,919.314598,-592.164754,9992.780217
908.793376,995.924147,-814.226536,10214.842000
908.793692,842.705048,-666.185348,10066.800811
908.794008,766.095498,-370.102971,10362.883188
908.794323,766.095498,-444.123565,10140.821405
908.794639,1149.143247,-74.020594,9844.739029
908.794955,1378.971896,-518.144159,9844.739029
908.795271,1302.362347,-0.000000,9474.636058
908.795586,1455.581446,-0.000000,9474.636058
908.795902,1608.800546,370.102971,9548.656652
908.796218,1225.752797,296.082377,9474.636058
908.796533,1455.581446,444.123565,9622.677246
908.796849,995.924147,-222.061783,9474.636058
908.797165,842.705048,-370.102971,9844.739029
908.797480,459.657299,-444.123565,9992.780217
908.797796,76.609550,-666.185348,10066.800811
908.798112,0.000000,-518.144159,10214.842000
908.798428,-229.828649,-962.267725,9992.780217
908.798743,0.000000,-444.123565,10066.800811
908.799059,0.000000,-444.123565,9548.656652
908.799375,229.828649,-370.102971,9252.574275
908.799690,612.876398,222.061783,8956.491898
908.800006,153.219100,-0.000000,8808.450710
908.800322,76.609550,296.082377,8882.471304
908.800638,0.000000,148.041188,8734.430116
908.800953,-153.219100,-0.000000,8956.491898
908.801269,-459.657299,-148.041188,9326.594869
908.801585,-229.828649,-370.102971,9178.553681
908.801900,-612.876398,-814.226536,9252.574275
908.802216,-995.924147,-592.164754,9400.615463
908.802532,-766.095498,-740.205942,9400.615463
908.802848,-306.438199,-518.144159,9400.615463
908.803163,-612.876398,-518.144159,9474.636058
908.803479,-229.828649,-592.164754,9252.574275
908.803795,-153.219100,-296.082377,9104.533087
908.804111,0.000000,-0.000000,9178.553681
908.804427,-383.047749,222.061783,8808.450710
908.804742,0.000000,148.041188,8808.450710
908.805058,536.266849,444.123565,8808.450710
908.805374,689.485948,370.102971,8734.430116
908.805690,536.266849,-0.000000,8882.471304
908.806005,689.485948,-148.041188,9104.533087
908.806321,536.266849,-148.041188,9474.636058
908.806637,612.876398,-296.082377,9548.656652
908.806953,306.438199,-518.144159,9770.718434
908.807269,459.657299,-370.102971,10066.800811
908.807584,459.657299,-666.185348,9844.739029
908.807900,766.095498,-0.000000,9622.677246
908.808216,995.924147,-148.041188,9400.615463
908.808532,1225.752797,-0.000000,9252.574275
908.808847,1072.533697,222.061783,9252.574275
908.809163,1608.800546,518.144159,9326.594869
908.809479,1302.362347,666.185348,9400.615463
908.809795,1455.581446,444.123565,9474.636058
908.810111,1225.752797,148.041188,9474.636058
908.810426,1149.143247,-148.041188,9770.718434
908.810742,459.657299,-148.041188,9992.780217
908.811058,1072.533697,-222.061783,10140.821405
908.811374,919.314598,-222.061783,10362.883188
908.811689,842.705048,-444.123565,9992.780217
908.812005,1225.752797,-222.061783,9918.759623
908.812321,842.705048,-148.041188,9992.780217
908.812637,1072.533697,-0.000000,9918.759623
908.812953,1072.533697,-0.000000,9844.739029
908.813268,1302.362347,370.102971,9696.697840
908.813584,1302.362347,148.041188,9548.656652
908.813900,1455.581446,444.123565,9178.553681
908.814216,1225.752797,-0.000000,9474.636058
908.814531,919.314598,-0.000000,9474.636058
908.814847,842.705048,-296.082377,9622.677246
908.815163,689.485948,-370.102971,10214.842000
908.815479,153.219100,-518.144159,10140.821405
908.815795,0.000000,-666.185348,10214.842000
908.816110,-153.219100,-740.205942,10066.800811
908.816426,76.609550,-518.144159,9844.739029
908.816742,-153.219100,-666.185348,9622.677246
908.817058,0.000000,-296.082377,9252.574275
908.817373,153.219100,-296.082377,9104.533087
908.817689,153.219100,-296.082377,8956.491898
908.818005,0.000000,-74.020594,8808.450710
908.818321,229.828649,-74.020594,8882.471304
908.818637,0.000000,-296.082377,9030.512492
908.818952,-383.047749,-370.102971,9104.533087
908.819268,-612.876398,-444.123565,9326.594869
908.819584,-383.047749,-740.205942,9326.594869
908.819900,-689.485948,-666.185348,9474.636058
908.820215,-919.314598,-518.144159,9474.636058
908.820531,-536.266849,-666.185348,9252.574275
908.820847,-536.266849,-518.144159,9400.615463
908.821163,-612.876398,-888.247130,9252.574275
908.821479,-229.828649,-370.102971,9104.533087
908.821794,76.609550,-222.061783,8882.471304
908.822110,76.609550,-148.041188,8882.471304
908.822426,306.438199,-0.000000,8808.450710
908.822742,842.705048,148.041188,8660.409521
908.823057,919.314598,148.041188,8808.450710
908.823373,1072.533697,-0.000000,8660.409521
908.823689,842.705048,-222.061783,9104.533087
908.824005,842.705048,-296.082377,9178.553681
908.824321,306.438199,-518.144159,9474.636058
908.824636,612.876398,-740.205942,9474.636058
908.824952,536.266849,-518.144159,9770.718434
908.825268,995.924147,-666.185348,9770.718434
908.825584,459.657299,-222.061783,9548.656652
908.825899,842.705048,-74.020594,9252.574275
908.826215,995.924147,-148.041188,9326.594869
908.826531,1378.971896,-0.000000,9178.553681
908.826847,1149.143247,222.061783,9400.615463
908.827163,1072.533697,222.061783,9178.553681
908.827478,1149.143247,-0.000000,9474.636058
908.827794,919.314598,-0.000000,9770.718434
908.828110,766.095498,-296.082377,9770.718434
908.828426,689.485948,-444.123565,9918.759623
908.828741,612.876398,-740.205942,10436.903782
908.829057,842.705048,-370.102971,10066.800811
908.829373,1072.533697,-148.041188,10066.800811
908.829689,766.095498,-296.082377,10362.883188
908.830005,995.924147,-0.000000,9918.759623
908.830320,1225.752797,-0.000000,10140.821405
908.830636,1225.752797,-0.000000,9696.697840
908.830952,1072.533697,296.082377,9696.697840
908.831268,1072.533697,222.061783,9696.697840
908.831583,995.924147,518.144159,9622.677246
908.831899,689.485948,-0.000000,9770.718434
908.832215,536.266849,296.082377,9696.697840
908.832531,612.876398,-74.020594,9918.759623
908.832847,306.438199,-296.082377,10140.821405
908.833162,0.000000,-666.185348,9992.780217
908.833478,0.000000,-666.185348,10436.903782
908.833794,-306.438199,-518.144159,10214.842000
908.834110,0.000000,-592.164754,10140.821405
908.834425,0.000000,-444.123565,9622.677246
908.834741,153.219100,-0.000000,9326.594869
908.835057,306.438199,-444.123565,9178.553681
908.835373,306.438199,-0.000000,8956.491898
908.835689,229.828649,-0.000000,8660.409521
908.836004,229.828649,148.041188,8808.450710
908.836320,0.000000,-148.041188,8956.491898
908.836636,-229.828649,-148.041188,9178.553681
908.836952,-229.828649,-370.102971,9400.615463
908.837267,-995.924147,-740.205942,9400.615463
908.837583,-766.095498,-666.185348,9474.636058
908.837899,-1072.533697,-740.205942,9844.739029
908.838215,-689.485948,-740.205942,9474.636058
908.838531,-766.095498,-814.226536,9400.615463
908.838846,-536.266849,-666.185348,9326.594869
908.839162,-229.828649,-666.185348,9104.533087
908.839478,0.000000,-0.000000,9030.512492
908.839794,153.219100,-0.000000,8808.450710
908.840109,612.876398,148.041188,8586.388927
908.840425,766.095498,148.041188,8364.327145
908.840741,689.485948,-0.000000,8808.450710
908.841057,766.095498,-0.000000,8660.409521
908.841373,842.705048,-222.061783,8956.491898
908.841688,612.876398,-370.102971,9400.615463
908.842004,919.314598,-592.164754,9548.656652
908.842320,306.438199,-518.144159,9770.718434
908.842636,536.266849,-592.164754,9770.718434
908.842951,536.266849,-518.144159,9474.636058
908.843267,536.266849,-370.102971,9548.656652
908.843583,689.485948,-148.041188,9400.615463
908.843899,1149.143247,-74.020594,9326.594869
908.844215,1378.971896,148.041188,9252.574275
908.844530,1532.190996,296.082377,9252.574275
908.844846,1225.752797,518.144159,9104.533087
908.845162,1225.752797,-0.000000,9474.636058
908.845478,1378.971896,-0.000000,9622.677246
908.845793,1072.533697,-0.000000,9770.718434
908.846109,919.314598,-222.061783,9918.759623
908.846425,842.705048,-222.061783,10214.842000
908.846741,689.485948,-444.123565,10066.800811
908.847057,689.485948,-296.082377,10140.821405
908.847372,919.314598,-296.082377,10140.821405
908.847688,689.485948,-0.000000,9770.718434
908.848004,919.314598,-0.000000,9992.780217
908.848320,995.924147,296.082377,9918.759623
908.848635,1302.362347,-0.000000,9696.697840
908.848951,1072.533697,222.061783,9474.636058
908.849267,919.314598,222.061783,9474.636058
908.849583,919.314598,-0.000000,9400.615463
908.849899,995.924147,-74.020594,9622.677246
908.850214,766.095498,-148.041188,9992.780217
908.850530,689.485948,-444.123565,10066.800811
908.850846,383.047749,-444.123565,10066.800811
908.851162,76.609550,-740.205942,9918.759623
908.851477,76.609550,-740.205942,10140.821405
908.851793,0.000000,-148.041188,9918.759623
908.852109,153.219100,-444.123565,9400.615463
908.852425,76.609550,-222.061783,9252.574275
908.852741,306.438199,-148.041188,9326.594869
908.853056,153.219100,-0.000000,9252.574275
908.853372,153.219100,370.102971,8956.491898
908.853688,0.000000,-0.000000,9030.512492
908.854004,0.000000,-0.000000,9104.533087
908.854319,-383.047749,-148.041188,9030.512492
908.854635,0.000000,-444.123565,9252.574275
908.854951,-306.438199,-296.082377,9178.553681
908.855267,-229.828649,-148.041188,9326.594869
908.855583,-842.705048,-518.144159,9326.594869
908.855898,-536.266849,-370.102971,9326.594869
908.856214,0.000000,-444.123565,9474.636058
908.856530,-612.876398,-222.061783,9252.574275
908.856846,-536.266849,-222.061783,9030.512492
908.857161,0.000000,-148.041188,8956.491898
908.857477,229.828649,-0.000000,8882.471304
908.857793,383.047749,-222.061783,8882.471304
908.858109,383.047749,-0.000000,8734.430116
908.858425,459.657299,-74.020594,8734.430116
908.858740,383.047749,-0.000000,9030.512492
908.859056,612.876398,-148.041188,9104.533087
908.859372,842.705048,-222.061783,9400.615463
908.859688,459.657299,-370.102971,9474.636058
908.860004,459.657299,-592.164754,9548.656652
908.860319,306.438199,-518.144159,9696.697840
908.860635,689.485948,-518.144159,9696.697840
908.860951,919.314598,-444.123565,9622.677246
908.861267,995.924147,-0.000000,9548.656652
908.861582,1455.581446,-0.000000,9178.553681
908.861898,1302.362347,-0.000000,9178.553681
908.862214,1149.143247,222.061783,9326.594869
908.862530,1149.143247,-0.000000,9474.636058
908.862846,842.705048,148.041188,9474.636058
908.863161,919.314598,-74.020594,9770.718434
908.863477,766.095498,-222.061783,9992.780217
908.863793,536.266849,-592.164754,10066.800811
908.864109,153.219100,-444.123565,10436.903782
908.864424,536.266849,-370.102971,10140.821405
908.864740,612.876398,-444.123565,10140.821405
908.865056,766.095498,-148.041188,10140.821405
908.865372,919.314598,-148.041188,9918.759623
908.865688,1072.533697,-0.000000,9474.636058
908.866003,1225.752797,-0.000000,9622.677246
908.866319,919.314598,296.082377,9622.677246
908.866635,1072.533697,222.061783,9400.615463
908.866951,1149.143247,222.061783,9178.553681
908.867266,689.485948,296.082377,9548.656652
908.867582,689.485948,-222.061783,9548.656652
908.867898,612.876398,-222.061783,9770.718434
908.868214,383.047749,-666.185348,10066.800811
908.868530,76.609550,-1184.329507,9548.656652
908.868845,0.000000,-444.123565,10214.842000
908.869161,0.000000,-592.164754,10066.800811
908.869477,0.000000,-518.144159,9992.780217
908.869793,229.828649,-370.102971,9474.636058
908.870108,229.828649,-222.061783,9252.574275
908.870424,153.219100,-222.061783,9030.512492
908.870740,153.219100,-148.041188,9178.553681
908.871056,383.047749,222.061783,8734.430116
908.871372,306.438199,370.102971,8808.450710
908.871687,0.000000,-222.061783,9178.553681
908.872003,-306.438199,-0.000000,9474.636058
908.872319,-383.047749,-370.102971,9474.636058
908.872635,-612.876398,-740.205942,9474.636058
908.872950,-995.924147,-666.185348,9474.636058
908.873266,-689.485948,-518.144159,9548.656652
908.873582,-689.485948,-740.205942,9474.636058
908.873898,-306.438199,-444.123565,9326.594869
908.874214,-536.266849,-518.144159,9326.594869
908.874529,-383.047749,-148.041188,9252.574275
908.874845,-153.219100,-0.000000,8956.491898
908.875161,383.047749,-0.000000,8882.471304
908.875477,612.876398,222.061783,9030.512492
908.875792,459.657299,370.102971,8808.450710
908.876108,689.485948,-0.000000,8660.409521
908.876424,995.924147,-0.000000,8956.491898
908.876740,612.876398,-0.000000,9030.512492
908.877056,383.047749,-370.102971,9474.636058
908.877371,459.657299,-444.123565,9696.697840
908.877687,229.828649,-1110.308913,9770.718434
908.878003,306.438199,-518.144159,9918.759623
908.878319,612.876398,-518.144159,9918.759623
908.878634,612.876398,-222.061783,9622.677246
908.878950,842.705048,-74.020594,9474.636058
908.879266,1302.362347,-0.000000,9104.533087
908.879582,1378.971896,-0.000000,9030.512492
908.879898,995.924147,296.082377,9400.615463
908.880213,1302.362347,592.164754,9400.615463
908.880529,1072.533697,222.061783,9548.656652
908.880845,612.876398,-0.000000,9770.718434
908.881161,842.705048,-74.020594,9918.759623
908.881476,536.266849,-148.041188,9918.759623
908.881792,536.266849,-222.061783,10214.842000
908.882108,76.609550,-666.185348,9844.739029
908.882424,766.095498,-518.144159,9918.759623
908.882740,842.705048,-296.082377,9844.739029
908.883055,459.657299,-222.061783,9622.677246
908.883371,919.314598,-0.000000,9770.718434
908.883687,1072.533697,-0.000000,9696.697840
908.884003,1072.533697,148.041188,9696.697840
908.884318,1149.143247,222.061783,9326.594869
908.884634,995.924147,296.082377,9474.636058
908.884950,1072.533697,148.041188,9178.553681
908.885266,1072.533697,-148.041188,9474.636058
908.885582,766.095498,-148.041188,9918.759623
908.885897,459.657299,-370.102971,9770.718434
908.886213,153.219100,-666.185348,9992.780217
908.886529,306.438199,-518.144159,10214.842000
908.886845,0.000000,-444.123565,10214.842000
908.887160,76.609550,-444.123565,9770.718434
908.887476,76.609550,-222.061783,9548.656652
908.887792,-153.219100,-148.041188,9178.553681
908.888108,383.047749,-222.061783,9326.594869
908.888424,153.219100,-0.000000,9178.553681
908.888739,229.828649,-0.000000,8882.471304
908.889055,229.828649,222.061783,9252.574275
908.889371,0.000000,-74.020594,9178.553681
908.889687,0.000000,-296.082377,9252.574275
908.890002,-229.828649,-296.082377,9474.636058
908.890318,-229.828649,-444.123565,9548.656652
908.890634,-766.095498,-518.144159,9474.636058
908.890950,-612.876398,-518.144159,9400.615463
908.891266,-689.485948,-666.185348,9400.615463
908.891581,-459.657299,-444.123565,9474.636058
908.891897,-536.266849,-518.144159,9400.615463
908.892213,-306.438199,-370.102971,9178.553681
908.892529,-229.828649,-148.041188,8956.491898
908.892844,229.828649,-222.061783,9104.533087
908.893160,383.047749,-74.020594,9030.512492
908.893476,689.485948,222.061783,9104.533087
908.893792,459.657299,-0.000000,8956.491898
908.894108,612.876398,-0.000000,9030.512492
908.894423,612.876398,-74.020594,9178.553681
908.894739,766.095498,-370.102971,9252.574275
908.895055,536.266849,-222.061783,9548.656652
908.895371,612.876398,-518.144159,9696.697840
908.895686,689.485948,-518.144159,9770.718434
908.896002,919.314598,-370.102971,9400.615463
908.896318,1072.533697,-296.082377,9474.636058
908.896634,1149.143247,-0.000000,9326.594869
908.896950,1302.362347,-74.020594,9326.594869
908.897265,1378.971896,370.102971,9104.533087
908.897581,1532.190996,222.061783,9326.594869
908.897897,1455.581446,222.061783,9326.594869
908.898213,1072.533697,-0.000000,9548.656652
908.898528,919.314598,-0.000000,9844.739029
908.898844,306.438199,-370.102971,9918.759623
908.899160,536.266849,-444.123565,9622.677246
908.899476,766.095498,-444.123565,10066.800811
908.899792,612.876398,-592.164754,9844.739029
908.900107,842.705048,-370.102971,10140.821405
908.900423,995.924147,-370.102971,9696.697840
908.900739,842.705048,-0.000000,9918.759623
908.901055,919.314598,-74.020594,9696.697840
908.901370,919.314598,-0.000000,9622.677246
908.901686,1072.533697,296.082377,9474.636058
908.902002,1915.238745,518.144159,9474.636058
908.902318,1225.752797,-0.000000,9104.533087
908.902634,1225.752797,-0.000000,9030.512492
908.902949,919.314598,-0.000000,9548.656652
908.903265,612.876398,-444.123565,9622.677246
908.903581,306.438199,-666.185348,9992.780217
908.903897,0.000000,-592.164754,9918.759623
908.904212,0.000000,-666.185348,9844.739029
908.904528,-229.828649,-592.164754,10140.821405
908.904844,76.609550,-666.185348,9918.759623
908.905160,229.828649,-370.102971,9622.677246
908.905475,229.828649,-0.000000,9400.615463
908.905791,383.047749,-0.000000,9178.553681
908.906107,306.438199,-0.000000,8956.491898
908.906423,153.219100,296.082377,8882.471304
908.906738,-153.219100,296.082377,8956.491898
908.907054,0.000000,-74.020594,8956.491898
908.907370,-383.047749,-0.000000,9252.574275
908.907686,-383.047749,-222.061783,9474.636058
908.908001,-459.657299,-740.205942,9326.594869
908.908317,-536.266849,-592.164754,9474.636058
908.908633,-536.266849,-740.205942,9548.656652
908.908949,-766.095498,-666.185348,9474.636058
908.909264,-383.047749,-814.226536,9474.636058
908.909580,-459.657299,-592.164754,9474.636058
908.909896,0.000000,-222.061783,9252.574275
908.910212,0.000000,-74.020594,9104.533087
908.910527,383.047749,296.082377,9030.512492
908.910843,383.047749,296.082377,8808.450710
908.911159,689.485948,296.082377,8882.471304
908.911475,1149.143247,-0.000000,8734.430116
908.911790,459.657299,-0.000000,8882.471304
908.912106,766.095498,-148.041188,9104.533087
908.912422,689.485948,-296.082377,9548.656652
908.912738,536.266849,-592.164754,9474.636058
908.913053,153.219100,-592.164754,9844.739029
908.913369,383.047749,-740.205942,9992.780217
908.913685,612.876398,-518.144159,9770.718434
908.914001,689.485948,-296.082377,9622.677246
908.914316,1072.533697,-148.041188,9326.594869
908.914632,1302.362347,-148.041188,9474.636058
908.914948,1378.971896,-0.000000,9178.553681
908.915264,1302.362347,370.102971,9104.533087
908.915580,1378.971896,296.082377,9326.594869
908.915895,1072.533697,-0.000000,9474.636058
908.916211,1072.533697,-148.041188,9696.697840
908.916527,1072.533697,-74.020594,9844.739029
908.916843,766.095498,-370.102971,9992.780217
908.917158,612.876398,-444.123565,9918.759623
908.917474,766.095498,-370.102971,10214.842000
908.917790,536.266849,-444.123565,10288.862594
908.918106,919.314598,-222.061783,9992.780217
908.918421,919.314598,-296.082377,9696.697840
908.918737,842.705048,-222.061783,9696.697840
908.919053,919.314598,-0.000000,9622.677246
908.919369,1149.143247,148.041188,9474.636058
908.919684,1072.533697,148.041188,9178.553681
908.920000,1225.752797,222.061783,9326.594869
908.920316,919.314598,-0.000000,9400.615463
908.920632,1225.752797,-370.102971,9400.615463
908.920947,612.876398,-444.123565,9844.739029
908.921263,229.828649,-666.185348,9844.739029
908.921579,0.000000,-592.164754,9696.697840
908.921895,0.000000,-592.164754,9918.759623
908.922210,153.219100,-962.267725,9844.739029
908.922526,0.000000,-518.144159,9770.718434
908.922842,0.000000,-222.061783,9326.594869
908.923158,229.828649,-148.041188,9178.553681
908.923473,76.609550,-148.041188,8882.471304
908.923789,0.000000,-148.041188,8882.471304
908.924105,0.000000,-0.000000,8660.409521
908.924421,76.609550,222.061783,8734.430116
908.924736,-306.438199,-0.000000,9104.533087
908.925052,-383.047749,-148.041188,9178.553681
908.925368,-383.047749,-740.205942,9252.574275
908.925684,-842.705048,-592.164754,9474.636058
908.925999,-689.485948,-370.102971,9474.636058
908.926315,-919.314598,-518.144159,9474.636058
908.926631,-919.314598,-518.144159,9474.636058
908.926947,-689.485948,-444.123565,9400.615463
908.927262,-612.876398,-222.061783,9474.636058
908.927578,-306.438199,-74.020594,9400.615463
908.927894,-153.219100,-0.000000,9104.533087
908.928210,153.219100,-0.000000,8956.491898
908.928525,383.047749,148.041188,8956.491898
908.928841,536.266849,370.102971,8882.471304
908.929157,689.485948,296.082377,9030.512492
908.929473,919.314598,-0.000000,9104.533087
908.929788,919.314598,-148.041188,9104.533087
908.930104,842.705048,-0.000000,9622.677246
908.930420,459.657299,-370.102971,9622.677246
908.930736,459.657299,-518.144159,9918.759623
908.931052,536.266849,-444.123565,9918.759623
908.931367,1225.752797,-222.061783,9992.780217
908.931683,995.924147,-74.020594,9548.656652
908.931999,919.314598,-0.000000,9474.636058
908.932315,1149.143247,-0.000000,9400.615463
908.932630,1455.581446,-0.000000,9474.636058
908.932946,1378.971896,222.061783,9326.594869
908.933262,1302.362347,148.041188,9400.615463
908.933578,995.924147,-148.041188,9474.636058
908.933893,1225.752797,-222.061783,9696.697840
908.934209,995.924147,-370.102971,9918.759623
908.934525,919.314598,-444.123565,10510.924376
908.934841,689.485948,-592.164754,9918.759623
908.935156,995.924147,-592.164754,10140.821405
908.935472,842.705048,-592.164754,10066.800811
908.935788,995.924147,-888.247130,10140.821405
908.936104,995.924147,-222.061783,9696.697840
908.936419,919.314598,-74.020594,9548.656652
908.936735,1149.143247,-0.000000,9474.636058
908.937051,1149.143247,-0.000000,9326.594869
908.937367,766.095498,-0.000000,9326.594869
908.937682,1072.533697,-0.000000,9178.553681
908.937998,919.314598,-0.000000,9326.594869
908.938314,612.876398,-296.082377,9474.636058
908.938630,459.657299,-518.144159,9548.656652
908.938945,383.047749,-888.247130,9844.739029
908.939261,0.000000,-962.267725,9696.697840
908.939577,-153.219100,-444.123565,9770.718434
908.939893,0.000000,-888.247130,9622.677246
908.940208,76.609550,-1184.329507,9696.697840
908.940524,76.609550,-296.082377,9326.594869
908.940840,383.047749,-74.020594,9178.553681
908.941156,306.438199,-0.000000,8808.450710
908.941471,306.438199,148.041188,8734.430116
908.941787,306.438199,148.041188,8512.368333
908.942103,229.828649,-0.000000,8808.450710
908.942419,-153.219100,-0.000000,8586.388927
908.942734,-229.828649,-148.041188,9104.533087
908.943050,-689.485948,-148.041188,9178.553681
908.943366,-536.266849,-592.164754,9622.677246
908.943682,-995.924147,-592.164754,9770.718434
908.943997,-612.876398,-666.185348,9770.718434
908.944313,-995.924147,-666.185348,9548.656652
908.944629,-842.705048,-666.185348,9548.656652
908.944945,-383.047749,-296.082377,9548.656652
908.945260,-383.047749,-222.061783,9178.553681
908.945576,0.000000,-0.000000,9104.533087
908.945892,383.047749,-0.000000,8808.450710
908.946208,0.000000,518.144159,8660.409521
908.946524,1072.533697,148.041188,9104.533087
908.946839,842.705048,444.123565,9104.533087
908.947155,919.314598,-0.000000,9252.574275
908.947471,689.485948,-74.020594,9178.553681
908.947787,459.657299,-0.000000,9474.636058
908.948102,536.266849,-296.082377,9770.718434
908.948418,229.828649,-370.102971,9918.759623
908.948734,306.438199,-444.123565,9918.759623
908.949050,612.876398,-296.082377,9992.780217
908.949365,689.485948,-148.041188,9474.636058
908.949681,689.485948,-0.000000,9622.677246
908.949997,1149.143247,370.102971,9252.574275
908.950313,1225.752797,296.082377,9474.636058
908.950628,1378.971896,444.123565,9178.553681
908.950944,1225.752797,296.082377,9252.574275
908.951260,1302.362347,444.123565,9622.677246
908.951576,1378.971896,-0.000000,9622.677246
908.951891,995.924147,-0.000000,9770.718434
908.952207,919.314598,-148.041188,9844.739029
908.952523,842.705048,-444.123565,10214.842000
908.952839,995.924147,-444.123565,9918.759623
908.953154,766.095498,-74.020594,10510.924376
908.953470,612.876398,-74.020594,10140.821405
908.953786,842.705048,-148.041188,9844.739029
908.954102,842.705048,-0.000000,9770.718434
908.954417,1302.362347,-0.000000,9696.697840
908.954733,1378.971896,-0.000000,9474.636058
908.955049,1225.752797,148.041188,9548.656652
908.955365,1149.143247,-0.000000,9400.615463
908.955680,842.705048,-0.000000,9326.594869
908.955996,689.485948,-74.020594,9548.656652
908.956312,842.705048,-222.061783,9622.677246
908.956628,612.876398,-592.164754,9548.656652
908.956943,153.219100,-592.164754,9844.739029
908.957259,0.000000,-592.164754,10066.800811
908.957575,0.000000,-518.144159,9696.697840
908.957891,0.000000,-518.144159,9622.677246
908.958206,0.000000,-296.082377,9474.636058
908.958522,0.000000,-222.061783,9400.615463
908.958838,153.219100,-148.041188,8808.450710
908.959154,153.219100,-0.000000,8882.471304
908.959469,459.657299,222.061783,8882.471304
908.959785,-229.828649,74.020594,8956.491898
908.960101,-153.219100,-74.020594,8956.491898
908.960417,-383.047749,-444.123565,9252.574275
908.960732,-306.438199,-740.205942,9252.574275
908.961048,-766.095498,-518.144159,9178.553681
908.961364,-689.485948,-518.144159,9474.636058
908.961680,-689.485948,-740.205942,9252.574275
908.961996,-995.924147,-444.123565,9844.739029
908.962311,-536.266849,-888.247130,9474.636058
908.962627,-153.219100,-444.123565,9326.594869
908.962943,-383.047749,-222.061783,9104.533087
908.963259,0.000000,-296.082377,9104.533087
908.963574,76.609550,-74.020594,8956.491898
908.963890,306.438199,-0.000000,9030.512492
908.964206,689.485948,-0.000000,8882.471304
908.964522,689.485948,-0.000000,8734.430116
908.964837,766.095498,74.020594,9252.574275
908.965153,612.876398,-0.000000,9326.594869
908.965469,842.705048,-148.041188,9400.615463
908.965785,536.266849,-222.061783,9548.656652
908.966100,459.657299,-296.082377,9844.739029
908.966416,689.485948,-592.164754,9918.759623
908.966732,842.705048,-296.082377,9918.759623
908.967048,1149.143247,-296.082377,9474.636058
908.967363,919.314598,-0.000000,9548.656652
908.967679,1225.752797,-0.000000,9400.615463
908.967995,1455.581446,222.061783,9474.636058
908.968311,995.924147,592.164754,9252.574275
908.968626,1532.190996,-0.000000,9252.574275
908.968942,1225.752797,-74.020594,9474.636058
908.969258,995.924147,-0.000000,9918.759623
908.969574,919.314598,-370.102971,10066.800811
908.969889,842.705048,-74.020594,10066.800811
908.970205,689.485948,-296.082377,9844.739029
908.970521,689.485948,-370.102971,9992.780217
908.970837,612.876398,-296.082377,10140.821405
908.971152,919.314598,-222.061783,10288.862594
908.971468,919.314598,148.041188,9992.780217
908.971784,766.095498,-0.000000,9918.759623
908.972100,995.924147,222.061783,9844.739029
908.972415,1072.533697,370.102971,9474.636058
908.972731,1072.533697,222.061783,9326.594869
908.973047,995.924147,-0.000000,9474.636058
908.973363,1149.143247,148.041188,9326.594869
908.973678,459.657299,-0.000000,9474.636058
908.973994,536.266849,-148.041188,9770.718434
908.974310,383.047749,-518.144159,9770.718434
908.974626,76.609550,-518.144159,9992.780217
908.974941,-383.047749,-592.164754,9844.739029
908.975257,-229.828649,-518.144159,9992.780217
908.975573,0.000000,-518.144159,9844.739029
908.975889,0.000000,-148.041188,9474.636058
908.976204,153.219100,-74.020594,9104.533087
908.976520,306.438199,-222.061783,9178.553681
908.976836,229.828649,-0.000000,8956.491898
908.977152,76.609550,296.082377,8660.409521
908.977468,76.609550,296.082377,8808.450710
908.977783,-229.828649,-148.041188,9178.553681
908.978099,-383.047749,-222.061783,9178.553681
908.978415,-612.876398,-518.144159,9178.553681
908.978731,-842.705048,-814.226536,9474.636058
908.979046,-919.314598,-666.185348,9474.636058
908.979362,-766.095498,-888.247130,9400.615463
908.979678,-842.705048,-666.185348,9548.656652
908.979994,-842.705048,-888.247130,9474.636058
908.980309,-536.266849,-518.144159,9400.615463
908.980625,-153.219100,-370.102971,8956.491898
908.980941,76.609550,-0.000000,8882.471304
908.981257,0.000000,-296.082377,9104.533087
908.981572,536.266849,296.082377,8882.471304
908.981888,766.095498,370.102971,8512.368333
908.982204,766.095498,-0.000000,8808.450710
908.982520,689.485948,-74.020594,8882.471304
908.982835,612.876398,-148.041188,9178.553681
908.983151,306.438199,-518.144159,9622.677246
908.983467,306.438199,-444.123565,9918.759623
908.983783,306.438199,-592.164754,9770.718434
908.984098,229.828649,-666.185348,10140.821405
908.984414,229.828649,-518.144159,10140.821405
908.984730,842.705048,-148.041188,9622.677246
908.985046,919.314598,-0.000000,9622.677246
908.985361,1149.143247,-0.000000,9252.574275
908.985677,1225.752797,-74.020594,9326.594869
908.985993,1378.971896,296.082377,9178.553681
908.986309,1608.800546,222.061783,9252.574275
908.986624,1225.752797,-0.000000,9474.636058
908.986940,1302.362347,-0.000000,9548.656652
908.987256,919.314598,-370.102971,9770.718434
908.987572,995.924147,-148.041188,9770.718434
908.987887,766.095498,-296.082377,9844.739029
908.988203,842.705048,-370.102971,10066.800811
908.988519,1072.533697,-518.144159,9918.759623
908.988835,919.314598,-222.061783,10140.821405
908.989150,995.924147,-222.061783,9844.739029
908.989466,1149.143247,-0.000000,9696.697840
908.989782,995.924147,222.061783,9770.718434
908.990098,1378.971896,296.082377,9474.636058
908.990413,1072.533697,296.082377,9326.594869
908.990729,1225.752797,296.082377,9178.553681
908.991045,383.047749,-74.020594,9326.594869
908.991361,536.266849,-222.061783,9474.636058
908.991676,612.876398,-222.061783,9844.739029
908.991992,153.219100,-518.144159,9844.739029
908.992308,0.000000,-592.164754,9844.739029
908.992624,0.000000,-740.205942,10066.800811
908.992940,0.000000,-666.185348,10288.862594
908.993255,-383.047749,-518.144159,9844.739029
908.993571,-459.657299,-148.041188,9622.677246
908.993887,0.000000,-148.041188,9252.574275
908.994203,76.609550,-74.020594,9104.533087
908.994518,0.000000,-0.000000,8956.491898
908.994834,229.828649,148.041188,8808.450710
908.995150,-76.609550,-0.000000,9252.574275
908.995466,0.000000,-0.000000,9030.512492
908.995781,-459.657299,-148.041188,9252.574275
908.996097,-536.266849,-370.102971,9548.656652
908.996413,-153.219100,-518.144159,9474.636058
908.996729,-612.876398,-296.082377,9548.656652
908.997044,-842.705048,-370.102971,9474.636058
908.997360,-612.876398,-370.102971,9400.615463
908.997676,-383.047749,-518.144159,9400.615463
908.997992,-383.047749,-370.102971,9474.636058
908.998307,-229.828649,-296.082377,9474.636058
908.998623,0.000000,148.041188,9252.574275
908.998939,76.609550,148.041188,9104.533087
908.999255,536.266849,222.061783,8956.491898
908.999570,459.657299,222.061783,9104.533087
908.999886,536.266849,-0.000000,8808.450710
909.000202,766.095498,-0.000000,8882.471304
909.000518,919.314598,-0.000000,9252.574275
909.000833,689.485948,-148.041188,9548.656652
909.001149,689.485948,-592.164754,9326.594869
909.001465,459.657299,-296.082377,9548.656652
909.001781,689.485948,-370.102971,9918.759623
909.002096,919.314598,-444.123565,9696.697840
909.002412,995.924147,-148.041188,9548.656652
909.002728,1225.752797,-0.000000,9474.636058
909.003044,1225.752797,-0.000000,9178.553681
909.003359,1302.362347,-0.000000,9104.533087
909.003675,1455.581446,296.082377,9326.594869
909.003991,1378.971896,296.082377,9326.594869
909.004307,1532.190996,-0.000000,9770.718434
909.004623,995.924147,-0.000000,9622.677246
909.004938,995.924147,-518.144159,9770.718434
909.005254,995.924147,-592.164754,9844.739029
909.005570,1302.362347,-740.205942,10066.800811
909.005886,995.924147,-370.102971,10288.862594
909.006202,612.876398,-592.164754,10214.842000
909.006518,842.705048,-592.164754,9918.759623
909.006834,995.924147,-74.020594,9844.739029
909.007150,1149.143247,-296.082377,9474.636058
909.007465,995.924147,-444.123565,9326.594869
909.007781,1225.752797,-74.020594,9474.636058
909.008097,919.314598,-0.000000,9474.636058
909.008413,1072.533697,-0.000000,9326.594869
909.008729,995.924147,-0.000000,9326.594869
909.009045,1072.533697,-444.123565,9178.553681
909.009361,536.266849,-444.123565,9918.759623
909.009677,76.609550,-814.226536,9696.697840
909.009992,76.609550,-592.164754,9992.780217
909.010308,0.000000,-518.144159,9918.759623
909.010624,153.219100,-888.247130,9918.759623
909.010940,0.000000,-592.164754,9770.718434
909.011256,229.828649,-296.082377,9474.636058
909.011572,0.000000,-222.061783,9252.574275
909.011888,459.657299,-0.000000,9252.574275
909.012204,76.609550,-0.000000,9030.512492
909.012519,153.219100,518.144159,8808.450710
909.012835,0.000000,74.020594,8734.430116
909.013151,-229.828649,148.041188,9030.512492
909.013467,-459.657299,-370.102971,9326.594869
909.013783,-689.485948,-370.102971,9548.656652
909.014099,-842.705048,-518.144159,9548.656652
909.014415,-842.705048,-666.185348,9622.677246
909.014730,-766.095498,-740.205942,9622.677246
909.015046,-1149.143247,-814.226536,9548.656652
909.015362,-383.047749,-444.123565,9696.697840
909.015678,-229.828649,-296.082377,9474.636058
909.015994,-229.828649,-296.082377,9104.533087
909.016310,153.219100,-0.000000,9252.574275
909.016626,842.705048,-148.041188,8438.347739
909.016942,536.266849,370.102971,8808.450710
909.017257,612.876398,296.082377,8882.471304
909.017573,612.876398,148.041188,8956.491898
909.017889,459.657299,-0.000000,9030.512492
909.018205,383.047749,-444.123565,9326.594869
909.018521,536.266849,-444.123565,9474.636058
909.018837,153.219100,-592.164754,9548.656652
909.019153,0.000000,-592.164754,10066.800811
909.019469,536.266849,-740.205942,9992.780217
909.019784,459.657299,-444.123565,9844.739029
909.020100,536.266849,-148.041188,9622.677246
909.020416,766.095498,-74.020594,9474.636058
909.020732,1072.533697,-0.000000,9400.615463
909.021048,1532.190996,222.061783,9104.533087
909.021364,1302.362347,444.123565,9326.594869
909.021680,1608.800546,370.102971,9178.553681
909.021996,1378.971896,444.123565,9252.574275
909.022311,1455.581446,-0.000000,9548.656652
909.022627,995.924147,-0.000000,9770.718434
909.022943,842.705048,-0.000000,9770.718434
909.023259,766.095498,-0.000000,9918.759623
909.023575,919.314598,-74.020594,9918.759623
909.023891,919.314598,-148.041188,10066.800811
909.024207,842.705048,-0.000000,9918.759623
909.024523,995.924147,-0.000000,9844.739029
909.024838,842.705048,148.041188,9770.718434
909.025154,995.924147,-0.000000,9696.697840
909.025470,766.095498,-74.020594,9992.780217
909.025786,1072.533697,-74.020594,9474.636058
909.026102,1072.533697,444.123565,9252.574275
909.026418,919.314598,-0.000000,9400.615463
909.026734,689.485948,-222.061783,9548.656652
909.027050,766.095498,-592.164754,9474.636058
909.027365,612.876398,-666.185348,9918.759623
909.027681,0.000000,-666.185348,9844.739029
909.027997,0.000000,-592.164754,10066.800811
909.028313,76.609550,-888.247130,9918.759623
909.028629,229.828649,-666.185348,9844.739029
909.028945,383.047749,-296.082377,9252.574275
909.029261,0.000000,-370.102971,9104.533087
909.029577,0.000000,-74.020594,9104.533087
909.029892,229.828649,-148.041188,8956.491898
909.030208,153.219100,-148.041188,8882.471304
909.030524,153.219100,-74.020594,8882.471304
909.030840,-306.438199,-222.061783,9104.533087
909.031156,-459.657299,-518.144159,9178.553681
909.031472,-536.266849,-222.061783,9326.594869
909.031788,-1149.143247,-1332.370696,9474.636058
909.032103,-919.314598,-666.185348,9252.574275
909.032419,-919.314598,-666.185348,9548.656652
909.032735,-842.705048,-518.144159,9548.656652
909.033051,-612.876398,-592.164754,9474.636058
909.033367,-536.266849,-444.123565,9178.553681
909.033683,-229.828649,-370.102971,9252.574275
909.033999,76.609550,-0.000000,9030.512492
909.034315,76.609550,-0.000000,9178.553681
909.034630,536.266849,296.082377,8808.450710
909.034946,689.485948,-0.000000,8734.430116
909.035262,842.705048,-0.000000,9030.512492
909.035578,766.095498,-0.000000,9030.512492
909.035894,842.705048,-0.000000,9178.553681
909.036210,612.876398,-0.000000,9400.615463
909.036526,919.314598,-222.061783,9400.615463
909.036842,689.485948,-370.102971,9548.656652
909.037157,766.095498,-444.123565,9770.718434
909.037473,842.705048,-296.082377,9770.718434
909.037789,1072.533697,-148.041188,9696.697840
909.038105,1072.533697,-74.020594,9326.594869
909.038421,1149.143247,-0.000000,9326.594869
909.038737,1302.362347,222.061783,9326.594869
909.039053,1225.752797,148.041188,9326.594869
909.039369,1378.971896,370.102971,9474.636058
909.039684,1149.143247,-148.041188,9548.656652
909.040000,1149.143247,-0.000000,9844.739029
909.040316,995.924147,-444.123565,9844.739029
909.040632,919.314598,-370.102971,9844.739029
909.040948,842.705048,-370.102971,9992.780217
909.041264,919.314598,-666.185348,10214.842000
909.041580,612.876398,-814.226536,10140.821405
909.041896,919.314598,-518.144159,10214.842000
909.042211,842.705048,-148.041188,9770.718434
909.042527,1072.533697,-0.000000,9770.718434
909.042843,1072.533697,-0.000000,9474.636058
909.043159,1225.752797,296.082377,9548.656652
909.043475,995.924147,222.061783,9474.636058
909.043791,1072.533697,-0.000000,9252.574275
909.044107,1072.533697,-74.020594,9252.574275
909.044423,842.705048,-74.020594,9548.656652
909.044738,459.657299,-370.102971,9548.656652
909.045054,306.438199,-740.205942,9992.780217
909.045370,76.609550,-444.123565,10140.821405
909.045686,0.000000,-592.164754,9770.718434
909.046002,0.000000,-814.226536,10140.821405
909.046318,0.000000,-222.061783,9696.697840
909.046634,0.000000,-296.082377,9400.615463
909.046949,76.609550,-74.020594,9030.512492
909.047265,0.000000,-222.061783,8882.471304
909.047581,306.438199,-148.041188,9030.512492
909.047897,0.000000,518.144159,8956.491898
909.048213,0.000000,222.061783,8808.450710
909.048529,-153.219100,-0.000000,8882.471304
909.048845,-383.047749,-148.041188,9252.574275
909.049161,-766.095498,-222.061783,9770.718434
909.049476,-766.095498,-592.164754,9548.656652
909.049792,-919.314598,-666.185348,9474.636058
909.050108,-842.705048,-444.123565,9622.677246
909.050424,-1149.143247,-296.082377,9622.677246
909.050740,-995.924147,-666.185348,9622.677246
909.051056,-612.876398,-444.123565,9252.574275
909.051372,0.000000,-222.061783,8956.491898
909.051688,0.000000,-222.061783,8882.471304
909.052003,153.219100,222.061783,9030.512492
909.052319,612.876398,666.185348,8956.491898
909.052635,612.876398,-0.000000,9030.512492
909.052951,536.266849,222.061783,8660.409521
909.053267,536.266849,-74.020594,9104.533087
909.053583,383.047749,-296.082377,9400.615463
909.053899,153.219100,-666.185348,9548.656652
909.054215,383.047749,-444.123565,9844.739029
909.054530,306.438199,-296.082377,9918.759623
909.054846,153.219100,-592.164754,9918.759623
909.055162,459.657299,-444.123565,9918.759623
909.055478,689.485948,-222.061783,9622.677246
909.055794,766.095498,-148.041188,9474.636058
909.056110,919.314598,-0.000000,9400.615463
909.056426,1225.752797,148.041188,9178.553681
909.056742,1532.190996,592.164754,9104.533087
909.057057,1685.410096,296.082377,9252.574275
909.057373,1378.971896,370.102971,9474.636058
909.057689,1149.143247,-74.020594,9474.636058
909.058005,1302.362347,-74.020594,9696.697840
909.058321,1072.533697,-148.041188,9696.697840
909.058637,1225.752797,-444.123565,9992.780217
909.058953,919.314598,-296.082377,9992.780217
909.059269,766.095498,-444.123565,10066.800811
909.059584,995.924147,-296.082377,9992.780217
909.059900,536.266849,-0.000000,9844.739029
909.060216,766.095498,-148.041188,9696.697840
909.060532,766.095498,-0.000000,9696.697840
909.060848,1225.752797,222.061783,9548.656652
909.061164,1302.362347,148.041188,9400.615463
909.061480,1149.143247,148.041188,9178.553681
909.061796,919.314598,-74.020594,9474.636058
909.062111,612.876398,-370.102971,9548.656652
909.062427,689.485948,-666.185348,9770.718434
909.062743,383.047749,-740.205942,9918.759623
909.063059,76.609550,-888.247130,9918.759623
909.063375,76.609550,-888.247130,10066.800811
909.063691,153.219100,-592.164754,9844.739029
909.064007,229.828649,-444.123565,9548.656652
909.064322,76.609550,-296.082377,9326.594869
909.064638,153.219100,-148.041188,9178.553681
909.064954,306.438199,-74.020594,9104.533087
909.065270,0.000000,-148.041188,8808.450710
909.065586,153.219100,-0.000000,8660.409521
909.065902,0.000000,148.041188,8956.491898
909.066218,0.000000,-0.000000,9104.533087
909.066534,-153.219100,-444.123565,9474.636058
909.066849,-612.876398,-666.185348,9400.615463
909.067165,-842.705048,-444.123565,9622.677246
909.067481,-919.314598,-666.185348,9548.656652
909.067797,-995.924147,-592.164754,9474.636058
909.068113,-995.924147,-518.144159,9770.718434
909.068429,-689.485948,-444.123565,9474.636058
909.068745,-689.485948,-222.061783,9326.594869
909.069061,-383.047749,-74.020594,9252.574275
909.069376,0.000000,-0.000000,9252.574275
909.069692,459.657299,222.061783,9178.553681
909.070008,689.485948,296.082377,8734.430116
909.070324,919.314598,-0.000000,8660.409521
909.070640,842.705048,296.082377,8734.430116
909.070956,842.705048,-0.000000,9030.512492
909.071272,1149.143247,-148.041188,9252.574275
909.071588,612.876398,-74.020594,9474.636058
909.071903,459.657299,-444.123565,9622.677246
909.072219,612.876398,-370.102971,9696.697840
909.072535,536.266849,-296.082377,9918.759623
909.072851,612.876398,-518.144159,9918.759623
909.073167,766.095498,-74.020594,9474.636058
909.073483,995.924147,-148.041188,9474.636058
909.073799,1378.971896,-0.000000,9326.594869
909.074115,1302.362347,-0.000000,9326.594869
909.074430,1378.971896,296.082377,9326.594869
909.074746,1378.971896,296.082377,9474.636058
909.075062,1072.533697,148.041188,9622.677246
909.075378,919.314598,-0.000000,9622.677246
909.075694,919.314598,-222.061783,9918.759623
909.076010,689.485948,-148.041188,10288.862594
909.076326,536.266849,-518.144159,10066.800811
909.076642,919.314598,-592.164754,9918.759623
909.076957,919.314598,-666.185348,9918.759623
909.077273,689.485948,-222.061783,9992.780217
909.077589,689.485948,-148.041188,9696.697840
909.077905,766.095498,-0.000000,9474.636058
909.078221,995.924147,296.082377,9474.636058
909.078537,1072.533697,74.020594,9326.594869
909.078853,1225.752797,148.041188,9326.594869
909.079169,842.705048,-0.000000,9474.636058
909.079484,995.924147,-0.000000,9474.636058
909.079800,536.266849,-370.102971,9622.677246
909.080116,459.657299,-444.123565,9918.759623
909.080432,459.657299,-444.123565,10066.800811
909.080748,0.000000,-666.185348,10066.800811
909.081064,-229.828649,-444.123565,9992.780217
909.081380,-153.219100,-592.164754,10066.800811
909.081695,153.219100,-444.123565,9844.739029
909.082011,-536.266849,-518.144159,9400.615463
909.082327,612.876398,-0.000000,9178.553681
909.082643,306.438199,-0.000000,8882.471304
909.082959,153.219100,148.041188,8808.450710
909.083275,153.219100,444.123565,8808.450710
909.083591,689.485948,-0.000000,8660.409521
909.083907,0.000000,-0.000000,9104.533087
909.084222,-383.047749,-74.020594,9252.574275
909.084538,-612.876398,-296.082377,9474.636058
909.084854,-612.876398,-592.164754,9548.656652
909.085170,-995.924147,-518.144159,9474.636058
909.085486,-1072.533697,-814.226536,9400.615463
909.085802,-995.924147,-888.247130,9696.697840
909.086118,-536.266849,-592.164754,9548.656652
909.086434,-766.095498,-370.102971,9400.615463
909.086749,0.000000,-296.082377,9474.636058
909.087065,0.000000,-0.000000,8956.491898
909.087381,153.219100,-0.000000,8734.430116
909.087697,229.828649,-0.000000,8808.450710
909.088013,536.266849,370.102971,8734.430116
909.088329,306.438199,-0.000000,8882.471304
909.088645,766.095498,-0.000000,8956.491898
909.088961,766.095498,-148.041188,9178.553681
909.089276,383.047749,-666.185348,9548.656652
909.089592,536.266849,-518.144159,9844.739029
909.089908,306.438199,-666.185348,9622.677246
909.090224,459.657299,-518.144159,9992.780217
909.090540,536.266849,-518.144159,9918.759623
909.090856,689.485948,-222.061783,9622.677246
909.091172,919.314598,-370.102971,9474.636058
909.091488,1685.410096,148.041188,9474.636058
909.091803,1608.800546,296.082377,9252.574275
909.092119,1608.800546,370.102971,8956.491898
909.092435,1532.190996,444.123565,9326.594869
909.092751,1532.190996,370.102971,9474.636058
909.093067,1608.800546,-0.000000,9622.677246
909.093383,1072.533697,-148.041188,9844.739029
909.093699,995.924147,-296.082377,9918.759623
909.094015,919.314598,-518.144159,10140.821405
909.094330,919.314598,-740.205942,10214.842000
909.094646,919.314598,-370.102971,10066.800811
909.094962,842.705048,-296.082377,10214.842000
909.095278,842.705048,-148.041188,9844.739029
909.095594,995.924147,-0.000000,9622.677246
909.095910,1225.752797,-0.000000,9548.656652
909.096226,1149.143247,-0.000000,9548.656652
909.096542,1225.752797,-0.000000,9400.615463
909.096857,1072.533697,296.082377,9400.615463
909.097173,1225.752797,-74.020594,9326.594869
909.097489,612.876398,-222.061783,9474.636058
909.097805,842.705048,-518.144159,9918.759623
909.098121,536.266849,-592.164754,9696.697840
909.098437,76.609550,-740.205942,10066.800811
909.098753,0.000000,-666.185348,9918.759623
909.099068,-689.485948,-888.247130,10066.800811
909.099384,0.000000,-666.185348,9696.697840
909.099700,-153.219100,-296.082377,9474.636058
909.100016,0.000000,-296.082377,9104.533087
909.100332,76.609550,-222.061783,9104.533087
909.100648,0.000000,-296.082377,8956.491898
909.100964,0.000000,-148.041188,8660.409521
909.101280,0.000000,-148.041188,9104.533087
909.101595,-306.438199,-0.000000,9030.512492
909.101911,-536.266849,-222.061783,9326.594869
909.102227,-842.705048,-592.164754,9474.636058
909.102543,-919.314598,-518.144159,9474.636058
909.102859,-842.705048,-222.061783,9474.636058
909.103175,-995.924147,-444.123565,9474.636058
909.103491,-1225.752797,-592.164754,9474.636058
909.103807,-612.876398,-370.102971,9474.636058
909.104122,-995.924147,-370.102971,9548.656652
909.104438,-459.657299,-0.000000,9252.574275
909.104754,0.000000,-0.000000,9104.533087
909.105070,0.000000,222.061783,8956.491898
909.105386,689.485948,296.082377,9030.512492
909.105702,689.485948,370.102971,8808.450710
909.106018,842.705048,222.061783,8808.450710
909.106334,612.876398,-0.000000,9030.512492
909.106650,612.876398,-0.000000,9400.615463
909.106965,536.266849,-148.041188,9326.594869
909.107281,459.657299,-0.000000,9770.718434
909.107597,919.314598,-296.082377,9770.718434
909.107913,766.095498,-444.123565,9992.780217
909.108229,995.924147,-296.082377,9844.739029
909.108545,766.095498,-518.144159,9474.636058
909.108861,1149.143247,-74.020594,9474.636058
909.109177,1072.533697,-148.041188,9400.615463
909.109493,1302.362347,-74.020594,9400.615463
909.109808,1532.190996,-0.000000,9474.636058
909.110124,1225.752797,-0.000000,9400.615463
909.110440,1302.362347,-0.000000,9696.697840
909.110756,1072.533697,-74.020594,9696.697840
909.111072,919.314598,-444.123565,9770.718434
909.111388,919.314598,-592.164754,9696.697840
909.111704,1149.143247,-296.082377,9918.759623
909.112020,842.705048,-444.123565,9844.739029
909.112336,766.095498,-444.123565,10066.800811
909.112652,919.314598,-222.061783,9992.780217
909.112967,995.924147,-222.061783,9770.718434
909.113283,919.314598,-0.000000,9918.759623
909.113599,995.924147,-0.000000,9622.677246
909.113915,766.095498,-0.000000,9622.677246
909.114231,536.266849,-0.000000,9474.636058
909.114547,842.705048,-0.000000,9326.594869
909.114863,766.095498,-148.041188,9474.636058
909.115179,383.047749,-518.144159,9474.636058
909.115495,153.219100,-592.164754,9770.718434
909.115810,76.609550,-592.164754,10140.821405
909.116126,-229.828649,-740.205942,9844.739029
909.116442,229.828649,-666.185348,9844.739029
909.116758,229.828649,-518.144159,9770.718434
909.117074,76.609550,-518.144159,9622.677246
909.117390,306.438199,-518.144159,9104.533087
909.117706,383.047749,-222.061783,8882.471304
909.118022,536.266849,-148.041188,8734.430116
909.118338,536.266849,-0.000000,8734.430116
909.118654,383.047749,-0.000000,8364.327145
909.118969,76.609550,-0.000000,9104.533087
909.119285,-153.219100,-0.000000,8956.491898
909.119601,-536.266849,-296.082377,9252.574275
909.119917,-536.266849,-518.144159,9474.636058
909.120233,-1302.362347,-814.226536,9474.636058
909.120549,-919.314598,-740.205942,9548.656652
909.120865,-1149.143247,-888.247130,9474.636058
909.121181,-842.705048,-666.185348,9548.656652
909.121497,-766.095498,-518.144159,9548.656652
909.121812,-536.266849,-518.144159,9474.636058
909.122128,-229.828649,-74.020594,9178.553681
909.122444,76.609550,-0.000000,8956.491898
909.122760,229.828649,222.061783,8734.430116
909.123076,459.657299,222.061783,8512.368333
909.123392,842.705048,222.061783,8660.409521
909.123708,766.095498,444.123565,8586.388927
909.124024,459.657299,74.020594,9030.512492
909.124340,612.876398,-148.041188,9474.636058
909.124656,689.485948,-592.164754,9622.677246
909.124971,153.219100,-444.123565,9770.718434
909.125287,76.609550,-518.144159,9918.759623
909.125603,306.438199,-444.123565,10066.800811
909.125919,383.047749,-148.041188,10066.800811
909.126235,459.657299,148.041188,9992.780217
909.126551,842.705048,-74.020594,9696.697840
909.126867,1532.190996,296.082377,9326.594869
909.127183,1149.143247,370.102971,9326.594869
909.127499,1532.190996,518.144159,9400.615463
909.127815,1762.019645,222.061783,9400.615463
909.128130,1378.971896,148.041188,9548.656652
909.128446,1302.362347,-0.000000,9770.718434
909.128762,1072.533697,-148.041188,9770.718434
909.129078,1225.752797,-222.061783,9844.739029
909.129394,1072.533697,-74.020594,10066.800811
909.129710,919.314598,-370.102971,10214.842000
909.130026,995.924147,-0.000000,10066.800811
909.130342,995.924147,-74.020594,9992.780217
909.130658,842.705048,-0.000000,9844.739029
909.130973,1378.971896,-296.082377,9992.780217
909.131289,1302.362347,-0.000000,9622.677246
909.131605,1225.752797,-0.000000,9474.636058
909.131921,1072.533697,148.041188,9252.574275
909.132237,1149.143247,222.061783,9400.615463
909.132553,842.705048,148.041188,9696.697840
909.132869,995.924147,-296.082377,9474.636058
909.133185,459.657299,-222.061783,9770.718434
909.133501,229.828649,-814.226536,9696.697840
909.133817,0.000000,-666.185348,9992.780217
909.134132,-536.266849,-888.247130,9992.780217
909.134448,-229.828649,-740.205942,9918.759623
909.134764,-229.828649,-592.164754,9622.677246
909.135080,0.000000,-444.123565,9400.615463
909.135396,-76.609550,-444.123565,9030.512492
909.135712,0.000000,-74.020594,8956.491898
909.136028,0.000000,-148.041188,8586.388927
909.136344,0.000000,-148.041188,8734.430116
909.136660,0.000000,-74.020594,8660.409521
909.136975,-383.047749,-222.061783,9030.512492
909.137291,-459.657299,-666.185348,9178.553681
909.137607,-689.485948,-518.144159,9326.594869
909.137923,-842.705048,-518.144159,9474.636058
909.138239,-995.924147,-592.164754,9326.594869
909.138555,-1149.143247,-592.164754,9474.636058
909.138871,-612.876398,-962.267725,9474.636058
909.139187,-689.485948,-296.082377,9474.636058
909.139503,-536.266849,-370.102971,9030.512492
909.139819,-153.219100,-0.000000,9030.512492
909.140134,0.000000,-0.000000,8956.491898
909.140450,306.438199,-0.000000,8882.471304
909.140766,689.485948,222.061783,8882.471304
909.141082,919.314598,222.061783,8808.450710
909.141398,766.095498,222.061783,8808.450710
909.141714,536.266849,148.041188,9178.553681
909.142030,995.924147,-74.020594,9474.636058
909.142346,766.095498,-296.082377,9474.636058
909.142662,689.485948,-222.061783,9622.677246
909.142977,842.705048,-222.061783,9844.739029
909.143293,306.438199,-592.164754,9992.780217
909.143609,995.924147,-222.061783,9844.739029
909.143925,1072.533697,-148.041188,9622.677246
909.144241,1378.971896,-0.000000,9474.636058
909.144557,1302.362347,-0.000000,9178.553681
909.144873,1762.019645,222.061783,9252.574275
909.145189,1532.190996,222.061783,9326.594869
909.145505,1225.752797,222.061783,9474.636058
909.145821,1225.752797,148.041188,9696.697840
909.146136,919.314598,-0.000000,9844.739029
909.146452,919.314598,-518.144159,9844.739029
909.146768,842.705048,-296.082377,10066.800811
909.147084,842.705048,-370.102971,10214.842000
909.147400,612.876398,-370.102971,10214.842000
909.147716,536.266849,-444.123565,10214.842000
909.148032,612.876398,-518.144159,10066.800811
909.148348,766.095498,-148.041188,10066.800811
909.148664,919.314598,-0.000000,9844.739029
909.148979,1225.752797,-0.000000,9548.656652
909.149295,995.924147,296.082377,9474.636058
909.149611,995.924147,-74.020594,9622.677246
909.149927,919.314598,148.041188,9400.615463
909.150243,1072.533697,-0.000000,9474.636058
909.150559,919.314598,-222.061783,9548.656652
909.150875,612.876398,-666.185348,9918.759623
909.151191,459.657299,-814.226536,10140.821405
909.151507,-229.828649,-888.247130,9844.739029
909.151823,0.000000,-518.144159,10362.883188
909.152138,0.000000,-666.185348,9770.718434
909.152454,0.000000,-740.205942,9474.636058
909.152770,0.000000,-222.061783,9252.574275
909.153086,153.219100,-74.020594,9030.512492
909.153402,229.828649,-0.000000,8660.409521
909.153718,76.609550,-0.000000,8438.347739
909.154034,0.000000,-0.000000,8660.409521
909.154350,-153.219100,-0.000000,8808.450710
909.154666,-76.609550,-0.000000,9030.512492
909.154981,-459.657299,-370.102971,9030.512492
909.155297,-995.924147,-592.164754,9474.636058
909.155613,-842.705048,-888.247130,9770.718434
909.155929,-1072.533697,-592.164754,9400.615463
909.156245,-919.314598,-666.185348,9400.615463
909.156561,-612.876398,-740.205942,9400.615463
909.156877,-766.095498,-666.185348,9400.615463
909.157193,-459.657299,-444.123565,9178.553681
909.157509,-306.438199,-0.000000,9252.574275
909.157825,383.047749,148.041188,9030.512492
909.158140,459.657299,296.082377,8882.471304
909.158456,612.876398,296.082377,8808.450710
909.158772,612.876398,518.144159,8808.450710
909.159088,536.266849,296.082377,8882.471304
909.159404,612.876398,-0.000000,9030.512492
909.159720,383.047749,-148.041188,9326.594869
909.160036,76.609550,-740.205942,9622.677246
909.160352,0.000000,-814.226536,9992.780217
909.160668,0.000000,-814.226536,9918.759623
909.160983,0.000000,-592.164754,10362.883188
909.161299,536.266849,-518.144159,10140.821405
909.161615,766.095498,-592.164754,9844.739029
909.161931,1225.752797,-148.041188,9622.677246
909.162247,1225.752797,-0.000000,9400.615463
909.162563,1608.800546,370.102971,9326.594869
909.162879,1838.629195,-0.000000,9474.636058
909.163195,1685.410096,296.082377,9474.636058
909.163511,1532.190996,296.082377,9474.636058
909.163827,1455.581446,-0.000000,9696.697840
909.164142,995.924147,-74.020594,9992.780217
909.164458,536.266849,-444.123565,9992.780217
909.164774,536.266849,-666.185348,10066.800811
909.165090,995.924147,-444.123565,10066.800811
909.165406,766.095498,-296.082377,9992.780217
909.165722,612.876398,-222.061783,10140.821405
909.166038,842.705048,-370.102971,10140.821405
909.166354,919.314598,-0.000000,9918.759623
909.166670,919.314598,148.041188,9474.636058
909.166985,1149.143247,-0.000000,9400.615463
909.167301,1225.752797,296.082377,9326.594869
909.167617,919.314598,222.061783,9474.636058
909.167933,459.657299,-0.000000,9474.636058
909.168249,689.485948,-74.020594,9548.656652
909.168565,612.876398,-444.123565,9622.677246
909.168881,229.828649,-444.123565,9770.718434
909.169197,842.705048,-888.247130,9622.677246
909.169513,0.000000,-592.164754,9696.697840
909.169829,0.000000,-666.185348,9622.677246
909.170144,0.000000,-444.123565,9474.636058
909.170460,0.000000,-148.041188,9400.615463
909.170776,306.438199,-518.144159,9104.533087
909.171092,76.609550,-444.123565,9030.512492
909.171408,76.609550,-74.020594,8882.471304
909.171724,0.000000,-0.000000,8882.471304
909.172040,0.000000,-74.020594,8882.471304
909.172356,-689.485948,-740.205942,8808.450710
909.172672,-612.876398,-296.082377,9178.553681
909.172988,-766.095498,-518.144159,9474.636058
909.173303,-995.924147,-592.164754,9400.615463
909.173619,-919.314598,-666.185348,9326.594869
909.173935,-459.657299,-518.144159,9474.636058
909.174251,-689.485948,-444.123565,9474.636058
909.174567,-766.095498,-444.123565,9252.574275
909.174883,-612.876398,-296.082377,9326.594869
909.175199,-306.438199,-222.061783,9030.512492
909.175515,0.000000,-222.061783,9104.533087
909.175831,459.657299,-0.000000,9030.512492
909.176146,689.485948,148.041188,8808.450710
909.176462,689.485948,222.061783,8586.388927
909.176778,1378.971896,296.082377,8956.491898
909.177094,1072.533697,-148.041188,9030.512492
909.177410,919.314598,-74.020594,9400.615463
909.177726,842.705048,-0.000000,9178.553681
909.178042,459.657299,-74.020594,9474.636058
909.178358,306.438199,-296.082377,9770.718434
909.178674,766.095498,-370.102971,10214.842000
909.178990,766.095498,-222.061783,9844.739029
909.179305,1072.533697,-74.020594,9622.677246
909.179621,995.924147,222.061783,9548.656652
909.179937,1225.752797,-0.000000,9400.615463
909.180253,1608.800546,-74.020594,9030.512492
909.180569,1225.752797,370.102971,9252.574275
909.180885,1302.362347,370.102971,9474.636058
909.181201,1149.143247,-0.000000,9622.677246
909.181517,1072.533697,-0.000000,9844.739029
909.181833,1072.533697,-296.082377,9992.780217
909.182148,1225.752797,-592.164754,9992.780217
909.182464,1072.533697,-370.102971,10140.821405
909.182780,842.705048,-518.144159,9992.780217
909.183096,842.705048,-0.000000,10214.842000
909.183412,919.314598,-814.226536,10066.800811
909.183728,1302.362347,-148.041188,9844.739029
909.184044,1149.143247,-0.000000,9622.677246
909.184360,919.314598,-0.000000,9770.718434
909.184676,1225.752797,222.061783,9696.697840
909.184992,995.924147,-0.000000,9474.636058
909.185307,995.924147,-0.000000,9474.636058
909.185623,689.485948,-74.020594,9548.656652
909.185939,766.095498,-222.061783,9474.636058
909.186255,383.047749,-666.185348,9918.759623
909.186571,536.266849,-740.205942,10066.800811
909.186887,0.000000,-740.205942,9696.697840
909.187203,0.000000,-740.205942,9918.759623
909.187519,0.000000,-666.185348,9844.739029
909.187835,153.219100,-592.164754,9548.656652
909.188150,0.000000,-296.082377,9400.615463
909.188466,153.219100,-296.082377,9104.533087
909.188782,229.828649,-74.020594,8808.450710
909.189098,383.047749,-0.000000,8660.409521
909.189414,229.828649,-0.000000,8882.471304
909.189730,76.609550,-74.020594,8734.430116
909.190046,-306.438199,-74.020594,8956.491898
909.190362,-459.657299,-444.123565,9326.594869
909.190678,-689.485948,-740.205942,9326.594869
909.190994,-383.047749,-814.226536,9326.594869
909.191309,-766.095498,-814.226536,9178.553681
909.191625,-766.095498,-740.205942,9474.636058
909.191941,-689.485948,-666.185348,9474.636058
909.192257,-842.705048,-592.164754,9400.615463
909.192573,-306.438199,-518.144159,9400.615463
909.192889,229.828649,-370.102971,9104.533087
909.193205,383.047749,-0.000000,9030.512492
909.193521,229.828649,296.082377,8734.430116
909.193837,612.876398,370.102971,8734.430116
909.194152,383.047749,148.041188,8438.347739
909.194468,689.485948,-0.000000,8956.491898
909.194784,459.657299,-222.061783,9104.533087
909.195100,612.876398,-222.061783,9326.594869
909.195416,383.047749,-444.123565,9548.656652
909.195732,-153.219100,-222.061783,9770.718434
909.196048,229.828649,-518.144159,10362.883188
909.196364,383.047749,-444.123565,10066.800811
909.196680,766.095498,-296.082377,9844.739029
909.196996,842.705048,-222.061783,9770.718434
909.197311,1225.752797,-148.041188,9548.656652
909.197627,1455.581446,-148.041188,9178.553681
909.197943,1532.190996,296.082377,9400.615463
909.198259,1608.800546,666.185348,9252.574275
909.198575,1532.190996,444.123565,9474.636058
909.198891,1685.410096,-0.000000,9696.697840
909.199207,1378.971896,148.041188,9918.759623
909.199523,1072.533697,-148.041188,10288.862594
909.199839,1072.533697,-0.000000,10140.821405
909.200154,842.705048,-148.041188,10140.821405
909.200470,766.095498,-296.082377,10214.842000
909.200786,612.876398,-666.185348,10510.924376
909.201102,766.095498,-296.082377,9918.759623
909.201418,919.314598,-0.000000,9918.759623
909.201734,1149.143247,-0.000000,9770.718434
909.202050,1302.362347,148.041188,9696.697840
909.202366,1072.533697,518.144159,9548.656652
909.202682,1532.190996,296.082377,9474.636058
909.202998,1225.752797,222.061783,9178.553681
909.203313,1072.533697,-0.000000,9474.636058
909.203629,842.705048,-222.061783,9696.697840
909.203945,536.266849,-222.061783,9992.780217
909.204261,153.219100,-518.144159,10066.800811
909.204577,0.000000,-444.123565,9992.780217
909.204893,0.000000,-518.144159,10066.800811
909.205209,0.000000,-518.144159,9918.759623
909.205525,76.609550,-222.061783,9844.739029
909.205841,76.609550,-0.000000,9178.553681
909.206156,0.000000,-74.020594,9104.533087
909.206472,153.219100,-0.000000,8808.450710
909.206788,76.609550,-0.000000,9030.512492
909.207104,-153.219100,-0.000000,8586.388927
909.207420,-76.609550,-74.020594,8808.450710
909.207736,-229.828649,-222.061783,9178.553681
909.208051,-689.485948,-518.144159,9474.636058
909.208367,-995.924147,-592.164754,9474.636058
909.208683,-612.876398,-814.226536,9548.656652
909.208999,-1455.581446,-518.144159,9474.636058
909.209314,-919.314598,-444.123565,9622.677246
909.209630,-919.314598,-296.082377,9474.636058
909.209946,-919.314598,-518.144159,9178.553681
909.210262,-459.657299,-444.123565,9104.533087
909.210578,-153.219100,-148.041188,9104.533087
909.210893,-153.219100,-0.000000,8882.471304
909.211209,306.438199,-0.000000,8882.471304
909.211525,536.266849,148.041188,8734.430116
909.211841,1762.019645,-0.000000,8808.450710
909.212157,459.657299,-74.020594,8808.450710
909.212472,766.095498,-0.000000,9030.512492
909.212788,842.705048,-74.020594,9252.574275
909.213104,612.876398,-222.061783,9400.615463
909.213420,459.657299,-296.082377,9474.636058
909.213736,612.876398,-370.102971,9622.677246
909.214051,536.266849,-444.123565,9992.780217
909.214367,995.924147,-370.102971,9844.739029
909.214683,842.705048,-148.041188,9474.636058
909.214999,1378.971896,-0.000000,9474.636058
909.215314,1149.143247,-74.020594,9474.636058
909.215630,1149.143247,74.020594,9400.615463
909.215946,1225.752797,370.102971,9474.636058
909.216262,1225.752797,370.102971,9474.636058
909.216578,995.924147,-0.000000,9992.780217
909.216893,1149.143247,-0.000000,9992.780217
909.217209,919.314598,-222.061783,9918.759623
909.217525,919.314598,-222.061783,10066.800811
909.217841,842.705048,-370.102971,10214.842000
909.218157,842.705048,-444.123565,10436.903782
909.218472,689.485948,-148.041188,10140.821405
909.218788,1072.533697,-148.041188,9918.759623
909.219104,919.314598,-74.020594,9918.759623
909.219420,842.705048,444.123565,9992.780217
909.219736,1225.752797,-0.000000,9696.697840
909.220051,1225.752797,296.082377,9622.677246
909.220367,1072.533697,-0.000000,9252.574275
909.220683,995.924147,296.082377,9474.636058
909.220999,842.705048,-0.000000,9548.656652
909.221314,919.314598,-0.000000,9770.718434
909.221630,0.000000,-518.144159,9770.718434
909.221946,306.438199,-592.164754,9918.759623
909.222262,0.000000,-740.205942,9992.780217
909.222578,0.000000,-740.205942,9992.780217
909.222893,0.000000,-666.185348,10140.821405
909.223209,153.219100,-370.102971,9696.697840
909.223525,229.828649,-222.061783,9104.533087
909.223841,459.657299,-296.082377,8956.491898
909.224157,459.657299,-74.020594,8734.430116
909.224472,459.657299,-0.000000,8808.450710
909.224788,0.000000,-0.000000,8512.368333
909.225104,0.000000,296.082377,8956.491898
909.225420,-306.438199,-74.020594,9178.553681
909.225736,-612.876398,-296.082377,9178.553681
909.226051,0.000000,-444.123565,9252.574275
909.226367,-766.095498,-444.123565,9400.615463
909.226683,-995.924147,-592.164754,9400.615463
909.226999,-995.924147,-666.185348,9474.636058
909.227314,-1149.143247,-666.185348,9326.594869
909.227630,-459.657299,-444.123565,9770.718434
909.227946,-612.876398,-222.061783,9474.636058
909.228262,-383.047749,-0.000000,9104.533087
909.228578,153.219100,-0.000000,9104.533087
909.228893,153.219100,222.061783,8660.409521
909.229209,229.828649,-0.000000,8586.388927
909.229525,919.314598,296.082377,8808.450710
909.229841,766.095498,-0.000000,8882.471304
909.230157,306.438199,-74.020594,9104.533087
909.230472,612.876398,-74.020594,9400.615463
909.230788,459.657299,-444.123565,9548.656652
909.231104,229.828649,-666.185348,9696.697840
909.231420,306.438199,-592.164754,9770.718434
909.231736,459.657299,-666.185348,9992.780217
909.232051,1149.143247,-518.144159,9844.739029
909.232367,919.314598,-74.020594,9548.656652
909.232683,1072.533697,-0.000000,9400.615463
909.232999,1455.581446,-0.000000,9178.553681
909.233314,1455.581446,444.123565,9252.574275
909.233630,1302.362347,444.123565,9178.553681
909.233946,1455.581446,370.102971,9474.636058
909.234262,1455.581446,296.082377,9474.636058
909.234578,1225.752797,-0.000000,9844.739029
909.234893,995.924147,-222.061783,9844.739029
909.235209,1072.533697,-0.000000,10066.800811
909.235525,766.095498,-296.082377,10066.800811
909.235841,689.485948,-296.082377,10288.862594
909.236157,919.314598,-148.041188,10066.800811
909.236472,842.705048,-222.061783,10066.800811
909.236788,1378.971896,-0.000000,9992.780217
909.237104,995.924147,-0.000000,9844.739029
909.237420,995.924147,-0.000000,9696.697840
909.237736,1225.752797,-0.000000,9548.656652
909.238051,1225.752797,370.102971,9622.677246
909.238367,919.314598,-0.000000,9326.594869
909.238683,995.924147,-0.000000,9474.636058
909.238999,766.095498,-148.041188,9548.656652
909.239314,766.095498,-444.123565,9770.718434
909.239630,306.438199,-666.185348,9770.718434
909.239946,0.000000,-740.205942,9844.739029
909.240262,0.000000,-888.247130,9992.780217
909.240578,0.000000,-666.185348,10140.821405
909.240893,0.000000,-592.164754,9844.739029
909.241209,0.000000,-370.102971,9474.636058
909.241525,0.000000,-296.082377,9474.636058
909.241841,153.219100,-222.061783,9178.553681
909.242157,229.828649,-148.041188,8808.450710
909.242472,0.000000,-74.020594,8808.450710
909.242788,153.219100,-0.000000,9030.512492
909.243104,-229.828649,-370.102971,9178.553681
909.243420,-536.266849,-592.164754,9252.574275
909.243736,-383.047749,-592.164754,9252.574275
909.244051,-689.485948,-518.144159,9400.615463
909.244367,-919.314598,-740.205942,9178.553681
909.244683,-689.485948,-592.164754,9326.594869
909.244999,-612.876398,-444.123565,9400.615463
909.245314,-383.047749,-296.082377,9326.594869
909.245630,-306.438199,-222.061783,9252.574275
909.245946,-306.438199,-370.102971,9252.574275
909.246262,153.219100,-0.000000,9030.512492
909.246578,229.828649,-296.082377,8882.471304
909.246893,383.047749,148.041188,8956.491898
909.247209,766.095498,-0.000000,8956.491898
909.247525,766.095498,-296.082377,9030.512492
909.247841,459.657299,-74.020594,8956.491898
909.248157,612.876398,-296.082377,9252.574275
909.248472,459.657299,-444.123565,9474.636058
909.248788,459.657299,-370.102971,9474.636058
909.249104,536.266849,-592.164754,9622.677246
909.249420,383.047749,-666.185348,9992.780217
909.249736,842.705048,-296.082377,9548.656652
909.250051,689.485948,-222.061783,9474.636058
909.250367,995.924147,-0.000000,9474.636058
909.250683,1302.362347,-74.020594,9400.615463
909.250999,1225.752797,222.061783,9474.636058
909.251314,1302.362347,296.082377,9252.574275
909.251630,1302.362347,370.102971,9400.615463
909.251946,1455.581446,-0.000000,9770.718434
909.252262,1225.752797,-0.000000,9696.697840
909.252578,842.705048,-296.082377,9770.718434
909.252893,919.314598,-222.061783,9992.780217
909.253209,919.314598,-370.102971,9918.759623
909.253525,383.047749,-444.123565,10066.800811
909.253841,612.876398,-370.102971,10288.862594
909.254157,689.485948,-370.102971,9918.759623
909.254472,766.095498,-74.020594,9918.759623
909.254788,919.314598,-0.000000,9918.759623
909.255104,766.095498,-0.000000,9918.759623
909.255420,919.314598,444.123565,9548.656652
909.255736,766.095498,370.102971,9400.615463
909.256051,919.314598,222.061783,9474.636058
909.256367,919.314598,148.041188,9548.656652
909.256683,689.485948,-444.123565,9622.677246
909.256999,536.266849,-222.061783,9918.759623
909.257314,229.828649,-370.102971,9992.780217
909.257630,0.000000,-444.123565,9770.718434
909.257946,229.828649,-592.164754,10066.800811
909.258262,153.219100,-814.226536,9918.759623
909.258578,76.609550,-370.102971,9696.697840
909.258893,0.000000,-0.000000,9252.574275
909.259209,306.438199,-0.000000,9104.533087
909.259525,229.828649,-148.041188,8808.450710
909.259841,229.828649,148.041188,8808.450710
909.260157,76.609550,222.061783,8808.450710
909.260472,0.000000,222.061783,9030.512492
909.260788,0.000000,-74.020594,9178.553681
909.261104,0.000000,-592.164754,9548.656652
909.261420,-689.485948,-444.123565,9474.636058
909.261736,-1072.533697,-814.226536,9474.636058
909.262051,-766.095498,-888.247130,9548.656652
909.262367,-766.095498,-740.205942,9548.656652
909.262683,-612.876398,-518.144159,9548.656652
909.262999,-536.266849,-592.164754,9474.636058
909.263314,-536.266849,-222.061783,9252.574275
909.263630,0.000000,-222.061783,8882.471304
909.263946,153.219100,-370.102971,8956.491898
909.264262,229.828649,222.061783,8808.450710
909.264578,612.876398,370.102971,8808.450710
909.264893,766.095498,148.041188,8660.409521
909.265209,689.485948,-0.000000,8808.450710
909.265525,689.485948,-296.082377,9104.533087
909.265841,536.266849,-592.164754,9104.533087
909.266157,383.047749,-222.061783,9474.636058
909.266472,229.828649,-370.102971,9696.697840
909.266788,229.828649,-666.185348,9918.759623
909.267104,229.828649,-518.144159,10066.800811
909.267420,612.876398,-444.123565,9844.739029
909.267736,689.485948,-148.041188,9548.656652
909.268051,919.314598,-74.020594,9326.594869
909.268367,1378.971896,148.041188,9326.594869
909.268683,1608.800546,-148.041188,9178.553681
909.268999,1225.752797,444.123565,9178.553681
909.269314,1072.533697,296.082377,9326.594869
909.269630,1302.362347,-0.000000,9474.636058
909.269946,1149.143247,-0.000000,9696.697840
909.270262,1072.533697,-0.000000,9918.759623
909.270578,995.924147,-296.082377,9918.759623
909.270893,919.314598,-444.123565,9992.780217
909.271209,919.314598,-518.144159,9992.780217
909.271525,842.705048,-370.102971,10066.800811
909.271841,689.485948,-740.205942,10140.821405
909.272157,536.266849,-296.082377,9918.759623
909.272472,842.705048,-0.000000,9696.697840
909.272788,842.705048,-0.000000,9622.677246
909.273104,995.924147,-0.000000,9474.636058
909.273420,1455.581446,222.061783,9622.677246
909.273736,842.705048,-0.000000,9474.636058
909.274051,842.705048,-0.000000,9474.636058
909.274367,459.657299,-74.020594,9696.697840
909.274683,306.438199,-518.144159,9770.718434
909.274999,536.266849,-814.226536,9548.656652
909.275314,-229.828649,-814.226536,9918.759623
909.275630,-306.438199,-666.185348,9918.759623
909.275946,-229.828649,-444.123565,9918.759623
909.276262,0.000000,-370.102971,9770.718434
909.276578,0.000000,-296.082377,9622.677246
909.276893,0.000000,-222.061783,9178.553681
909.277209,153.219100,-296.082377,8808.450710
909.277525,0.000000,148.041188,9030.512492
909.277841,229.828649,-0.000000,8956.491898
909.278157,-306.438199,-0.000000,9178.553681
909.278472,-306.438199,-296.082377,9104.533087
909.278788,-383.047749,-0.000000,9400.615463
909.279104,-612.876398,-444.123565,9326.594869
909.279420,-842.705048,-444.123565,9474.636058
909.279736,-612.876398,-666.185348,9178.553681
909.280051,-842.705048,-518.144159,9400.615463
909.280367,-689.485948,-444.123565,9474.636058
909.280683,-306.438199,-370.102971,9474.636058
909.280999,153.219100,-222.061783,9252.574275
909.281314,-153.219100,-222.061783,8808.450710
909.281630,0.000000,-370.102971,8956.491898
909.281946,0.000000,296.082377,9252.574275
909.282262,612.876398,222.061783,8808.450710
909.282578,766.095498,148.041188,8882.471304
909.282893,536.266849,814.226536,9252.574275
909.283209,612.876398,-0.000000,9030.512492
909.283525,689.485948,-0.000000,9104.533087
909.283841,766.095498,-296.082377,9400.615463
909.284157,919.314598,-370.102971,9696.697840
909.284472,919.314598,-1110.308913,9770.718434
909.284788,689.485948,-370.102971,9622.677246
909.285104,612.876398,-296.082377,9622.677246
909.285420,919.314598,-148.041188,9474.636058
909.285736,1149.143247,-0.000000,9326.594869
909.286051,1378.971896,148.041188,9400.615463
909.286367,1378.971896,-0.000000,9252.574275
909.286683,1455.581446,222.061783,9400.615463
909.286999,1225.752797,-0.000000,9252.574275
909.287314,1302.362347,-0.000000,9844.739029
909.287630,919.314598,74.020594,10140.821405
909.287946,689.485948,-666.185348,9992.780217
909.288262,919.314598,-518.144159,9992.780217
909.288578,766.095498,-444.123565,9992.780217
909.288893,536.266849,-592.164754,10066.800811
909.289209,536.266849,-444.123565,10140.821405
909.289525,766.095498,-296.082377,9918.759623
909.289841,919.314598,-0.000000,9844.739029
909.290157,842.705048,-0.000000,9696.697840
909.290472,842.705048,-0.000000,9474.636058
909.290788,995.924147,222.061783,9474.636058
909.291104,1072.533697,-0.000000,9400.615463
909.291420,1149.143247,-0.000000,9400.615463
909.291736,995.924147,-0.000000,9326.594869
909.292051,459.657299,-370.102971,9622.677246
909.292367,306.438199,-814.226536,9844.739029
909.292683,383.047749,-888.247130,9992.780217
909.292999,0.000000,-592.164754,10066.800811
909.293314,0.000000,-740.205942,9918.759623
909.293630,-306.438199,-814.226536,10140.821405
909.293946,0.000000,-222.061783,9918.759623
909.294262,0.000000,-740.205942,9252.574275
909.294578,383.047749,-0.000000,9252.574275
909.294893,306.438199,-74.020594,9030.512492
909.295209,229.828649,-0.000000,8956.491898
909.295525,306.438199,74.020594,8956.491898
909.295841,0.000000,-0.000000,8882.471304
909.296157,-306.438199,-74.020594,8956.491898
909.296472,-383.047749,-444.123565,9252.574275
909.296788,0.000000,-666.185348,9474.636058
909.297104,-766.095498,-962.267725,9400.615463
909.297420,-612.876398,-666.185348,9474.636058
909.297736,-919.314598,-1036.288319,9474.636058
909.298051,-689.485948,-666.185348,9474.636058
909.298367,-536.266849,-518.144159,9474.636058
909.298683,-459.657299,-370.102971,9400.615463
909.298999,-153.219100,-148.041188,8808.450710
909.299315,0.000000,-0.000000,8808.450710
909.299630,229.828649,222.061783,8808.450710
909.299946,612.876398,222.061783,8808.450710
909.300262,536.266849,-0.000000,9030.512492
909.300578,689.485948,444.123565,8956.491898
909.300893,612.876398,-0.000000,8956.491898
909.301209,612.876398,-296.082377,9326.594869
909.301525,383.047749,-518.144159,9474.636058
909.301841,536.266849,-0.000000,9770.718434
909.302157,153.219100,-444.123565,9992.780217
909.302472,306.438199,-444.123565,9918.759623
909.302788,536.266849,-296.082377,9696.697840
909.303104,995.924147,-222.061783,9474.636058
909.303420,1149.143247,-222.061783,9252.574275
909.303736,1532.190996,370.102971,9030.512492
