#time,accel_x,accel_y,accel_z
609.770466,1225.752797,666.185348,9992.780217
609.770781,1072.533697,666.185348,9992.780217
609.771097,1072.533697,740.205942,9548.656652
609.771412,1072.533697,814.226536,9622.677246
609.771728,1532.190996,888.247130,9326.594869
609.772043,1378.971896,1332.370696,9326.594869
609.772359,1455.581446,1258.350101,9104.533087
609.772674,1532.190996,1406.391290,9030.512492
609.772990,1608.800546,962.267725,9326.594869
609.773305,1149.143247,1184.329507,9474.636058
609.773621,919.314598,1036.288319,9696.697840
609.773936,612.876398,962.267725,9992.780217
609.774252,689.485948,814.226536,10140.821405
609.774567,536.266849,888.247130,10140.821405
609.774883,459.657299,888.247130,10510.924376
609.775198,536.266849,740.205942,10658.965565
609.775514,995.924147,814.226536,10288.862594
609.775829,1072.533697,592.164754,10214.842000
609.776145,1608.800546,592.164754,10066.800811
609.776460,2068.457845,666.185348,9844.739029
609.776776,2221.676944,1258.350101,9474.636058
609.777091,2681.334243,1702.473667,9178.553681
609.777407,2834.553343,2072.576638,9104.533087
609.777722,3064.381992,2516.700203,9030.512492
609.778038,3217.601092,2590.720797,8882.471304
609.778353,3294.210641,2368.659014,8586.388927
609.778669,3600.648841,2072.576638,8956.491898
609.778984,3294.210641,1998.556043,8882.471304
609.779300,3217.601092,1554.432478,9474.636058
609.779615,3447.429741,1406.391290,9474.636058
609.779931,3524.039291,1332.370696,9400.615463
609.780246,3753.867940,1258.350101,9770.718434
609.780562,3600.648841,1628.453072,9326.594869
609.780877,3447.429741,2072.576638,9622.677246
609.781193,3370.820191,2368.659014,9178.553681
609.781508,3753.867940,2886.803174,9030.512492
609.781824,3753.867940,3256.906145,8882.471304
609.782139,3983.696590,3404.947333,8290.306550
609.782455,3677.258390,3330.926739,8586.388927
609.782770,3677.258390,3404.947333,8364.327145
609.783086,3370.820191,2960.823768,8882.471304
609.783401,3217.601092,2664.741391,9770.718434
609.783717,3140.991542,2442.679609,9622.677246
609.784032,2987.772442,2664.741391,9770.718434
609.784348,2528.115143,2590.720797,9918.759623
609.784663,2757.943793,2664.741391,10362.883188
609.784979,2604.724693,2294.638420,10362.883188
609.785294,2834.553343,2368.659014,10140.821405
609.785610,2757.943793,2590.720797,10140.821405
609.785925,3140.991542,2368.659014,10214.842000
609.786241,2911.162892,2442.679609,10288.862594
609.786556,3217.601092,2220.617826,10362.883188
609.786872,3294.210641,2220.617826,10066.800811
609.787187,3753.867940,2812.782580,9622.677246
609.787503,3983.696590,3256.906145,9178.553681
609.787818,4673.182538,3182.885551,9400.615463
609.788134,4213.525239,3034.844362,9104.533087
609.788449,4213.525239,3034.844362,8808.450710
609.788765,4060.306139,2738.761985,8660.409521
609.789080,3524.039291,2294.638420,8882.471304
609.789396,2681.334243,1702.473667,9400.615463
609.789711,1685.410096,1110.308913,9696.697840
609.790027,919.314598,592.164754,9844.739029
609.790342,-689.485948,370.102971,10362.883188
609.790658,-1302.362347,-74.020594,10807.006753
609.790973,-2298.286494,-740.205942,11103.089130
609.791289,-2528.115143,-1258.350101,11473.192101
609.791604,-2911.162892,-1480.411884,11177.109724
609.791920,-3140.991542,-1702.473667,11473.192101
609.792235,-2681.334243,-2220.617826,11177.109724
609.792551,-2374.896044,-2368.659014,11251.130318
609.792866,-1838.629195,-1776.494261,10807.006753
609.793182,-842.705048,-1406.391290,10362.883188
609.793497,76.609550,-296.082377,9844.739029
609.793813,1532.190996,518.144159,8512.368333
609.794128,2528.115143,1332.370696,7698.141797
609.794444,2911.162892,1554.432478,7254.018232
609.794759,3294.210641,1628.453072,7179.997637
609.795075,3140.991542,1036.288319,7105.977043
609.795390,2987.772442,148.041188,7254.018232
609.795706,2145.067394,-592.164754,7624.121203
609.796021,919.314598,-1332.370696,8660.409521
609.796337,-306.438199,-1702.473667,9104.533087
609.796652,-1608.800546,-2442.679609,9918.759623
609.796968,-2604.724693,-2960.823768,10436.903782
609.797283,-3217.601092,-3404.947333,10955.047942
609.797599,-4060.306139,-3997.112087,11177.109724
609.797914,-4213.525239,-4071.132681,11399.171507
609.798230,-3370.820191,-4441.235652,11177.109724
609.798545,-2757.943793,-3849.070898,10955.047942
609.798861,-1378.971896,-2960.823768,10288.862594
609.799177,-153.219100,-1702.473667,9326.594869
609.799492,1608.800546,-222.061783,8290.306550
609.799808,2911.162892,1110.308913,7031.956449
609.800124,4519.963438,1480.411884,5773.606348
609.800439,5362.668486,2368.659014,5921.647536
609.800755,5898.935335,2368.659014,4885.359217
609.801070,5898.935335,2146.597232,5181.441594
609.801386,4366.744339,1628.453072,6291.750507
609.801702,3370.820191,740.205942,7179.997637
609.802017,1838.629195,-296.082377,8438.347739
609.802333,0.000000,-1332.370696,9770.718434
609.802649,-1915.238745,-2294.638420,11251.130318
609.802964,-3217.601092,-3108.864956,12139.377449
609.803280,-4366.744339,-3478.967927,13323.706956
609.803595,-4443.353888,-3849.070898,13545.768739
609.803911,-3600.648841,-2886.803174,13027.624579
609.804227,-2911.162892,-1480.411884,12361.439231
609.804542,-1991.848295,-222.061783,11251.130318
609.804858,0.000000,1258.350101,9844.739029
609.805174,1762.019645,2368.659014,7994.224174
609.805489,3753.867940,3552.988522,7105.977043
609.805805,5132.839837,3923.091493,6587.832884
609.806120,6588.421283,3849.070898,5847.626942
609.806436,6741.640382,3701.029710,5921.647536
609.806752,5822.325785,3108.864956,6513.812290
609.807067,4749.792088,2812.782580,7624.121203
609.807383,3140.991542,2146.597232,8660.409521
609.807699,1072.533697,1184.329507,10066.800811
609.808014,-995.924147,-74.020594,11843.295072
609.808330,-2911.162892,-1184.329507,13175.665768
609.808645,-4290.134789,-1924.535449,14211.954086
609.808961,-4826.401637,-2516.700203,14434.015869
609.809277,-5209.449386,-2590.720797,14730.098246
609.809592,-4749.792088,-1702.473667,14211.954086
609.809908,-3830.477490,-518.144159,12583.501014
609.810224,-2068.457845,666.185348,11399.171507
609.810539,0.000000,2368.659014,9474.636058
609.810855,2298.286494,2886.803174,7846.182985
609.811170,4060.306139,3627.009116,6291.750507
609.811486,5362.668486,4367.215058,5551.544565
609.811802,5592.497135,4589.276840,5107.421000
609.812117,5745.716235,3849.070898,5181.441594
609.812433,5362.668486,3404.947333,5995.668130
609.812749,3524.039291,2368.659014,7254.018232
609.813064,995.924147,962.267725,8808.450710
609.813380,-919.314598,-222.061783,10510.924376
609.813696,-3370.820191,-1924.535449,11991.336260
609.814011,-4519.963438,-3330.926739,13545.768739
609.814327,-6052.154434,-4145.153275,14211.954086
609.814642,-6511.811733,-4293.194464,14804.118840
609.814958,-6281.983084,-3478.967927,14063.912898
609.815274,-4903.011187,-3034.844362,12213.398043
609.815589,-3294.210641,-1480.411884,10807.006753
609.815905,-995.924147,-0.000000,8882.471304
609.816221,842.705048,962.267725,7254.018232
609.816536,3064.381992,1850.514855,6069.688724
609.816852,4443.353888,2442.679609,4737.318029
609.817167,5132.839837,2590.720797,4737.318029
609.817483,5515.887586,2146.597232,4737.318029
609.817799,4826.401637,1332.370696,5773.606348
609.818114,3600.648841,-222.061783,7105.977043
609.818430,2145.067394,-962.267725,8734.430116
609.818746,76.609550,-2368.659014,10362.883188
609.819061,-1838.629195,-3552.988522,11695.253884
609.819377,-2681.334243,-4441.235652,12731.542202
609.819692,-3524.039291,-4441.235652,13545.768739
609.820008,-3753.867940,-4071.132681,13397.727550
609.820324,-3294.210641,-3108.864956,12657.521608
609.820639,-2604.724693,-2442.679609,11251.130318
609.820955,-919.314598,-1332.370696,9770.718434
609.821271,995.924147,-0.000000,8216.285956
609.821586,2834.553343,740.205942,6513.812290
609.821902,4519.963438,1110.308913,5921.647536
609.822217,4903.011187,1554.432478,5255.462188
609.822533,5209.449386,1258.350101,5403.503377
609.822849,5592.497135,962.267725,6217.729913
609.823164,4596.572988,518.144159,6513.812290
609.823480,2757.943793,-518.144159,8216.285956
609.823796,1532.190996,-1406.391290,9548.656652
609.824111,-459.657299,-2368.659014,11103.089130
609.824427,-1608.800546,-3478.967927,12361.439231
609.824742,-2451.505594,-4071.132681,12805.562797
609.825058,-3064.381992,-3627.009116,13323.706956
609.825374,-3140.991542,-2886.803174,13175.665768
609.825689,-2604.724693,-2294.638420,12065.356855
609.826005,-1762.019645,-1628.453072,10955.047942
609.826321,-306.438199,-0.000000,9252.574275
609.826636,995.924147,814.226536,7994.224174
609.826952,2298.286494,1628.453072,7105.977043
609.827268,3447.429741,2072.576638,6291.750507
609.827583,4136.915689,1850.514855,6883.915261
609.827899,4290.134789,1850.514855,6587.832884
609.828214,3677.258390,1850.514855,7179.997637
609.828530,2604.724693,1332.370696,7994.224174
609.828846,1455.581446,666.185348,9326.594869
609.829161,0.000000,-296.082377,10362.883188
609.829477,-1532.190996,-1480.411884,11621.233289
609.829793,-2374.896044,-2146.597232,12509.480420
609.830108,-2911.162892,-2516.700203,12953.603985
609.830424,-3294.210641,-2220.617826,13101.645173
609.830739,-2987.772442,-1998.556043,12805.562797
609.831055,-2374.896044,-814.226536,11769.274478
609.831371,-1225.752797,444.123565,10066.800811
609.831686,229.828649,1850.514855,8438.347739
609.832002,2298.286494,2368.659014,7698.141797
609.832318,2987.772442,3108.864956,6661.853478
609.832633,3753.867940,3627.009116,5995.668130
609.832949,3830.477490,3108.864956,6513.812290
609.833264,3677.258390,2590.720797,6513.812290
609.833580,2681.334243,2368.659014,7179.997637
609.833896,1991.848295,1258.350101,8512.368333
609.834211,536.266849,-0.000000,10140.821405
609.834527,-1072.533697,-888.247130,11325.150913
609.834843,-2068.457845,-1924.535449,12287.418637
609.835158,-2987.772442,-2664.741391,12879.583391
609.835474,-3064.381992,-2294.638420,13175.665768
609.835789,-3140.991542,-2146.597232,13027.624579
609.836105,-2681.334243,-1036.288319,11991.336260
609.836421,-1608.800546,296.082377,10881.027347
609.836736,-459.657299,1554.432478,9030.512492
609.837052,1072.533697,2442.679609,7772.162391
609.837368,2451.505594,2886.803174,6735.874072
609.837683,3677.258390,3108.864956,5995.668130
609.837999,4290.134789,2590.720797,6365.771101
609.838314,4290.134789,2368.659014,6809.894666
609.838630,3294.210641,1554.432478,7105.977043
609.838946,2681.334243,1184.329507,7994.224174
609.839261,1762.019645,296.082377,9252.574275
609.839577,383.047749,-814.226536,10732.986159
609.839893,-1455.581446,-1702.473667,11843.295072
609.840208,-2145.067394,-2886.803174,12657.521608
609.840524,-2681.334243,-3330.926739,12953.603985
609.840840,-2604.724693,-3330.926739,13397.727550
609.841155,-2451.505594,-2812.782580,12879.583391
609.841471,-1915.238745,-1924.535449,11843.295072
609.841786,-536.266849,-370.102971,10066.800811
609.842102,1302.362347,888.247130,8512.368333
609.842418,3140.991542,1480.411884,7402.059420
609.842733,4213.525239,3034.844362,6217.729913
609.843049,5056.230287,2590.720797,5551.544565
609.843365,5669.106685,2294.638420,5699.585753
609.843680,4979.620737,1924.535449,6069.688724
609.843996,4213.525239,1110.308913,6735.874072
609.844311,3294.210641,-0.000000,7772.162391
609.844627,1608.800546,-1184.329507,9474.636058
609.844943,-612.876398,-2294.638420,10955.047942
609.845258,-2068.457845,-3552.988522,12361.439231
609.845574,-2987.772442,-4367.215058,13397.727550
609.845890,-3677.258390,-4145.153275,13915.871710
609.846205,-3140.991542,-3478.967927,13323.706956
609.846521,-2757.943793,-2664.741391,12435.459826
609.846836,-1762.019645,-1554.432478,11325.150913
609.847152,-459.657299,-222.061783,9474.636058
609.847468,1378.971896,1258.350101,7698.141797
609.847783,3140.991542,1406.391290,6217.729913
609.848099,4136.915689,1776.494261,5847.626942
609.848415,4673.182538,2442.679609,5033.400406
609.848730,4673.182538,1554.432478,5403.503377
609.849046,3907.087040,1036.288319,6513.812290
609.849361,2451.505594,444.123565,7031.956449
609.849677,995.924147,-0.000000,8364.327145
609.849993,0.000000,-1258.350101,10140.821405
609.850308,-2068.457845,-2368.659014,12065.356855
609.850624,-3294.210641,-3478.967927,12805.562797
609.850940,-4136.915689,-3849.070898,13175.665768
609.851255,-4596.572988,-3775.050304,13545.768739
609.851571,-3983.696590,-3478.967927,13175.665768
609.851886,-3447.429741,-2368.659014,12065.356855
609.852202,-2298.286494,-814.226536,10584.944971
609.852518,-536.266849,370.102971,8808.450710
609.852833,1532.190996,1776.494261,7105.977043
609.853149,2834.553343,2442.679609,6291.750507
609.853465,4290.134789,3034.844362,5625.565159
609.853780,4826.401637,2960.823768,5329.482782
609.854096,4673.182538,2590.720797,5477.523971
609.854411,3983.696590,1924.535449,6513.812290
609.854727,2681.334243,1332.370696,7328.038826
609.855043,995.924147,222.061783,9104.533087
609.855358,-995.924147,-888.247130,10881.027347
609.855674,-2298.286494,-2294.638420,12435.459826
609.855990,-3830.477490,-2960.823768,13545.768739
609.856305,-4213.525239,-3182.885551,13619.789333
609.856621,-4749.792088,-2960.823768,13693.809927
609.856937,-3753.867940,-1998.556043,13027.624579
609.857252,-2757.943793,-740.205942,11473.192101
609.857568,-1532.190996,-0.000000,10436.903782
609.857883,229.828649,1406.391290,8512.368333
609.858199,1762.019645,1776.494261,7179.997637
609.858515,3294.210641,2368.659014,6735.874072
609.858830,4290.134789,2812.782580,5995.668130
609.859146,4519.963438,2368.659014,6143.709319
609.859462,4519.963438,2368.659014,6735.874072
609.859777,3600.648841,1924.535449,7105.977043
609.860093,2528.115143,1258.350101,8216.285956
609.860408,919.314598,-0.000000,9548.656652
609.860724,0.000000,-1258.350101,11251.130318
609.861040,-2221.676944,-2220.617826,12213.398043
609.861355,-3217.601092,-3034.844362,13101.645173
609.861671,-3447.429741,-3182.885551,13915.871710
609.861987,-3447.429741,-2812.782580,13619.789333
609.862302,-2987.772442,-2368.659014,12509.480420
609.862618,-1915.238745,-1036.288319,11325.150913
609.862933,-459.657299,370.102971,9918.759623
609.863249,1455.581446,1184.329507,7772.162391
609.863565,3677.258390,2442.679609,6809.894666
609.863880,4443.353888,2738.761985,5699.585753
609.864196,4979.620737,2812.782580,5255.462188
609.864512,5056.230287,2664.741391,5699.585753
609.864827,4596.572988,1924.535449,6143.709319
609.865143,3370.820191,518.144159,7179.997637
609.865458,2221.676944,-222.061783,8660.409521
609.865774,153.219100,-1332.370696,10066.800811
609.866090,-1532.190996,-2220.617826,11843.295072
609.866405,-2604.724693,-3330.926739,12879.583391
609.866721,-3447.429741,-3627.009116,13323.706956
609.867037,-3677.258390,-3182.885551,13471.748144
609.867352,-3983.696590,-2738.761985,12509.480420
609.867668,-3064.381992,-1924.535449,11843.295072
609.867983,-1762.019645,-888.247130,10436.903782
609.868299,-153.219100,370.102971,8734.430116
609.868615,1225.752797,1332.370696,7402.059420
609.868930,2681.334243,1628.453072,6291.750507
609.869246,3830.477490,2146.597232,5773.606348
609.869562,3907.087040,2294.638420,5847.626942
609.869877,3907.087040,2220.617826,6291.750507
609.870193,3217.601092,1184.329507,7031.956449
609.870509,2451.505594,296.082377,7846.182985
609.870824,995.924147,-74.020594,9104.533087
609.871140,-459.657299,-1184.329507,10584.944971
609.871455,-1608.800546,-2220.617826,11843.295072
609.871771,-2528.115143,-3256.906145,12583.501014
609.872087,-3294.210641,-3182.885551,13101.645173
609.872402,-3447.429741,-3182.885551,13101.645173
609.872718,-3370.820191,-2516.700203,12657.521608
609.873034,-2451.505594,-1332.370696,11325.150913
609.873349,-1225.752797,-148.041188,9474.636058
609.873665,689.485948,1184.329507,8216.285956
609.873980,2451.505594,1628.453072,6957.935855
609.874296,3370.820191,2368.659014,5995.668130
609.874612,4366.744339,2664.741391,5699.585753
609.874927,4749.792088,1998.556043,5773.606348
609.875243,4443.353888,1702.473667,6069.688724
609.875559,3524.039291,888.247130,7105.977043
609.875874,2298.286494,-0.000000,8512.368333
609.876190,229.828649,-962.267725,10214.842000
609.876505,-1072.533697,-1924.535449,11769.274478
609.876821,-2068.457845,-2516.700203,12509.480420
609.877137,-2911.162892,-2886.803174,13175.665768
609.877452,-3447.429741,-2812.782580,13101.645173
609.877768,-3140.991542,-2368.659014,12953.603985
609.878084,-2604.724693,-1406.391290,11843.295072
609.878399,-1608.800546,-370.102971,10732.986159
609.878715,306.438199,888.247130,9400.615463
609.879030,1532.190996,1850.514855,7920.203579
609.879346,2681.334243,2368.659014,6513.812290
609.879662,3600.648841,2442.679609,6069.688724
609.879977,4596.572988,2368.659014,6439.791695
609.880293,4213.525239,2072.576638,6513.812290
609.880609,3983.696590,1628.453072,7031.956449
609.880924,2911.162892,962.267725,8438.347739
609.881240,1685.410096,-74.020594,9548.656652
609.881555,76.609550,-740.205942,10807.006753
609.881871,-1302.362347,-1850.514855,12139.377449
609.882187,-2068.457845,-2590.720797,13027.624579
609.882502,-2987.772442,-2812.782580,13323.706956
609.882818,-2834.553343,-2664.741391,13397.727550
609.883134,-2757.943793,-1924.535449,12583.501014
609.883449,-2068.457845,-1406.391290,11695.253884
609.883765,-612.876398,296.082377,10214.842000
609.884081,919.314598,1480.411884,8364.327145
609.884396,2451.505594,1998.556043,7179.997637
609.884712,3600.648841,2664.741391,6291.750507
609.885027,4290.134789,2812.782580,5847.626942
609.885343,4826.401637,2368.659014,6143.709319
609.885659,4213.525239,1998.556043,6365.771101
609.885974,3294.210641,1406.391290,7179.997637
609.886290,2374.896044,296.082377,8512.368333
609.886606,383.047749,-814.226536,10066.800811
609.886921,-1378.971896,-1628.453072,11325.150913
609.887237,-2374.896044,-2516.700203,12583.501014
609.887552,-3064.381992,-3108.864956,13027.624579
609.887868,-3294.210641,-3256.906145,13545.768739
609.888184,-3524.039291,-2664.741391,12583.501014
609.888499,-2911.162892,-1850.514855,11695.253884
609.888815,-2145.067394,-888.247130,11029.068536
609.889131,-766.095498,592.164754,9326.594869
609.889446,842.705048,1258.350101,7698.141797
609.889762,2221.676944,1702.473667,6735.874072
609.890077,3217.601092,2220.617826,6069.688724
609.890393,3907.087040,1776.494261,5847.626942
609.890709,4596.572988,1850.514855,5921.647536
609.891024,3370.820191,1258.350101,6735.874072
609.891340,2604.724693,370.102971,7624.121203
609.891656,1302.362347,-296.082377,9030.512492
609.891971,0.000000,-1184.329507,10214.842000
609.892287,-1608.800546,-3182.885551,11621.233289
609.892602,-2451.505594,-3256.906145,12361.439231
609.892918,-3064.381992,-3404.947333,12879.583391
609.893234,-3524.039291,-3330.926739,13027.624579
609.893549,-2987.772442,-2664.741391,12509.480420
609.893865,-2451.505594,-2072.576638,11473.192101
609.894181,-842.705048,-592.164754,9992.780217
609.894496,612.876398,666.185348,8586.388927
609.894812,2068.457845,1628.453072,7328.038826
609.895127,3294.210641,2220.617826,6661.853478
609.895443,4596.572988,2886.803174,5625.565159
609.895759,4826.401637,2368.659014,5625.565159
609.896074,4903.011187,1776.494261,5995.668130
609.896390,3907.087040,1406.391290,6957.935855
609.896706,2834.553343,444.123565,7994.224174
609.897021,1532.190996,-666.185348,9400.615463
609.897337,0.000000,-1480.411884,11029.068536
609.897653,-1455.581446,-2442.679609,12065.356855
609.897968,-2451.505594,-3256.906145,13175.665768
609.898284,-3370.820191,-3182.885551,13693.809927
609.898600,-3524.039291,-3256.906145,13101.645173
609.898915,-2987.772442,-2146.597232,12287.418637
609.899231,-2068.457845,-1110.308913,11177.109724
609.899546,-536.266849,-0.000000,9770.718434
609.899862,995.924147,1332.370696,7846.182985
609.900178,2451.505594,1924.535449,7105.977043
609.900493,3524.039291,2294.638420,6365.771101
609.900809,4443.353888,2368.659014,6143.709319
609.901125,4136.915689,2220.617826,6143.709319
609.901440,3907.087040,1480.411884,6587.832884
609.901756,2834.553343,592.164754,7550.100608
609.902072,1608.800546,-0.000000,9104.533087
609.902387,153.219100,-740.205942,10288.862594
609.902703,-1378.971896,-1554.432478,11547.212695
609.903019,-2374.896044,-2590.720797,12731.542202
609.903334,-3140.991542,-2812.782580,12731.542202
609.903650,-3447.429741,-2812.782580,13175.665768
609.903966,-2987.772442,-2294.638420,12879.583391
609.904281,-2451.505594,-1332.370696,11843.295072
609.904597,-1608.800546,-0.000000,10584.944971
609.904913,76.609550,1110.308913,9030.512492
609.905228,1608.800546,1850.514855,7402.059420
609.905544,2911.162892,2664.741391,6661.853478
609.905859,4060.306139,2738.761985,6143.709319
609.906175,4596.572988,2294.638420,6069.688724
609.906491,4443.353888,2516.700203,6291.750507
609.906806,3830.477490,1628.453072,7031.956449
609.907122,2757.943793,962.267725,7920.203579
609.907438,1532.190996,296.082377,9400.615463
609.907753,76.609550,-962.267725,10214.842000
609.908069,-1532.190996,-1924.535449,11917.315666
609.908385,-2451.505594,-2738.761985,12583.501014
609.908700,-3217.601092,-2812.782580,12953.603985
609.909016,-3370.820191,-2886.803174,13101.645173
609.909332,-3447.429741,-2072.576638,12509.480420
609.909647,-2451.505594,-1332.370696,11473.192101
609.909963,-1302.362347,-222.061783,9696.697840
609.910279,0.000000,962.267725,8364.327145
609.910594,1455.581446,1850.514855,7550.100608
609.910910,2681.334243,2072.576638,6809.894666
609.911226,3370.820191,2146.597232,5995.668130
609.911541,3370.820191,1702.473667,6069.688724
609.911857,3140.991542,1258.350101,6513.812290
609.912172,2987.772442,814.226536,7254.018232
609.912488,1762.019645,-0.000000,8438.347739
609.912804,383.047749,-814.226536,10066.800811
609.913119,-1302.362347,-1776.494261,11251.130318
609.913435,-2374.896044,-2664.741391,12287.418637
609.913751,-2911.162892,-3182.885551,13101.645173
609.914066,-3600.648841,-3552.988522,13101.645173
609.914382,-3294.210641,-2886.803174,13249.686362
609.914698,-2604.724693,-1924.535449,12139.377449
609.915013,-1302.362347,-666.185348,10658.965565
609.915329,0.000000,666.185348,9474.636058
609.915645,1302.362347,1406.391290,7624.121203
609.915960,2987.772442,2294.638420,6365.771101
609.916276,4060.306139,2442.679609,5995.668130
609.916592,4749.792088,2516.700203,5699.585753
609.916907,4673.182538,2368.659014,5995.668130
609.917223,3907.087040,1184.329507,6809.894666
609.917538,3064.381992,518.144159,7772.162391
609.917854,1762.019645,-370.102971,9326.594869
609.918170,383.047749,-1332.370696,10584.944971
609.918485,-1072.533697,-2590.720797,11769.274478
609.918801,-2145.067394,-2886.803174,12509.480420
609.919117,-2911.162892,-3108.864956,12953.603985
609.919432,-3217.601092,-3108.864956,13471.748144
609.919748,-3064.381992,-2590.720797,12657.521608
609.920064,-2374.896044,-1332.370696,11399.171507
609.920379,-1378.971896,-0.000000,9844.739029
609.920695,229.828649,962.267725,8438.347739
609.921011,1762.019645,1480.411884,7179.997637
609.921326,3140.991542,1480.411884,6439.791695
609.921642,3907.087040,2146.597232,5847.626942
609.921958,4213.525239,1998.556043,6365.771101
609.922273,4136.915689,1554.432478,6291.750507
609.922589,3064.381992,814.226536,7105.977043
609.922905,2374.896044,-0.000000,8586.388927
609.923220,612.876398,-518.144159,9696.697840
609.923536,-842.705048,-1554.432478,11399.171507
609.923851,-2068.457845,-2516.700203,12287.418637
609.924167,-2911.162892,-3256.906145,12953.603985
609.924483,-3294.210641,-3256.906145,13397.727550
609.924798,-3447.429741,-3034.844362,13397.727550
609.925114,-2681.334243,-2072.576638,12139.377449
609.925430,-1685.410096,-592.164754,10881.027347
609.925745,0.000000,1036.288319,9474.636058
609.926061,1225.752797,1628.453072,8068.244768
609.926377,2604.724693,2812.782580,6883.915261
609.926692,4060.306139,2738.761985,5921.647536
609.927008,4673.182538,2738.761985,5625.565159
609.927324,4749.792088,2368.659014,5995.668130
609.927639,4060.306139,1924.535449,6735.874072
609.927955,3294.210641,1110.308913,7402.059420
609.928271,1915.238745,148.041188,8882.471304
609.928586,-306.438199,-518.144159,10658.965565
609.928902,-1225.752797,-1850.514855,11769.274478
609.929217,-2528.115143,-2590.720797,12287.418637
609.929533,-3294.210641,-2812.782580,12879.583391
609.929849,-3524.039291,-3034.844362,13693.809927
609.930164,-3294.210641,-2664.741391,13175.665768
609.930480,-2681.334243,-1554.432478,11843.295072
609.930796,-1455.581446,-222.061783,10214.842000
609.931111,0.000000,1184.329507,8808.450710
609.931427,1608.800546,1702.473667,7402.059420
609.931743,2834.553343,2590.720797,6661.853478
609.932058,3830.477490,2960.823768,5699.585753
609.932374,4443.353888,2442.679609,5773.606348
609.932690,4290.134789,2294.638420,5995.668130
609.933005,3753.867940,1554.432478,6883.915261
609.933321,2451.505594,666.185348,8512.368333
609.933637,1532.190996,-74.020594,9326.594869
609.933952,-612.876398,-1184.329507,10955.047942
609.934268,-1762.019645,-2146.597232,12139.377449
609.934584,-2834.553343,-3108.864956,12657.521608
609.934899,-3447.429741,-3034.844362,13323.706956
609.935215,-3677.258390,-3034.844362,13397.727550
609.935530,-3064.381992,-2368.659014,12657.521608
609.935846,-2298.286494,-1332.370696,11473.192101
609.936162,-1072.533697,-0.000000,9770.718434
609.936477,612.876398,740.205942,8438.347739
609.936793,2451.505594,1924.535449,7105.977043
609.937109,3600.648841,2368.659014,5847.626942
609.937424,4366.744339,2590.720797,5699.585753
609.937740,4903.011187,2072.576638,5995.668130
609.938056,4443.353888,1628.453072,6365.771101
609.938371,3447.429741,962.267725,7105.977043
609.938687,2374.896044,-0.000000,8808.450710
609.939003,995.924147,-740.205942,10066.800811
609.939318,-536.266849,-1702.473667,11399.171507
609.939634,-2145.067394,-2516.700203,12287.418637
609.939950,-2911.162892,-3478.967927,12953.603985
609.940265,-3370.820191,-3478.967927,13471.748144
609.940581,-3217.601092,-3256.906145,13175.665768
609.940897,-2451.505594,-2146.597232,12287.418637
609.941212,-1608.800546,-962.267725,10732.986159
609.941528,-383.047749,148.041188,9178.553681
609.941843,1072.533697,1332.370696,7550.100608
609.942159,2528.115143,1628.453072,6513.812290
609.942475,4060.306139,1998.556043,6291.750507
609.942790,4136.915689,2220.617826,5699.585753
609.943106,4366.744339,1924.535449,6069.688724
609.943422,3447.429741,1184.329507,6957.935855
609.943737,2681.334243,296.082377,7772.162391
609.944053,1302.362347,-518.144159,9400.615463
609.944369,0.000000,-1184.329507,10584.944971
609.944684,-1532.190996,-1998.556043,11695.253884
609.945000,-2451.505594,-2886.803174,12509.480420
609.945316,-2757.943793,-3182.885551,12731.542202
609.945631,-2757.943793,-3627.009116,13249.686362
609.945947,-3064.381992,-2590.720797,12509.480420
609.946263,-2374.896044,-1258.350101,11399.171507
609.946578,-1149.143247,-74.020594,9844.739029
609.946894,536.266849,814.226536,8438.347739
609.947209,2068.457845,1776.494261,7179.997637
609.947525,3677.258390,2516.700203,6143.709319
609.947841,4443.353888,2886.803174,5699.585753
609.948156,4673.182538,2590.720797,5773.606348
609.948472,4136.915689,2220.617826,6291.750507
609.948788,3064.381992,1184.329507,7105.977043
609.949103,2451.505594,444.123565,8660.409521
609.949419,919.314598,-296.082377,9770.718434
609.949735,-766.095498,-1332.370696,11177.109724
609.950050,-2528.115143,-2516.700203,12139.377449
609.950366,-3064.381992,-3034.844362,13101.645173
609.950682,-3447.429741,-3108.864956,13397.727550
609.950997,-3677.258390,-2738.761985,13249.686362
609.951313,-3064.381992,-1850.514855,12139.377449
609.951629,-1838.629195,-740.205942,11029.068536
609.951944,-842.705048,296.082377,9400.615463
609.952260,842.705048,1480.411884,8142.265362
609.952576,2374.896044,2368.659014,6661.853478
609.952891,3524.039291,2590.720797,5921.647536
609.953207,4366.744339,2516.700203,5773.606348
609.953522,4366.744339,2294.638420,6069.688724
609.953838,3524.039291,1406.391290,6883.915261
609.954154,2757.943793,1258.350101,8068.244768
609.954469,1685.410096,444.123565,9400.615463
609.954785,0.000000,-592.164754,10807.006753
609.955101,-1378.971896,-1776.494261,11769.274478
609.955416,-2604.724693,-2516.700203,12731.542202
609.955732,-3064.381992,-3256.906145,12953.603985
609.956048,-2604.724693,-3182.885551,13545.768739
609.956363,-2987.772442,-2368.659014,13101.645173
609.956679,-2298.286494,-1332.370696,11769.274478
609.956995,-766.095498,-74.020594,10214.842000
609.957310,383.047749,1258.350101,8586.388927
609.957626,2068.457845,2146.597232,7402.059420
609.957942,3447.429741,2294.638420,5847.626942
609.958257,4213.525239,2960.823768,6217.729913
609.958573,4596.572988,2442.679609,5551.544565
609.958889,4673.182538,2294.638420,6513.812290
609.959204,3370.820191,1406.391290,6957.935855
609.959520,2528.115143,666.185348,8216.285956
609.959835,1149.143247,-370.102971,9622.677246
609.960151,-766.095498,-1184.329507,11103.089130
609.960467,-2374.896044,-2442.679609,12213.398043
609.960782,-2834.553343,-3108.864956,12879.583391
609.961098,-3677.258390,-3330.926739,13101.645173
609.961414,-3753.867940,-3182.885551,13323.706956
609.961729,-3524.039291,-2442.679609,12583.501014
609.962045,-2298.286494,-1480.411884,11325.150913
609.962361,-1149.143247,-0.000000,9770.718434
609.962676,766.095498,1110.308913,7994.224174
609.962992,2221.676944,1776.494261,7105.977043
609.963308,3294.210641,2442.679609,5995.668130
609.963623,4443.353888,2368.659014,5773.606348
609.963939,4596.572988,2146.597232,5995.668130
609.964255,3600.648841,1406.391290,6143.709319
609.964570,2834.553343,296.082377,7476.080014
609.964886,1685.410096,-148.041188,9104.533087
609.965201,76.609550,-1110.308913,10066.800811
609.965517,-1532.190996,-2072.576638,11399.171507
609.965833,-2451.505594,-2960.823768,12509.480420
609.966148,-3447.429741,-3701.029710,12879.583391
609.966464,-3907.087040,-3627.009116,13915.871710
609.966780,-3830.477490,-3108.864956,13323.706956
609.967095,-2604.724693,-2812.782580,11991.336260
609.967411,-1608.800546,-1184.329507,10584.944971
609.967727,-153.219100,-0.000000,8882.471304
609.968042,1915.238745,740.205942,7179.997637
609.968358,3524.039291,2220.617826,6735.874072
609.968674,4519.963438,2368.659014,5477.523971
609.968989,5286.058936,2516.700203,5107.421000
609.969305,5056.230287,2146.597232,5403.503377
609.969621,4366.744339,1406.391290,6735.874072
609.969936,3294.210641,370.102971,7624.121203
609.970252,1838.629195,-444.123565,8956.491898
609.970568,-383.047749,-1480.411884,10732.986159
609.970883,-1608.800546,-2812.782580,11991.336260
609.971199,-2834.553343,-3701.029710,12879.583391
609.971514,-3677.258390,-3478.967927,13397.727550
609.971830,-4366.744339,-3256.906145,13175.665768
609.972146,-3524.039291,-2590.720797,13027.624579
609.972461,-2528.115143,-1776.494261,11843.295072
609.972777,-1378.971896,-148.041188,9844.739029
609.973093,306.438199,1036.288319,8290.306550
609.973408,2145.067394,1998.556043,7031.956449
609.973724,3370.820191,2294.638420,6143.709319
609.974040,4290.134789,2590.720797,5921.647536
609.974355,4596.572988,2738.761985,5921.647536
609.974671,4290.134789,1924.535449,6291.750507
609.974987,3830.477490,1258.350101,7105.977043
609.975302,2451.505594,814.226536,8364.327145
609.975618,842.705048,-370.102971,9696.697840
609.975934,-459.657299,-1036.288319,11029.068536
609.976249,-2298.286494,-1850.514855,12065.356855
609.976565,-3140.991542,-2812.782580,13175.665768
609.976880,-3753.867940,-3256.906145,13545.768739
609.977196,-3447.429741,-2738.761985,13471.748144
609.977512,-3447.429741,-1998.556043,12509.480420
609.977827,-2145.067394,-814.226536,11251.130318
609.978143,-766.095498,518.144159,9622.677246
609.978459,1225.752797,1628.453072,8142.265362
609.978774,2987.772442,2294.638420,6883.915261
609.979090,3907.087040,2886.803174,6217.729913
609.979406,4826.401637,2812.782580,5773.606348
609.979721,4673.182538,2812.782580,5699.585753
609.980037,4596.572988,1850.514855,6661.853478
609.980353,3370.820191,1702.473667,8142.265362
609.980668,2298.286494,592.164754,8882.471304
609.980984,689.485948,-296.082377,10288.862594
609.981300,-919.314598,-1776.494261,11547.212695
609.981615,-1532.190996,-2738.761985,12435.459826
609.981931,-3064.381992,-2812.782580,13249.686362
609.982247,-3677.258390,-3108.864956,13545.768739
609.982562,-3447.429741,-2368.659014,13249.686362
609.982878,-2757.943793,-1480.411884,11769.274478
609.983193,-1455.581446,-74.020594,10510.924376
609.983509,0.000000,666.185348,9326.594869
609.983825,1455.581446,1850.514855,7772.162391
609.984140,3140.991542,2368.659014,6365.771101
609.984456,4136.915689,2294.638420,5995.668130
609.984772,3983.696590,1924.535449,5699.585753
609.985087,4213.525239,1702.473667,6291.750507
609.985403,3830.477490,1258.350101,7105.977043
609.985719,2604.724693,814.226536,7994.224174
609.986034,1072.533697,-444.123565,9474.636058
609.986350,-383.047749,-962.267725,10955.047942
609.986666,-1915.238745,-2368.659014,11843.295072
609.986981,-2834.553343,-3404.947333,12805.562797
609.987297,-3140.991542,-3627.009116,13619.789333
609.987613,-3753.867940,-3330.926739,13249.686362
609.987928,-3064.381992,-2664.741391,12657.521608
609.988244,-2145.067394,-1480.411884,11325.150913
609.988560,-766.095498,-296.082377,9696.697840
609.988875,536.266849,814.226536,8290.306550
609.989191,2145.067394,1332.370696,7031.956449
609.989506,3447.429741,2072.576638,6587.832884
609.989822,4443.353888,2072.576638,5773.606348
609.990138,4443.353888,2294.638420,5773.606348
609.990453,4136.915689,1998.556043,6365.771101
609.990769,3294.210641,-0.000000,7105.977043
609.991085,2451.505594,148.041188,8216.285956
609.991400,689.485948,-592.164754,9844.739029
609.991716,-766.095498,-1924.535449,11103.089130
609.992032,-1915.238745,-2886.803174,11991.336260
609.992347,-2604.724693,-3256.906145,13027.624579
609.992663,-3370.820191,-3552.988522,13323.706956
609.992979,-3370.820191,-2812.782580,13027.624579
609.993294,-2911.162892,-1998.556043,11991.336260
609.993610,-2221.676944,-740.205942,10732.986159
609.993926,-612.876398,296.082377,9252.574275
609.994241,842.705048,1036.288319,7772.162391
609.994557,2145.067394,1702.473667,6513.812290
609.994872,3294.210641,1998.556043,6217.729913
609.995188,3907.087040,1850.514855,6291.750507
609.995504,3600.648841,1628.453072,5921.647536
609.995819,3753.867940,1258.350101,6883.915261
609.996135,3217.601092,592.164754,7920.203579
609.996451,1685.410096,-222.061783,8956.491898
609.996766,306.438199,-1184.329507,10140.821405
609.997082,-842.705048,-1628.453072,11547.212695
609.997398,-2298.286494,-2590.720797,12361.439231
609.997713,-2834.553343,-2886.803174,12657.521608
609.998029,-3140.991542,-2738.761985,13101.645173
609.998345,-3064.381992,-1924.535449,13027.624579
609.998661,-2528.115143,-1036.288319,11769.274478
609.998976,-1762.019645,-0.000000,10140.821405
609.999292,-306.438199,1332.370696,8808.450710
609.999608,1838.629195,1036.288319,7624.121203
609.999923,2757.943793,2072.576638,6439.791695
610.000239,3294.210641,2516.700203,6365.771101
610.000555,3983.696590,1998.556043,6217.729913
610.000870,4213.525239,2072.576638,6439.791695
610.001186,3447.429741,1776.494261,7031.956449
610.001502,2451.505594,1036.288319,8216.285956
610.001818,1378.971896,-0.000000,9696.697840
610.002133,0.000000,-814.226536,10510.924376
610.002449,-1072.533697,-1628.453072,11843.295072
610.002765,-2221.676944,-2516.700203,12509.480420
610.003080,-2451.505594,-2368.659014,13101.645173
610.003396,-2911.162892,-2146.597232,12879.583391
610.003712,-2451.505594,-1332.370696,12213.398043
610.004028,-1991.848295,-296.082377,11177.109724
610.004343,-842.705048,888.247130,9548.656652
610.004659,383.047749,1406.391290,8216.285956
610.004975,1685.410096,1998.556043,7179.997637
610.005290,2987.772442,2220.617826,6513.812290
610.005606,3370.820191,1924.535449,6735.874072
610.005922,3753.867940,1924.535449,6513.812290
610.006238,2757.943793,1776.494261,6957.935855
610.006553,2757.943793,1184.329507,7920.203579
610.006869,1608.800546,-0.000000,9030.512492
610.007185,306.438199,-1036.288319,10584.944971
610.007500,-612.876398,-1554.432478,11695.253884
610.007816,-1532.190996,-2368.659014,12139.377449
610.008132,-2451.505594,-2738.761985,12657.521608
610.008447,-2604.724693,-2590.720797,12953.603985
610.008763,-2374.896044,-2220.617826,12731.542202
610.009079,-2221.676944,-1184.329507,11621.233289
610.009395,-1225.752797,-0.000000,10214.842000
610.009710,229.828649,666.185348,8734.430116
610.010026,1762.019645,1554.432478,7550.100608
610.010342,3064.381992,2294.638420,6661.853478
610.010657,3600.648841,1998.556043,6217.729913
610.010973,3830.477490,1850.514855,6143.709319
610.011289,3830.477490,1554.432478,6513.812290
610.011605,2987.772442,962.267725,6957.935855
610.011920,2451.505594,-74.020594,8142.265362
610.012236,995.924147,-962.267725,9474.636058
610.012552,-383.047749,-1480.411884,10732.986159
610.012867,-1455.581446,-2590.720797,11769.274478
610.013183,-2374.896044,-3404.947333,12657.521608
610.013499,-2834.553343,-3478.967927,12879.583391
610.013815,-3370.820191,-2812.782580,12583.501014
610.014130,-2681.334243,-2146.597232,11843.295072
610.014446,-1762.019645,-1184.329507,11029.068536
610.014762,-1072.533697,-222.061783,9844.739029
610.015077,459.657299,814.226536,8290.306550
610.015393,2221.676944,1406.391290,6957.935855
610.015709,3217.601092,1628.453072,5921.647536
610.016025,3677.258390,1776.494261,5921.647536
610.016340,3524.039291,1332.370696,6513.812290
610.016656,3140.991542,1258.350101,6587.832884
610.016972,2604.724693,592.164754,7624.121203
610.017287,1455.581446,-296.082377,8956.491898
610.017603,76.609550,-962.267725,10288.862594
610.017919,-1149.143247,-2590.720797,11325.150913
610.018234,-2068.457845,-2738.761985,11917.315666
610.018550,-2757.943793,-3478.967927,12657.521608
610.018866,-3217.601092,-3404.947333,13175.665768
610.019182,-3217.601092,-2664.741391,12435.459826
610.019497,-2374.896044,-1850.514855,12065.356855
610.019813,-1149.143247,-444.123565,10510.924376
610.020129,0.000000,666.185348,8956.491898
610.020444,1302.362347,1110.308913,7550.100608
610.020760,2681.334243,1776.494261,6587.832884
610.021076,4136.915689,1998.556043,5921.647536
610.021392,4213.525239,1998.556043,6217.729913
610.021707,4519.963438,1998.556043,6069.688724
610.022023,3677.258390,1332.370696,6883.915261
610.022339,2451.505594,518.144159,7846.182985
610.022654,1455.581446,-74.020594,9252.574275
610.022970,0.000000,-1184.329507,10510.924376
610.023286,-1072.533697,-2072.576638,11991.336260
610.023602,-2298.286494,-3034.844362,12805.562797
610.023917,-2757.943793,-2960.823768,13027.624579
610.024233,-3140.991542,-2812.782580,13323.706956
610.024549,-2834.553343,-1998.556043,12583.501014
610.024864,-1991.848295,-888.247130,11547.212695
610.025180,-1149.143247,370.102971,9992.780217
610.025496,-383.047749,1036.288319,8586.388927
610.025811,1838.629195,1924.535449,7550.100608
610.026127,2681.334243,2664.741391,6439.791695
610.026443,3524.039291,2664.741391,5921.647536
610.026759,3907.087040,2220.617826,6365.771101
610.027074,3447.429741,1480.411884,6365.771101
610.027390,3140.991542,1332.370696,7550.100608
610.027706,2145.067394,370.102971,8734.430116
610.028021,766.095498,-148.041188,9992.780217
610.028337,-536.266849,-1480.411884,11177.109724
610.028653,-1455.581446,-2072.576638,12213.398043
610.028969,-2451.505594,-2368.659014,12657.521608
610.029284,-2911.162892,-2442.679609,13323.706956
610.029600,-2834.553343,-2368.659014,13101.645173
610.029916,-2221.676944,-1776.494261,11991.336260
610.030231,-1225.752797,-222.061783,10881.027347
610.030547,0.000000,592.164754,9178.553681
610.030863,1225.752797,1776.494261,7994.224174
610.031179,3064.381992,2442.679609,6809.894666
610.031494,3677.258390,2590.720797,6143.709319
610.031810,4136.915689,2442.679609,6143.709319
610.032126,4213.525239,2368.659014,6143.709319
610.032441,3907.087040,1850.514855,6587.832884
610.032757,3140.991542,444.123565,7920.203579
610.033073,1762.019645,-0.000000,9400.615463
610.033388,383.047749,-666.185348,10214.842000
610.033704,-995.924147,-1628.453072,11917.315666
610.034020,-2298.286494,-2738.761985,12583.501014
610.034336,-3064.381992,-3108.864956,12657.521608
610.034651,-3294.210641,-3034.844362,13175.665768
610.034967,-3140.991542,-2442.679609,12657.521608
610.035283,-2528.115143,-1480.411884,11547.212695
610.035598,-1302.362347,-370.102971,10214.842000
610.035914,-383.047749,666.185348,8734.430116
610.036230,1302.362347,1406.391290,7476.080014
610.036546,2757.943793,2072.576638,6587.832884
610.036861,3447.429741,2368.659014,5773.606348
610.037177,3830.477490,2294.638420,6143.709319
610.037493,4443.353888,1332.370696,6809.894666
610.037808,3370.820191,814.226536,7031.956449
610.038124,2451.505594,-0.000000,8068.244768
610.038440,1149.143247,-666.185348,9622.677246
610.038756,-459.657299,-1702.473667,11029.068536
610.039071,-1378.971896,-2368.659014,11917.315666
610.039387,-2528.115143,-3256.906145,12435.459826
610.039703,-3140.991542,-3478.967927,13027.624579
610.040018,-3064.381992,-2960.823768,13249.686362
610.040334,-3064.381992,-2368.659014,11991.336260
610.040650,-1991.848295,-1628.453072,10807.006753
610.040966,-689.485948,-0.000000,9696.697840
610.041281,459.657299,592.164754,8142.265362
610.041597,2298.286494,1480.411884,7105.977043
610.041913,3217.601092,2072.576638,6439.791695
610.042228,4060.306139,2146.597232,5995.668130
610.042544,4213.525239,1850.514855,5995.668130
610.042860,3983.696590,1332.370696,6365.771101
610.043175,3140.991542,814.226536,7254.018232
610.043491,2451.505594,-74.020594,8808.450710
610.043807,842.705048,-888.247130,10066.800811
610.044123,-689.485948,-1998.556043,11251.130318
610.044438,-1991.848295,-2960.823768,12435.459826
610.044754,-2987.772442,-3330.926739,12805.562797
610.045070,-3600.648841,-3478.967927,13175.665768
610.045385,-3524.039291,-2812.782580,13101.645173
610.045701,-2834.553343,-1776.494261,11621.233289
610.046017,-1915.238745,-518.144159,10214.842000
610.046333,-459.657299,518.144159,8956.491898
610.046648,229.828649,962.267725,7550.100608
610.046964,1991.848295,1702.473667,6809.894666
610.047280,3140.991542,2146.597232,6365.771101
610.047595,3524.039291,2072.576638,5995.668130
610.047911,3600.648841,1776.494261,6365.771101
610.048227,3217.601092,1036.288319,7031.956449
610.048543,2451.505594,740.205942,8068.244768
610.048858,1149.143247,-370.102971,9548.656652
610.049174,0.000000,-888.247130,10955.047942
610.049490,-1455.581446,-1776.494261,11473.192101
610.049805,-2068.457845,-2590.720797,12361.439231
610.050121,-2451.505594,-2664.741391,12657.521608
610.050437,-2757.943793,-2368.659014,12953.603985
610.050752,-2681.334243,-1776.494261,12139.377449
610.051068,-1532.190996,-740.205942,11177.109724
610.051384,-1149.143247,592.164754,10066.800811
610.051700,306.438199,1332.370696,8290.306550
610.052015,1915.238745,1850.514855,7105.977043
610.052331,3294.210641,2368.659014,6439.791695
610.052647,3600.648841,2590.720797,5921.647536
610.052962,3830.477490,2146.597232,6587.832884
610.053278,3753.867940,1924.535449,6587.832884
610.053594,3064.381992,1258.350101,7476.080014
610.053910,2145.067394,370.102971,8808.450710
610.054225,459.657299,-370.102971,10214.842000
610.054541,-459.657299,-1332.370696,11325.150913
610.054857,-1455.581446,-2146.597232,12287.418637
610.055172,-2451.505594,-2738.761985,12657.521608
610.055488,-2834.553343,-2590.720797,13027.624579
610.055804,-2757.943793,-2294.638420,12731.542202
610.056120,-2451.505594,-962.267725,12065.356855
610.056435,-1378.971896,370.102971,10362.883188
610.056751,-306.438199,1110.308913,9030.512492
610.057067,1378.971896,1554.432478,7624.121203
610.057382,2298.286494,2220.617826,7031.956449
610.057698,3140.991542,2294.638420,6069.688724
610.058014,3830.477490,1998.556043,6513.812290
610.058330,3753.867940,1850.514855,6439.791695
610.058645,3217.601092,1702.473667,7402.059420
610.058961,2298.286494,814.226536,8142.265362
610.059277,1225.752797,-148.041188,9622.677246
610.059592,0.000000,-1036.288319,10955.047942
610.059908,-1225.752797,-1850.514855,11621.233289
610.060224,-2451.505594,-2664.741391,12435.459826
610.060539,-2911.162892,-2886.803174,12731.542202
610.060855,-2911.162892,-2664.741391,13027.624579
610.061171,-2834.553343,-2072.576638,12583.501014
610.061487,-1991.848295,-888.247130,11325.150913
610.061802,-842.705048,-0.000000,9992.780217
610.062118,383.047749,962.267725,8512.368333
610.062434,1991.848295,1924.535449,7179.997637
610.062749,3064.381992,2146.597232,6661.853478
610.063065,3907.087040,2220.617826,5995.668130
610.063381,4136.915689,1924.535449,6143.709319
610.063697,3830.477490,1554.432478,6513.812290
610.064012,3294.210641,814.226536,7328.038826
610.064328,2374.896044,-0.000000,8512.368333
610.064644,612.876398,-962.267725,10066.800811
610.064959,-842.705048,-1998.556043,11177.109724
610.065275,-2145.067394,-2590.720797,12065.356855
610.065591,-2757.943793,-3108.864956,12805.562797
610.065907,-3140.991542,-3108.864956,13249.686362
610.066222,-3370.820191,-2960.823768,13027.624579
610.066538,-2757.943793,-2220.617826,11843.295072
610.066854,-1915.238745,-962.267725,10584.944971
610.067169,-842.705048,-0.000000,9104.533087
610.067485,1608.800546,666.185348,7624.121203
610.067801,2068.457845,1554.432478,6587.832884
610.068116,3140.991542,2072.576638,6143.709319
610.068432,3677.258390,1850.514855,5995.668130
610.068748,3753.867940,1776.494261,6513.812290
610.069064,3217.601092,1036.288319,6143.709319
610.069379,2298.286494,444.123565,7772.162391
610.069695,1455.581446,-444.123565,9178.553681
610.070011,-229.828649,-1480.411884,10436.903782
610.070326,-1532.190996,-2442.679609,11621.233289
610.070642,-2298.286494,-3182.885551,12287.418637
610.070958,-3064.381992,-3404.947333,13027.624579
610.071274,-2987.772442,-3034.844362,13323.706956
610.071589,-2911.162892,-2516.700203,12583.501014
610.071905,-2451.505594,-1184.329507,11547.212695
610.072221,-1072.533697,-222.061783,10362.883188
610.072536,536.266849,962.267725,8290.306550
610.072852,2068.457845,1776.494261,7254.018232
610.073168,3217.601092,2368.659014,6217.729913
610.073484,4443.353888,2294.638420,5699.585753
610.073799,4673.182538,2294.638420,5847.626942
610.074115,4366.744339,2072.576638,6217.729913
610.074431,3753.867940,1184.329507,6883.915261
610.074746,2987.772442,296.082377,8290.306550
610.075062,1149.143247,-222.061783,9548.656652
610.075378,-383.047749,-1850.514855,10955.047942
610.075693,-1762.019645,-2368.659014,11843.295072
610.076009,-2681.334243,-3034.844362,13175.665768
610.076325,-3447.429741,-3330.926739,13619.789333
610.076641,-3294.210641,-2960.823768,13471.748144
610.076956,-2757.943793,-2072.576638,12731.542202
610.077272,-1838.629195,-444.123565,11399.171507
610.077588,-459.657299,740.205942,9474.636058
610.077903,1072.533697,1480.411884,7920.203579
610.078219,2298.286494,2146.597232,7105.977043
610.078535,3677.258390,2664.741391,5921.647536
610.078851,5056.230287,2738.761985,5403.503377
610.079166,4673.182538,2368.659014,6439.791695
610.079482,3753.867940,2072.576638,6587.832884
610.079798,3600.648841,962.267725,7402.059420
610.080113,1991.848295,-0.000000,9252.574275
610.080429,306.438199,-814.226536,10288.862594
610.080745,-1225.752797,-1628.453072,11769.274478
610.081061,-2451.505594,-2368.659014,12879.583391
610.081376,-3140.991542,-3108.864956,13027.624579
610.081692,-3524.039291,-2590.720797,13471.748144
610.082008,-3064.381992,-2368.659014,13101.645173
610.082323,-2604.724693,-1332.370696,11991.336260
610.082639,-1378.971896,-148.041188,10214.842000
610.082955,0.000000,666.185348,8734.430116
610.083271,1838.629195,1850.514855,7624.121203
610.083586,3140.991542,2590.720797,6513.812290
610.083902,4443.353888,2886.803174,5477.523971
610.084218,4903.011187,3034.844362,5773.606348
610.084533,4443.353888,2072.576638,5625.565159
610.084849,4136.915689,1628.453072,6809.894666
610.085165,2834.553343,888.247130,7920.203579
610.085480,1149.143247,-148.041188,9474.636058
610.085796,-536.266849,-1258.350101,10881.027347
610.086112,-2068.457845,-2442.679609,12139.377449
610.086428,-3140.991542,-3182.885551,13101.645173
610.086743,-3830.477490,-3182.885551,13471.748144
610.087059,-3753.867940,-3182.885551,13841.851115
610.087375,-3753.867940,-2516.700203,12879.583391
610.087690,-2834.553343,-814.226536,11473.192101
610.088006,-1532.190996,74.020594,9770.718434
610.088322,383.047749,962.267725,8438.347739
610.088638,2451.505594,2072.576638,6809.894666
610.088953,3907.087040,2812.782580,6143.709319
610.089269,4290.134789,2516.700203,5699.585753
610.089585,4443.353888,2368.659014,5773.606348
610.089900,4290.134789,1850.514855,5995.668130
610.090216,3447.429741,370.102971,7179.997637
610.090532,2221.676944,-444.123565,8660.409521
610.090848,612.876398,-1036.288319,10066.800811
610.091163,-1149.143247,-2146.597232,11325.150913
610.091479,-2451.505594,-2812.782580,12361.439231
610.091795,-3217.601092,-3330.926739,13027.624579
610.092110,-3294.210641,-3404.947333,13471.748144
610.092426,-3447.429741,-3404.947333,13249.686362
610.092742,-3217.601092,-2516.700203,12361.439231
610.093057,-1991.848295,-1480.411884,10881.027347
610.093373,-306.438199,-370.102971,9178.553681
610.093689,1532.190996,666.185348,7846.182985
610.094005,2987.772442,1850.514855,6365.771101
610.094320,4060.306139,2664.741391,5699.585753
610.094636,4749.792088,2738.761985,5329.482782
610.094952,4903.011187,2146.597232,5477.523971
610.095267,4213.525239,1480.411884,6069.688724
610.095583,3294.210641,518.144159,7550.100608
610.095899,1762.019645,-444.123565,9252.574275
610.096215,0.000000,-1406.391290,10436.903782
610.096530,-1685.410096,-2664.741391,11399.171507
610.096846,-2604.724693,-3182.885551,12657.521608
610.097162,-3677.258390,-3627.009116,13545.768739
610.097477,-3907.087040,-3478.967927,13545.768739
610.097793,-3753.867940,-2664.741391,13175.665768
610.098109,-2834.553343,-1998.556043,11843.295072
610.098425,-1762.019645,-222.061783,10436.903782
610.098740,76.609550,1110.308913,8734.430116
610.099056,1685.410096,1702.473667,7031.956449
610.099372,3370.820191,2368.659014,6513.812290
610.099688,4213.525239,2738.761985,5625.565159
610.100004,4596.572988,2590.720797,5551.544565
610.100319,4749.792088,2146.597232,5995.668130
610.100635,3524.039291,1258.350101,6957.935855
610.100951,2528.115143,444.123565,8364.327145
610.101267,1225.752797,-222.061783,9622.677246
610.101583,-689.485948,-1332.370696,10955.047942
610.101898,-2298.286494,-2220.617826,12435.459826
610.102214,-3370.820191,-2960.823768,12805.562797
610.102530,-3983.696590,-3108.864956,13397.727550
610.102846,-3677.258390,-2960.823768,13545.768739
610.103162,-2757.943793,-2368.659014,12805.562797
610.103478,-1991.848295,-1110.308913,11103.089130
610.103793,-1149.143247,444.123565,9548.656652
610.104109,612.876398,1998.556043,8290.306550
610.104425,2757.943793,2368.659014,6809.894666
610.104741,3907.087040,3182.885551,5773.606348
610.105057,4519.963438,3627.009116,5403.503377
610.105372,5056.230287,2368.659014,5995.668130
610.105688,4749.792088,2294.638420,6143.709319
610.106004,3830.477490,1406.391290,7179.997637
610.106320,2528.115143,370.102971,8808.450710
610.106636,1225.752797,-666.185348,10140.821405
610.106951,-766.095498,-1554.432478,11473.192101
610.107267,-2298.286494,-2516.700203,12953.603985
610.107583,-3294.210641,-2960.823768,13249.686362
610.107899,-3907.087040,-2516.700203,13619.789333
610.108215,-3830.477490,-2294.638420,13397.727550
610.108531,-2911.162892,-1554.432478,12287.418637
610.108846,-1991.848295,-74.020594,10881.027347
610.109162,-612.876398,1184.329507,9178.553681
610.109478,1302.362347,1924.535449,7624.121203
610.109794,2757.943793,1776.494261,6883.915261
610.110110,4136.915689,2442.679609,5773.606348
610.110425,4213.525239,2664.741391,5995.668130
610.110741,4213.525239,2368.659014,6587.832884
610.111057,4060.306139,1702.473667,6809.894666
610.111373,2604.724693,888.247130,8068.244768
610.111689,1608.800546,222.061783,9252.574275
610.112004,153.219100,-962.267725,10955.047942
610.112320,-1225.752797,-1702.473667,11547.212695
610.112636,-2374.896044,-2590.720797,12509.480420
610.112952,-3140.991542,-3478.967927,13027.624579
610.113268,-3217.601092,-3182.885551,13915.871710
610.113584,-2911.162892,-2738.761985,12731.542202
610.113899,-2451.505594,-1924.535449,11843.295072
610.114215,-1225.752797,-222.061783,10288.862594
610.114531,306.438199,444.123565,8438.347739
610.114847,1838.629195,1628.453072,7105.977043
610.115163,3064.381992,2442.679609,6439.791695
610.115478,3907.087040,2516.700203,5625.565159
610.115794,4366.744339,2516.700203,5699.585753
610.116110,4673.182538,1184.329507,5921.647536
610.116426,3447.429741,814.226536,7031.956449
610.116742,2374.896044,-0.000000,8068.244768
610.117057,842.705048,-1110.308913,9252.574275
610.117373,-536.266849,-2146.597232,11251.130318
610.117689,-1915.238745,-3034.844362,12657.521608
610.118005,-2757.943793,-3552.988522,12805.562797
610.118321,-3447.429741,-3478.967927,12657.521608
610.118637,-3753.867940,-2960.823768,13101.645173
610.118952,-3294.210641,-2294.638420,12435.459826
610.119268,-1838.629195,-1110.308913,10881.027347
610.119584,-766.095498,-0.000000,9104.533087
610.119900,383.047749,888.247130,7698.141797
610.120216,1608.800546,1036.288319,6883.915261
610.120531,2834.553343,1628.453072,6365.771101
610.120847,3294.210641,1628.453072,6143.709319
610.121163,3600.648841,1776.494261,6217.729913
610.121479,3524.039291,962.267725,6883.915261
610.121795,3064.381992,592.164754,7476.080014
610.122110,1608.800546,-222.061783,8734.430116
610.122426,383.047749,-444.123565,9622.677246
610.122742,-612.876398,-1998.556043,11177.109724
610.123058,-1838.629195,-2664.741391,12361.439231
610.123374,-2604.724693,-3182.885551,12805.562797
610.123690,-2757.943793,-3182.885551,13101.645173
610.124005,-2834.553343,-2516.700203,12879.583391
610.124321,-2604.724693,-1702.473667,11769.274478
610.124637,-1149.143247,-370.102971,10288.862594
610.124953,0.000000,1184.329507,8808.450710
610.125269,1685.410096,1702.473667,7402.059420
610.125584,2834.553343,2220.617826,6809.894666
610.125900,3753.867940,2738.761985,5847.626942
610.126216,4060.306139,2072.576638,5995.668130
610.126532,4290.134789,1850.514855,6365.771101
610.126848,3830.477490,1110.308913,6883.915261
610.127163,2604.724693,444.123565,8216.285956
610.127479,1608.800546,-222.061783,9844.739029
610.127795,0.000000,-1258.350101,10807.006753
610.128111,-1302.362347,-1924.535449,11843.295072
610.128427,-1991.848295,-2516.700203,12731.542202
610.128743,-2757.943793,-2442.679609,12953.603985
610.129058,-3064.381992,-2146.597232,13397.727550
610.129374,-2681.334243,-1332.370696,12139.377449
610.129690,-1608.800546,-518.144159,11103.089130
610.130006,-995.924147,296.082377,9992.780217
610.130322,459.657299,1628.453072,8364.327145
610.130637,1762.019645,1924.535449,7179.997637
610.130953,2911.162892,2368.659014,6661.853478
610.131269,3217.601092,2516.700203,6661.853478
610.131585,3753.867940,1998.556043,6735.874072
610.131901,3677.258390,1850.514855,6735.874072
610.132216,2834.553343,962.267725,7624.121203
610.132532,1762.019645,-0.000000,9178.553681
610.132848,612.876398,-888.247130,10214.842000
610.133164,-842.705048,-1628.453072,11399.171507
610.133480,-1838.629195,-2368.659014,12731.542202
610.133796,-2451.505594,-2960.823768,13027.624579
610.134111,-2757.943793,-2738.761985,13249.686362
610.134427,-2757.943793,-2294.638420,13027.624579
610.134743,-2145.067394,-1332.370696,11917.315666
610.135059,-1072.533697,-222.061783,10436.903782
610.135375,153.219100,1406.391290,8956.491898
610.135690,1532.190996,1998.556043,7105.977043
610.136006,3370.820191,2516.700203,6365.771101
610.136322,4060.306139,2516.700203,5625.565159
610.136638,4136.915689,2516.700203,5551.544565
610.136954,4136.915689,1702.473667,6291.750507
610.137269,3830.477490,962.267725,7179.997637
610.137585,2374.896044,444.123565,8142.265362
610.137901,995.924147,-814.226536,9400.615463
610.138217,-459.657299,-1332.370696,11399.171507
610.138533,-1915.238745,-2368.659014,11917.315666
610.138849,-2298.286494,-2886.803174,12731.542202
610.139164,-3217.601092,-3108.864956,12953.603985
610.139480,-3370.820191,-2590.720797,13323.706956
610.139796,-3064.381992,-2072.576638,12287.418637
610.140112,-2221.676944,-962.267725,11177.109724
610.140428,-1149.143247,-0.000000,9844.739029
610.140743,612.876398,888.247130,7994.224174
610.141059,1991.848295,1554.432478,6809.894666
610.141375,2987.772442,1924.535449,6439.791695
610.141691,3907.087040,1998.556043,6143.709319
610.142007,4366.744339,2220.617826,5625.565159
610.142322,3830.477490,1332.370696,6143.709319
610.142638,3140.991542,1036.288319,7328.038826
610.142954,2068.457845,444.123565,8512.368333
610.143270,306.438199,-1110.308913,9252.574275
610.143586,-1149.143247,-1850.514855,11399.171507
610.143902,-2451.505594,-3182.885551,12583.501014
610.144217,-2911.162892,-3478.967927,13027.624579
610.144533,-3370.820191,-3256.906145,13397.727550
610.144849,-3600.648841,-3182.885551,12657.521608
610.145165,-2528.115143,-1998.556043,12065.356855
610.145481,-1608.800546,-962.267725,10807.006753
610.145796,-153.219100,444.123565,9178.553681
610.146112,1302.362347,1258.350101,7698.141797
610.146428,2911.162892,1924.535449,6143.709319
610.146744,4136.915689,2664.741391,5995.668130
610.147060,4673.182538,2368.659014,5699.585753
610.147375,4673.182538,2220.617826,5995.668130
610.147691,4136.915689,1406.391290,6291.750507
610.148007,3140.991542,666.185348,7698.141797
610.148323,1991.848295,-74.020594,9030.512492
610.148639,229.828649,-1332.370696,10436.903782
610.148955,-1302.362347,-2294.638420,12213.398043
610.149270,-2221.676944,-3108.864956,13101.645173
610.149586,-3140.991542,-3108.864956,13175.665768
610.149902,-3447.429741,-2886.803174,13397.727550
610.150218,-3447.429741,-2368.659014,13101.645173
610.150534,-2834.553343,-1332.370696,11843.295072
610.150849,-1608.800546,-74.020594,10436.903782
610.151165,-229.828649,518.144159,8586.388927
610.151481,1302.362347,1258.350101,7254.018232
610.151797,2604.724693,2294.638420,6735.874072
610.152113,4060.306139,2442.679609,6069.688724
610.152428,4136.915689,2590.720797,6143.709319
610.152744,3983.696590,2442.679609,6143.709319
610.153060,3447.429741,1406.391290,7031.956449
610.153376,2757.943793,518.144159,8216.285956
610.153692,1225.752797,-148.041188,9474.636058
610.154008,0.000000,-1258.350101,11029.068536
610.154323,-1378.971896,-2368.659014,12139.377449
610.154639,-2528.115143,-2960.823768,12657.521608
610.154955,-3370.820191,-2812.782580,13323.706956
610.155271,-3524.039291,-2516.700203,13323.706956
610.155587,-3064.381992,-1702.473667,12213.398043
610.155902,-2221.676944,-518.144159,11325.150913
610.156218,-919.314598,296.082377,9474.636058
610.156534,919.314598,1110.308913,8290.306550
610.156850,2451.505594,1924.535449,6809.894666
610.157166,3600.648841,2294.638420,5995.668130
610.157481,4136.915689,2368.659014,5551.544565
610.157797,4213.525239,2146.597232,6143.709319
610.158113,4213.525239,1850.514855,6513.812290
610.158429,3753.867940,1258.350101,7179.997637
610.158745,2451.505594,-0.000000,8512.368333
610.159060,842.705048,-518.144159,9844.739029
610.159376,-536.266849,-1776.494261,11473.192101
610.159692,-1685.410096,-2590.720797,12065.356855
610.160008,-2451.505594,-2738.761985,12509.480420
610.160324,-3140.991542,-2368.659014,13175.665768
610.160640,-3217.601092,-2220.617826,12953.603985
610.160955,-2681.334243,-1184.329507,12139.377449
610.161271,-2145.067394,-74.020594,10658.965565
610.161587,-1149.143247,1036.288319,9104.533087
610.161903,842.705048,1554.432478,7920.203579
610.162219,2068.457845,2442.679609,6957.935855
610.162534,3294.210641,2738.761985,5921.647536
610.162850,3907.087040,2664.741391,6143.709319
610.163166,3447.429741,1924.535449,6735.874072
610.163482,3447.429741,1480.411884,7105.977043
610.163798,2834.553343,296.082377,7994.224174
610.164113,1149.143247,-296.082377,9548.656652
610.164429,0.000000,-1258.350101,11029.068536
610.164745,-1225.752797,-2220.617826,11917.315666
610.165061,-2298.286494,-2960.823768,12509.480420
610.165377,-2911.162892,-2738.761985,13249.686362
610.165693,-2911.162892,-2368.659014,12953.603985
610.166008,-2374.896044,-1850.514855,12213.398043
610.166324,-2221.676944,-1406.391290,10807.006753
610.166640,-459.657299,222.061783,9696.697840
610.166956,919.314598,814.226536,8364.327145
610.167272,2221.676944,1776.494261,7105.977043
610.167587,3830.477490,1998.556043,5995.668130
610.167903,4290.134789,2220.617826,5625.565159
610.168219,4366.744339,2220.617826,5995.668130
610.168535,3983.696590,1702.473667,6513.812290
610.168851,3064.381992,888.247130,7624.121203
610.169166,2221.676944,-222.061783,8808.450710
610.169482,689.485948,-1110.308913,10288.862594
610.169798,-995.924147,-1850.514855,11399.171507
610.170114,-2068.457845,-3034.844362,12361.439231
610.170430,-2681.334243,-3108.864956,13027.624579
610.170746,-3370.820191,-2812.782580,13027.624579
610.171061,-3140.991542,-2516.700203,12731.542202
610.171377,-2604.724693,-1776.494261,11843.295072
610.171693,-1838.629195,-814.226536,10807.006753
610.172009,0.000000,518.144159,9030.512492
610.172325,1072.533697,1184.329507,7772.162391
610.172640,2451.505594,1998.556043,6513.812290
610.172956,3753.867940,1998.556043,5773.606348
610.173272,4060.306139,2368.659014,5625.565159
610.173588,3677.258390,1628.453072,6217.729913
610.173904,3370.820191,740.205942,6661.853478
610.174219,2451.505594,-0.000000,7846.182985
610.174535,1149.143247,-666.185348,9326.594869
610.174851,-229.828649,-1554.432478,10510.924376
610.175167,-1532.190996,-2442.679609,11621.233289
610.175483,-2834.553343,-3552.988522,12731.542202
610.175799,-3140.991542,-3478.967927,13101.645173
610.176114,-3140.991542,-2886.803174,13101.645173
610.176430,-2451.505594,-2294.638420,12139.377449
610.176746,-2145.067394,-1184.329507,11325.150913
610.177062,-919.314598,-148.041188,9770.718434
610.177378,766.095498,740.205942,8068.244768
610.177693,2298.286494,1406.391290,7031.956449
610.178009,3064.381992,2368.659014,6143.709319
610.178325,4213.525239,2664.741391,5329.482782
610.178641,4443.353888,2072.576638,5847.626942
610.178957,4060.306139,1998.556043,6291.750507
610.179272,3294.210641,1110.308913,7179.997637
610.179588,2145.067394,-74.020594,8512.368333
610.179904,536.266849,-814.226536,9918.759623
610.180220,-919.314598,-1850.514855,11251.130318
610.180536,-2221.676944,-2812.782580,12435.459826
610.180852,-3217.601092,-3330.926739,13323.706956
610.181167,-3600.648841,-2812.782580,13101.645173
610.181483,-3677.258390,-2368.659014,13249.686362
610.181799,-3140.991542,-1480.411884,12213.398043
610.182115,-2145.067394,-444.123565,11029.068536
610.182431,-842.705048,814.226536,9400.615463
610.182746,995.924147,1332.370696,8068.244768
610.183062,2374.896044,2220.617826,6883.915261
610.183378,3677.258390,2516.700203,6217.729913
610.183694,4290.134789,2738.761985,5847.626942
610.184010,4903.011187,2442.679609,6069.688724
610.184325,3677.258390,1776.494261,6809.894666
610.184641,2681.334243,888.247130,7846.182985
610.184957,1532.190996,-0.000000,9400.615463
610.185273,153.219100,-1036.288319,10658.965565
610.185589,-1455.581446,-2146.597232,11991.336260
610.185905,-2374.896044,-3108.864956,13249.686362
610.186220,-3064.381992,-3034.844362,13323.706956
610.186536,-3064.381992,-2590.720797,13989.892304
610.186852,-3064.381992,-1998.556043,12953.603985
610.187168,-2298.286494,-1332.370696,11917.315666
610.187484,-995.924147,-0.000000,10362.883188
610.187799,306.438199,1184.329507,8734.430116
610.188115,1915.238745,1776.494261,7402.059420
610.188431,3600.648841,2368.659014,5995.668130
610.188747,4596.572988,2516.700203,5921.647536
610.189063,4903.011187,2516.700203,5551.544565
610.189378,4596.572988,1924.535449,6069.688724
610.189694,3983.696590,1406.391290,6883.915261
610.190010,2757.943793,370.102971,8364.327145
610.190326,1302.362347,-814.226536,9918.759623
610.190642,-306.438199,-1702.473667,10732.986159
610.190958,-1762.019645,-2516.700203,12287.418637
610.191273,-2528.115143,-3256.906145,13027.624579
610.191589,-3524.039291,-3701.029710,13249.686362
610.191905,-3217.601092,-3034.844362,13249.686362
610.192221,-3294.210641,-1998.556043,12509.480420
610.192537,-2604.724693,-814.226536,11251.130318
610.192852,-1225.752797,222.061783,9918.759623
610.193168,153.219100,1184.329507,8142.265362
610.193484,2068.457845,1628.453072,7031.956449
610.193800,3447.429741,2442.679609,5921.647536
610.194116,4060.306139,2664.741391,5551.544565
610.194431,3907.087040,2516.700203,5847.626942
610.194747,4060.306139,1554.432478,6291.750507
610.195063,2911.162892,518.144159,7550.100608
610.195379,1455.581446,-0.000000,8808.450710
610.195695,76.609550,-1406.391290,10066.800811
610.196011,-1302.362347,-2072.576638,11547.212695
610.196326,-2987.772442,-3034.844362,12509.480420
610.196642,-3217.601092,-3478.967927,13175.665768
610.196958,-3294.210641,-3182.885551,13027.624579
610.197274,-3140.991542,-2664.741391,12731.542202
610.197590,-2757.943793,-1776.494261,11695.253884
610.197905,-1608.800546,-962.267725,10288.862594
610.198221,76.609550,740.205942,9030.512492
610.198537,1685.410096,1480.411884,7328.038826
610.198853,2757.943793,2146.597232,6365.771101
610.199169,4136.915689,2368.659014,5551.544565
610.199484,4443.353888,2294.638420,5847.626942
610.199800,4213.525239,1924.535449,6143.709319
610.200116,3753.867940,962.267725,7031.956449
610.200432,2604.724693,-0.000000,7772.162391
610.200747,1072.533697,-814.226536,9252.574275
610.201063,-612.876398,-1554.432478,10955.047942
610.201379,-1991.848295,-2664.741391,11991.336260
610.201695,-2757.943793,-3256.906145,12583.501014
610.202010,-3753.867940,-3478.967927,13175.665768
610.202326,-3830.477490,-2664.741391,13397.727550
610.202642,-3217.601092,-2072.576638,12435.459826
610.202957,-2451.505594,-370.102971,11325.150913
610.203273,-919.314598,-0.000000,9770.718434
610.203589,153.219100,1554.432478,8364.327145
610.203905,2068.457845,2072.576638,6809.894666
610.204220,3294.210641,2294.638420,6439.791695
610.204536,4519.963438,2812.782580,5921.647536
610.204852,4596.572988,2590.720797,5847.626942
610.205168,4213.525239,1924.535449,6439.791695
610.205483,3447.429741,962.267725,7698.141797
610.205799,2145.067394,444.123565,8734.430116
610.206115,459.657299,-592.164754,10214.842000
610.206430,-1378.971896,-1776.494261,11473.192101
610.206746,-2451.505594,-3034.844362,12879.583391
610.207062,-3140.991542,-3552.988522,13175.665768
610.207378,-3677.258390,-3256.906145,13545.768739
610.207693,-3140.991542,-2442.679609,13249.686362
610.208009,-2757.943793,-1628.453072,12361.439231
610.208325,-1225.752797,-296.082377,10955.047942
610.208641,76.609550,740.205942,9252.574275
610.208956,1838.629195,1554.432478,7624.121203
610.209272,2911.162892,2516.700203,6587.832884
610.209588,4596.572988,2664.741391,5773.606348
610.209903,4979.620737,2738.761985,5625.565159
610.210219,4903.011187,2516.700203,5181.441594
610.210535,4366.744339,1702.473667,6513.812290
610.210851,3524.039291,1184.329507,7846.182985
610.211166,1455.581446,296.082377,9030.512492
610.211482,0.000000,-1406.391290,10584.944971
610.211798,-1685.410096,-2368.659014,12139.377449
610.212114,-2681.334243,-3330.926739,13249.686362
610.212429,-3447.429741,-3256.906145,13693.809927
610.212745,-3753.867940,-2738.761985,13471.748144
610.213061,-3524.039291,-1924.535449,13027.624579
610.213376,-2604.724693,-888.247130,11695.253884
610.213692,-1455.581446,-0.000000,9992.780217
610.214008,459.657299,1036.288319,8660.409521
610.214324,2145.067394,1702.473667,7031.956449
610.214639,3447.429741,2738.761985,6069.688724
610.214955,4749.792088,2812.782580,5329.482782
610.215271,4903.011187,2812.782580,5403.503377
610.215587,4519.963438,2220.617826,5921.647536
610.215902,3447.429741,1258.350101,7179.997637
610.216218,2298.286494,740.205942,8438.347739
610.216534,383.047749,-444.123565,9622.677246
610.216849,-1149.143247,-1480.411884,11325.150913
610.217165,-2451.505594,-2516.700203,12657.521608
610.217481,-3447.429741,-3256.906145,13471.748144
610.217797,-4060.306139,-3552.988522,13249.686362
610.218112,-3983.696590,-3034.844362,13545.768739
610.218428,-3524.039291,-2146.597232,12657.521608
610.218744,-2145.067394,-962.267725,11325.150913
610.219060,-689.485948,444.123565,9474.636058
610.219375,1378.971896,1332.370696,7772.162391
610.219691,2987.772442,2294.638420,6365.771101
610.220007,4290.134789,2664.741391,5699.585753
610.220323,4903.011187,2442.679609,5477.523971
610.220638,4749.792088,2516.700203,5773.606348
610.220954,4366.744339,1776.494261,6217.729913
610.221270,3677.258390,888.247130,7179.997637
610.221585,2221.676944,-0.000000,9030.512492
610.221901,459.657299,-1332.370696,10140.821405
610.222217,-1455.581446,-2146.597232,11547.212695
610.222533,-2604.724693,-3256.906145,12805.562797
610.222848,-3524.039291,-3849.070898,13915.871710
610.223164,-4060.306139,-3552.988522,13841.851115
610.223480,-3677.258390,-2960.823768,13397.727550
610.223796,-3370.820191,-1406.391290,12583.501014
610.224111,-1532.190996,-518.144159,10807.006753
610.224427,-306.438199,518.144159,8882.471304
610.224743,1149.143247,1628.453072,7772.162391
610.225058,3447.429741,1850.514855,6069.688724
610.225374,4366.744339,2368.659014,5921.647536
610.225690,4443.353888,2294.638420,5921.647536
610.226006,4749.792088,2294.638420,5847.626942
610.226321,4213.525239,1184.329507,6735.874072
610.226637,3217.601092,-74.020594,7772.162391
610.226953,1455.581446,-296.082377,9474.636058
610.227269,0.000000,-1406.391290,10732.986159
610.227584,-1838.629195,-2664.741391,12287.418637
610.227900,-2987.772442,-3552.988522,13249.686362
610.228216,-3524.039291,-3923.091493,13249.686362
610.228531,-3600.648841,-3182.885551,13249.686362
610.228847,-3370.820191,-2368.659014,12435.459826
610.229163,-2221.676944,-962.267725,11547.212695
610.229479,-1072.533697,-0.000000,9622.677246
610.229794,842.705048,666.185348,7920.203579
610.230110,2451.505594,1628.453072,6809.894666
610.230426,4060.306139,2294.638420,6069.688724
610.230742,4826.401637,2516.700203,5255.462188
610.231057,5439.278036,2368.659014,5477.523971
610.231373,4596.572988,1924.535449,5699.585753
610.231689,3600.648841,1406.391290,6883.915261
610.232004,2374.896044,444.123565,8216.285956
610.232320,459.657299,-740.205942,9548.656652
610.232636,-1225.752797,-1924.535449,11251.130318
610.232952,-2834.553343,-3256.906145,12509.480420
610.233267,-3983.696590,-3775.050304,13915.871710
610.233583,-3983.696590,-3552.988522,13767.830521
610.233899,-3983.696590,-2590.720797,13323.706956
610.234215,-2528.115143,-1480.411884,12213.398043
610.234530,-2145.067394,-0.000000,11103.089130
610.234846,-612.876398,814.226536,9030.512492
610.235162,1149.143247,1776.494261,7476.080014
610.235477,2911.162892,2442.679609,6587.832884
610.235793,4290.134789,2812.782580,6143.709319
610.236109,4519.963438,3108.864956,5921.647536
610.236425,4749.792088,2664.741391,5477.523971
610.236740,4290.134789,2146.597232,6513.812290
610.237056,3524.039291,1258.350101,7772.162391
610.237372,1838.629195,370.102971,8734.430116
610.237688,153.219100,-740.205942,10658.965565
610.238003,-1532.190996,-1924.535449,12213.398043
610.238319,-2528.115143,-3108.864956,13101.645173
610.238635,-3600.648841,-3627.009116,13471.748144
610.238950,-3753.867940,-3256.906145,13545.768739
610.239266,-3600.648841,-2442.679609,13249.686362
610.239582,-2604.724693,-1184.329507,12065.356855
610.239898,-1455.581446,-0.000000,10140.821405
610.240213,76.609550,888.247130,9104.533087
610.240529,1762.019645,1776.494261,7698.141797
610.240845,3294.210641,2220.617826,6439.791695
610.241161,4290.134789,2886.803174,5921.647536
610.241476,4826.401637,2146.597232,5995.668130
610.241792,4519.963438,2146.597232,5995.668130
610.242108,4060.306139,1628.453072,7105.977043
610.242423,2987.772442,444.123565,8142.265362
610.242739,1455.581446,-0.000000,9548.656652
610.243055,-229.828649,-1110.308913,11177.109724
610.243371,-1608.800546,-2368.659014,12361.439231
610.243686,-2757.943793,-3256.906145,13175.665768
610.244002,-3370.820191,-3330.926739,13323.706956
610.244318,-3370.820191,-2886.803174,13471.748144
610.244634,-2911.162892,-2220.617826,12213.398043
610.244949,-2528.115143,-666.185348,11251.130318
610.245265,-1149.143247,444.123565,9770.718434
610.245581,459.657299,814.226536,8438.347739
610.245896,1608.800546,1628.453072,7105.977043
610.246212,2757.943793,1776.494261,6365.771101
610.246528,3830.477490,1924.535449,5995.668130
610.246844,4213.525239,1702.473667,5995.668130
610.247159,3677.258390,1554.432478,6365.771101
610.247475,3370.820191,666.185348,7105.977043
610.247791,1991.848295,-0.000000,8290.306550
610.248107,459.657299,-962.267725,9992.780217
610.248422,-995.924147,-2294.638420,11547.212695
610.248738,-2145.067394,-3478.967927,12361.439231
610.249054,-2757.943793,-3923.091493,13397.727550
610.249369,-2987.772442,-3404.947333,13027.624579
610.249685,-3064.381992,-2738.761985,12731.542202
610.250001,-2681.334243,-1628.453072,11695.253884
610.250317,-1762.019645,-148.041188,10362.883188
610.250632,0.000000,666.185348,8734.430116
610.250948,1455.581446,1110.308913,7328.038826
610.251264,2374.896044,1924.535449,6365.771101
610.251580,3677.258390,2072.576638,5699.585753
610.251895,4596.572988,1702.473667,5921.647536
610.252211,3830.477490,2072.576638,5847.626942
610.252527,3677.258390,1332.370696,6587.832884
610.252842,2834.553343,370.102971,7550.100608
610.253158,1378.971896,-296.082377,9252.574275
610.253474,0.000000,-1184.329507,10732.986159
610.253790,-1532.190996,-2368.659014,11843.295072
610.254105,-2451.505594,-3108.864956,12657.521608
610.254421,-3217.601092,-3404.947333,13397.727550
610.254737,-3370.820191,-2812.782580,13323.706956
610.255053,-3064.381992,-2146.597232,12287.418637
610.255368,-2451.505594,-814.226536,11695.253884
610.255684,-1378.971896,222.061783,9844.739029
610.256000,229.828649,1406.391290,8364.327145
610.256315,1685.410096,1924.535449,7254.018232
610.256631,3140.991542,2072.576638,6291.750507
610.256947,3907.087040,2516.700203,5921.647536
610.257263,4290.134789,2072.576638,6587.832884
610.257578,3753.867940,1628.453072,6291.750507
610.257894,2911.162892,1258.350101,7179.997637
610.258210,2068.457845,-0.000000,8808.450710
610.258526,459.657299,-666.185348,10140.821405
610.258841,-919.314598,-1480.411884,11621.233289
610.259157,-1991.848295,-2516.700203,12731.542202
610.259473,-2681.334243,-3108.864956,12953.603985
610.259788,-3140.991542,-3182.885551,13545.768739
610.260104,-2911.162892,-2368.659014,13323.706956
610.260420,-2451.505594,-1184.329507,12065.356855
610.260736,-1225.752797,-0.000000,10881.027347
610.261051,229.828649,1332.370696,9178.553681
610.261367,1762.019645,1850.514855,7402.059420
610.261683,3217.601092,2368.659014,6661.853478
610.261999,3983.696590,2738.761985,5995.668130
610.262314,4826.401637,2738.761985,5847.626942
610.262630,4979.620737,2442.679609,6069.688724
610.262946,4060.306139,1776.494261,6661.853478
610.263261,3294.210641,1184.329507,7772.162391
610.263577,2068.457845,148.041188,9030.512492
610.263893,0.000000,-962.267725,10510.924376
610.264209,-1532.190996,-2072.576638,12213.398043
610.264524,-2757.943793,-3404.947333,12805.562797
610.264840,-3064.381992,-3478.967927,13175.665768
610.265156,-3217.601092,-3034.844362,13471.748144
610.265472,-3524.039291,-2146.597232,12879.583391
610.265787,-2528.115143,-1110.308913,11547.212695
610.266103,-1532.190996,148.041188,9992.780217
610.266419,153.219100,1406.391290,8512.368333
610.266734,1455.581446,1776.494261,7328.038826
610.267050,2987.772442,2442.679609,6069.688724
610.267366,4136.915689,2442.679609,5329.482782
610.267682,4519.963438,1924.535449,6217.729913
610.267997,4060.306139,1628.453072,6143.709319
610.268313,3140.991542,962.267725,6809.894666
610.268629,2221.676944,370.102971,7994.224174
610.268945,766.095498,-962.267725,9992.780217
610.269260,-995.924147,-1554.432478,11103.089130
610.269576,-2145.067394,-2738.761985,12213.398043
610.269892,-3140.991542,-3478.967927,12953.603985
610.270207,-3524.039291,-3330.926739,13101.645173
610.270523,-3217.601092,-2812.782580,13101.645173
610.270839,-2987.772442,-1998.556043,12065.356855
610.271155,-1991.848295,-962.267725,10881.027347
610.271470,-766.095498,370.102971,9326.594869
610.271786,1072.533697,1036.288319,7698.141797
610.272102,2451.505594,1776.494261,6883.915261
610.272418,3753.867940,2664.741391,5773.606348
610.272733,4519.963438,2442.679609,5625.565159
610.273049,4596.572988,2072.576638,5847.626942
610.273365,4443.353888,1332.370696,6439.791695
610.273680,3677.258390,814.226536,7328.038826
610.273996,2068.457845,-148.041188,8808.450710
610.274312,459.657299,-962.267725,9918.759623
610.274628,-1378.971896,-2516.700203,11843.295072
610.274943,-2145.067394,-3256.906145,12953.603985
610.275259,-3217.601092,-3701.029710,13471.748144
610.275575,-3524.039291,-3552.988522,13619.789333
610.275891,-3294.210641,-2738.761985,13101.645173
610.276206,-2604.724693,-1480.411884,11843.295072
610.276522,-1532.190996,-518.144159,10510.924376
610.276838,0.000000,518.144159,8734.430116
610.277153,1225.752797,1406.391290,7550.100608
610.277469,2757.943793,1628.453072,6439.791695
610.277785,3830.477490,2146.597232,5847.626942
610.278101,4060.306139,1850.514855,5921.647536
610.278416,4213.525239,1332.370696,6291.750507
610.278732,3600.648841,740.205942,6957.935855
610.279048,2528.115143,296.082377,8068.244768
610.279364,1149.143247,-518.144159,9252.574275
610.279679,-995.924147,-1554.432478,10807.006753
610.279995,-1838.629195,-2294.638420,12361.439231
610.280311,-2681.334243,-3552.988522,12953.603985
610.280626,-3140.991542,-3701.029710,13397.727550
610.280942,-3753.867940,-3701.029710,13915.871710
610.281258,-2911.162892,-2590.720797,12583.501014
610.281574,-1915.238745,-1184.329507,11473.192101
610.281889,-689.485948,-0.000000,9696.697840
610.282205,842.705048,1332.370696,8142.265362
610.282521,2451.505594,2146.597232,7105.977043
610.282837,3447.429741,2368.659014,6143.709319
610.283152,4519.963438,2590.720797,5551.544565
610.283468,4673.182538,2146.597232,5995.668130
610.283784,4749.792088,1036.288319,6439.791695
610.284099,3600.648841,1184.329507,7105.977043
610.284415,2451.505594,370.102971,8438.347739
610.284731,995.924147,-592.164754,9696.697840
610.285047,-1149.143247,-1702.473667,11547.212695
610.285362,-1991.848295,-2812.782580,12509.480420
610.285678,-3140.991542,-3404.947333,13471.748144
610.285994,-3524.039291,-3182.885551,13693.809927
610.286310,-3294.210641,-2442.679609,13249.686362
610.286625,-2374.896044,-1628.453072,11991.336260
610.286941,-1455.581446,-222.061783,10288.862594
610.287257,-306.438199,962.267725,8660.409521
610.287573,1455.581446,1702.473667,7402.059420
610.287888,2681.334243,2664.741391,6365.771101
610.288204,3830.477490,3034.844362,5847.626942
610.288520,4519.963438,2516.700203,5699.585753
610.288835,4290.134789,2220.617826,6291.750507
610.289151,3524.039291,1628.453072,6735.874072
610.289467,2757.943793,666.185348,7920.203579
610.289783,1302.362347,-222.061783,9252.574275
610.290098,-306.438199,-1184.329507,10881.027347
610.290414,-1838.629195,-2220.617826,11991.336260
610.290730,-2757.943793,-2960.823768,13027.624579
610.291046,-3447.429741,-3108.864956,13175.665768
610.291361,-3370.820191,-2960.823768,13619.789333
610.291677,-2987.772442,-1776.494261,12805.562797
610.291993,-2298.286494,-814.226536,11695.253884
610.292308,-1072.533697,296.082377,10214.842000
610.292624,383.047749,1480.411884,8364.327145
610.292940,1991.848295,2368.659014,7179.997637
610.293256,3677.258390,2516.700203,6365.771101
610.293571,4596.572988,3108.864956,5625.565159
610.293887,4519.963438,2516.700203,5995.668130
610.294203,4443.353888,1776.494261,6217.729913
610.294519,3447.429741,962.267725,7328.038826
610.294834,2451.505594,-0.000000,8586.388927
610.295150,766.095498,-592.164754,9696.697840
610.295466,-842.705048,-1702.473667,11325.150913
610.295781,-1991.848295,-2812.782580,12583.501014
610.296097,-3294.210641,-3627.009116,13471.748144
610.296413,-3677.258390,-3552.988522,13619.789333
610.296729,-3447.429741,-2886.803174,13619.789333
610.297044,-3447.429741,-1776.494261,12435.459826
610.297360,-1838.629195,-1184.329507,11473.192101
610.297676,-842.705048,222.061783,9622.677246
610.297992,459.657299,1406.391290,7994.224174
610.298307,2221.676944,1998.556043,7105.977043
610.298623,3600.648841,2442.679609,5921.647536
610.298939,4060.306139,2664.741391,5699.585753
610.299254,3907.087040,1924.535449,6069.688724
610.299570,3830.477490,1036.288319,6661.853478
610.299886,2987.772442,370.102971,7624.121203
610.300202,1991.848295,-444.123565,8882.471304
610.300517,766.095498,-1628.453072,10362.883188
610.300832,-1378.971896,-2368.659014,11843.295072
610.301148,-2374.896044,-3256.906145,12509.480420
610.301464,-3294.210641,-3478.967927,13027.624579
610.301780,-3217.601092,-3552.988522,13471.748144
610.302096,-2681.334243,-2664.741391,12361.439231
610.302412,-2528.115143,-1628.453072,11843.295072
610.302727,-1302.362347,-444.123565,10436.903782
610.303043,76.609550,666.185348,8438.347739
610.303359,1685.410096,1628.453072,7031.956449
610.303675,2911.162892,1850.514855,6217.729913
610.303991,4136.915689,2368.659014,5477.523971
610.304306,4290.134789,2294.638420,5477.523971
610.304622,4366.744339,1480.411884,5921.647536
610.304938,3983.696590,814.226536,6735.874072
610.305254,2528.115143,-296.082377,7920.203579
610.305570,1378.971896,-518.144159,9178.553681
610.305885,-766.095498,-1480.411884,10362.883188
610.306201,-1915.238745,-2516.700203,12065.356855
610.306517,-2604.724693,-3256.906145,13027.624579
610.306833,-3753.867940,-3330.926739,13027.624579
610.307149,-3370.820191,-2812.782580,13545.768739
610.307465,-3064.381992,-1924.535449,12509.480420
610.307780,-2221.676944,-962.267725,11251.130318
610.308096,-1149.143247,518.144159,10214.842000
610.308412,689.485948,1702.473667,7994.224174
610.308728,1915.238745,2442.679609,6365.771101
610.309044,3524.039291,3330.926739,5847.626942
610.309359,4443.353888,2812.782580,5329.482782
610.309675,4519.963438,2294.638420,6069.688724
610.309991,4290.134789,1850.514855,6513.812290
610.310307,3140.991542,814.226536,7698.141797
610.310623,2145.067394,370.102971,8956.491898
610.310938,383.047749,-518.144159,10436.903782
610.311254,-1225.752797,-1258.350101,12139.377449
610.311570,-1915.238745,-2516.700203,13027.624579
610.311886,-3064.381992,-2886.803174,13545.768739
610.312202,-3370.820191,-2664.741391,13545.768739
610.312518,-2681.334243,-2294.638420,13175.665768
610.312833,-2451.505594,-1184.329507,12287.418637
610.313149,-1149.143247,-0.000000,10732.986159
610.313465,383.047749,1110.308913,9104.533087
610.313781,1762.019645,2368.659014,7624.121203
610.314097,3983.696590,2442.679609,6735.874072
610.314412,4749.792088,3182.885551,5625.565159
610.314728,4903.011187,2886.803174,5625.565159
610.315044,4519.963438,2442.679609,5847.626942
610.315360,4290.134789,1480.411884,6957.935855
610.315676,3294.210641,814.226536,7994.224174
610.315991,1455.581446,370.102971,9252.574275
610.316307,-536.266849,-888.247130,10732.986159
610.316623,-1685.410096,-2072.576638,12583.501014
610.316939,-3064.381992,-3256.906145,13471.748144
610.317255,-3677.258390,-3330.926739,13619.789333
610.317571,-3830.477490,-2960.823768,13915.871710
610.317886,-3524.039291,-2368.659014,12583.501014
610.318202,-2604.724693,-1184.329507,11843.295072
610.318518,-1072.533697,-148.041188,10140.821405
610.318834,306.438199,1480.411884,8290.306550
610.319150,1915.238745,2220.617826,7105.977043
610.319465,3524.039291,2812.782580,5847.626942
610.319781,4519.963438,3034.844362,5255.462188
610.320097,4673.182538,2368.659014,5181.441594
610.320413,4290.134789,1554.432478,6143.709319
610.320729,3753.867940,592.164754,7179.997637
610.321044,2221.676944,-74.020594,8364.327145
610.321360,536.266849,-518.144159,9918.759623
610.321676,-842.705048,-1702.473667,11399.171507
610.321992,-2451.505594,-2812.782580,12731.542202
610.322308,-3524.039291,-3478.967927,13323.706956
610.322624,-3753.867940,-3775.050304,13027.624579
610.322939,-3370.820191,-3256.906145,13175.665768
610.323255,-3140.991542,-2442.679609,12361.439231
610.323571,-1838.629195,-1110.308913,10732.986159
610.323887,-459.657299,-0.000000,8882.471304
610.324203,1149.143247,1110.308913,7179.997637
610.324518,3294.210641,1628.453072,6513.812290
610.324834,4443.353888,2294.638420,5625.565159
610.325150,4826.401637,2442.679609,5255.462188
610.325466,4519.963438,1702.473667,5699.585753
610.325782,4366.744339,1036.288319,6365.771101
610.326097,2987.772442,518.144159,7624.121203
610.326413,1685.410096,-814.226536,9030.512492
610.326729,76.609550,-1480.411884,10288.862594
610.327045,-1685.410096,-2590.720797,11769.274478
610.327361,-2451.505594,-3478.967927,12731.542202
610.327677,-3524.039291,-3627.009116,13249.686362
610.327992,-4136.915689,-3627.009116,13471.748144
610.328308,-3830.477490,-2516.700203,12953.603985
610.328624,-2757.943793,-1776.494261,11473.192101
610.328940,-1455.581446,-370.102971,10288.862594
610.329256,229.828649,-0.000000,7994.224174
610.329571,1455.581446,1258.350101,6883.915261
610.329887,2911.162892,2146.597232,6217.729913
610.330203,3907.087040,2072.576638,5699.585753
610.330519,4136.915689,1998.556043,6143.709319
610.330835,3677.258390,1776.494261,6439.791695
610.331151,3370.820191,296.082377,7254.018232
610.331466,2374.896044,-0.000000,8586.388927
610.331782,995.924147,-518.144159,9548.656652
610.332098,-995.924147,-1406.391290,11325.150913
610.332414,-2145.067394,-2516.700203,12435.459826
610.332730,-2834.553343,-3034.844362,12879.583391
610.333045,-3217.601092,-3478.967927,13323.706956
610.333361,-3370.820191,-2960.823768,13545.768739
610.333677,-2911.162892,-2368.659014,12657.521608
610.333993,-2145.067394,-1258.350101,10955.047942
610.334309,-383.047749,518.144159,9622.677246
610.334624,1302.362347,1332.370696,8068.244768
610.334940,3064.381992,2442.679609,6735.874072
610.335256,3983.696590,3034.844362,5699.585753
610.335572,4826.401637,2738.761985,5625.565159
610.335888,4673.182538,2368.659014,5847.626942
610.336204,4060.306139,1628.453072,6735.874072
610.336519,3217.601092,740.205942,7550.100608
610.336835,1991.848295,148.041188,9104.533087
610.337151,-383.047749,-1110.308913,10288.862594
610.337467,-1532.190996,-2072.576638,11843.295072
610.337783,-2604.724693,-2886.803174,12805.562797
610.338098,-3524.039291,-3108.864956,13471.748144
610.338414,-3830.477490,-2886.803174,13619.789333
610.338730,-3370.820191,-2368.659014,13027.624579
610.339046,-2681.334243,-1332.370696,11621.233289
610.339362,-1532.190996,148.041188,10288.862594
610.339677,229.828649,1184.329507,8586.388927
610.339993,1915.238745,1776.494261,7254.018232
610.340309,3064.381992,3034.844362,5847.626942
610.340625,3983.696590,2886.803174,5403.503377
610.340941,4749.792088,2368.659014,6069.688724
610.341257,4213.525239,2294.638420,5921.647536
610.341572,3677.258390,962.267725,6957.935855
610.341888,2604.724693,666.185348,8290.306550
610.342204,766.095498,-222.061783,9548.656652
610.342520,-689.485948,-1110.308913,11029.068536
610.342836,-1762.019645,-2664.741391,11991.336260
610.343151,-3064.381992,-3256.906145,13249.686362
610.343467,-3447.429741,-2960.823768,13545.768739
610.343783,-2987.772442,-2812.782580,13397.727550
610.344099,-3064.381992,-2294.638420,12509.480420
610.344415,-1608.800546,-814.226536,11399.171507
610.344730,-153.219100,370.102971,9474.636058
610.345046,1378.971896,1628.453072,7920.203579
610.345362,2757.943793,2664.741391,6735.874072
610.345678,4213.525239,3182.885551,5773.606348
610.345994,5362.668486,3330.926739,5773.606348
610.346310,4979.620737,2590.720797,5255.462188
610.346625,4673.182538,2072.576638,6069.688724
610.346941,3753.867940,1184.329507,7105.977043
610.347257,1991.848295,-74.020594,8364.327145
610.347573,229.828649,-814.226536,10214.842000
610.347889,-1302.362347,-1924.535449,11399.171507
610.348204,-2757.943793,-2886.803174,12509.480420
610.348520,-3600.648841,-3552.988522,13397.727550
610.348836,-3753.867940,-3701.029710,14211.954086
610.349152,-4060.306139,-2960.823768,13619.789333
610.349468,-3370.820191,-2072.576638,12139.377449
610.349783,-1762.019645,-814.226536,10658.965565
610.350099,-536.266849,666.185348,9178.553681
610.350415,1378.971896,1554.432478,7328.038826
610.350731,3064.381992,2220.617826,6513.812290
610.351047,4213.525239,2664.741391,5921.647536
610.351363,4673.182538,2590.720797,5477.523971
610.351678,4673.182538,2220.617826,5699.585753
610.351994,4213.525239,1480.411884,6439.791695
610.352310,2911.162892,370.102971,7772.162391
610.352626,1455.581446,-74.020594,9252.574275
610.352942,0.000000,-1110.308913,10955.047942
610.353257,-1915.238745,-2220.617826,12065.356855
610.353573,-2911.162892,-3330.926739,13175.665768
610.353889,-3753.867940,-3701.029710,13619.789333
610.354205,-4136.915689,-3404.947333,13767.830521
610.354521,-3677.258390,-2664.741391,13397.727550
610.354836,-2987.772442,-1850.514855,12435.459826
610.355152,-1838.629195,-518.144159,10066.800811
610.355468,0.000000,814.226536,8808.450710
610.355784,1762.019645,1554.432478,7254.018232
610.356100,3140.991542,2294.638420,6365.771101
610.356416,4290.134789,2516.700203,5625.565159
610.356731,4826.401637,2442.679609,5995.668130
610.357047,4673.182538,2146.597232,5921.647536
610.357363,3677.258390,1184.329507,6735.874072
610.357679,2681.334243,296.082377,8216.285956
610.357995,1225.752797,-814.226536,9474.636058
610.358310,-459.657299,-1554.432478,11103.089130
610.358626,-1915.238745,-2516.700203,12065.356855
610.358942,-2834.553343,-3552.988522,12953.603985
610.359258,-3524.039291,-3478.967927,13323.706956
610.359574,-3677.258390,-3182.885551,13693.809927
610.359889,-3524.039291,-2146.597232,12361.439231
610.360205,-2451.505594,-1036.288319,11029.068536
610.360521,-1149.143247,-0.000000,9622.677246
610.360837,459.657299,666.185348,8068.244768
610.361153,1991.848295,1702.473667,7031.956449
610.361469,3524.039291,2146.597232,5921.647536
610.361784,4213.525239,1998.556043,5551.544565
610.362100,4136.915689,1998.556043,5995.668130
610.362416,4136.915689,1480.411884,6365.771101
610.362732,3140.991542,444.123565,7105.977043
610.363048,2145.067394,-0.000000,8586.388927
610.363363,536.266849,-740.205942,9696.697840
610.363679,-766.095498,-1850.514855,11251.130318
610.363995,-1608.800546,-2294.638420,12361.439231
610.364311,-2757.943793,-3330.926739,12583.501014
610.364627,-3217.601092,-2886.803174,13323.706956
610.364943,-2834.553343,-2294.638420,12953.603985
610.365258,-2374.896044,-1480.411884,11769.274478
610.365574,-1378.971896,-296.082377,10362.883188
610.365890,0.000000,666.185348,9104.533087
610.366206,1608.800546,1702.473667,7846.182985
610.366522,2987.772442,2294.638420,6365.771101
610.366837,4213.525239,2738.761985,6143.709319
610.367153,4596.572988,3256.906145,5551.544565
610.367469,4596.572988,2590.720797,5699.585753
610.367785,4290.134789,1702.473667,6957.935855
610.368101,3294.210641,962.267725,7994.224174
610.368416,2145.067394,148.041188,9474.636058
610.368732,306.438199,-1184.329507,10807.006753
610.369048,-1302.362347,-1850.514855,12139.377449
610.369364,-2145.067394,-2960.823768,12805.562797
610.369680,-2681.334243,-2812.782580,13175.665768
610.369996,-3140.991542,-2442.679609,13323.706956
610.370311,-2834.553343,-1406.391290,12731.542202
610.370627,-2221.676944,-518.144159,11547.212695
610.370943,-1149.143247,370.102971,9844.739029
610.371259,153.219100,1480.411884,8364.327145
610.371575,1532.190996,1850.514855,7698.141797
610.371890,2911.162892,2368.659014,7105.977043
610.372206,3753.867940,2220.617826,6439.791695
610.372522,3907.087040,2072.576638,6513.812290
610.372838,3370.820191,1628.453072,6883.915261
610.373154,2911.162892,222.061783,7550.100608
610.373469,1838.629195,148.041188,8808.450710
610.373785,459.657299,-296.082377,10066.800811
610.374101,-842.705048,-1332.370696,11177.109724
610.374417,-2068.457845,-2146.597232,12287.418637
610.374733,-2298.286494,-3034.844362,12953.603985
610.375049,-3217.601092,-3404.947333,13175.665768
610.375364,-3294.210641,-2442.679609,12953.603985
610.375680,-2604.724693,-1850.514855,12213.398043
610.375996,-1608.800546,-592.164754,10881.027347
610.376312,-229.828649,444.123565,9326.594869
610.376628,1225.752797,1554.432478,7920.203579
610.376943,2451.505594,2368.659014,6883.915261
610.377259,3753.867940,2516.700203,5847.626942
610.377575,4596.572988,2516.700203,5699.585753
610.377891,4366.744339,2220.617826,5699.585753
610.378207,3753.867940,1406.391290,6513.812290
610.378522,3064.381992,518.144159,7624.121203
610.378838,1532.190996,-370.102971,9030.512492
610.379154,229.828649,-1406.391290,10288.862594
610.379470,-1378.971896,-2516.700203,12065.356855
610.379786,-2374.896044,-3478.967927,12583.501014
610.380102,-3217.601092,-3627.009116,13175.665768
610.380417,-3524.039291,-3182.885551,12953.603985
610.380733,-2604.724693,-2442.679609,12435.459826
610.381049,-2528.115143,-1332.370696,11399.171507
610.381365,-1378.971896,-296.082377,9548.656652
610.381681,0.000000,666.185348,8142.265362
610.381996,1455.581446,1184.329507,7328.038826
610.382312,2987.772442,1406.391290,6291.750507
610.382628,3753.867940,1702.473667,5699.585753
610.382944,4213.525239,1702.473667,5995.668130
610.383260,3983.696590,1258.350101,6069.688724
610.383575,3294.210641,814.226536,7105.977043
610.383891,2451.505594,-0.000000,8290.306550
610.384207,1225.752797,-592.164754,9474.636058
610.384523,-383.047749,-1702.473667,10658.965565
610.384839,-1685.410096,-2664.741391,11991.336260
610.385155,-2604.724693,-3552.988522,12805.562797
610.385470,-2757.943793,-3849.070898,13323.706956
610.385786,-2834.553343,-3108.864956,13175.665768
610.386102,-2757.943793,-2442.679609,12361.439231
610.386418,-1608.800546,-1184.329507,11251.130318
610.386734,-459.657299,-222.061783,9696.697840
610.387049,689.485948,888.247130,8068.244768
610.387365,2528.115143,1628.453072,7031.956449
610.387681,3907.087040,2368.659014,6069.688724
610.387997,4443.353888,2368.659014,5773.606348
610.388313,4519.963438,1998.556043,6143.709319
610.388628,4290.134789,1480.411884,6291.750507
610.388944,3370.820191,444.123565,7402.059420
610.389260,2068.457845,-370.102971,8956.491898
610.389576,383.047749,-1110.308913,10362.883188
610.389892,-919.314598,-2294.638420,11843.295072
610.390208,-2374.896044,-2960.823768,12731.542202
610.390523,-3064.381992,-3404.947333,13545.768739
610.390839,-3447.429741,-3108.864956,13397.727550
610.391155,-3447.429741,-2294.638420,13397.727550
610.391471,-2911.162892,-1036.288319,11843.295072
610.391787,-1608.800546,-74.020594,10510.924376
610.392102,-536.266849,888.247130,9030.512492
610.392418,995.924147,1332.370696,7698.141797
610.392734,2374.896044,1924.535449,6365.771101
610.393050,3370.820191,2442.679609,6217.729913
610.393366,3983.696590,2368.659014,5921.647536
610.393681,3600.648841,2146.597232,6365.771101
610.393997,3677.258390,1702.473667,7031.956449
610.394313,2834.553343,592.164754,8142.265362
610.394629,1378.971896,-0.000000,9178.553681
610.394945,0.000000,-814.226536,10658.965565
610.395261,-1455.581446,-1850.514855,11843.295072
610.395576,-2451.505594,-2664.741391,12657.521608
610.395892,-3064.381992,-2738.761985,13101.645173
610.396208,-3524.039291,-2368.659014,13249.686362
610.396524,-2834.553343,-1480.411884,12583.501014
610.396840,-2145.067394,-148.041188,11177.109724
610.397155,-1072.533697,1036.288319,9992.780217
610.397471,919.314598,1850.514855,8660.409521
610.397787,2221.676944,2368.659014,6883.915261
610.398103,3524.039291,2812.782580,5773.606348
610.398419,4596.572988,2886.803174,5403.503377
610.398735,4979.620737,2368.659014,5995.668130
610.399050,4443.353888,1850.514855,6439.791695
610.399366,3524.039291,1036.288319,7254.018232
610.399682,2451.505594,370.102971,8438.347739
610.399998,766.095498,-370.102971,9770.718434
610.400314,-1072.533697,-1258.350101,11325.150913
610.400629,-1991.848295,-2294.638420,12509.480420
610.400945,-3140.991542,-3108.864956,13101.645173
610.401261,-3370.820191,-2812.782580,13175.665768
610.401577,-3600.648841,-2368.659014,13101.645173
610.401893,-2221.676944,-1480.411884,12213.398043
610.402208,-2068.457845,-370.102971,10881.027347
610.402524,-842.705048,592.164754,9474.636058
610.402840,689.485948,1480.411884,7920.203579
610.403156,2221.676944,2072.576638,6957.935855
610.403471,3370.820191,2294.638420,6217.729913
610.403787,4060.306139,2368.659014,5995.668130
610.404103,3830.477490,2072.576638,6291.750507
610.404419,3677.258390,1110.308913,7105.977043
610.404735,2528.115143,518.144159,7846.182985
610.405050,1378.971896,-370.102971,9252.574275
610.405366,0.000000,-1480.411884,10436.903782
610.405682,-1455.581446,-2368.659014,12213.398043
610.405998,-2451.505594,-3182.885551,13027.624579
610.406313,-3140.991542,-3552.988522,13249.686362
610.406629,-3524.039291,-2812.782580,13323.706956
610.406945,-2604.724693,-2368.659014,12509.480420
610.407261,-2298.286494,-1258.350101,11473.192101
610.407577,-766.095498,-0.000000,10140.821405
610.407892,306.438199,1110.308913,8364.327145
610.408208,2068.457845,1628.453072,7031.956449
610.408524,3677.258390,2072.576638,6217.729913
610.408840,4519.963438,2442.679609,5477.523971
610.409155,4519.963438,2294.638420,5847.626942
610.409471,3600.648841,1554.432478,6069.688724
610.409787,3370.820191,296.082377,6809.894666
610.410103,2604.724693,-0.000000,8290.306550
610.410419,919.314598,-814.226536,9548.656652
610.410734,-842.705048,-1850.514855,10807.006753
610.411050,-2145.067394,-2960.823768,12139.377449
610.411366,-3217.601092,-3330.926739,12879.583391
610.411682,-3370.820191,-3330.926739,13101.645173
610.411997,-3217.601092,-2738.761985,13027.624579
610.412313,-3064.381992,-1850.514855,12213.398043
610.412629,-2068.457845,-740.205942,11473.192101
610.412945,-919.314598,-0.000000,9770.718434
610.413261,459.657299,1184.329507,7994.224174
610.413576,2298.286494,1924.535449,6661.853478
610.413892,3370.820191,2442.679609,5921.647536
610.414208,4290.134789,2368.659014,5773.606348
610.414524,4136.915689,2294.638420,5921.647536
610.414839,3907.087040,1628.453072,6439.791695
610.415155,2757.943793,814.226536,7698.141797
610.415471,1991.848295,-74.020594,9030.512492
610.415787,-306.438199,-1036.288319,10140.821405
610.416103,-1225.752797,-1924.535449,11843.295072
610.416418,-2451.505594,-2590.720797,12731.542202
610.416734,-3064.381992,-3108.864956,13397.727550
610.417050,-3447.429741,-2886.803174,13545.768739
610.417366,-3294.210641,-2368.659014,13249.686362
610.417681,-2528.115143,-1406.391290,11843.295072
610.417997,-995.924147,-0.000000,10584.944971
610.418313,383.047749,1110.308913,8956.491898
610.418629,1838.629195,2146.597232,7254.018232
610.418945,3524.039291,2664.741391,6217.729913
610.419260,4749.792088,3256.906145,5477.523971
610.419576,4979.620737,2738.761985,5477.523971
610.419892,4749.792088,2368.659014,6069.688724
610.420208,3907.087040,1258.350101,7031.956449
610.420523,2987.772442,518.144159,8290.306550
610.420839,1608.800546,-222.061783,9474.636058
610.421155,-306.438199,-1406.391290,10955.047942
610.421471,-1455.581446,-2220.617826,12509.480420
610.421787,-2604.724693,-2960.823768,13249.686362
610.422102,-3447.429741,-3256.906145,13619.789333
610.422418,-3600.648841,-2368.659014,13397.727550
610.422734,-2911.162892,-1776.494261,12287.418637
610.423050,-2528.115143,-444.123565,11399.171507
610.423365,-919.314598,666.185348,10066.800811
610.423681,306.438199,1480.411884,8142.265362
610.423997,2145.067394,2294.638420,6957.935855
610.424313,3140.991542,2738.761985,6069.688724
610.424629,4213.525239,3108.864956,5403.503377
610.424944,4749.792088,2442.679609,5995.668130
610.425260,4136.915689,1998.556043,6291.750507
610.425576,3140.991542,1184.329507,7328.038826
610.425892,2068.457845,370.102971,8586.388927
610.426207,536.266849,-592.164754,10362.883188
610.426523,-1072.533697,-1702.473667,11547.212695
610.426839,-1915.238745,-2442.679609,12509.480420
610.427155,-3140.991542,-2886.803174,13101.645173
610.427471,-3294.210641,-2960.823768,13471.748144
610.427786,-2834.553343,-2442.679609,13175.665768
610.428102,-2451.505594,-1628.453072,11917.315666
610.428418,-1455.581446,-740.205942,10881.027347
610.428734,-229.828649,666.185348,9104.533087
610.429049,1915.238745,1702.473667,7402.059420
610.429365,2911.162892,2072.576638,6513.812290
610.429681,3983.696590,2516.700203,5699.585753
610.429997,4443.353888,2442.679609,5699.585753
610.430313,4519.963438,1924.535449,5773.606348
610.430628,3677.258390,1258.350101,6587.832884
610.430944,3064.381992,222.061783,7994.224174
610.431260,1532.190996,-518.144159,9400.615463
610.431576,0.000000,-1702.473667,10510.924376
610.431891,-1225.752797,-2738.761985,12213.398043
610.432207,-2221.676944,-3849.070898,12657.521608
610.432523,-3370.820191,-3849.070898,13323.706956
610.432839,-3600.648841,-3849.070898,13323.706956
610.433155,-3140.991542,-2664.741391,12509.480420
610.433470,-2834.553343,-1628.453072,11547.212695
610.433786,-1378.971896,-666.185348,9918.759623
610.434102,0.000000,518.144159,8364.327145
610.434418,1532.190996,1036.288319,7402.059420
610.434733,2911.162892,1480.411884,6069.688724
610.435049,3830.477490,1702.473667,5773.606348
610.435365,4060.306139,1554.432478,6291.750507
610.435681,3447.429741,888.247130,6439.791695
610.435997,3447.429741,518.144159,7254.018232
610.436312,2145.067394,-222.061783,8216.285956
610.436628,995.924147,-962.267725,9696.697840
610.436944,-536.266849,-1628.453072,11103.089130
610.437260,-1762.019645,-2368.659014,11991.336260
610.437575,-2834.553343,-3256.906145,12805.562797
610.437891,-2987.772442,-3404.947333,13249.686362
610.438207,-3217.601092,-3034.844362,12805.562797
610.438523,-2681.334243,-2146.597232,12139.377449
610.438839,-1915.238745,-814.226536,11103.089130
610.439154,-229.828649,-0.000000,9326.594869
610.439470,842.705048,1332.370696,7698.141797
610.439786,2528.115143,2072.576638,6661.853478
610.440102,3677.258390,2516.700203,6143.709319
610.440417,4213.525239,2516.700203,5847.626942
610.440733,4596.572988,2294.638420,5921.647536
610.441049,3907.087040,1702.473667,6587.832884
610.441365,3064.381992,740.205942,7624.121203
610.441681,1762.019645,-74.020594,8882.471304
610.441996,459.657299,-814.226536,10066.800811
610.442312,-1225.752797,-1924.535449,11547.212695
610.442628,-2221.676944,-2886.803174,12435.459826
610.442944,-3064.381992,-3404.947333,13175.665768
610.443259,-3524.039291,-2886.803174,13175.665768
610.443575,-3600.648841,-2220.617826,12509.480420
610.443891,-2911.162892,-1110.308913,11473.192101
610.444207,-919.314598,-74.020594,10658.965565
610.444523,0.000000,814.226536,9104.533087
610.444838,842.705048,1850.514855,7254.018232
610.445154,2451.505594,1998.556043,6513.812290
610.445470,3677.258390,2368.659014,6069.688724
610.445786,3830.477490,2146.597232,6513.812290
610.446101,3907.087040,1850.514855,6513.812290
610.446417,3217.601092,1184.329507,7254.018232
610.446733,2298.286494,370.102971,8438.347739
610.447049,1149.143247,-0.000000,9918.759623
610.447365,-383.047749,-1406.391290,10955.047942
610.447680,-1532.190996,-1924.535449,12287.418637
610.447996,-2681.334243,-2516.700203,13175.665768
610.448312,-2987.772442,-2886.803174,13175.665768
610.448628,-2911.162892,-2442.679609,13397.727550
610.448943,-2911.162892,-1480.411884,12657.521608
610.449259,-1991.848295,-148.041188,11177.109724
610.449575,-689.485948,962.267725,9844.739029
610.449891,919.314598,1850.514855,8142.265362
610.450207,2298.286494,2516.700203,7254.018232
610.450522,3907.087040,2738.761985,5995.668130
610.450838,4443.353888,2812.782580,5551.544565
610.451154,4443.353888,2220.617826,6143.709319
610.451470,4366.744339,1554.432478,6809.894666
610.451785,3600.648841,888.247130,7624.121203
610.452101,2068.457845,-0.000000,9030.512492
610.452417,612.876398,-444.123565,10214.842000
610.452733,-842.705048,-1554.432478,11251.130318
610.453049,-1991.848295,-2368.659014,12361.439231
610.453364,-2451.505594,-2960.823768,13027.624579
610.453680,-2987.772442,-2812.782580,13397.727550
610.453996,-2911.162892,-2368.659014,12657.521608
610.454312,-2604.724693,-1628.453072,11547.212695
610.454627,-1838.629195,-444.123565,10362.883188
610.454943,-536.266849,296.082377,9030.512492
610.455259,689.485948,1332.370696,7994.224174
610.455575,1991.848295,1924.535449,6735.874072
610.455891,3524.039291,1998.556043,6069.688724
610.456206,3677.258390,2146.597232,6143.709319
610.456522,3524.039291,1406.391290,6069.688724
610.456838,3294.210641,296.082377,7031.956449
610.457154,2374.896044,-0.000000,8068.244768
610.457469,1302.362347,-740.205942,9252.574275
610.457785,0.000000,-1776.494261,10732.986159
610.458101,-1762.019645,-2812.782580,11843.295072
610.458417,-2451.505594,-3182.885551,12509.480420
610.458733,-2834.553343,-3330.926739,12731.542202
610.459048,-3064.381992,-3108.864956,12953.603985
610.459364,-2834.553343,-2368.659014,12361.439231
610.459680,-2145.067394,-1702.473667,10881.027347
610.459996,-459.657299,-0.000000,9474.636058
610.460311,536.266849,962.267725,8216.285956
610.460627,1991.848295,1628.453072,6957.935855
610.460943,3370.820191,2146.597232,6143.709319
610.461259,3907.087040,2146.597232,5995.668130
610.461575,4366.744339,2146.597232,5847.626942
610.461890,4136.915689,1406.391290,6217.729913
610.462206,3447.429741,888.247130,7254.018232
610.462522,2068.457845,296.082377,8512.368333
610.462838,612.876398,-518.144159,9844.739029
610.463153,-383.047749,-1480.411884,11325.150913
610.463469,-1762.019645,-2220.617826,12139.377449
610.463785,-2451.505594,-3330.926739,12879.583391
610.464101,-3064.381992,-3404.947333,13175.665768
610.464417,-2987.772442,-2590.720797,13175.665768
610.464732,-3064.381992,-1924.535449,11991.336260
610.465048,-1991.848295,-740.205942,10881.027347
610.465364,-689.485948,-0.000000,9104.533087
610.465680,766.095498,1554.432478,7772.162391
610.465995,2145.067394,2294.638420,6735.874072
610.466311,3524.039291,2664.741391,5995.668130
610.466627,3677.258390,2664.741391,6143.709319
610.466943,3753.867940,1554.432478,6365.771101
610.467259,3447.429741,1258.350101,6883.915261
610.467574,2528.115143,222.061783,7920.203579
610.467890,1608.800546,-296.082377,9548.656652
610.468206,0.000000,-1258.350101,10807.006753
610.468522,-1225.752797,-2072.576638,11843.295072
610.468837,-2298.286494,-2516.700203,12657.521608
610.469153,-3140.991542,-2664.741391,13175.665768
610.469469,-3217.601092,-2664.741391,13175.665768
610.469785,-3294.210641,-1998.556043,12657.521608
610.470101,-2145.067394,-1036.288319,11473.192101
610.470416,-919.314598,-74.020594,10436.903782
610.470732,0.000000,1184.329507,8808.450710
610.471048,1838.629195,1998.556043,7402.059420
610.471364,3217.601092,2442.679609,6291.750507
610.471679,4213.525239,2738.761985,5995.668130
610.471995,4290.134789,2590.720797,6217.729913
610.472311,4673.182538,1924.535449,6587.832884
610.472627,3983.696590,1332.370696,7328.038826
610.472942,2911.162892,444.123565,8512.368333
610.473258,1455.581446,-74.020594,9992.780217
610.473574,0.000000,-888.247130,11325.150913
610.473890,-1378.971896,-1924.535449,12065.356855
610.474206,-2298.286494,-2368.659014,12435.459826
610.474521,-2604.724693,-2812.782580,13175.665768
610.474837,-2911.162892,-2516.700203,13249.686362
610.475153,-2834.553343,-1628.453072,12213.398043
610.475469,-2221.676944,-444.123565,10881.027347
610.475784,-919.314598,592.164754,9622.677246
610.476100,766.095498,1110.308913,7846.182985
610.476416,2145.067394,1998.556043,6735.874072
610.476732,3064.381992,2442.679609,5995.668130
610.477048,3753.867940,2220.617826,5625.565159
610.477363,3983.696590,1924.535449,6217.729913
610.477679,3907.087040,740.205942,6661.853478
610.477995,2451.505594,444.123565,7698.141797
610.478311,1685.410096,-222.061783,8956.491898
610.478626,229.828649,-888.247130,9992.780217
610.478942,-1149.143247,-1924.535449,11399.171507
610.479258,-2068.457845,-2812.782580,12731.542202
610.479574,-2604.724693,-3034.844362,12657.521608
610.479890,-3294.210641,-3404.947333,13249.686362
610.480205,-3140.991542,-2368.659014,12805.562797
610.480521,-2604.724693,-1554.432478,11843.295072
610.480837,-2068.457845,-444.123565,10288.862594
610.481153,-229.828649,814.226536,9030.512492
610.481468,1225.752797,1406.391290,7402.059420
610.481784,2757.943793,2368.659014,6439.791695
610.482100,3830.477490,2664.741391,6069.688724
610.482416,4443.353888,2220.617826,5773.606348
610.482732,3983.696590,2294.638420,6069.688724
610.483047,3830.477490,1332.370696,6883.915261
610.483363,2757.943793,592.164754,7920.203579
610.483679,1149.143247,-74.020594,9474.636058
610.483995,-229.828649,-1184.329507,10881.027347
610.484310,-1225.752797,-1998.556043,11917.315666
610.484626,-2451.505594,-3108.864956,12657.521608
610.484942,-3064.381992,-3256.906145,13249.686362
610.485258,-3140.991542,-3182.885551,13175.665768
610.485574,-2987.772442,-2294.638420,12287.418637
610.485889,-2451.505594,-1332.370696,11399.171507
610.486205,-1072.533697,-148.041188,9918.759623
610.486521,153.219100,666.185348,8660.409521
610.486837,1378.971896,1036.288319,7254.018232
610.487152,2451.505594,1924.535449,6587.832884
610.487468,3677.258390,1998.556043,6143.709319
610.487784,3907.087040,1628.453072,6365.771101
610.488100,3753.867940,1110.308913,6661.853478
610.488416,3294.210641,148.041188,7402.059420
610.488731,2374.896044,-0.000000,8586.388927
610.489047,1225.752797,-962.267725,9548.656652
610.489363,-383.047749,-1924.535449,11177.109724
610.489679,-1302.362347,-2664.741391,11991.336260
610.489994,-2451.505594,-3478.967927,12435.459826
610.490310,-2834.553343,-3256.906145,12879.583391
610.490626,-2604.724693,-2960.823768,12953.603985
610.490942,-2374.896044,-1998.556043,11843.295072
610.491258,-1838.629195,-518.144159,10955.047942
610.491573,-766.095498,-222.061783,9548.656652
610.491889,306.438199,592.164754,8216.285956
610.492205,1762.019645,1332.370696,7179.997637
610.492521,2757.943793,1554.432478,6069.688724
610.492836,3830.477490,1258.350101,6439.791695
610.493152,3753.867940,1776.494261,6217.729913
610.493468,3677.258390,1036.288319,6365.771101
610.493784,3140.991542,148.041188,7476.080014
610.494100,1991.848295,-444.123565,8734.430116
610.494415,459.657299,-1406.391290,9770.718434
610.494731,-459.657299,-2368.659014,11177.109724
610.495047,-1915.238745,-3330.926739,12139.377449
610.495363,-2604.724693,-3256.906145,12509.480420
610.495678,-2757.943793,-2960.823768,13027.624579
610.495994,-2987.772442,-2294.638420,11843.295072
610.496310,-2528.115143,-1258.350101,11177.109724
610.496626,-1685.410096,-148.041188,10066.800811
610.496942,-383.047749,814.226536,8660.409521
610.497257,1532.190996,1406.391290,7476.080014
610.497573,2145.067394,2072.576638,6809.894666
610.497889,2834.553343,2368.659014,6143.709319
610.498205,3447.429741,2368.659014,6217.729913
610.498520,3447.429741,1702.473667,6365.771101
610.498836,2911.162892,1036.288319,7476.080014
610.499152,2145.067394,444.123565,8438.347739
610.499468,1072.533697,-148.041188,9622.677246
610.499784,0.000000,-518.144159,11029.068536
610.500099,-1149.143247,-1406.391290,11843.295072
610.500415,-1685.410096,-2220.617826,12435.459826
610.500731,-1991.848295,-2368.659014,12953.603985
610.501047,-2451.505594,-1924.535449,12657.521608
610.501363,-2374.896044,-888.247130,11991.336260
610.501678,-1762.019645,-222.061783,11251.130318
610.501994,-689.485948,814.226536,9548.656652
610.502310,612.876398,1850.514855,8142.265362
610.502626,1991.848295,2442.679609,7550.100608
610.502942,2987.772442,2886.803174,6365.771101
610.503257,3753.867940,2590.720797,6143.709319
610.503573,3600.648841,2664.741391,6439.791695
610.503889,3677.258390,2146.597232,7105.977043
610.504205,3294.210641,1184.329507,7772.162391
610.504520,1838.629195,518.144159,9178.553681
610.504836,689.485948,-1184.329507,10214.842000
610.505152,-229.828649,-1258.350101,11547.212695
610.505468,-1302.362347,-2368.659014,12657.521608
610.505784,-1915.238745,-2590.720797,13027.624579
610.506099,-2604.724693,-2294.638420,13101.645173
610.506415,-2604.724693,-1702.473667,12509.480420
610.506731,-2221.676944,-666.185348,11695.253884
610.507047,-1608.800546,370.102971,10658.965565
610.507363,-536.266849,666.185348,9400.615463
610.507678,612.876398,1258.350101,8142.265362
610.507994,1762.019645,1924.535449,7254.018232
610.508310,3064.381992,2072.576638,6439.791695
610.508626,3140.991542,1998.556043,6957.935855
610.508942,3064.381992,1702.473667,6957.935855
610.509257,3140.991542,1110.308913,7550.100608
610.509573,2374.896044,222.061783,7920.203579
610.509889,1225.752797,-518.144159,9400.615463
610.510205,76.609550,-1628.453072,10510.924376
610.510521,-1149.143247,-2368.659014,11621.233289
610.510836,-2374.896044,-3330.926739,12435.459826
610.511152,-2681.334243,-3627.009116,12435.459826
610.511468,-2834.553343,-3182.885551,12657.521608
610.511784,-2681.334243,-2294.638420,11769.274478
610.512100,-2145.067394,-1184.329507,10955.047942
610.512415,-1455.581446,-888.247130,9622.677246
610.512731,306.438199,444.123565,8068.244768
610.513047,1532.190996,962.267725,7105.977043
610.513363,2604.724693,1998.556043,6291.750507
610.513679,3524.039291,2072.576638,5773.606348
610.513994,4060.306139,1998.556043,5773.606348
610.514310,3983.696590,1924.535449,5551.544565
610.514626,2911.162892,1554.432478,6809.894666
610.514942,2374.896044,222.061783,8068.244768
610.515257,612.876398,-666.185348,9400.615463
610.515573,-459.657299,-1628.453072,11177.109724
610.515889,-2068.457845,-2590.720797,11991.336260
610.516205,-2757.943793,-3108.864956,12657.521608
610.516521,-3064.381992,-3108.864956,13249.686362
610.516836,-3370.820191,-2368.659014,13175.665768
610.517152,-3370.820191,-1406.391290,11621.233289
610.517468,-2068.457845,-222.061783,10732.986159
610.517784,-766.095498,148.041188,9474.636058
610.518100,689.485948,1184.329507,7624.121203
610.518415,2298.286494,2146.597232,7328.038826
610.518731,3447.429741,2220.617826,5921.647536
610.519047,4213.525239,2146.597232,5921.647536
610.519363,4213.525239,2220.617826,6217.729913
610.519679,3753.867940,1554.432478,6587.832884
610.519994,3370.820191,444.123565,7402.059420
610.520310,2068.457845,-444.123565,9030.512492
610.520626,459.657299,-1406.391290,10362.883188
610.520942,-612.876398,-2368.659014,11843.295072
610.521258,-1685.410096,-3034.844362,12435.459826
610.521573,-2681.334243,-3108.864956,13175.665768
610.521889,-2834.553343,-2886.803174,13545.768739
610.522205,-2528.115143,-2220.617826,12731.542202
610.522521,-2374.896044,-1110.308913,11621.233289
610.522837,-995.924147,-74.020594,10584.944971
610.523152,-459.657299,888.247130,9474.636058
610.523468,1608.800546,1702.473667,7476.080014
610.523784,3370.820191,2368.659014,6957.935855
610.524100,4060.306139,2886.803174,6069.688724
610.524416,4749.792088,2664.741391,6143.709319
610.524731,4443.353888,2590.720797,6291.750507
610.525047,4060.306139,2294.638420,7105.977043
610.525363,3294.210641,1480.411884,8364.327145
610.525679,2068.457845,666.185348,9696.697840
610.525994,306.438199,-740.205942,10955.047942
610.526310,-689.485948,-1480.411884,12139.377449
610.526626,-1608.800546,-2220.617826,12731.542202
610.526942,-2451.505594,-2368.659014,13323.706956
610.527258,-3140.991542,-2072.576638,13545.768739
610.527573,-2451.505594,-1258.350101,12139.377449
610.527889,-2145.067394,-0.000000,11325.150913
610.528205,-1072.533697,888.247130,9992.780217
610.528521,383.047749,1554.432478,8290.306550
610.528837,1685.410096,2072.576638,7105.977043
610.529152,3064.381992,2294.638420,6661.853478
610.529468,3600.648841,2442.679609,6217.729913
610.529784,3677.258390,1998.556043,6143.709319
610.530100,3140.991542,1850.514855,6513.812290
610.530416,2834.553343,740.205942,7402.059420
610.530731,1762.019645,296.082377,8882.471304
610.531047,459.657299,-444.123565,9696.697840
610.531363,-689.485948,-1554.432478,11547.212695
610.531679,-1685.410096,-2442.679609,12065.356855
610.531995,-2604.724693,-3034.844362,12435.459826
610.532310,-3140.991542,-2516.700203,13027.624579
610.532626,-2834.553343,-2220.617826,12583.501014
610.532942,-2604.724693,-1332.370696,11473.192101
610.533258,-1762.019645,-296.082377,10510.924376
610.533574,-689.485948,518.144159,8956.491898
610.533889,612.876398,1036.288319,7624.121203
610.534205,1915.238745,1776.494261,6809.894666
610.534521,2604.724693,2072.576638,5847.626942
610.534837,3217.601092,1554.432478,6365.771101
610.535153,3140.991542,1480.411884,6365.771101
610.535468,2834.553343,592.164754,7031.956449
610.535784,2451.505594,-296.082377,8364.327145
610.536100,1685.410096,-1184.329507,9474.636058
610.536416,229.828649,-1776.494261,11177.109724
610.536731,-612.876398,-2442.679609,11769.274478
610.537047,-1762.019645,-3404.947333,12065.356855
610.537363,-2298.286494,-3330.926739,12657.521608
610.537679,-2451.505594,-2812.782580,12731.542202
610.537995,-2068.457845,-2072.576638,11843.295072
610.538310,-1608.800546,-1110.308913,10807.006753
610.538626,-536.266849,-222.061783,9474.636058
610.538942,229.828649,518.144159,7994.224174
610.539258,1302.362347,518.144159,7550.100608
610.539574,2834.553343,740.205942,6883.915261
610.539889,3600.648841,1110.308913,5995.668130
610.540205,3677.258390,888.247130,6809.894666
610.540521,2911.162892,296.082377,6735.874072
610.540837,2834.553343,-296.082377,7994.224174
610.541153,1762.019645,-962.267725,9104.533087
610.541468,459.657299,-1554.432478,9844.739029
610.541784,-383.047749,-2442.679609,11103.089130
610.542100,-1378.971896,-3034.844362,12361.439231
610.542416,-2298.286494,-3701.029710,12435.459826
610.542732,-2221.676944,-3775.050304,12731.542202
610.543047,-2374.896044,-2664.741391,12065.356855
610.543363,-2145.067394,-1554.432478,11843.295072
610.543679,-919.314598,-814.226536,10362.883188
610.543995,229.828649,370.102971,8660.409521
610.544311,1608.800546,1110.308913,7624.121203
610.544626,2681.334243,1554.432478,6661.853478
610.544942,3217.601092,2368.659014,5699.585753
610.545258,3677.258390,1998.556043,5921.647536
610.545574,3064.381992,1406.391290,6735.874072
610.545890,3140.991542,962.267725,6809.894666
610.546205,2451.505594,-148.041188,7846.182985
610.546521,1072.533697,-444.123565,9326.594869
610.546837,-153.219100,-1554.432478,10584.944971
610.547153,-1378.971896,-2516.700203,11917.315666
610.547468,-2374.896044,-2886.803174,12731.542202
610.547784,-2834.553343,-2664.741391,12879.583391
610.548100,-2757.943793,-2294.638420,13101.645173
610.548416,-2834.553343,-1480.411884,11917.315666
610.548732,-2451.505594,-1036.288319,11029.068536
610.549047,-766.095498,666.185348,9696.697840
610.549363,536.266849,1628.453072,8216.285956
610.549679,1532.190996,2220.617826,7179.997637
610.549995,2681.334243,2664.741391,6291.750507
610.550311,3907.087040,2294.638420,6143.709319
610.550626,3677.258390,2960.823768,6513.812290
610.550942,3524.039291,2368.659014,6587.832884
610.551258,2911.162892,1110.308913,7624.121203
610.551574,1915.238745,888.247130,8882.471304
610.551890,536.266849,-74.020594,10807.006753
610.552205,-536.266849,-814.226536,11473.192101
610.552521,-1378.971896,-1702.473667,12435.459826
610.552837,-2221.676944,-2294.638420,12805.562797
610.553153,-2298.286494,-2368.659014,13101.645173
610.553469,-2681.334243,-1850.514855,12731.542202
610.553784,-2374.896044,-740.205942,11991.336260
610.554100,-1302.362347,444.123565,10807.006753
610.554416,0.000000,1332.370696,9326.594869
610.554732,1302.362347,1998.556043,8068.244768
610.555048,2451.505594,2664.741391,6883.915261
610.555363,3217.601092,3182.885551,5995.668130
610.555679,4213.525239,2738.761985,6365.771101
610.555995,3983.696590,2368.659014,6365.771101
610.556311,3677.258390,1924.535449,6883.915261
610.556626,2911.162892,814.226536,7994.224174
610.556942,1915.238745,-0.000000,9474.636058
610.557258,459.657299,-518.144159,10510.924376
610.557574,-612.876398,-1702.473667,11843.295072
610.557890,-1915.238745,-2072.576638,12361.439231
610.558205,-2451.505594,-2590.720797,12731.542202
610.558521,-2834.553343,-2590.720797,13101.645173
610.558837,-3064.381992,-2294.638420,12435.459826
610.559153,-2681.334243,-1184.329507,11843.295072
610.559469,-1915.238745,-296.082377,10436.903782
610.559784,-766.095498,444.123565,8882.471304
610.560100,766.095498,888.247130,7846.182985
610.560416,2145.067394,1702.473667,6957.935855
610.560732,2834.553343,1998.556043,6439.791695
610.561048,4136.915689,1998.556043,6661.853478
610.561363,3753.867940,1628.453072,5921.647536
