#time,accel_x,accel_y,accel_z
819.037664,459.657299,-222.061783,9622.677246
819.037980,229.828649,-74.020594,9622.677246
819.038295,383.047749,-148.041188,9548.656652
819.038611,459.657299,-444.123565,9474.636058
819.038927,306.438199,-370.102971,9400.615463
819.039242,689.485948,-0.000000,9252.574275
819.039558,612.876398,-0.000000,9474.636058
819.039874,536.266849,-74.020594,9474.636058
819.040189,689.485948,-0.000000,9474.636058
819.040505,536.266849,-148.041188,9622.677246
819.040821,459.657299,-74.020594,9548.656652
819.041136,536.266849,-518.144159,9474.636058
819.041452,383.047749,-74.020594,9474.636058
819.041768,0.000000,-370.102971,9622.677246
819.042083,153.219100,-0.000000,9696.697840
819.042399,383.047749,296.082377,9400.615463
819.042715,536.266849,148.041188,9104.533087
819.043030,383.047749,296.082377,9252.574275
819.043346,306.438199,-0.000000,9326.594869
819.043662,0.000000,-0.000000,9474.636058
819.043977,306.438199,-0.000000,9474.636058
819.044293,229.828649,-296.082377,9548.656652
819.044609,153.219100,-592.164754,9622.677246
819.044924,76.609550,-296.082377,9844.739029
819.045240,76.609550,-148.041188,9548.656652
819.045556,459.657299,370.102971,9474.636058
819.045872,459.657299,666.185348,9252.574275
819.046187,459.657299,814.226536,9326.594869
819.046503,842.705048,888.247130,9326.594869
819.046819,1072.533697,666.185348,9030.512492
819.047134,689.485948,962.267725,9104.533087
819.047450,536.266849,666.185348,9326.594869
819.047766,766.095498,296.082377,9548.656652
819.048081,536.266849,222.061783,9770.718434
819.048397,612.876398,518.144159,9770.718434
819.048713,459.657299,370.102971,9696.697840
819.049028,842.705048,592.164754,9548.656652
819.049344,1302.362347,962.267725,9696.697840
819.049660,1532.190996,962.267725,9400.615463
819.049975,1302.362347,1258.350101,9400.615463
819.050291,1762.019645,1628.453072,9252.574275
819.050607,2068.457845,1702.473667,9030.512492
819.050922,2145.067394,1628.453072,8882.471304
819.051238,2451.505594,1702.473667,9030.512492
819.051554,2451.505594,1628.453072,9104.533087
819.051869,2451.505594,1628.453072,9400.615463
819.052185,2834.553343,1480.411884,9474.636058
819.052501,2757.943793,1628.453072,9474.636058
819.052816,2451.505594,1702.473667,9548.656652
819.053132,2604.724693,1998.556043,9548.656652
819.053448,2681.334243,2146.597232,9622.677246
819.053763,2834.553343,2146.597232,9326.594869
819.054079,2834.553343,2220.617826,9696.697840
819.054395,2911.162892,2368.659014,9326.594869
819.054710,3217.601092,2220.617826,9252.574275
819.055026,3447.429741,2294.638420,9326.594869
819.055342,3447.429741,2442.679609,9400.615463
819.055657,3600.648841,2368.659014,9474.636058
819.055973,3294.210641,2590.720797,9696.697840
819.056289,2987.772442,2368.659014,9474.636058
819.056604,3217.601092,2738.761985,9622.677246
819.056920,3370.820191,2516.700203,9992.780217
819.057236,2911.162892,2516.700203,9770.718434
819.057551,3140.991542,2590.720797,9992.780217
819.057867,2681.334243,2294.638420,9770.718434
819.058183,2528.115143,2146.597232,9992.780217
819.058498,2604.724693,1702.473667,9696.697840
819.058814,2451.505594,2072.576638,9918.759623
819.059130,2451.505594,2146.597232,9844.739029
819.059445,2528.115143,2738.761985,9696.697840
819.059761,2987.772442,2294.638420,9548.656652
819.060077,2757.943793,2368.659014,9844.739029
819.060392,2834.553343,2146.597232,9696.697840
819.060708,2987.772442,2368.659014,9474.636058
819.061024,2757.943793,1998.556043,9326.594869
819.061339,2528.115143,2072.576638,9400.615463
819.061655,1991.848295,2072.576638,9474.636058
819.061971,2221.676944,2072.576638,9400.615463
819.062286,1378.971896,1258.350101,9622.677246
819.062602,1149.143247,1036.288319,10066.800811
819.062918,766.095498,518.144159,10288.862594
819.063233,459.657299,-0.000000,10436.903782
819.063549,536.266849,-296.082377,10732.986159
819.063865,612.876398,-370.102971,10955.047942
819.064180,1225.752797,-222.061783,10732.986159
819.064496,1608.800546,-0.000000,9992.780217
819.064812,1991.848295,740.205942,9696.697840
819.065127,2528.115143,1628.453072,9252.574275
819.065443,3524.039291,2368.659014,8290.306550
819.065759,3677.258390,3034.844362,7624.121203
819.066074,4136.915689,3034.844362,7328.038826
819.066390,4519.963438,2664.741391,7105.977043
819.066706,4136.915689,2072.576638,7550.100608
819.067021,3600.648841,1554.432478,7846.182985
819.067337,2451.505594,962.267725,9030.512492
819.067653,1685.410096,296.082377,9474.636058
819.067968,919.314598,370.102971,9918.759623
819.068284,153.219100,-0.000000,9918.759623
819.068600,-383.047749,-0.000000,10288.862594
819.068915,-1225.752797,-592.164754,10732.986159
819.069231,-842.705048,-1036.288319,10955.047942
819.069547,-612.876398,-1036.288319,10881.027347
819.069862,0.000000,-740.205942,10807.006753
819.070178,1149.143247,-0.000000,10140.821405
819.070494,2374.896044,1036.288319,9548.656652
819.070809,3294.210641,2294.638420,8808.450710
819.071125,4596.572988,3034.844362,8068.244768
819.071441,5669.106685,3701.029710,7328.038826
819.071756,6894.859482,4219.173869,7031.956449
819.072072,6435.202183,4441.235652,6735.874072
819.072388,6588.421283,4663.297435,6513.812290
819.072703,6281.983084,4293.194464,6957.935855
819.073019,5209.449386,3775.050304,7772.162391
819.073335,4290.134789,2590.720797,9252.574275
819.073650,2528.115143,1110.308913,9844.739029
819.073966,1072.533697,-0.000000,11251.130318
819.074282,0.000000,-740.205942,12657.521608
819.074597,-689.485948,-814.226536,13101.645173
819.074913,-919.314598,-592.164754,13323.706956
819.075229,-306.438199,444.123565,12287.418637
819.075544,306.438199,1776.494261,11473.192101
819.075860,1302.362347,3108.864956,10436.903782
819.076176,2451.505594,3108.864956,9030.512492
819.076491,4290.134789,4515.256246,7920.203579
819.076807,5132.839837,4737.318029,6587.832884
819.077123,6435.202183,3330.926739,7179.997637
819.077438,6741.640382,3330.926739,7550.100608
819.077754,5975.544884,2960.823768,7254.018232
819.078070,4903.011187,2368.659014,8364.327145
819.078385,4673.182538,2072.576638,10140.821405
819.078701,3600.648841,2220.617826,10807.006753
819.079017,3064.381992,1850.514855,11547.212695
819.079333,1532.190996,2220.617826,11547.212695
819.079648,842.705048,2812.782580,11547.212695
819.079964,1072.533697,2886.803174,10732.986159
819.080280,1302.362347,2738.761985,10066.800811
819.080595,1685.410096,2442.679609,10066.800811
819.080911,1838.629195,2368.659014,9844.739029
819.081227,2068.457845,1850.514855,9104.533087
819.081542,2374.896044,1924.535449,9178.553681
819.081858,2298.286494,1998.556043,9030.512492
819.082174,2221.676944,2812.782580,8882.471304
819.082489,1991.848295,2886.803174,9178.553681
819.082805,1455.581446,2220.617826,9622.677246
819.083121,1378.971896,1702.473667,9844.739029
819.083436,2145.067394,1110.308913,10140.821405
819.083752,1762.019645,962.267725,10436.903782
819.084068,1378.971896,1184.329507,10881.027347
819.084383,1455.581446,1924.535449,10881.027347
819.084699,2298.286494,1628.453072,10288.862594
819.085015,2757.943793,2664.741391,10362.883188
819.085330,2757.943793,3997.112087,8660.409521
819.085646,3294.210641,3775.050304,7179.997637
819.085962,4443.353888,2886.803174,7105.977043
819.086277,4749.792088,2590.720797,7031.956449
819.086593,4136.915689,2590.720797,7105.977043
819.086909,3217.601092,1332.370696,7550.100608
819.087224,2604.724693,222.061783,9474.636058
819.087540,1685.410096,-518.144159,10214.842000
819.087856,306.438199,296.082377,10881.027347
819.088171,-383.047749,962.267725,11399.171507
819.088487,0.000000,888.247130,11547.212695
819.088803,919.314598,518.144159,10362.883188
819.089118,689.485948,1110.308913,10288.862594
819.089434,1149.143247,1110.308913,10362.883188
819.089750,2451.505594,888.247130,9992.780217
819.090065,3140.991542,962.267725,9030.512492
819.090381,3983.696590,2146.597232,7920.203579
819.090697,4903.011187,2664.741391,7698.141797
819.091012,5592.497135,2812.782580,7772.162391
819.091328,5286.058936,2886.803174,7105.977043
819.091644,4979.620737,2664.741391,7328.038826
819.091959,4826.401637,2072.576638,7994.224174
819.092275,4290.134789,2146.597232,8660.409521
819.092591,2911.162892,2516.700203,9178.553681
819.092906,2145.067394,2072.576638,9326.594869
819.093222,1685.410096,1184.329507,9992.780217
819.093538,459.657299,740.205942,11029.068536
819.093853,-383.047749,-0.000000,11547.212695
819.094169,-536.266849,-1110.308913,11991.336260
819.094485,-689.485948,-962.267725,11843.295072
819.094800,-153.219100,-296.082377,11547.212695
819.095116,1302.362347,666.185348,10807.006753
819.095432,2604.724693,1332.370696,10214.842000
819.095748,3140.991542,2590.720797,8660.409521
819.096064,3524.039291,2960.823768,7846.182985
819.096379,4673.182538,1998.556043,8512.368333
819.096695,4596.572988,3256.906145,7920.203579
819.097011,4366.744339,3701.029710,7772.162391
819.097327,4979.620737,2664.741391,8068.244768
819.097643,4213.525239,2072.576638,8734.430116
819.097959,2834.553343,2442.679609,9918.759623
819.098274,2757.943793,1406.391290,10288.862594
819.098590,2221.676944,1850.514855,10214.842000
819.098906,1532.190996,2442.679609,10288.862594
819.099222,1991.848295,1628.453072,10955.047942
819.099538,2298.286494,1258.350101,11103.089130
819.099853,919.314598,1184.329507,11103.089130
819.100169,1149.143247,1184.329507,10510.924376
819.100485,1302.362347,666.185348,10066.800811
819.100801,1685.410096,1702.473667,9400.615463
819.101117,1915.238745,1850.514855,9178.553681
819.101433,2068.457845,2072.576638,8882.471304
819.101748,2145.067394,1998.556043,9252.574275
819.102064,1838.629195,1924.535449,9030.512492
819.102380,1685.410096,2294.638420,8808.450710
819.102696,1532.190996,1628.453072,9474.636058
819.103012,1915.238745,1406.391290,10214.842000
819.103327,1762.019645,1554.432478,9770.718434
819.103643,1455.581446,1776.494261,9844.739029
819.103959,1685.410096,2220.617826,9844.739029
819.104275,2145.067394,2960.823768,7994.224174
819.104591,2911.162892,2220.617826,9030.512492
819.104907,3447.429741,1628.453072,9400.615463
819.105222,2987.772442,1850.514855,8586.388927
819.105538,2987.772442,1850.514855,8512.368333
819.105854,1991.848295,1924.535449,8586.388927
819.106170,2374.896044,2812.782580,8512.368333
819.106486,2298.286494,1554.432478,9474.636058
819.106801,1378.971896,1554.432478,9918.759623
819.107117,842.705048,-0.000000,10214.842000
819.107433,383.047749,814.226536,9992.780217
819.107749,229.828649,962.267725,10066.800811
819.108065,1378.971896,-0.000000,11621.233289
819.108381,1838.629195,1110.308913,11251.130318
819.108696,1302.362347,2072.576638,9770.718434
819.109012,2068.457845,2368.659014,9770.718434
819.109328,3294.210641,2368.659014,8808.450710
819.109644,4213.525239,2368.659014,8438.347739
819.109960,4826.401637,1480.411884,8956.491898
819.110275,4136.915689,1776.494261,9178.553681
819.110591,3983.696590,1850.514855,8438.347739
819.110907,4213.525239,2294.638420,7994.224174
819.111223,3907.087040,2146.597232,7772.162391
819.111539,3753.867940,888.247130,10510.924376
819.111855,2757.943793,2220.617826,9696.697840
819.112170,1532.190996,1332.370696,9252.574275
819.112486,1608.800546,962.267725,9622.677246
819.112802,1685.410096,888.247130,10881.027347
819.113118,1455.581446,-74.020594,10955.047942
819.113434,383.047749,518.144159,10362.883188
819.113749,0.000000,888.247130,9696.697840
819.114065,-536.266849,148.041188,9770.718434
819.114381,919.314598,-666.185348,9696.697840
819.114697,536.266849,-1258.350101,10807.006753
819.115013,153.219100,-370.102971,11029.068536
819.115329,229.828649,-592.164754,9770.718434
819.115644,0.000000,-444.123565,9844.739029
819.115960,1378.971896,-0.000000,10732.986159
819.116276,2604.724693,740.205942,9918.759623
819.116592,1915.238745,2146.597232,7698.141797
819.116908,1532.190996,1332.370696,8882.471304
819.117223,1991.848295,962.267725,8808.450710
819.117539,2451.505594,888.247130,8290.306550
819.117855,1915.238745,518.144159,8734.430116
819.118171,1072.533697,296.082377,8438.347739
819.118487,306.438199,-1110.308913,9696.697840
819.118803,-229.828649,-592.164754,9252.574275
819.119118,-153.219100,-1628.453072,10584.944971
819.119434,-995.924147,-2886.803174,10510.924376
819.119750,-1455.581446,-1702.473667,9918.759623
819.120066,-1685.410096,-1776.494261,9548.656652
819.120382,-1838.629195,-1924.535449,9696.697840
819.120697,-995.924147,-1924.535449,10658.965565
819.121013,-842.705048,-1776.494261,9992.780217
819.121329,-229.828649,-592.164754,8956.491898
819.121645,-689.485948,-518.144159,8660.409521
819.121961,76.609550,-0.000000,8586.388927
819.122277,1225.752797,-518.144159,8290.306550
819.122592,1608.800546,296.082377,8068.244768
819.122908,1685.410096,1702.473667,8068.244768
819.123224,1762.019645,1258.350101,7031.956449
819.123540,1685.410096,666.185348,7402.059420
819.123856,995.924147,-148.041188,8068.244768
819.124171,383.047749,-296.082377,9400.615463
819.124487,-689.485948,-666.185348,9326.594869
819.124803,-1685.410096,-1036.288319,9770.718434
819.125119,-1455.581446,-814.226536,10436.903782
819.125435,-1608.800546,-1332.370696,11547.212695
819.125751,-2451.505594,-1036.288319,10436.903782
819.126066,-2068.457845,-296.082377,10510.924376
819.126382,-1685.410096,-0.000000,9548.656652
819.126698,459.657299,666.185348,9104.533087
819.127014,383.047749,222.061783,9622.677246
819.127330,383.047749,666.185348,9918.759623
819.127645,1225.752797,444.123565,8290.306550
819.127961,1838.629195,1332.370696,7328.038826
819.128277,2221.676944,1036.288319,9252.574275
819.128593,1915.238745,592.164754,9918.759623
819.128909,2145.067394,1110.308913,9622.677246
819.129225,1302.362347,962.267725,8660.409521
819.129540,1608.800546,444.123565,9770.718434
819.129856,1991.848295,-74.020594,9992.780217
819.130172,612.876398,-296.082377,9992.780217
819.130488,383.047749,-666.185348,11325.150913
819.130804,459.657299,-222.061783,10658.965565
819.131119,536.266849,-0.000000,10510.924376
819.131435,612.876398,370.102971,10140.821405
819.131751,612.876398,444.123565,9474.636058
819.132067,842.705048,296.082377,9622.677246
819.132383,1378.971896,814.226536,9326.594869
819.132699,1915.238745,370.102971,9178.553681
819.133014,2068.457845,518.144159,10288.862594
819.133330,995.924147,-0.000000,9400.615463
819.133646,1149.143247,-666.185348,9992.780217
819.133962,1838.629195,148.041188,9474.636058
819.134278,1455.581446,-222.061783,10584.944971
819.134593,0.000000,666.185348,10288.862594
819.134909,76.609550,-0.000000,10881.027347
819.135225,-229.828649,444.123565,8216.285956
819.135541,306.438199,1036.288319,9104.533087
819.135857,459.657299,-444.123565,9844.739029
819.136173,0.000000,-1258.350101,10362.883188
819.136488,-536.266849,-814.226536,9770.718434
819.136804,0.000000,-1184.329507,8882.471304
819.137120,76.609550,-1184.329507,9474.636058
819.137436,383.047749,-444.123565,10510.924376
819.137752,-536.266849,296.082377,9252.574275
819.138067,0.000000,370.102971,8364.327145
819.138383,229.828649,296.082377,8660.409521
819.138699,919.314598,592.164754,8512.368333
819.139015,919.314598,296.082377,9326.594869
819.139331,536.266849,-592.164754,9326.594869
819.139647,76.609550,-370.102971,7846.182985
819.139962,612.876398,-0.000000,8808.450710
819.140278,536.266849,-222.061783,9622.677246
819.140594,153.219100,444.123565,9474.636058
819.140910,0.000000,444.123565,8660.409521
819.141226,-306.438199,-0.000000,8216.285956
819.141541,0.000000,-962.267725,9326.594869
819.141857,536.266849,-518.144159,9622.677246
819.142173,229.828649,-444.123565,8882.471304
819.142489,-612.876398,-1258.350101,10140.821405
819.142805,-383.047749,-666.185348,9030.512492
819.143121,0.000000,-444.123565,8956.491898
819.143436,-229.828649,370.102971,10066.800811
819.143752,-229.828649,-74.020594,10140.821405
819.144068,-383.047749,-444.123565,8882.471304
819.144384,153.219100,-148.041188,8808.450710
819.144700,689.485948,-1184.329507,9918.759623
819.145015,842.705048,-222.061783,9992.780217
819.145331,0.000000,-0.000000,9474.636058
819.145647,383.047749,-666.185348,9326.594869
819.145963,1225.752797,-888.247130,9548.656652
819.146279,689.485948,-0.000000,10140.821405
819.146595,0.000000,-148.041188,10214.842000
819.146910,0.000000,-740.205942,9178.553681
819.147226,459.657299,-518.144159,8734.430116
819.147542,766.095498,-370.102971,8586.388927
819.147858,383.047749,-740.205942,11103.089130
819.148174,536.266849,-888.247130,11029.068536
819.148489,-919.314598,-296.082377,8956.491898
819.148805,-306.438199,-444.123565,9696.697840
819.149121,306.438199,-1110.308913,10362.883188
819.149437,229.828649,-74.020594,10658.965565
819.149753,-536.266849,-148.041188,10214.842000
819.150069,0.000000,-370.102971,9918.759623
819.150384,1225.752797,-148.041188,8882.471304
819.150700,536.266849,1258.350101,8734.430116
819.151016,1455.581446,-0.000000,10584.944971
819.151332,306.438199,-0.000000,10362.883188
819.151648,0.000000,1110.308913,8364.327145
819.151963,689.485948,-1332.370696,9030.512492
819.152279,689.485948,-148.041188,10881.027347
819.152595,459.657299,-0.000000,9918.759623
819.152911,153.219100,-296.082377,8956.491898
819.153227,612.876398,-0.000000,8512.368333
819.153543,306.438199,-592.164754,10066.800811
819.153858,1225.752797,-370.102971,9548.656652
819.154174,459.657299,-370.102971,9770.718434
819.154490,229.828649,-1036.288319,9326.594869
819.154806,995.924147,-518.144159,8512.368333
819.155122,995.924147,-222.061783,8882.471304
819.155437,919.314598,-222.061783,10732.986159
819.155753,0.000000,-222.061783,9696.697840
819.156069,459.657299,370.102971,7772.162391
819.156385,1149.143247,-518.144159,8882.471304
819.156701,1149.143247,-296.082377,9326.594869
819.157017,919.314598,296.082377,9252.574275
819.157332,153.219100,-296.082377,9992.780217
819.157648,612.876398,-148.041188,8956.491898
819.157964,1225.752797,370.102971,9104.533087
819.158280,1072.533697,666.185348,9622.677246
819.158596,536.266849,222.061783,9030.512492
819.158911,612.876398,-0.000000,8586.388927
819.159227,1608.800546,-74.020594,7772.162391
819.159543,1838.629195,-740.205942,8956.491898
819.159859,1532.190996,-296.082377,10288.862594
819.160175,919.314598,-0.000000,9400.615463
819.160491,689.485948,-0.000000,8438.347739
819.160806,1072.533697,444.123565,8586.388927
819.161122,995.924147,-0.000000,10066.800811
819.161438,689.485948,666.185348,10881.027347
819.161754,-383.047749,1258.350101,8808.450710
819.162070,306.438199,-148.041188,8956.491898
819.162385,1302.362347,-296.082377,9252.574275
819.162701,689.485948,-148.041188,9992.780217
819.163017,306.438199,518.144159,10584.944971
819.163333,-229.828649,-666.185348,9252.574275
819.163649,-459.657299,-592.164754,9992.780217
819.163965,536.266849,444.123565,9992.780217
819.164280,-229.828649,1036.288319,9770.718434
819.164596,-842.705048,740.205942,9992.780217
819.164912,-612.876398,-370.102971,10510.924376
819.165228,229.828649,-592.164754,9178.553681
819.165544,306.438199,296.082377,10140.821405
819.165860,-459.657299,-0.000000,11103.089130
819.166175,-153.219100,-296.082377,9992.780217
819.166491,-383.047749,-666.185348,9548.656652
819.166807,536.266849,-444.123565,9178.553681
819.167123,229.828649,-222.061783,10584.944971
819.167439,76.609550,-592.164754,11621.233289
819.167754,76.609550,-962.267725,9178.553681
819.168070,612.876398,-444.123565,8216.285956
819.168386,1455.581446,-370.102971,9474.636058
819.168702,1302.362347,-222.061783,10288.862594
819.169018,383.047749,962.267725,9474.636058
819.169334,689.485948,-296.082377,8364.327145
819.169649,383.047749,-1258.350101,8512.368333
819.169965,689.485948,-1036.288319,10510.924376
819.170281,153.219100,-296.082377,10140.821405
819.170597,-306.438199,-592.164754,9326.594869
819.170913,-536.266849,-814.226536,9326.594869
819.171228,536.266849,-1258.350101,9326.594869
819.171544,229.828649,-666.185348,9622.677246
819.171860,-459.657299,-148.041188,10436.903782
819.172176,-766.095498,-740.205942,9104.533087
819.172492,0.000000,-1258.350101,8660.409521
819.172808,153.219100,-814.226536,9474.636058
819.173123,842.705048,-0.000000,9844.739029
819.173439,383.047749,518.144159,9030.512492
819.173755,612.876398,-0.000000,7698.141797
819.174071,1149.143247,-592.164754,8290.306550
819.174387,1838.629195,-222.061783,8956.491898
819.174702,2068.457845,-0.000000,9622.677246
819.175018,1072.533697,518.144159,7550.100608
819.175334,919.314598,-370.102971,8512.368333
819.175650,995.924147,-444.123565,9474.636058
819.175966,1302.362347,-148.041188,9474.636058
819.176282,612.876398,666.185348,9178.553681
819.176597,-689.485948,-0.000000,8956.491898
819.176913,0.000000,-1110.308913,9104.533087
819.177229,689.485948,-1258.350101,9400.615463
819.177545,153.219100,-444.123565,9992.780217
819.177861,0.000000,-592.164754,10140.821405
819.178176,-459.657299,-740.205942,9474.636058
819.178492,-229.828649,-666.185348,9030.512492
819.178808,995.924147,-444.123565,10066.800811
819.179124,612.876398,-0.000000,9992.780217
819.179440,153.219100,222.061783,9918.759623
819.179756,153.219100,-444.123565,9326.594869
819.180071,919.314598,-962.267725,7920.203579
819.180387,842.705048,-1258.350101,10732.986159
819.180703,1302.362347,-222.061783,10214.842000
819.181019,383.047749,-222.061783,10362.883188
819.181335,766.095498,296.082377,9548.656652
819.181650,612.876398,888.247130,8586.388927
819.181966,919.314598,222.061783,9548.656652
819.182282,919.314598,-0.000000,10214.842000
819.182598,459.657299,-148.041188,9474.636058
819.182914,459.657299,-148.041188,9252.574275
819.183230,689.485948,-518.144159,9474.636058
819.183545,842.705048,-222.061783,10732.986159
819.183861,383.047749,222.061783,10362.883188
819.184177,0.000000,296.082377,8882.471304
819.184493,306.438199,-0.000000,9326.594869
819.184809,536.266849,-0.000000,9844.739029
819.185124,612.876398,518.144159,10584.944971
819.185440,76.609550,222.061783,10066.800811
819.185756,459.657299,222.061783,8882.471304
819.186072,689.485948,518.144159,8512.368333
819.186388,536.266849,740.205942,9696.697840
819.186704,612.876398,1332.370696,9696.697840
819.187019,0.000000,740.205942,9474.636058
819.187335,0.000000,518.144159,8512.368333
819.187651,229.828649,-222.061783,9104.533087
819.187967,306.438199,-740.205942,11251.130318
819.188283,229.828649,370.102971,10362.883188
819.188598,-536.266849,740.205942,9400.615463
819.188914,153.219100,370.102971,8364.327145
819.189230,612.876398,-148.041188,9030.512492
819.189546,612.876398,370.102971,10584.944971
819.189862,0.000000,-148.041188,9992.780217
819.190178,-612.876398,-814.226536,9030.512492
819.190493,76.609550,-888.247130,9252.574275
819.190809,1072.533697,-666.185348,10362.883188
819.191125,842.705048,148.041188,9696.697840
819.191441,153.219100,666.185348,9252.574275
819.191757,1072.533697,518.144159,8068.244768
819.192072,1532.190996,-296.082377,8734.430116
819.192388,1302.362347,-0.000000,9400.615463
819.192704,919.314598,-0.000000,9104.533087
819.193020,766.095498,-592.164754,9622.677246
819.193336,153.219100,-1184.329507,8660.409521
819.193652,842.705048,-888.247130,9548.656652
819.193967,536.266849,-962.267725,10584.944971
819.194283,0.000000,-740.205942,10288.862594
819.194599,-919.314598,-1110.308913,9918.759623
819.194915,-383.047749,-962.267725,8808.450710
819.195231,76.609550,-1332.370696,9696.697840
819.195546,-153.219100,-592.164754,10732.986159
819.195862,-459.657299,-740.205942,10214.842000
819.196178,-612.876398,-1258.350101,8364.327145
819.196494,-229.828649,-962.267725,8512.368333
819.196809,689.485948,-1184.329507,10288.862594
819.197125,383.047749,-814.226536,10214.842000
819.197441,229.828649,-518.144159,9030.512492
819.197756,842.705048,-444.123565,8068.244768
819.198072,1685.410096,-370.102971,8364.327145
819.198388,1532.190996,-296.082377,9326.594869
819.198703,995.924147,222.061783,9178.553681
819.199019,229.828649,-74.020594,8660.409521
819.199335,1072.533697,-1036.288319,8882.471304
819.199651,995.924147,-740.205942,9548.656652
819.199966,0.000000,-0.000000,10140.821405
819.200282,-153.219100,-444.123565,9770.718434
819.200598,0.000000,-74.020594,8734.430116
819.200913,-459.657299,-296.082377,8882.471304
819.201229,153.219100,-0.000000,9918.759623
819.201545,76.609550,-1184.329507,10658.965565
819.201860,-612.876398,-592.164754,10362.883188
819.202176,-536.266849,-0.000000,9252.574275
819.202492,459.657299,-444.123565,8956.491898
819.202807,1072.533697,-0.000000,10288.862594
819.203123,459.657299,962.267725,9474.636058
819.203439,153.219100,-74.020594,9030.512492
819.203755,459.657299,-148.041188,9030.512492
819.204070,1149.143247,-592.164754,9474.636058
819.204386,1149.143247,148.041188,10140.821405
819.204702,995.924147,444.123565,9622.677246
819.205017,766.095498,-0.000000,8734.430116
819.205333,842.705048,148.041188,9178.553681
819.205649,1455.581446,-666.185348,10214.842000
819.205964,995.924147,370.102971,10510.924376
819.206280,459.657299,-0.000000,9844.739029
819.206596,689.485948,592.164754,8068.244768
819.206911,536.266849,444.123565,8512.368333
819.207227,1532.190996,-222.061783,10510.924376
819.207543,842.705048,-0.000000,10066.800811
819.207858,-766.095498,-0.000000,9474.636058
819.208174,0.000000,-370.102971,8882.471304
819.208490,76.609550,-148.041188,9548.656652
819.208806,76.609550,-592.164754,10066.800811
819.209121,0.000000,-222.061783,11103.089130
819.209437,-919.314598,-0.000000,9548.656652
819.209753,0.000000,-296.082377,8586.388927
819.210068,842.705048,-296.082377,9918.759623
819.210384,306.438199,-296.082377,10510.924376
819.210700,-153.219100,222.061783,10066.800811
819.211015,-459.657299,-74.020594,8512.368333
819.211331,229.828649,-370.102971,9178.553681
819.211647,1072.533697,-148.041188,9918.759623
819.211962,229.828649,518.144159,9548.656652
819.212278,0.000000,296.082377,9474.636058
819.212594,76.609550,-592.164754,8142.265362
819.212910,919.314598,518.144159,8956.491898
819.213225,1149.143247,962.267725,9326.594869
819.213541,842.705048,-0.000000,9696.697840
819.213857,76.609550,-0.000000,9622.677246
819.214172,-459.657299,-296.082377,9104.533087
819.214488,995.924147,-1036.288319,9844.739029
819.214804,76.609550,-0.000000,9992.780217
819.215119,-153.219100,518.144159,10288.862594
819.215435,229.828649,-148.041188,8808.450710
819.215751,306.438199,-0.000000,8068.244768
819.216066,1455.581446,370.102971,9326.594869
819.216382,1225.752797,-370.102971,9474.636058
819.216698,383.047749,-370.102971,9622.677246
819.217013,0.000000,-592.164754,8956.491898
819.217329,1225.752797,-740.205942,8882.471304
819.217645,1072.533697,-148.041188,10362.883188
819.217961,229.828649,-0.000000,9992.780217
819.218276,-153.219100,-0.000000,9548.656652
819.218592,459.657299,-592.164754,8808.450710
819.218908,766.095498,-1036.288319,9400.615463
819.219223,1302.362347,-962.267725,10658.965565
819.219539,766.095498,-444.123565,9992.780217
819.219855,459.657299,-814.226536,9104.533087
819.220170,689.485948,-296.082377,8660.409521
819.220486,1455.581446,-296.082377,9400.615463
819.220802,1149.143247,-0.000000,10140.821405
819.221117,612.876398,-0.000000,9918.759623
819.221433,842.705048,-0.000000,8512.368333
819.221749,1302.362347,-296.082377,8438.347739
819.222065,919.314598,-888.247130,9178.553681
819.222380,1225.752797,-370.102971,10658.965565
819.222696,459.657299,-740.205942,9844.739029
819.223012,-536.266849,-1258.350101,9252.574275
819.223327,76.609550,-1406.391290,9770.718434
819.223643,919.314598,-1184.329507,10584.944971
819.223959,-459.657299,-222.061783,10066.800811
819.224274,-919.314598,-222.061783,9622.677246
819.224590,153.219100,-888.247130,9104.533087
819.224906,689.485948,-814.226536,9104.533087
819.225221,306.438199,-0.000000,9104.533087
819.225537,459.657299,-370.102971,9474.636058
819.225853,-229.828649,-962.267725,8142.265362
819.226169,229.828649,-518.144159,8956.491898
819.226484,689.485948,-1110.308913,9918.759623
819.226800,459.657299,-888.247130,10584.944971
819.227116,0.000000,-370.102971,9992.780217
819.227431,0.000000,-0.000000,8142.265362
819.227747,536.266849,-148.041188,8734.430116
819.228063,995.924147,-296.082377,9474.636058
819.228378,612.876398,518.144159,9844.739029
819.228694,459.657299,-0.000000,8882.471304
819.229010,-306.438199,-740.205942,9178.553681
819.229325,689.485948,-1110.308913,9918.759623
819.229641,612.876398,-592.164754,9918.759623
819.229957,459.657299,814.226536,9918.759623
819.230272,0.000000,444.123565,8956.491898
819.230588,383.047749,-666.185348,9104.533087
819.230904,919.314598,-592.164754,9918.759623
819.231220,689.485948,444.123565,9326.594869
819.231535,383.047749,370.102971,9178.553681
819.231851,76.609550,-740.205942,9400.615463
819.232167,689.485948,-222.061783,9400.615463
819.232482,689.485948,-444.123565,10658.965565
819.232798,76.609550,592.164754,10362.883188
819.233114,0.000000,296.082377,9326.594869
819.233429,0.000000,296.082377,8290.306550
819.233745,766.095498,-518.144159,8956.491898
819.234061,1149.143247,-444.123565,10362.883188
819.234376,766.095498,518.144159,10214.842000
819.234692,459.657299,-0.000000,9622.677246
819.235008,153.219100,444.123565,8216.285956
819.235324,919.314598,962.267725,8438.347739
819.235639,536.266849,444.123565,9622.677246
819.235955,612.876398,814.226536,10066.800811
819.236271,-459.657299,518.144159,9696.697840
819.236586,0.000000,-148.041188,8216.285956
819.236902,1072.533697,-0.000000,9770.718434
819.237218,612.876398,-0.000000,11029.068536
819.237533,0.000000,296.082377,9474.636058
819.237849,-229.828649,888.247130,8512.368333
819.238165,229.828649,148.041188,9474.636058
819.238480,536.266849,-0.000000,11029.068536
819.238796,0.000000,814.226536,10288.862594
819.239112,-153.219100,444.123565,9622.677246
819.239427,0.000000,814.226536,7624.121203
819.239743,995.924147,-74.020594,9548.656652
819.240059,1302.362347,-0.000000,9474.636058
819.240375,306.438199,-296.082377,10584.944971
819.240690,76.609550,-518.144159,9622.677246
819.241006,0.000000,-888.247130,8734.430116
819.241322,612.876398,-1184.329507,10436.903782
819.241637,0.000000,-0.000000,10510.924376
819.241953,689.485948,1036.288319,9844.739029
819.242269,0.000000,518.144159,8216.285956
819.242584,459.657299,-222.061783,8364.327145
819.242900,1762.019645,-1184.329507,9770.718434
819.243216,1455.581446,-74.020594,9252.574275
819.243531,766.095498,-296.082377,9474.636058
819.243847,689.485948,-740.205942,8142.265362
819.244163,1378.971896,-518.144159,9474.636058
819.244479,1149.143247,-370.102971,10140.821405
819.244794,766.095498,148.041188,9992.780217
819.245110,306.438199,-0.000000,9474.636058
819.245426,536.266849,-296.082377,8290.306550
819.245741,689.485948,-1036.288319,9030.512492
819.246057,689.485948,-666.185348,10066.800811
819.246373,459.657299,-444.123565,10362.883188
819.246688,-689.485948,-444.123565,8364.327145
819.247004,-459.657299,-444.123565,9400.615463
819.247320,0.000000,-888.247130,10214.842000
819.247635,-306.438199,-74.020594,10140.821405
819.247951,-689.485948,-148.041188,9622.677246
819.248267,-689.485948,-740.205942,9326.594869
819.248582,612.876398,-814.226536,9474.636058
819.248898,1455.581446,-814.226536,9696.697840
819.249214,919.314598,-222.061783,10140.821405
819.249530,76.609550,-592.164754,9400.615463
819.249845,229.828649,-518.144159,7920.203579
819.250161,1072.533697,-666.185348,9474.636058
819.250477,459.657299,-148.041188,10436.903782
819.250792,536.266849,370.102971,9918.759623
819.251108,0.000000,222.061783,8660.409521
819.251424,0.000000,-592.164754,7994.224174
819.251739,1838.629195,-1184.329507,9844.739029
819.252055,612.876398,-666.185348,9326.594869
819.252371,306.438199,-1036.288319,10214.842000
819.252686,-383.047749,-1702.473667,9622.677246
819.253002,306.438199,-1406.391290,9326.594869
819.253318,766.095498,-1110.308913,9548.656652
819.253634,0.000000,-592.164754,10066.800811
819.253949,0.000000,-0.000000,9252.574275
819.254265,0.000000,-592.164754,8882.471304
819.254581,612.876398,-1184.329507,8660.409521
819.254896,536.266849,-1110.308913,9696.697840
819.255212,153.219100,-666.185348,9992.780217
819.255528,0.000000,-962.267725,9326.594869
819.255843,-153.219100,-666.185348,8364.327145
819.256159,766.095498,-1184.329507,9548.656652
819.256475,766.095498,-1036.288319,10658.965565
819.256790,229.828649,-148.041188,10362.883188
819.257106,306.438199,-222.061783,9252.574275
819.257422,229.828649,444.123565,7994.224174
819.257738,919.314598,-74.020594,8808.450710
819.258053,1302.362347,814.226536,9400.615463
819.258369,459.657299,1406.391290,8882.471304
819.258685,0.000000,666.185348,8808.450710
819.259000,383.047749,-148.041188,8882.471304
819.259316,383.047749,-0.000000,9844.739029
819.259632,0.000000,-0.000000,10436.903782
819.259947,0.000000,-148.041188,10140.821405
819.260263,-306.438199,370.102971,8882.471304
819.260579,459.657299,444.123565,9474.636058
819.260894,76.609550,740.205942,9918.759623
819.261210,-306.438199,1332.370696,10732.986159
819.261526,0.000000,962.267725,8586.388927
819.261841,-76.609550,518.144159,8142.265362
819.262157,1225.752797,296.082377,11103.089130
819.262473,919.314598,592.164754,10510.924376
819.262789,995.924147,1258.350101,9474.636058
819.263104,229.828649,1036.288319,8882.471304
819.263420,1378.971896,740.205942,8512.368333
819.263736,1762.019645,1184.329507,9178.553681
819.264051,1455.581446,1924.535449,9474.636058
819.264367,995.924147,888.247130,10510.924376
819.264683,766.095498,222.061783,8586.388927
819.264998,995.924147,666.185348,9178.553681
819.265314,612.876398,814.226536,10140.821405
819.265630,689.485948,444.123565,9844.739029
819.265945,153.219100,888.247130,9844.739029
819.266261,0.000000,444.123565,9252.574275
819.266577,612.876398,666.185348,9326.594869
819.266893,919.314598,740.205942,10436.903782
819.267208,0.000000,-0.000000,9622.677246
819.267524,-229.828649,-740.205942,9918.759623
819.267840,536.266849,-0.000000,9548.656652
819.268155,1072.533697,296.082377,9178.553681
819.268471,1072.533697,962.267725,10066.800811
819.268787,1378.971896,-222.061783,10066.800811
819.269102,229.828649,444.123565,8290.306550
819.269418,689.485948,-74.020594,8882.471304
819.269734,1838.629195,-814.226536,9178.553681
819.270049,1225.752797,148.041188,9992.780217
819.270365,995.924147,-444.123565,9548.656652
819.270681,-153.219100,-888.247130,9622.677246
819.270996,766.095498,-1332.370696,9918.759623
819.271312,459.657299,-518.144159,9844.739029
819.271628,229.828649,-0.000000,9844.739029
819.271944,-459.657299,-888.247130,9104.533087
819.272259,459.657299,-814.226536,8956.491898
819.272575,1225.752797,-1554.432478,9622.677246
819.272891,995.924147,-814.226536,9622.677246
819.273206,612.876398,-814.226536,9252.574275
819.273522,0.000000,-888.247130,8068.244768
819.273838,612.876398,-1184.329507,8364.327145
819.274153,689.485948,-1628.453072,9548.656652
819.274469,842.705048,-148.041188,10214.842000
819.274785,76.609550,-814.226536,8586.388927
819.275100,0.000000,-1480.411884,8364.327145
819.275416,459.657299,-1998.556043,9178.553681
819.275732,536.266849,-2072.576638,9844.739029
819.276048,459.657299,-1036.288319,9474.636058
819.276363,-229.828649,-1110.308913,9400.615463
819.276679,-536.266849,-1184.329507,9030.512492
819.276995,459.657299,-2146.597232,9992.780217
819.277310,0.000000,-740.205942,9770.718434
819.277626,-459.657299,-518.144159,9696.697840
819.277942,-459.657299,-1406.391290,9252.574275
819.278257,383.047749,-1110.308913,8142.265362
819.278573,1149.143247,-1406.391290,9770.718434
819.278889,766.095498,-666.185348,10362.883188
819.279204,459.657299,-814.226536,9252.574275
819.279520,153.219100,-74.020594,8068.244768
819.279836,536.266849,-592.164754,9178.553681
819.280151,1072.533697,-1184.329507,10066.800811
819.280467,612.876398,-148.041188,10288.862594
819.280783,0.000000,-296.082377,9918.759623
819.281099,-306.438199,-1110.308913,7920.203579
819.281414,1225.752797,-1184.329507,9622.677246
819.281730,995.924147,-962.267725,10214.842000
819.282046,229.828649,-296.082377,10140.821405
819.282361,-536.266849,-222.061783,9178.553681
819.282677,-612.876398,-740.205942,9474.636058
819.282993,306.438199,-1406.391290,10214.842000
819.283308,-306.438199,-518.144159,9548.656652
819.283624,-766.095498,148.041188,10584.944971
819.283940,-1302.362347,-814.226536,8364.327145
819.284255,-1072.533697,-962.267725,9474.636058
819.284571,153.219100,-1110.308913,9770.718434
819.284887,0.000000,-370.102971,9474.636058
819.285203,-459.657299,-1036.288319,9992.780217
819.285518,-766.095498,-1480.411884,9104.533087
819.285834,0.000000,-1554.432478,8882.471304
819.286150,383.047749,-148.041188,9474.636058
819.286465,919.314598,1554.432478,9844.739029
819.286781,0.000000,1110.308913,8068.244768
819.287097,76.609550,962.267725,7698.141797
819.287412,842.705048,370.102971,8660.409521
819.287728,842.705048,148.041188,9326.594869
819.288044,76.609550,296.082377,9326.594869
819.288359,0.000000,-74.020594,9548.656652
819.288675,-153.219100,370.102971,8956.491898
819.288991,995.924147,444.123565,9844.739029
819.289307,-229.828649,1332.370696,10288.862594
819.289622,-383.047749,1332.370696,10436.903782
819.289938,-459.657299,1628.453072,8956.491898
819.290254,612.876398,1332.370696,8734.430116
819.290569,919.314598,1480.411884,10288.862594
819.290885,995.924147,1998.556043,10510.924376
819.291201,383.047749,1702.473667,9548.656652
819.291516,536.266849,1924.535449,8586.388927
819.291832,1915.238745,1036.288319,9400.615463
819.292148,1378.971896,1332.370696,10214.842000
819.292463,1072.533697,2368.659014,9696.697840
819.292779,842.705048,1924.535449,9474.636058
819.293095,1225.752797,1332.370696,9030.512492
819.293410,2451.505594,1406.391290,9548.656652
819.293726,2221.676944,2072.576638,10362.883188
819.294042,1455.581446,1554.432478,9918.759623
819.294358,842.705048,740.205942,8956.491898
819.294673,1608.800546,814.226536,9474.636058
819.294989,1838.629195,370.102971,11029.068536
819.295305,1532.190996,1776.494261,10140.821405
819.295620,229.828649,370.102971,9474.636058
819.295936,459.657299,148.041188,9770.718434
819.296252,1532.190996,-370.102971,9770.718434
819.296567,1455.581446,518.144159,9400.615463
819.296883,1149.143247,1184.329507,10436.903782
819.297199,76.609550,-518.144159,9400.615463
819.297514,689.485948,-296.082377,9474.636058
819.297830,1455.581446,-74.020594,9918.759623
819.298146,995.924147,222.061783,9474.636058
819.298461,689.485948,296.082377,10658.965565
819.298777,-612.876398,-518.144159,8956.491898
819.299093,0.000000,-666.185348,9474.636058
819.299408,689.485948,-888.247130,10140.821405
819.299724,229.828649,-148.041188,9844.739029
819.300040,229.828649,-740.205942,9918.759623
819.300355,-306.438199,-1406.391290,8734.430116
819.300671,383.047749,-1850.514855,9178.553681
819.300987,76.609550,-1628.453072,10436.903782
819.301302,383.047749,-1480.411884,9844.739029
819.301618,-459.657299,-740.205942,9548.656652
819.301933,-536.266849,-1110.308913,8586.388927
819.302249,689.485948,-962.267725,7920.203579
819.302565,229.828649,-1258.350101,9030.512492
819.302880,536.266849,-1554.432478,9474.636058
819.303196,-306.438199,-1776.494261,9030.512492
819.303512,0.000000,-1998.556043,8438.347739
819.303827,536.266849,-2738.761985,8808.450710
819.304143,306.438199,-1406.391290,9474.636058
819.304459,76.609550,-1406.391290,9400.615463
819.304774,-306.438199,-1332.370696,8216.285956
819.305090,383.047749,-1554.432478,8290.306550
819.305406,689.485948,-2812.782580,8956.491898
819.305721,153.219100,-1036.288319,9326.594869
819.306037,76.609550,-1702.473667,9770.718434
819.306353,-536.266849,-1406.391290,7846.182985
819.306668,76.609550,-1554.432478,8586.388927
819.306984,153.219100,-1998.556043,9992.780217
819.307299,-153.219100,-1332.370696,10362.883188
819.307615,-612.876398,-592.164754,8956.491898
819.307931,-536.266849,-1406.391290,8142.265362
819.308246,1072.533697,-1406.391290,9252.574275
819.308562,612.876398,-814.226536,9252.574275
819.308878,383.047749,-370.102971,10066.800811
819.309193,153.219100,-518.144159,8956.491898
819.309509,0.000000,-1184.329507,8660.409521
819.309825,995.924147,-666.185348,9474.636058
819.310140,842.705048,-370.102971,10436.903782
819.310456,229.828649,-0.000000,9696.697840
819.310772,153.219100,-74.020594,9104.533087
819.311087,536.266849,-74.020594,8734.430116
819.311403,995.924147,-74.020594,9400.615463
819.311719,995.924147,444.123565,10807.006753
819.312034,76.609550,222.061783,10066.800811
819.312350,-536.266849,370.102971,8660.409521
819.312666,1225.752797,-0.000000,10510.924376
819.312981,842.705048,592.164754,10066.800811
819.313297,229.828649,888.247130,10807.006753
819.313612,0.000000,-0.000000,9918.759623
819.313928,459.657299,-0.000000,9178.553681
819.314244,1302.362347,-0.000000,10362.883188
819.314559,1149.143247,1332.370696,9992.780217
819.314875,919.314598,1406.391290,10510.924376
819.315191,1149.143247,444.123565,9326.594869
819.315506,1225.752797,444.123565,9104.533087
819.315822,1915.238745,296.082377,10510.924376
819.316138,1149.143247,1184.329507,10881.027347
819.316453,1225.752797,1406.391290,9104.533087
819.316769,612.876398,1036.288319,8290.306550
819.317085,1608.800546,444.123565,10362.883188
819.317400,1532.190996,1184.329507,9696.697840
819.317716,1455.581446,1850.514855,9400.615463
819.318032,612.876398,740.205942,10140.821405
819.318347,383.047749,592.164754,8438.347739
819.318663,1532.190996,-0.000000,9474.636058
819.318979,689.485948,592.164754,10584.944971
819.319294,-229.828649,888.247130,10584.944971
819.319610,-153.219100,518.144159,9252.574275
819.319925,0.000000,370.102971,8290.306550
819.320241,459.657299,-0.000000,10584.944971
819.320557,995.924147,444.123565,10140.821405
819.320872,383.047749,296.082377,9326.594869
819.321188,-383.047749,370.102971,8734.430116
819.321504,766.095498,-888.247130,9474.636058
819.321819,766.095498,-370.102971,10214.842000
819.322135,766.095498,962.267725,10066.800811
819.322451,612.876398,740.205942,8956.491898
819.322766,536.266849,444.123565,7846.182985
819.323082,1225.752797,-0.000000,9400.615463
819.323398,1149.143247,-592.164754,9770.718434
819.323713,919.314598,444.123565,9326.594869
819.324029,76.609550,592.164754,9326.594869
819.324345,229.828649,296.082377,7846.182985
819.324660,919.314598,-666.185348,9548.656652
819.324976,229.828649,-74.020594,10288.862594
819.325291,-459.657299,-74.020594,10140.821405
819.325607,-766.095498,-1332.370696,8956.491898
819.325923,-842.705048,-962.267725,8734.430116
819.326238,0.000000,-1332.370696,10584.944971
819.326554,-306.438199,-518.144159,9918.759623
819.326870,-459.657299,-0.000000,9104.533087
819.327185,-1532.190996,-0.000000,7994.224174
819.327501,0.000000,-962.267725,9326.594869
819.327817,229.828649,-1184.329507,9770.718434
819.328132,-612.876398,-444.123565,10140.821405
819.328448,-536.266849,-1036.288319,9992.780217
819.328764,-229.828649,-1332.370696,8142.265362
819.329079,689.485948,-1258.350101,9252.574275
819.329395,459.657299,-1184.329507,9770.718434
819.329711,689.485948,-222.061783,9992.780217
819.330026,76.609550,-222.061783,7994.224174
819.330342,153.219100,-888.247130,8882.471304
819.330658,995.924147,-1036.288319,9992.780217
819.330973,919.314598,-518.144159,10362.883188
819.331289,383.047749,-0.000000,9696.697840
819.331604,76.609550,-148.041188,8512.368333
819.331920,1225.752797,-592.164754,8142.265362
819.332236,1608.800546,-1036.288319,9400.615463
819.332551,842.705048,-370.102971,10362.883188
819.332867,689.485948,-1480.411884,10066.800811
819.333183,383.047749,-666.185348,8438.347739
819.333498,919.314598,-1184.329507,9696.697840
819.333814,612.876398,-740.205942,10732.986159
819.334130,766.095498,-370.102971,9918.759623
819.334445,0.000000,-222.061783,8808.450710
819.334761,-459.657299,-222.061783,8808.450710
819.335077,1072.533697,-1628.453072,9474.636058
819.335392,1072.533697,-370.102971,9548.656652
819.335708,612.876398,-814.226536,10362.883188
819.336024,0.000000,-1258.350101,9178.553681
819.336339,612.876398,-1110.308913,9474.636058
819.336655,842.705048,-666.185348,9474.636058
819.336971,306.438199,-444.123565,9992.780217
819.337286,76.609550,-666.185348,10362.883188
819.337602,-306.438199,-518.144159,8216.285956
819.337917,919.314598,-1036.288319,8734.430116
819.338233,919.314598,-888.247130,10436.903782
819.338549,612.876398,-148.041188,10214.842000
819.338864,76.609550,-74.020594,8734.430116
819.339180,-383.047749,-814.226536,8512.368333
819.339496,612.876398,-888.247130,10807.006753
819.339811,229.828649,370.102971,9474.636058
819.340127,612.876398,370.102971,10140.821405
819.340443,0.000000,296.082377,8882.471304
819.340758,383.047749,-74.020594,8290.306550
819.341074,1685.410096,222.061783,9252.574275
819.341390,1225.752797,518.144159,9622.677246
819.341705,1072.533697,-0.000000,9696.697840
819.342021,153.219100,1036.288319,7476.080014
819.342337,459.657299,370.102971,8956.491898
819.342652,995.924147,-370.102971,10584.944971
819.342968,459.657299,1036.288319,9992.780217
819.343284,-383.047749,666.185348,9178.553681
819.343599,-919.314598,-0.000000,8586.388927
819.343915,229.828649,-814.226536,9474.636058
819.344230,612.876398,-370.102971,9770.718434
819.344546,229.828649,666.185348,11029.068536
819.344862,-995.924147,-296.082377,9326.594869
819.345177,0.000000,-444.123565,9178.553681
819.345493,536.266849,-74.020594,9400.615463
819.345809,-153.219100,-0.000000,9770.718434
819.346124,153.219100,-148.041188,10140.821405
819.346440,153.219100,296.082377,8808.450710
819.346756,612.876398,-0.000000,8364.327145
819.347071,919.314598,-296.082377,9622.677246
819.347387,612.876398,666.185348,8956.491898
819.347703,229.828649,-0.000000,10214.842000
819.348018,-153.219100,-0.000000,8734.430116
819.348334,536.266849,-740.205942,9696.697840
819.348650,153.219100,-518.144159,9696.697840
819.348965,-612.876398,-148.041188,9992.780217
819.349281,-383.047749,-0.000000,9252.574275
819.349596,0.000000,-222.061783,8882.471304
819.349912,306.438199,-1258.350101,9622.677246
819.350228,0.000000,-518.144159,9622.677246
819.350543,0.000000,-518.144159,10066.800811
819.350859,-1072.533697,-444.123565,8438.347739
819.351175,-153.219100,-222.061783,8956.491898
819.351490,689.485948,-740.205942,9696.697840
819.351806,0.000000,-74.020594,10584.944971
819.352122,76.609550,444.123565,9548.656652
819.352437,76.609550,-0.000000,8512.368333
819.352753,689.485948,-666.185348,9030.512492
819.353069,1149.143247,-814.226536,10362.883188
819.353384,1455.581446,666.185348,9918.759623
819.353700,919.314598,1628.453072,8882.471304
819.354016,1378.971896,1258.350101,7624.121203
819.354331,2451.505594,814.226536,9548.656652
819.354647,2068.457845,1554.432478,9326.594869
819.354963,1302.362347,1850.514855,8882.471304
819.355278,1225.752797,740.205942,8882.471304
819.355594,1149.143247,222.061783,8660.409521
819.355909,1838.629195,444.123565,10807.006753
819.356225,842.705048,666.185348,9104.533087
819.356541,459.657299,740.205942,10362.883188
819.356856,-536.266849,962.267725,9178.553681
819.357172,383.047749,1036.288319,9770.718434
819.357488,842.705048,148.041188,10362.883188
819.357803,-153.219100,740.205942,10288.862594
819.358119,-306.438199,888.247130,9696.697840
819.358435,229.828649,-148.041188,8364.327145
819.358750,612.876398,-814.226536,10066.800811
819.359066,1072.533697,-148.041188,9918.759623
819.359382,919.314598,-0.000000,10140.821405
819.359697,383.047749,296.082377,8734.430116
819.360013,0.000000,-296.082377,8290.306550
819.360329,1225.752797,-1184.329507,10140.821405
819.360644,919.314598,-1036.288319,10362.883188
819.360960,0.000000,-592.164754,10362.883188
819.361276,-153.219100,-592.164754,9252.574275
819.361591,76.609550,-1110.308913,8290.306550
819.361907,689.485948,-1554.432478,10066.800811
819.362222,306.438199,-1110.308913,10658.965565
819.362538,0.000000,-1184.329507,9770.718434
819.362854,-842.705048,-1184.329507,9474.636058
819.363169,-229.828649,-1702.473667,9326.594869
819.363485,766.095498,-1702.473667,10510.924376
819.363801,383.047749,-0.000000,9918.759623
819.364116,0.000000,-666.185348,9104.533087
819.364432,0.000000,-888.247130,8660.409521
819.364748,1225.752797,-1702.473667,9770.718434
819.365063,1378.971896,-666.185348,9252.574275
819.365379,612.876398,-74.020594,9474.636058
819.365695,-306.438199,-1480.411884,9548.656652
819.366010,0.000000,-888.247130,9030.512492
819.366326,842.705048,-1036.288319,10362.883188
819.366642,383.047749,-518.144159,10510.924376
819.366957,-153.219100,-0.000000,9474.636058
819.367273,-459.657299,-222.061783,7846.182985
819.367588,842.705048,-296.082377,9030.512492
819.367904,919.314598,-1480.411884,9252.574275
819.368220,766.095498,-222.061783,9548.656652
819.368535,919.314598,-0.000000,9474.636058
819.368851,0.000000,-1110.308913,8142.265362
819.369167,612.876398,-1110.308913,9400.615463
819.369482,766.095498,-370.102971,9696.697840
819.369798,229.828649,-148.041188,9770.718434
819.370114,-153.219100,-0.000000,9104.533087
819.370429,76.609550,-666.185348,8216.285956
819.370745,1225.752797,-1110.308913,9770.718434
819.371061,1149.143247,-962.267725,9400.615463
819.371376,383.047749,-222.061783,9030.512492
819.371692,-153.219100,-222.061783,8956.491898
819.372008,0.000000,-1406.391290,9400.615463
819.372323,1072.533697,-1554.432478,9696.697840
819.372639,229.828649,222.061783,9844.739029
819.372955,-76.609550,-518.144159,9770.718434
819.373270,-229.828649,-1036.288319,8586.388927
819.373586,536.266849,-814.226536,9326.594869
819.373901,842.705048,-814.226536,9548.656652
819.374217,459.657299,-370.102971,9326.594869
819.374533,0.000000,-666.185348,9326.594869
819.374848,-766.095498,-1258.350101,8734.430116
819.375164,459.657299,-1554.432478,9918.759623
819.375480,383.047749,-666.185348,10066.800811
819.375795,-153.219100,740.205942,10140.821405
819.376111,-153.219100,-222.061783,9770.718434
819.376427,0.000000,-370.102971,8142.265362
819.376742,1455.581446,148.041188,9474.636058
819.377058,995.924147,74.020594,9104.533087
819.377374,689.485948,-148.041188,10436.903782
819.377689,-306.438199,222.061783,8882.471304
819.378005,459.657299,-296.082377,9326.594869
819.378321,1378.971896,-0.000000,10510.924376
819.378636,306.438199,1628.453072,10066.800811
819.378952,76.609550,1406.391290,8734.430116
819.379268,-229.828649,1110.308913,8512.368333
819.379583,1072.533697,370.102971,9992.780217
819.379899,1455.581446,962.267725,9992.780217
819.380214,306.438199,2220.617826,9326.594869
819.380530,-229.828649,740.205942,9770.718434
819.380846,459.657299,148.041188,9474.636058
819.381161,1225.752797,666.185348,10288.862594
819.381477,689.485948,1702.473667,10066.800811
819.381793,689.485948,1850.514855,10510.924376
819.382108,229.828649,1480.411884,8586.388927
819.382424,536.266849,1480.411884,8586.388927
819.382740,1685.410096,740.205942,10066.800811
819.383055,1225.752797,1406.391290,9548.656652
819.383371,612.876398,1184.329507,10066.800811
819.383687,-229.828649,962.267725,9030.512492
819.384002,1149.143247,370.102971,9548.656652
819.384318,612.876398,740.205942,9696.697840
819.384634,766.095498,1258.350101,10955.047942
819.384949,76.609550,666.185348,10066.800811
819.385265,0.000000,592.164754,8586.388927
819.385581,689.485948,518.144159,9104.533087
819.385896,612.876398,-148.041188,10584.944971
819.386212,766.095498,370.102971,10881.027347
819.386527,0.000000,888.247130,8586.388927
819.386843,76.609550,592.164754,7994.224174
819.387159,842.705048,-1258.350101,10140.821405
819.387474,689.485948,-74.020594,10140.821405
819.387790,-153.219100,-0.000000,9622.677246
819.388106,-919.314598,74.020594,8586.388927
819.388421,383.047749,-1998.556043,9104.533087
819.388737,536.266849,-1480.411884,10510.924376
819.389053,-919.314598,-592.164754,10732.986159
819.389368,-459.657299,-1480.411884,10510.924376
819.389684,-229.828649,-296.082377,8216.285956
819.390000,153.219100,-1628.453072,9400.615463
819.390315,536.266849,-1110.308913,10658.965565
819.390631,842.705048,-666.185348,9844.739029
819.390947,459.657299,-370.102971,8364.327145
819.391262,1455.581446,-518.144159,7772.162391
819.391578,2068.457845,-888.247130,9474.636058
819.391893,2451.505594,-148.041188,8660.409521
819.392209,1378.971896,148.041188,8364.327145
819.392525,842.705048,-666.185348,8734.430116
819.392840,1302.362347,-962.267725,8956.491898
819.393156,1378.971896,-1258.350101,9326.594869
819.393472,612.876398,-296.082377,10362.883188
819.393787,536.266849,-1332.370696,10066.800811
819.394103,-689.485948,-1258.350101,7920.203579
819.394419,612.876398,-1258.350101,9474.636058
819.394734,842.705048,-1184.329507,9696.697840
819.395050,306.438199,-592.164754,9992.780217
819.395366,-995.924147,-1332.370696,9918.759623
819.395681,-842.705048,-1406.391290,8512.368333
819.395997,0.000000,-1628.453072,9622.677246
819.396313,0.000000,-1184.329507,9622.677246
819.396628,0.000000,-888.247130,10362.883188
819.396944,-536.266849,-1850.514855,8586.388927
819.397260,153.219100,-1924.535449,8808.450710
819.397575,1072.533697,-1628.453072,9326.594869
819.397891,689.485948,-962.267725,9622.677246
819.398210,612.876398,-444.123565,9770.718434
819.398525,-383.047749,-888.247130,8586.388927
819.398841,383.047749,-666.185348,9178.553681
819.399156,919.314598,-814.226536,9770.718434
819.399472,306.438199,518.144159,9474.636058
819.399788,0.000000,-222.061783,10066.800811
819.400103,0.000000,-814.226536,7994.224174
819.400419,1072.533697,-444.123565,8734.430116
819.400734,1072.533697,-1258.350101,10214.842000
819.401050,76.609550,222.061783,9696.697840
819.401366,-229.828649,-370.102971,9622.677246
819.401681,-842.705048,-518.144159,8438.347739
819.401997,306.438199,-592.164754,10658.965565
819.402313,0.000000,222.061783,10436.903782
819.402628,-229.828649,444.123565,10362.883188
819.402944,-919.314598,296.082377,9252.574275
819.403259,-536.266849,-962.267725,9252.574275
819.403575,1149.143247,-666.185348,10214.842000
819.403891,153.219100,148.041188,9844.739029
819.404206,459.657299,444.123565,9696.697840
819.404522,76.609550,-0.000000,8956.491898
819.404837,1149.143247,222.061783,9696.697840
819.405153,2298.286494,740.205942,9474.636058
819.405469,1302.362347,1998.556043,8882.471304
819.405784,995.924147,1406.391290,9474.636058
819.406100,1685.410096,148.041188,7624.121203
819.406416,2068.457845,518.144159,9178.553681
819.406731,2374.896044,1184.329507,9030.512492
819.407047,1302.362347,1406.391290,9474.636058
819.407362,306.438199,592.164754,9252.574275
819.407678,0.000000,666.185348,8734.430116
819.407994,1072.533697,-74.020594,10584.944971
819.408309,153.219100,666.185348,10214.842000
819.408625,-383.047749,740.205942,10362.883188
819.408941,-766.095498,370.102971,9030.512492
819.409256,612.876398,-148.041188,9326.594869
819.409572,1225.752797,-148.041188,9622.677246
819.409887,306.438199,1184.329507,9474.636058
819.410203,0.000000,444.123565,10214.842000
819.410519,0.000000,-296.082377,8734.430116
819.410834,689.485948,222.061783,9548.656652
819.411150,1225.752797,370.102971,10066.800811
819.411465,383.047749,1332.370696,10214.842000
819.411781,229.828649,888.247130,9326.594869
819.412097,612.876398,222.061783,8512.368333
819.412412,2068.457845,-0.000000,9992.780217
819.412728,1149.143247,888.247130,9030.512492
819.413044,459.657299,1184.329507,9918.759623
819.413359,689.485948,962.267725,9474.636058
819.413675,612.876398,370.102971,8586.388927
819.413990,1685.410096,222.061783,9992.780217
819.414306,612.876398,1258.350101,9696.697840
819.414622,0.000000,1332.370696,9770.718434
819.414937,-153.219100,370.102971,8660.409521
819.415253,76.609550,-296.082377,9326.594869
819.415568,995.924147,-666.185348,10510.924376
819.415884,0.000000,740.205942,10658.965565
819.416200,0.000000,-74.020594,10066.800811
819.416515,-766.095498,-444.123565,9326.594869
819.416831,459.657299,-962.267725,9844.739029
819.417147,459.657299,296.082377,9918.759623
819.417462,76.609550,1036.288319,10140.821405
819.417778,0.000000,-74.020594,8660.409521
819.418093,229.828649,-1258.350101,8882.471304
819.418409,1838.629195,-1332.370696,9770.718434
819.418725,995.924147,-444.123565,9400.615463
819.419040,459.657299,-0.000000,9104.533087
819.419356,536.266849,-1258.350101,9178.553681
819.419671,459.657299,-1850.514855,8882.471304
819.419987,1149.143247,-1998.556043,10658.965565
819.420303,306.438199,-444.123565,9326.594869
819.420618,229.828649,-1110.308913,9770.718434
819.420934,-306.438199,-1554.432478,8438.347739
819.421250,612.876398,-1702.473667,8438.347739
819.421565,1072.533697,-1554.432478,9548.656652
819.421881,306.438199,-814.226536,9844.739029
819.422196,-306.438199,-1480.411884,9252.574275
819.422512,-153.219100,-1924.535449,8142.265362
819.422828,229.828649,-2442.679609,9474.636058
819.423143,229.828649,-1036.288319,10584.944971
819.423459,306.438199,-740.205942,9622.677246
819.423774,-229.828649,-1110.308913,7994.224174
819.424090,0.000000,-1554.432478,8512.368333
819.424406,1072.533697,-1776.494261,9918.759623
819.424721,612.876398,-370.102971,8734.430116
819.425037,0.000000,-666.185348,9844.739029
819.425353,0.000000,-962.267725,8808.450710
819.425668,536.266849,-1702.473667,8956.491898
819.425984,919.314598,-1850.514855,10584.944971
819.426299,306.438199,-296.082377,10658.965565
819.426615,-229.828649,-0.000000,8882.471304
819.426931,383.047749,-370.102971,7624.121203
819.427246,1072.533697,-666.185348,8808.450710
819.427562,1378.971896,-74.020594,9474.636058
819.427878,1608.800546,666.185348,8808.450710
819.428193,229.828649,-222.061783,8512.368333
819.428509,536.266849,-962.267725,9104.533087
819.428824,1455.581446,-518.144159,9474.636058
819.429140,842.705048,740.205942,9770.718434
819.429456,76.609550,222.061783,10288.862594
819.429771,-229.828649,-0.000000,8882.471304
819.430087,153.219100,-0.000000,8956.491898
819.430402,1302.362347,-444.123565,9474.636058
819.430718,0.000000,-74.020594,9992.780217
819.431034,0.000000,-0.000000,9844.739029
819.431349,-76.609550,-0.000000,9252.574275
819.431665,459.657299,-296.082377,9844.739029
819.431981,536.266849,222.061783,9696.697840
819.432296,0.000000,1702.473667,9918.759623
819.432612,-459.657299,296.082377,9326.594869
819.432927,-229.828649,370.102971,8734.430116
819.433243,1302.362347,-0.000000,9400.615463
819.433559,842.705048,-148.041188,9548.656652
819.433874,0.000000,-74.020594,11029.068536
819.434190,-689.485948,222.061783,9326.594869
819.434505,0.000000,-0.000000,8956.491898
819.434821,842.705048,-74.020594,11029.068536
819.435137,0.000000,1110.308913,9844.739029
819.435452,-766.095498,1480.411884,9252.574275
819.435768,-612.876398,-0.000000,9326.594869
819.436084,383.047749,-740.205942,9474.636058
819.436399,383.047749,-444.123565,9474.636058
819.436715,0.000000,740.205942,10140.821405
819.437030,-383.047749,148.041188,10140.821405
819.437346,-612.876398,-0.000000,8364.327145
819.437662,-612.876398,222.061783,10066.800811
819.437977,383.047749,-0.000000,10955.047942
819.438293,153.219100,1554.432478,9474.636058
819.438608,0.000000,518.144159,8956.491898
819.438924,-153.219100,222.061783,8956.491898
819.439240,1532.190996,-370.102971,10288.862594
819.439555,536.266849,1406.391290,8882.471304
819.439871,459.657299,1776.494261,10066.800811
819.440187,153.219100,666.185348,8512.368333
819.440502,1072.533697,370.102971,9622.677246
819.440818,1532.190996,296.082377,10510.924376
819.441133,919.314598,1332.370696,10140.821405
819.441449,995.924147,740.205942,9992.780217
819.441765,612.876398,370.102971,8734.430116
819.442080,1455.581446,-0.000000,9400.615463
819.442396,2451.505594,666.185348,9992.780217
819.442711,1455.581446,1110.308913,9104.533087
819.443027,459.657299,592.164754,8734.430116
819.443343,1072.533697,-370.102971,9548.656652
819.443658,1915.238745,-888.247130,9622.677246
819.443974,1225.752797,-0.000000,9474.636058
819.444290,689.485948,-148.041188,10510.924376
819.444605,306.438199,-1480.411884,9400.615463
819.444921,842.705048,-444.123565,8882.471304
819.445236,1532.190996,-962.267725,9696.697840
819.445552,1378.971896,-0.000000,9474.636058
819.445868,919.314598,-370.102971,9548.656652
819.446183,0.000000,-1332.370696,8512.368333
819.446499,689.485948,-1628.453072,9548.656652
819.446815,1072.533697,-1554.432478,10288.862594
819.447130,229.828649,-592.164754,9622.677246
819.447446,0.000000,-592.164754,9178.553681
819.447761,0.000000,-888.247130,8586.388927
819.448077,919.314598,-1406.391290,9178.553681
819.448393,536.266849,-740.205942,9326.594869
819.448708,76.609550,-814.226536,9770.718434
819.449024,-306.438199,-1628.453072,9992.780217
819.449339,-766.095498,-1998.556043,8586.388927
819.449655,153.219100,-1628.453072,10510.924376
819.449971,-229.828649,-962.267725,10140.821405
819.450286,0.000000,-444.123565,9696.697840
819.450602,-383.047749,-370.102971,8882.471304
819.450918,153.219100,-1110.308913,9030.512492
819.451233,612.876398,-1406.391290,9400.615463
819.451549,306.438199,444.123565,9252.574275
819.451864,612.876398,-222.061783,9104.533087
819.452180,-229.828649,-592.164754,8290.306550
819.452496,383.047749,-1184.329507,9474.636058
819.452811,842.705048,-296.082377,9844.739029
819.453127,383.047749,666.185348,8956.491898
819.453442,0.000000,-148.041188,9178.553681
819.453758,-612.876398,-592.164754,8364.327145
819.454074,383.047749,-1110.308913,10140.821405
819.454389,459.657299,-296.082377,9622.677246
819.454705,-306.438199,-296.082377,9918.759623
819.455021,-842.705048,-1036.288319,9696.697840
819.455336,-306.438199,-1702.473667,9918.759623
819.455652,383.047749,-1036.288319,9918.759623
819.455967,0.000000,518.144159,9992.780217
819.456283,689.485948,148.041188,9770.718434
819.456599,0.000000,-222.061783,8142.265362
819.456914,1838.629195,-370.102971,9770.718434
819.457230,1455.581446,-222.061783,8956.491898
819.457545,1608.800546,888.247130,9400.615463
819.457861,995.924147,-0.000000,8290.306550
819.458177,766.095498,-592.164754,8956.491898
819.458492,1685.410096,-1184.329507,11177.109724
819.458808,1532.190996,222.061783,9918.759623
819.459124,689.485948,1184.329507,9178.553681
819.459439,459.657299,222.061783,9696.697840
819.459755,689.485948,296.082377,9400.615463
819.460070,1608.800546,296.082377,9400.615463
819.460386,919.314598,1036.288319,9400.615463
819.460702,0.000000,740.205942,10066.800811
819.461017,-459.657299,-0.000000,9104.533087
819.461333,153.219100,-0.000000,9178.553681
819.461648,919.314598,-222.061783,10584.944971
819.461964,0.000000,740.205942,10362.883188
819.462280,459.657299,444.123565,9992.780217
819.462595,76.609550,-0.000000,9104.533087
819.462911,766.095498,-74.020594,9178.553681
819.463227,1302.362347,296.082377,9918.759623
819.463542,995.924147,1036.288319,9696.697840
819.463858,229.828649,666.185348,9178.553681
819.464173,229.828649,592.164754,9474.636058
819.464489,1532.190996,148.041188,9104.533087
819.464805,919.314598,1036.288319,9474.636058
819.465120,766.095498,814.226536,10288.862594
819.465436,612.876398,-0.000000,8142.265362
819.465752,689.485948,740.205942,8956.491898
819.466067,1838.629195,-296.082377,9622.677246
819.466383,995.924147,888.247130,8660.409521
819.466698,689.485948,888.247130,9474.636058
819.467014,536.266849,-370.102971,9252.574275
819.467330,536.266849,-518.144159,9178.553681
819.467645,689.485948,-0.000000,9918.759623
819.467961,76.609550,518.144159,9696.697840
819.468276,229.828649,-74.020594,9844.739029
819.468592,0.000000,-666.185348,8438.347739
819.468908,459.657299,-666.185348,9844.739029
819.469223,995.924147,-888.247130,10436.903782
819.469539,459.657299,148.041188,9474.636058
819.469855,-153.219100,148.041188,9548.656652
819.470170,-536.266849,-518.144159,9326.594869
819.470486,1225.752797,-888.247130,9548.656652
819.470801,536.266849,222.061783,9696.697840
819.471117,383.047749,518.144159,10436.903782
819.471433,383.047749,-518.144159,9104.533087
819.471748,842.705048,-592.164754,8512.368333
819.472064,1225.752797,-518.144159,8882.471304
819.472379,1149.143247,222.061783,9918.759623
819.472695,459.657299,-148.041188,9844.739029
819.473011,-383.047749,-518.144159,8290.306550
819.473326,229.828649,-1184.329507,10288.862594
819.473642,612.876398,-370.102971,10288.862594
819.473958,-536.266849,444.123565,9548.656652
819.474273,-842.705048,-222.061783,9918.759623
819.474589,-612.876398,-1776.494261,9178.553681
819.474904,536.266849,-370.102971,9918.759623
819.475220,306.438199,-0.000000,9622.677246
819.475536,-229.828649,-296.082377,9474.636058
819.475851,-995.924147,-1036.288319,9844.739029
819.476167,-536.266849,-962.267725,8660.409521
819.476482,689.485948,-592.164754,9548.656652
819.476798,229.828649,-74.020594,10066.800811
819.477114,-536.266849,-518.144159,9992.780217
819.477429,-383.047749,-888.247130,8586.388927
819.477745,383.047749,-1628.453072,8882.471304
819.478061,995.924147,-1554.432478,9918.759623
819.478376,536.266849,-666.185348,9844.739029
819.478692,153.219100,-888.247130,9178.553681
819.479007,0.000000,-962.267725,9178.553681
819.479323,1225.752797,-1480.411884,9770.718434
819.479639,1302.362347,-370.102971,9178.553681
819.479954,229.828649,-0.000000,8956.491898
819.480270,0.000000,-518.144159,8438.347739
819.480585,1072.533697,-1110.308913,8586.388927
819.480901,1915.238745,-1406.391290,9400.615463
819.481217,1225.752797,-148.041188,8660.409521
819.481532,536.266849,-444.123565,9770.718434
819.481848,229.828649,-1036.288319,8364.327145
819.482164,842.705048,-962.267725,9030.512492
819.482479,995.924147,-814.226536,10362.883188
819.482795,383.047749,592.164754,9992.780217
819.483110,229.828649,-74.020594,9400.615463
819.483426,0.000000,-444.123565,9030.512492
819.483742,1072.533697,-740.205942,10066.800811
819.484057,842.705048,-592.164754,9696.697840
819.484373,612.876398,444.123565,9918.759623
819.484688,76.609550,740.205942,9400.615463
819.485004,-306.438199,-148.041188,8586.388927
819.485320,1149.143247,-740.205942,9622.677246
819.485635,1149.143247,-0.000000,9918.759623
819.485951,0.000000,888.247130,9992.780217
819.486267,-383.047749,222.061783,9252.574275
819.486582,536.266849,444.123565,8808.450710
819.486898,1532.190996,-0.000000,9696.697840
819.487213,612.876398,1110.308913,9474.636058
819.487529,0.000000,740.205942,9622.677246
819.487845,-383.047749,-296.082377,9770.718434
819.488160,459.657299,-592.164754,9918.759623
819.488476,995.924147,-0.000000,9770.718434
819.488792,536.266849,1924.535449,9474.636058
819.489107,153.219100,370.102971,10214.842000
819.489423,0.000000,296.082377,8956.491898
819.489738,1532.190996,370.102971,8660.409521
819.490054,1072.533697,740.205942,9696.697840
819.490370,306.438199,592.164754,9474.636058
819.490685,153.219100,370.102971,9104.533087
819.491001,0.000000,-74.020594,9770.718434
819.491316,612.876398,-0.000000,9696.697840
819.491632,0.000000,666.185348,9326.594869
819.491948,459.657299,666.185348,10362.883188
819.492263,-919.314598,-370.102971,9030.512492
819.492579,76.609550,-0.000000,8956.491898
819.492895,995.924147,-962.267725,10732.986159
819.493210,0.000000,-0.000000,10584.944971
819.493526,0.000000,-0.000000,10658.965565
819.493841,0.000000,-74.020594,8068.244768
819.494157,842.705048,-370.102971,9178.553681
819.494473,1685.410096,-666.185348,10881.027347
819.494788,1072.533697,1258.350101,8882.471304
819.495104,689.485948,592.164754,9178.553681
819.495419,459.657299,-0.000000,9178.553681
819.495735,1915.238745,-666.185348,8882.471304
819.496051,919.314598,740.205942,9178.553681
819.496366,383.047749,888.247130,9400.615463
819.496682,0.000000,-370.102971,8956.491898
819.496998,0.000000,-814.226536,9252.574275
819.497313,306.438199,-814.226536,10066.800811
819.497629,76.609550,-0.000000,10362.883188
819.497944,-153.219100,148.041188,9770.718434
819.498260,-536.266849,-444.123565,9400.615463
819.498576,-459.657299,-444.123565,9178.553681
819.498891,689.485948,-518.144159,9992.780217
819.499207,76.609550,-0.000000,9696.697840
819.499523,-842.705048,-74.020594,9474.636058
819.499839,-536.266849,-962.267725,9474.636058
819.500154,383.047749,-1480.411884,9548.656652
819.500470,1072.533697,-518.144159,10362.883188
819.500786,689.485948,-0.000000,10807.006753
819.501102,383.047749,222.061783,8586.388927
819.501418,766.095498,370.102971,8068.244768
819.501733,1838.629195,-296.082377,9770.718434
819.502049,2298.286494,-222.061783,9104.533087
819.502365,1225.752797,-296.082377,9844.739029
819.502681,689.485948,-0.000000,8512.368333
819.502997,1608.800546,-888.247130,8290.306550
819.503312,1991.848295,-888.247130,9474.636058
819.503628,919.314598,-0.000000,9844.739029
819.503944,689.485948,-296.082377,9918.759623
819.504260,0.000000,-814.226536,8438.347739
819.504576,153.219100,-814.226536,9548.656652
819.504891,459.657299,-740.205942,10066.800811
819.505207,459.657299,-0.000000,9696.697840
819.505523,-842.705048,-370.102971,9178.553681
819.505839,-995.924147,-1406.391290,9474.636058
819.506155,-306.438199,-2368.659014,10955.047942
819.506470,-459.657299,-1406.391290,9992.780217
819.506786,-689.485948,-370.102971,9992.780217
819.507102,-612.876398,-1406.391290,9844.739029
819.507418,-76.609550,-1184.329507,8734.430116
819.507734,919.314598,-740.205942,9548.656652
819.508049,689.485948,222.061783,9696.697840
819.508365,459.657299,-370.102971,9622.677246
819.508681,-612.876398,-74.020594,7772.162391
819.508997,459.657299,-222.061783,9030.512492
819.509313,1072.533697,-518.144159,9474.636058
819.509628,306.438199,962.267725,9326.594869
819.509944,153.219100,-148.041188,9918.759623
819.510260,-766.095498,-1036.288319,9030.512492
819.510576,383.047749,-1258.350101,9326.594869
819.510892,76.609550,-888.247130,9474.636058
819.511208,0.000000,-222.061783,10214.842000
819.511523,-459.657299,-592.164754,9992.780217
819.511839,-536.266849,-814.226536,9474.636058
819.512155,306.438199,-888.247130,9992.780217
819.512471,76.609550,-74.020594,9622.677246
819.512787,-306.438199,814.226536,9844.739029
819.513102,-383.047749,518.144159,8660.409521
819.513418,536.266849,-0.000000,8586.388927
819.513734,1608.800546,-444.123565,9252.574275
819.514050,995.924147,370.102971,9992.780217
819.514366,766.095498,-0.000000,9918.759623
819.514681,76.609550,-74.020594,8216.285956
819.514997,1378.971896,-0.000000,9326.594869
819.515313,1378.971896,666.185348,10214.842000
819.515629,1072.533697,1184.329507,10066.800811
819.515945,0.000000,1258.350101,9400.615463
819.516260,612.876398,296.082377,8808.450710
819.516576,1532.190996,-74.020594,9474.636058
819.516892,1378.971896,740.205942,9400.615463
819.517208,919.314598,370.102971,10288.862594
819.517524,0.000000,-444.123565,9992.780217
819.517839,306.438199,-666.185348,9548.656652
819.518155,1455.581446,-148.041188,10066.800811
819.518471,1455.581446,1110.308913,10066.800811
819.518787,995.924147,1110.308913,9252.574275
819.519103,1149.143247,592.164754,8882.471304
819.519418,1991.848295,-0.000000,8512.368333
819.519734,2221.676944,-0.000000,9474.636058
819.520050,1225.752797,666.185348,9770.718434
819.520366,306.438199,444.123565,9252.574275
819.520682,995.924147,-0.000000,8660.409521
819.520997,1149.143247,-444.123565,9548.656652
819.521313,766.095498,518.144159,9548.656652
819.521629,0.000000,592.164754,10436.903782
819.521945,-995.924147,-370.102971,9844.739029
819.522261,0.000000,-222.061783,8956.491898
819.522576,1225.752797,-222.061783,9474.636058
819.522892,536.266849,148.041188,9696.697840
819.523208,0.000000,-370.102971,10584.944971
819.523524,-383.047749,-888.247130,9770.718434
819.523840,383.047749,-1184.329507,9326.594869
819.524155,153.219100,-518.144159,9252.574275
819.524471,0.000000,814.226536,9992.780217
819.524787,-229.828649,-74.020594,9918.759623
819.525103,-229.828649,-370.102971,8364.327145
819.525419,1149.143247,-370.102971,8660.409521
819.525734,459.657299,-0.000000,8882.471304
819.526050,229.828649,148.041188,9400.615463
819.526366,0.000000,-740.205942,8956.491898
819.526682,229.828649,-444.123565,9326.594869
819.526998,995.924147,-814.226536,10214.842000
819.527313,612.876398,-0.000000,9104.533087
819.527629,0.000000,666.185348,8808.450710
819.527945,-919.314598,-370.102971,9178.553681
819.528261,0.000000,-1924.535449,9696.697840
819.528577,612.876398,-1184.329507,9696.697840
819.528892,-536.266849,296.082377,9252.574275
819.529208,-842.705048,-444.123565,10140.821405
819.529524,-995.924147,-962.267725,9844.739029
819.529840,-306.438199,-1924.535449,10436.903782
819.530156,0.000000,-814.226536,10214.842000
819.530471,-383.047749,222.061783,10214.842000
819.530787,-306.438199,-592.164754,9770.718434
819.531103,459.657299,-444.123565,8808.450710
819.531419,1838.629195,-1332.370696,9548.656652
819.531735,1838.629195,-222.061783,9622.677246
819.532050,1608.800546,814.226536,8882.471304
819.532366,1225.752797,-148.041188,9030.512492
819.532682,1991.848295,74.020594,9104.533087
819.532998,2681.334243,296.082377,8882.471304
819.533314,1838.629195,740.205942,8734.430116
819.533629,1149.143247,-0.000000,9696.697840
819.533945,459.657299,-814.226536,9252.574275
819.534261,1072.533697,-1036.288319,9474.636058
819.534577,1149.143247,-962.267725,10140.821405
819.534893,842.705048,444.123565,10066.800811
819.535208,-306.438199,592.164754,9252.574275
819.535524,-919.314598,-1406.391290,9400.615463
819.535840,-383.047749,-1702.473667,10214.842000
819.536156,229.828649,-1036.288319,10066.800811
819.536472,-153.219100,-0.000000,9992.780217
819.536787,-536.266849,-296.082377,9252.574275
819.537103,-383.047749,-740.205942,8142.265362
819.537419,1608.800546,-888.247130,10140.821405
819.537735,1149.143247,962.267725,9178.553681
819.538051,612.876398,1480.411884,8734.430116
819.538366,0.000000,444.123565,7772.162391
819.538682,0.000000,-666.185348,8882.471304
819.538998,1762.019645,-1406.391290,11695.253884
819.539314,1072.533697,296.082377,9104.533087
819.539630,-153.219100,1184.329507,9326.594869
819.539945,76.609550,-444.123565,9696.697840
819.540261,919.314598,-222.061783,8512.368333
819.540577,995.924147,962.267725,9326.594869
819.540893,0.000000,1628.453072,9474.636058
819.541209,-842.705048,1184.329507,9178.553681
819.541524,0.000000,-962.267725,8956.491898
819.541840,229.828649,-1628.453072,10436.903782
819.542156,-459.657299,-444.123565,10288.862594
819.542472,-153.219100,-444.123565,10658.965565
819.542788,-536.266849,370.102971,9622.677246
819.543103,-383.047749,-0.000000,8808.450710
819.543419,1149.143247,296.082377,10066.800811
819.543735,1685.410096,1406.391290,9918.759623
819.544051,306.438199,888.247130,9030.512492
819.544367,612.876398,-222.061783,9252.574275
819.544682,1378.971896,-666.185348,9178.553681
819.544998,1991.848295,518.144159,9844.739029
819.545314,1608.800546,1332.370696,10066.800811
819.545630,459.657299,888.247130,9252.574275
819.545946,306.438199,740.205942,9400.615463
819.546261,1225.752797,-0.000000,9844.739029
819.546577,1838.629195,962.267725,9474.636058
819.546893,459.657299,1406.391290,9696.697840
819.547209,-459.657299,-1110.308913,9622.677246
819.547525,0.000000,-740.205942,9992.780217
819.547840,306.438199,-888.247130,10584.944971
819.548156,0.000000,222.061783,9992.780217
819.548472,-612.876398,666.185348,10584.944971
819.548788,-842.705048,-222.061783,9696.697840
819.549104,0.000000,-296.082377,9252.574275
819.549419,689.485948,-444.123565,9844.739029
819.549735,1302.362347,814.226536,9030.512492
819.550051,536.266849,-0.000000,9178.553681
819.550367,0.000000,-0.000000,8068.244768
819.550683,919.314598,-814.226536,9696.697840
819.550998,919.314598,-0.000000,9326.594869
819.551314,306.438199,814.226536,8882.471304
819.551630,-612.876398,-666.185348,9400.615463
819.551946,-612.876398,-1406.391290,9104.533087
819.552262,536.266849,-2294.638420,10214.842000
819.552577,76.609550,-1776.494261,9992.780217
819.552893,-306.438199,-1554.432478,10362.883188
819.553209,-766.095498,-1406.391290,9770.718434
819.553525,-153.219100,-814.226536,8808.450710
819.553841,612.876398,-888.247130,9326.594869
819.554156,766.095498,74.020594,9252.574275
819.554472,842.705048,-296.082377,9104.533087
819.554788,0.000000,-1406.391290,7698.141797
819.555104,612.876398,-1554.432478,9178.553681
819.555420,1915.238745,-1628.453072,8734.430116
819.555735,1455.581446,-518.144159,9030.512492
819.556051,842.705048,-592.164754,9548.656652
819.556367,0.000000,-888.247130,7624.121203
819.556683,995.924147,-962.267725,9548.656652
819.556999,1302.362347,-222.061783,9104.533087
819.557314,0.000000,148.041188,9104.533087
819.557630,-689.485948,-666.185348,9474.636058
819.557946,76.609550,-1332.370696,8586.388927
819.558262,612.876398,-1628.453072,9844.739029
819.558578,229.828649,-296.082377,9844.739029
819.558893,0.000000,-0.000000,9252.574275
819.559209,-536.266849,-370.102971,9252.574275
819.559525,76.609550,-518.144159,9474.636058
819.559841,1378.971896,-296.082377,9474.636058
819.560157,612.876398,1036.288319,9474.636058
819.560473,153.219100,296.082377,9622.677246
819.560788,459.657299,-0.000000,9400.615463
819.561104,919.314598,-592.164754,9326.594869
819.561420,1225.752797,-0.000000,9178.553681
819.561736,612.876398,1036.288319,9918.759623
819.562052,689.485948,-0.000000,10955.047942
819.562367,153.219100,444.123565,8956.491898
819.562683,919.314598,-0.000000,10362.883188
819.562999,1149.143247,-0.000000,10288.862594
819.563315,536.266849,1184.329507,9918.759623
819.563631,153.219100,148.041188,9548.656652
819.563946,919.314598,-518.144159,8956.491898
819.564262,1685.410096,-814.226536,10288.862594
819.564578,383.047749,148.041188,9474.636058
819.564894,306.438199,-0.000000,10066.800811
819.565210,-153.219100,-222.061783,9326.594869
819.565525,0.000000,-814.226536,9918.759623
819.565841,766.095498,-148.041188,10288.862594
819.566157,153.219100,888.247130,10436.903782
819.566473,-459.657299,296.082377,10140.821405
819.566789,-153.219100,-518.144159,8808.450710
819.567104,383.047749,-1332.370696,9548.656652
819.567420,842.705048,-0.000000,9696.697840
819.567736,383.047749,222.061783,9474.636058
819.568052,0.000000,-1628.453072,10955.047942
819.568368,-383.047749,-1258.350101,9770.718434
819.568683,306.438199,-1406.391290,9918.759623
819.568999,76.609550,-370.102971,10140.821405
819.569315,306.438199,-518.144159,10436.903782
819.569631,76.609550,-1480.411884,9622.677246
819.569947,459.657299,-814.226536,9252.574275
819.570262,1378.971896,-1702.473667,9918.759623
819.570578,1762.019645,444.123565,8512.368333
819.570894,995.924147,-0.000000,8882.471304
819.571210,842.705048,-74.020594,8808.450710
819.571526,1685.410096,-444.123565,8882.471304
819.571841,1915.238745,814.226536,7698.141797
819.572157,1455.581446,740.205942,8734.430116
819.572473,995.924147,-1480.411884,8734.430116
819.572789,612.876398,-1998.556043,8512.368333
819.573105,842.705048,-1702.473667,9400.615463
819.573420,612.876398,-1702.473667,9104.533087
819.573736,76.609550,-518.144159,8956.491898
819.574052,-1072.533697,-1850.514855,9474.636058
819.574368,-1838.629195,-1776.494261,10066.800811
819.574684,-1532.190996,-2072.576638,10807.006753
819.574999,-2068.457845,-1406.391290,9474.636058
819.575315,-2221.676944,-1036.288319,10362.883188
819.575631,-2528.115143,-2516.700203,10140.821405
819.575947,-2221.676944,-2368.659014,8290.306550
819.576263,-1532.190996,-2368.659014,9844.739029
819.576578,-1608.800546,-1924.535449,9770.718434
819.576894,-1532.190996,-1480.411884,9548.656652
819.577210,-1991.848295,-1850.514855,9400.615463
819.577526,-1378.971896,-1776.494261,9178.553681
819.577842,-153.219100,-2368.659014,10140.821405
819.578157,-536.266849,-1110.308913,9548.656652
819.578473,-383.047749,-592.164754,9252.574275
819.578789,-1072.533697,-2072.576638,8956.491898
819.579105,-306.438199,-1480.411884,8956.491898
819.579421,-229.828649,-666.185348,8808.450710
819.579736,-306.438199,-592.164754,8808.450710
819.580052,-612.876398,-2516.700203,9474.636058
819.580368,-1915.238745,-3256.906145,9696.697840
819.580684,-2145.067394,-3182.885551,10584.944971
819.581000,-1838.629195,-2664.741391,10881.027347
819.581315,-1762.019645,-2368.659014,9770.718434
819.581631,-2221.676944,-2368.659014,9548.656652
819.581947,-2145.067394,-2738.761985,9474.636058
819.582263,-2221.676944,-2368.659014,9622.677246
819.582579,-1991.848295,-1184.329507,8956.491898
819.582894,-1685.410096,-1924.535449,9474.636058
819.583210,-1455.581446,-2960.823768,9252.574275
819.583526,-1455.581446,-3108.864956,9918.759623
819.583842,-2145.067394,-3034.844362,9400.615463
819.584158,-1991.848295,-2220.617826,9474.636058
819.584473,-1762.019645,-1924.535449,9474.636058
819.584789,-1225.752797,-1628.453072,8660.409521
819.585105,-1302.362347,-1628.453072,8068.244768
819.585421,-1762.019645,-2220.617826,9252.574275
819.585737,-2374.896044,-1406.391290,9696.697840
819.586052,-2374.896044,-2072.576638,8956.491898
819.586368,-2145.067394,-2590.720797,9030.512492
819.586684,-1991.848295,-2146.597232,9696.697840
819.587000,-2757.943793,-2590.720797,9474.636058
819.587316,-3064.381992,-2664.741391,10436.903782
819.587631,-2374.896044,-2442.679609,9918.759623
819.587947,-2374.896044,-2368.659014,9622.677246
819.588263,-1302.362347,-1850.514855,9844.739029
819.588579,-1991.848295,-1110.308913,9622.677246
819.588895,-1838.629195,-1480.411884,9548.656652
819.589210,-842.705048,-1628.453072,9326.594869
819.589526,-1608.800546,-592.164754,7328.038826
819.589842,-919.314598,-370.102971,8512.368333
819.590158,-842.705048,-1628.453072,9252.574275
819.590474,-919.314598,-2368.659014,8808.450710
819.590789,-1685.410096,-3034.844362,10140.821405
819.591105,-2068.457845,-3182.885551,10140.821405
819.591421,-2298.286494,-2442.679609,9696.697840
819.591737,-2451.505594,-1924.535449,10362.883188
819.592053,-1838.629195,-2368.659014,10436.903782
819.592368,-1838.629195,-2960.823768,9696.697840
819.592684,-1762.019645,-2072.576638,10807.006753
819.593000,-1915.238745,-1850.514855,9622.677246
819.593316,-1302.362347,-2220.617826,9030.512492
819.593632,-1149.143247,-1480.411884,9400.615463
819.593947,-612.876398,-1702.473667,8364.327145
819.594263,306.438199,-1702.473667,9178.553681
819.594579,0.000000,-1850.514855,9696.697840
819.594895,-995.924147,-1554.432478,8512.368333
819.595211,0.000000,-2072.576638,8956.491898
819.595526,-153.219100,-1628.453072,9770.718434
819.595842,-995.924147,-444.123565,8882.471304
819.596158,-536.266849,-1776.494261,10066.800811
819.596474,-995.924147,-2664.741391,9992.780217
819.596790,-1685.410096,-2516.700203,9178.553681
819.597105,-1991.848295,-2886.803174,9696.697840
819.597421,-1915.238745,-2368.659014,9548.656652
819.597737,-2911.162892,-1332.370696,9622.677246
819.598053,-2834.553343,-1628.453072,9400.615463
819.598369,-2145.067394,-2442.679609,9400.615463
819.598684,-2451.505594,-2590.720797,9474.636058
819.599000,-2987.772442,-3775.050304,10066.800811
819.599316,-2604.724693,-4367.215058,10214.842000
819.599632,-2374.896044,-3923.091493,10510.924376
819.599948,-2757.943793,-3034.844362,10881.027347
819.600263,-2221.676944,-2294.638420,9252.574275
819.600579,-1532.190996,-1480.411884,9104.533087
819.600895,-1378.971896,-2220.617826,8956.491898
819.601211,-1149.143247,-2516.700203,9178.553681
819.601527,0.000000,-1924.535449,8734.430116
819.601842,-1149.143247,-1332.370696,7846.182985
819.602158,-766.095498,-1554.432478,8216.285956
819.602474,-689.485948,-1480.411884,8068.244768
819.602790,-919.314598,-2072.576638,7550.100608
819.603106,-1838.629195,-2960.823768,8512.368333
819.603421,-2221.676944,-3404.947333,9992.780217
819.603737,-2757.943793,-4071.132681,10066.800811
819.604053,-3447.429741,-4219.173869,10510.924376
819.604369,-3600.648841,-4663.297435,11177.109724
819.604684,-3064.381992,-4515.256246,11473.192101
819.605000,-3600.648841,-3775.050304,11177.109724
819.605316,-3140.991542,-2294.638420,10732.986159
819.605632,-2374.896044,-1480.411884,9474.636058
819.605948,-1532.190996,-1332.370696,8290.306550
819.606263,-306.438199,-1406.391290,8068.244768
819.606579,229.828649,-1332.370696,7624.121203
819.606895,229.828649,-1406.391290,7105.977043
819.607211,1072.533697,-2368.659014,7994.224174
819.607527,995.924147,-2368.659014,8364.327145
819.607842,383.047749,-1332.370696,8438.347739
819.608158,-229.828649,-666.185348,8512.368333
819.608474,-1302.362347,-1110.308913,8956.491898
819.608790,-1532.190996,-2294.638420,9474.636058
819.609105,-1685.410096,-2738.761985,10066.800811
819.609421,-2221.676944,-2590.720797,10140.821405
819.609737,-2604.724693,-3404.947333,10881.027347
819.610053,-2987.772442,-3923.091493,10955.047942
819.610369,-2298.286494,-3478.967927,11103.089130
819.610684,-2451.505594,-2368.659014,10881.027347
819.611000,-2221.676944,-740.205942,9622.677246
819.611316,-1685.410096,-370.102971,8660.409521
819.611632,-1225.752797,-592.164754,7994.224174
819.611948,0.000000,-740.205942,7550.100608
819.612263,306.438199,-370.102971,7254.018232
819.612579,229.828649,-1554.432478,8142.265362
819.612895,-536.266849,-2960.823768,8808.450710
819.613211,-1225.752797,-3330.926739,9770.718434
819.613526,-1685.410096,-2590.720797,10732.986159
819.613842,-2374.896044,-1998.556043,11621.233289
819.614158,-2757.943793,-1776.494261,11695.253884
819.614474,-2911.162892,-1628.453072,10955.047942
819.614790,-2374.896044,-962.267725,10066.800811
819.615105,-2221.676944,-666.185348,9474.636058
819.615421,-1762.019645,-740.205942,8956.491898
819.615737,-1302.362347,-1406.391290,8438.347739
819.616053,-1072.533697,-2072.576638,8364.327145
819.616368,-1149.143247,-2368.659014,9030.512492
819.616684,-1608.800546,-3108.864956,9548.656652
819.617000,-2145.067394,-3182.885551,10066.800811
819.617316,-2221.676944,-3404.947333,10510.924376
819.617632,-1838.629195,-2664.741391,10732.986159
819.617947,-1838.629195,-2368.659014,10658.965565
819.618263,-1685.410096,-1776.494261,10066.800811
819.618579,-1302.362347,-1480.411884,9992.780217
819.618895,-1072.533697,-1036.288319,9252.574275
819.619211,-842.705048,-740.205942,8660.409521
819.619526,-459.657299,-740.205942,8290.306550
819.619842,-536.266849,-1036.288319,8512.368333
819.620158,-919.314598,-1850.514855,8512.368333
819.620474,-995.924147,-3108.864956,8808.450710
819.620789,-1455.581446,-3478.967927,9326.594869
819.621105,-1991.848295,-4071.132681,10436.903782
819.621421,-2374.896044,-3997.112087,10510.924376
819.621737,-2681.334243,-3997.112087,10732.986159
819.622053,-2834.553343,-3256.906145,11029.068536
819.622368,-2451.505594,-2590.720797,10584.944971
819.622684,-2374.896044,-1776.494261,9844.739029
819.623000,-2068.457845,-888.247130,9178.553681
819.623316,-1225.752797,-1036.288319,8734.430116
819.623632,-459.657299,-1110.308913,8142.265362
819.623947,383.047749,-814.226536,7402.059420
819.624263,229.828649,-1036.288319,7328.038826
819.624579,0.000000,-1776.494261,7254.018232
819.624895,-536.266849,-2368.659014,7402.059420
819.625210,-1072.533697,-2664.741391,8290.306550
819.625526,-2221.676944,-3923.091493,9400.615463
819.625842,-2911.162892,-4441.235652,10288.862594
819.626158,-4213.525239,-5181.441594,11399.171507
819.626474,-4903.011187,-5921.647536,12139.377449
819.626789,-4826.401637,-5403.503377,12435.459826
819.627105,-4443.353888,-4145.153275,12435.459826
819.627421,-4213.525239,-3330.926739,11473.192101
819.627737,-2834.553343,-1776.494261,10214.842000
819.628053,-1378.971896,-370.102971,8734.430116
819.628368,229.828649,222.061783,7476.080014
819.628684,919.314598,-0.000000,6883.915261
819.629000,2834.553343,-370.102971,5847.626942
819.629316,3524.039291,-518.144159,5773.606348
819.629631,3294.210641,-962.267725,6143.709319
819.629947,2681.334243,-1850.514855,7031.956449
819.630263,1608.800546,-2590.720797,8586.388927
819.630579,0.000000,-3478.967927,9770.718434
819.630895,-1838.629195,-3997.112087,10732.986159
819.631210,-3064.381992,-3478.967927,11547.212695
819.631526,-4366.744339,-3108.864956,11917.315666
819.631842,-4443.353888,-2738.761985,12213.398043
819.632158,-4596.572988,-2368.659014,11843.295072
819.632474,-4290.134789,-2146.597232,11029.068536
819.632789,-4060.306139,-2368.659014,10140.821405
819.633105,-3600.648841,-3034.844362,9622.677246
819.633421,-2757.943793,-3108.864956,9474.636058
819.633737,-1608.800546,-2516.700203,8734.430116
819.634052,-995.924147,-2146.597232,7846.182985
819.634368,-842.705048,-1332.370696,8068.244768
819.634684,-306.438199,-1702.473667,8512.368333
819.635000,-459.657299,-2146.597232,8734.430116
819.635316,-612.876398,-2294.638420,9548.656652
819.635631,-1149.143247,-2220.617826,9992.780217
819.635947,-1455.581446,-1850.514855,10140.821405
819.636263,-1378.971896,-1480.411884,10362.883188
819.636579,-1838.629195,-814.226536,10510.924376
819.636895,-2221.676944,-1480.411884,10362.883188
819.637210,-2145.067394,-1406.391290,9918.759623
819.637526,-2145.067394,-1776.494261,9844.739029
819.637842,-2298.286494,-2516.700203,10140.821405
819.638158,-1685.410096,-2960.823768,9548.656652
819.638473,-919.314598,-3108.864956,9474.636058
819.638789,-1149.143247,-2590.720797,9252.574275
819.639105,-1378.971896,-2368.659014,9326.594869
819.639421,-1225.752797,-3330.926739,9400.615463
819.639737,-1378.971896,-2590.720797,10140.821405
819.640052,-612.876398,-1998.556043,9400.615463
819.640368,-459.657299,-1332.370696,9326.594869
819.640684,0.000000,-888.247130,9326.594869
819.641000,0.000000,-518.144159,9400.615463
819.641316,459.657299,-444.123565,8956.491898
819.641631,536.266849,-518.144159,8512.368333
819.641947,919.314598,-518.144159,8290.306550
819.642263,1225.752797,-1036.288319,8438.347739
819.642579,1225.752797,-962.267725,7994.224174
819.642894,229.828649,-1258.350101,7920.203579
819.643210,-306.438199,-1998.556043,8734.430116
819.643526,-995.924147,-2516.700203,9178.553681
819.643842,-2068.457845,-2442.679609,10362.883188
819.644158,-2987.772442,-2368.659014,10584.944971
819.644473,-3294.210641,-1998.556043,10732.986159
819.644789,-3370.820191,-1628.453072,11103.089130
819.645105,-3217.601092,-666.185348,10658.965565
819.645421,-2757.943793,-222.061783,9992.780217
819.645736,-2221.676944,-296.082377,9474.636058
819.646052,-1378.971896,-962.267725,9252.574275
819.646368,-919.314598,-1258.350101,9030.512492
819.646684,-229.828649,-1628.453072,8734.430116
819.647000,-153.219100,-1406.391290,8586.388927
819.647315,-229.828649,-1332.370696,8660.409521
819.647631,-612.876398,-1628.453072,9030.512492
819.647947,-1378.971896,-1628.453072,9326.594869
819.648263,-1532.190996,-1998.556043,9844.739029
819.648579,-2145.067394,-2220.617826,9548.656652
819.648894,-3217.601092,-2738.761985,9992.780217
819.649210,-3524.039291,-2590.720797,10955.047942
819.649526,-3983.696590,-2960.823768,10510.924376
819.649842,-4213.525239,-2664.741391,10436.903782
819.650157,-4290.134789,-3034.844362,10807.006753
819.650473,-4290.134789,-3701.029710,10584.944971
819.650789,-3753.867940,-4071.132681,10288.862594
819.651105,-3370.820191,-4293.194464,10066.800811
819.651421,-2987.772442,-4515.256246,9992.780217
819.651736,-2298.286494,-4441.235652,9400.615463
819.652052,-2145.067394,-4293.194464,9104.533087
819.652368,-689.485948,-4293.194464,9030.512492
819.652684,-1225.752797,-3701.029710,9770.718434
819.653000,-1608.800546,-3849.070898,9104.533087
819.653315,-2068.457845,-3775.050304,9326.594869
819.653631,-1991.848295,-3775.050304,9622.677246
819.653947,-1915.238745,-3552.988522,9474.636058
819.654263,-1991.848295,-3849.070898,9474.636058
819.654578,-1838.629195,-3701.029710,9622.677246
819.654894,-1762.019645,-3923.091493,9400.615463
819.655210,-1608.800546,-3775.050304,9474.636058
819.655526,-1072.533697,-3478.967927,9178.553681
819.655842,-459.657299,-3552.988522,8586.388927
819.656157,0.000000,-2812.782580,8438.347739
819.656473,-306.438199,-2294.638420,7846.182985
819.656789,-306.438199,-2516.700203,7698.141797
819.657105,-459.657299,-2442.679609,7698.141797
819.657421,-919.314598,-2738.761985,7846.182985
819.657736,-1915.238745,-2886.803174,8364.327145
819.658052,-2145.067394,-3256.906145,9178.553681
819.658368,-2834.553343,-3404.947333,9770.718434
819.658684,-2911.162892,-3701.029710,10288.862594
819.658999,-3447.429741,-3627.009116,10881.027347
819.659315,-3677.258390,-3849.070898,10658.965565
819.659631,-3140.991542,-3478.967927,10807.006753
819.659947,-2681.334243,-3330.926739,10436.903782
819.660263,-1072.533697,-2738.761985,9548.656652
819.660578,-766.095498,-1702.473667,9178.553681
819.660894,0.000000,-740.205942,8364.327145
819.661210,842.705048,-0.000000,7624.121203
819.661526,1532.190996,740.205942,7031.956449
819.661842,1838.629195,962.267725,6957.935855
819.662157,1685.410096,518.144159,6735.874072
819.662473,1225.752797,-0.000000,7105.977043
819.662789,383.047749,-1036.288319,7920.203579
819.663105,-459.657299,-2146.597232,9178.553681
819.663420,-1838.629195,-2886.803174,10658.965565
819.663736,-2681.334243,-3701.029710,11917.315666
819.664052,-3677.258390,-4441.235652,12953.603985
819.664368,-4136.915689,-4367.215058,13471.748144
819.664684,-4136.915689,-3701.029710,13249.686362
819.664999,-3600.648841,-2442.679609,12509.480420
819.665315,-2451.505594,-888.247130,11029.068536
819.665631,-1149.143247,666.185348,9252.574275
819.665947,153.219100,1850.514855,7846.182985
819.666263,1149.143247,2146.597232,6661.853478
819.666578,1455.581446,1702.473667,6143.709319
819.666894,1685.410096,1110.308913,6143.709319
819.667210,995.924147,-148.041188,7328.038826
819.667526,459.657299,-1332.370696,8512.368333
819.667841,-1149.143247,-2664.741391,10214.842000
819.668157,-2528.115143,-3701.029710,11695.253884
819.668473,-3677.258390,-3701.029710,12731.542202
819.668789,-4366.744339,-2960.823768,13323.706956
819.669105,-4519.963438,-2516.700203,13175.665768
819.669420,-4213.525239,-740.205942,12287.418637
819.669736,-4290.134789,-370.102971,11251.130318
819.670052,-4060.306139,-74.020594,9918.759623
819.670368,-2911.162892,-296.082377,9104.533087
819.670684,-1762.019645,-962.267725,8734.430116
819.670999,-689.485948,-2072.576638,8734.430116
819.671315,-995.924147,-2368.659014,8438.347739
819.671631,-995.924147,-2220.617826,8512.368333
819.671947,-1072.533697,-2072.576638,8290.306550
819.672262,-612.876398,-1628.453072,8808.450710
819.672578,-1225.752797,-1628.453072,9252.574275
819.672894,-1762.019645,-2072.576638,8956.491898
819.673210,-2221.676944,-2886.803174,9696.697840
819.673526,-2451.505594,-3701.029710,10066.800811
819.673841,-2451.505594,-4293.194464,10955.047942
819.674157,-3294.210641,-3849.070898,11103.089130
819.674473,-3677.258390,-3182.885551,10510.924376
819.674789,-2987.772442,-3256.906145,10510.924376
819.675105,-2298.286494,-3478.967927,9622.677246
819.675420,-1455.581446,-3256.906145,9030.512492
819.675736,-1455.581446,-2590.720797,8216.285956
819.676052,-536.266849,-3182.885551,7105.977043
819.676368,0.000000,-4219.173869,7031.956449
819.676683,76.609550,-4441.235652,7920.203579
819.676999,-995.924147,-4219.173869,9178.553681
819.677315,-1685.410096,-4293.194464,9326.594869
819.677631,-1838.629195,-4441.235652,9400.615463
819.677947,-1915.238745,-3701.029710,9770.718434
819.678262,-2068.457845,-2368.659014,9548.656652
819.678578,-1149.143247,-1776.494261,9474.636058
819.678894,-536.266849,-2368.659014,9400.615463
819.679210,0.000000,-2886.803174,9030.512492
819.679525,76.609550,-2590.720797,7920.203579
819.679841,153.219100,-2294.638420,7994.224174
819.680157,229.828649,-2368.659014,8290.306550
819.680473,-153.219100,-2590.720797,7698.141797
819.680789,-689.485948,-3108.864956,8290.306550
819.681104,-1302.362347,-3775.050304,8882.471304
819.681420,-1532.190996,-4589.276840,9918.759623
819.681736,-3064.381992,-4589.276840,10510.924376
819.682052,-3294.210641,-3701.029710,10140.821405
819.682368,-3140.991542,-2516.700203,9992.780217
819.682683,-2834.553343,-1628.453072,10362.883188
819.682999,-2451.505594,-518.144159,10066.800811
819.683315,-2068.457845,-1110.308913,9178.553681
819.683631,-1532.190996,-1702.473667,9548.656652
819.683946,-1225.752797,-1850.514855,9474.636058
819.684262,-229.828649,-1110.308913,8068.244768
819.684578,229.828649,-1036.288319,7402.059420
819.684894,-306.438199,-1332.370696,7920.203579
819.685210,-229.828649,-2368.659014,8586.388927
819.685525,-842.705048,-3182.885551,9474.636058
819.685841,-2374.896044,-3404.947333,10584.944971
819.686157,-3677.258390,-3182.885551,11325.150913
819.686473,-3677.258390,-2738.761985,11473.192101
819.686789,-3907.087040,-1998.556043,11473.192101
819.687104,-4060.306139,-1258.350101,11917.315666
819.687420,-3370.820191,-1628.453072,12139.377449
819.687736,-2987.772442,-666.185348,10955.047942
819.688052,-2834.553343,-296.082377,9918.759623
819.688367,-1455.581446,-0.000000,9030.512492
819.688683,0.000000,-74.020594,8142.265362
819.688999,229.828649,-0.000000,7846.182985
819.689315,1225.752797,-518.144159,7476.080014
819.689631,1378.971896,-1480.411884,7772.162391
819.689946,0.000000,-888.247130,7994.224174
819.690262,-842.705048,-2294.638420,10214.842000
819.690578,-995.924147,-2368.659014,10214.842000
819.690894,-1991.848295,-2368.659014,10584.944971
819.691210,-3140.991542,-3478.967927,11769.274478
819.691525,-3447.429741,-3330.926739,12879.583391
819.691841,-4290.134789,-2294.638420,12065.356855
819.692157,-4060.306139,-1036.288319,11695.253884
819.692473,-2834.553343,-0.000000,10436.903782
819.692788,-1608.800546,-222.061783,9178.553681
819.693104,-842.705048,-370.102971,8364.327145
819.693420,229.828649,-1702.473667,7920.203579
819.693736,842.705048,-1628.453072,8142.265362
819.694052,1149.143247,-1258.350101,7328.038826
819.694367,1225.752797,-1258.350101,7698.141797
819.694683,1225.752797,-1480.411884,8586.388927
819.694999,0.000000,-1776.494261,8512.368333
819.695315,-1378.971896,-1554.432478,8512.368333
819.695631,-2145.067394,-2072.576638,10288.862594
819.695946,-2604.724693,-1776.494261,10510.924376
819.696262,-2604.724693,-2368.659014,10732.986159
819.696578,-3294.210641,-2590.720797,11473.192101
819.696894,-3983.696590,-2738.761985,11399.171507
819.697209,-3677.258390,-2960.823768,10807.006753
819.697525,-2911.162892,-2664.741391,10732.986159
819.697841,-2068.457845,-1776.494261,8808.450710
819.698157,-766.095498,-2590.720797,8882.471304
819.698472,-536.266849,-1924.535449,8586.388927
819.698788,0.000000,-962.267725,6809.894666
819.699104,383.047749,-888.247130,6291.750507
819.699419,766.095498,-444.123565,7031.956449
819.699735,919.314598,-1702.473667,7031.956449
819.700051,229.828649,-1998.556043,8216.285956
819.700367,-1302.362347,-2146.597232,9030.512492
819.700682,-2374.896044,-2960.823768,9696.697840
819.700998,-1915.238745,-3627.009116,11769.274478
819.701314,-2374.896044,-3849.070898,11325.150913
819.701629,-2987.772442,-2664.741391,11103.089130
819.701945,-2911.162892,-2220.617826,11473.192101
819.702261,-2068.457845,-2516.700203,9548.656652
819.702576,-1378.971896,-888.247130,9030.512492
819.702892,459.657299,-962.267725,9326.594869
819.703208,153.219100,-888.247130,7105.977043
819.703524,612.876398,222.061783,7550.100608
819.703839,919.314598,-444.123565,7772.162391
819.704155,1302.362347,-592.164754,8290.306550
819.704471,1762.019645,-74.020594,8142.265362
819.704786,459.657299,370.102971,8364.327145
819.705102,0.000000,148.041188,8882.471304
819.705418,612.876398,-1184.329507,10066.800811
819.705733,383.047749,-592.164754,10214.842000
819.706049,536.266849,-1332.370696,10881.027347
819.706365,0.000000,-518.144159,11103.089130
819.706680,-306.438199,-444.123565,9474.636058
819.706996,-766.095498,-1332.370696,9844.739029
819.707312,459.657299,-666.185348,11177.109724
819.707628,-306.438199,-1628.453072,10510.924376
819.707943,0.000000,-1036.288319,9844.739029
819.708259,0.000000,-0.000000,8438.347739
819.708575,-153.219100,-1554.432478,9030.512492
819.708890,689.485948,-592.164754,9696.697840
819.709206,306.438199,-740.205942,9622.677246
819.709522,-153.219100,370.102971,8882.471304
819.709837,-536.266849,-518.144159,10658.965565
819.710153,-383.047749,-666.185348,9770.718434
819.710469,459.657299,-222.061783,10362.883188
819.710784,76.609550,-1184.329507,10584.944971
819.711100,-229.828649,-962.267725,11621.233289
819.711416,76.609550,-740.205942,10436.903782
819.711732,919.314598,-1184.329507,9770.718434
819.712047,1915.238745,-1554.432478,11177.109724
819.712363,1762.019645,222.061783,9696.697840
819.712679,2145.067394,1110.308913,8734.430116
819.712994,2374.896044,814.226536,8660.409521
819.713310,3140.991542,148.041188,9400.615463
819.713626,3064.381992,888.247130,8734.430116
819.713941,1532.190996,1036.288319,8808.450710
819.714257,1072.533697,296.082377,8956.491898
819.714573,1149.143247,-74.020594,9400.615463
819.714889,1762.019645,-518.144159,9326.594869
819.715204,995.924147,222.061783,9326.594869
819.715520,-76.609550,518.144159,8882.471304
819.715836,0.000000,-592.164754,9622.677246
819.716151,-306.438199,-592.164754,9474.636058
819.716467,383.047749,-370.102971,10140.821405
819.716783,76.609550,-592.164754,10362.883188
819.717098,-766.095498,-0.000000,8734.430116
819.717414,-153.219100,-888.247130,9104.533087
819.717730,459.657299,-1184.329507,8956.491898
819.718045,766.095498,-0.000000,8882.471304
819.718361,0.000000,518.144159,8512.368333
819.718677,-229.828649,222.061783,8438.347739
819.718993,-76.609550,296.082377,8956.491898
819.719308,0.000000,1036.288319,8808.450710
819.719624,0.000000,444.123565,9252.574275
819.719940,-612.876398,740.205942,8882.471304
819.720255,-689.485948,148.041188,9474.636058
819.720571,76.609550,-296.082377,9030.512492
819.720887,383.047749,-370.102971,9844.739029
819.721202,536.266849,-0.000000,9992.780217
819.721518,0.000000,592.164754,9104.533087
819.721834,-306.438199,-888.247130,8808.450710
819.722149,153.219100,-1110.308913,9918.759623
819.722465,1149.143247,-296.082377,10214.842000
819.722781,229.828649,296.082377,9474.636058
819.723097,-766.095498,-222.061783,9622.677246
819.723412,-306.438199,-1480.411884,9104.533087
819.723728,612.876398,-740.205942,9770.718434
819.724044,459.657299,-666.185348,9918.759623
819.724359,-459.657299,-1332.370696,10066.800811
819.724675,-689.485948,-1702.473667,10140.821405
819.724991,153.219100,-1628.453072,9622.677246
819.725306,76.609550,-666.185348,9844.739029
819.725622,612.876398,296.082377,10288.862594
819.725938,0.000000,-0.000000,9696.697840
819.726253,689.485948,-666.185348,10214.842000
819.726569,1302.362347,-814.226536,8882.471304
819.726885,2757.943793,-296.082377,9622.677246
819.727201,1915.238745,-0.000000,10214.842000
819.727516,1455.581446,-666.185348,9918.759623
819.727832,1838.629195,-592.164754,9548.656652
819.728148,1608.800546,-148.041188,9400.615463
819.728463,919.314598,-296.082377,9992.780217
819.728779,1149.143247,-296.082377,10955.047942
819.729095,-153.219100,-518.144159,10066.800811
819.729410,229.828649,-222.061783,9770.718434
819.729726,1225.752797,222.061783,9844.739029
819.730042,1455.581446,-148.041188,10066.800811
819.730358,612.876398,962.267725,9030.512492
819.730673,459.657299,-74.020594,9326.594869
819.730989,1072.533697,-1110.308913,8512.368333
819.731305,1915.238745,-74.020594,8956.491898
819.731620,1072.533697,-518.144159,9844.739029
819.731936,689.485948,-0.000000,9622.677246
819.732252,383.047749,-666.185348,8290.306550
819.732567,383.047749,-296.082377,8512.368333
819.732883,383.047749,-740.205942,9696.697840
819.733199,0.000000,-888.247130,9326.594869
819.733514,-919.314598,-888.247130,9474.636058
819.733830,-919.314598,-1776.494261,9326.594869
819.734146,-842.705048,-1776.494261,9622.677246
819.734462,-229.828649,-1480.411884,10436.903782
819.734777,-995.924147,-0.000000,9844.739029
819.735093,-919.314598,-0.000000,8956.491898
819.735409,-612.876398,-296.082377,8512.368333
819.735724,689.485948,-0.000000,8364.327145
819.736040,766.095498,666.185348,8142.265362
819.736356,459.657299,370.102971,7994.224174
819.736671,536.266849,-592.164754,8364.327145
819.736987,919.314598,-1036.288319,9326.594869
819.737303,1608.800546,-74.020594,9474.636058
819.737618,689.485948,222.061783,9326.594869
819.737934,229.828649,888.247130,9326.594869
819.738250,-383.047749,-148.041188,8956.491898
819.738566,0.000000,-74.020594,8808.450710
819.738881,1072.533697,-0.000000,10584.944971
819.739197,0.000000,370.102971,9696.697840
819.739513,-536.266849,-0.000000,9844.739029
819.739828,-306.438199,-962.267725,9844.739029
819.740144,536.266849,-148.041188,9696.697840
819.740460,995.924147,518.144159,10288.862594
819.740775,153.219100,1258.350101,9400.615463
819.741091,1149.143247,-0.000000,9622.677246
819.741407,459.657299,-592.164754,9104.533087
819.741723,1608.800546,-0.000000,10140.821405
819.742038,1378.971896,222.061783,9992.780217
819.742354,536.266849,518.144159,9770.718434
819.742670,229.828649,222.061783,10436.903782
819.742985,689.485948,-148.041188,9474.636058
819.743301,1608.800546,-0.000000,10436.903782
819.743617,306.438199,-0.000000,10955.047942
819.743932,0.000000,518.144159,11103.089130
819.744248,995.924147,-518.144159,9622.677246
819.744564,766.095498,296.082377,9474.636058
819.744879,1608.800546,444.123565,10732.986159
819.745195,766.095498,74.020594,10510.924376
819.745511,229.828649,370.102971,9178.553681
819.745827,0.000000,-0.000000,9844.739029
819.746142,1225.752797,-444.123565,9400.615463
819.746458,1149.143247,518.144159,10066.800811
819.746774,306.438199,962.267725,9992.780217
819.747089,-153.219100,-222.061783,9252.574275
819.747405,766.095498,-1332.370696,9326.594869
819.747721,842.705048,-222.061783,9622.677246
819.748036,0.000000,-148.041188,9326.594869
819.748352,-766.095498,-148.041188,9548.656652
819.748668,-306.438199,-1406.391290,10732.986159
819.748983,-536.266849,-1332.370696,9178.553681
819.749299,383.047749,-888.247130,9918.759623
819.749615,-383.047749,-370.102971,9548.656652
819.749931,-536.266849,-370.102971,9844.739029
819.750246,0.000000,-1258.350101,8734.430116
819.750562,689.485948,-444.123565,9178.553681
819.750878,995.924147,-0.000000,9252.574275
819.751193,306.438199,-0.000000,7994.224174
819.751509,229.828649,-0.000000,8882.471304
819.751825,842.705048,-518.144159,8586.388927
819.752140,1072.533697,-74.020594,8734.430116
819.752456,689.485948,-296.082377,9992.780217
819.752772,76.609550,-0.000000,9252.574275
819.753087,229.828649,-592.164754,8364.327145
819.753403,76.609550,-814.226536,8660.409521
819.753719,1225.752797,-222.061783,9178.553681
819.754035,1302.362347,-0.000000,8956.491898
819.754350,0.000000,-0.000000,8882.471304
819.754666,-229.828649,-1036.288319,9326.594869
819.754982,612.876398,-1628.453072,9178.553681
819.755297,689.485948,-222.061783,9474.636058
819.755613,-306.438199,444.123565,9104.533087
819.755929,-536.266849,-370.102971,9548.656652
819.756244,153.219100,-1184.329507,8882.471304
819.756560,536.266849,-592.164754,8512.368333
819.756876,612.876398,-592.164754,10658.965565
819.757192,-383.047749,-518.144159,9326.594869
819.757507,-153.219100,-962.267725,9548.656652
819.757823,76.609550,-962.267725,9622.677246
819.758139,1302.362347,-888.247130,10362.883188
819.758454,766.095498,296.082377,10288.862594
819.758770,0.000000,592.164754,9326.594869
819.759086,306.438199,-148.041188,9326.594869
819.759401,1225.752797,-296.082377,9326.594869
819.759717,2298.286494,148.041188,9474.636058
819.760033,1378.971896,888.247130,9400.615463
819.760348,536.266849,370.102971,9918.759623
819.760664,536.266849,-222.061783,9104.533087
819.760980,612.876398,-222.061783,9696.697840
819.761296,306.438199,-74.020594,10732.986159
819.761611,0.000000,444.123565,10732.986159
819.761927,-766.095498,-0.000000,10881.027347
819.762243,-383.047749,-74.020594,9400.615463
819.762558,153.219100,296.082377,9474.636058
819.762874,1685.410096,-0.000000,10658.965565
819.763190,-383.047749,592.164754,9918.759623
819.763505,76.609550,-148.041188,10214.842000
819.763821,153.219100,-444.123565,9252.574275
819.764137,1302.362347,-0.000000,10066.800811
819.764452,536.266849,222.061783,9326.594869
819.764768,383.047749,518.144159,9622.677246
819.765084,0.000000,-296.082377,9104.533087
819.765400,1225.752797,-0.000000,8882.471304
819.765715,1532.190996,740.205942,9104.533087
819.766031,919.314598,740.205942,9178.553681
819.766347,153.219100,296.082377,9252.574275
819.766662,0.000000,-1258.350101,8956.491898
819.766978,0.000000,-1036.288319,9474.636058
819.767294,383.047749,-1332.370696,11621.233289
819.767609,-383.047749,-296.082377,9770.718434
819.767925,-689.485948,-0.000000,9400.615463
819.768241,-612.876398,-962.267725,8808.450710
819.768557,689.485948,-666.185348,9474.636058
819.768872,689.485948,-222.061783,9326.594869
819.769188,-153.219100,518.144159,8882.471304
819.769504,0.000000,-740.205942,9030.512492
819.769819,459.657299,-1258.350101,9400.615463
819.770135,1149.143247,-740.205942,9696.697840
819.770451,612.876398,370.102971,8808.450710
819.770766,76.609550,-0.000000,9252.574275
819.771082,383.047749,-740.205942,9770.718434
819.771398,919.314598,-370.102971,8290.306550
819.771713,1378.971896,222.061783,9252.574275
819.772029,229.828649,-296.082377,9548.656652
819.772345,612.876398,-370.102971,9326.594869
819.772661,383.047749,-1332.370696,9400.615463
819.772976,919.314598,-888.247130,9474.636058
819.773292,1225.752797,-148.041188,10288.862594
819.773608,153.219100,1184.329507,9474.636058
819.773923,229.828649,666.185348,8364.327145
819.774239,306.438199,-444.123565,7994.224174
819.774555,2068.457845,-296.082377,9474.636058
819.774870,1532.190996,-0.000000,10214.842000
819.775186,919.314598,-222.061783,9548.656652
819.775502,306.438199,-888.247130,9548.656652
819.775817,919.314598,-444.123565,9622.677246
819.776133,1685.410096,-0.000000,9178.553681
819.776449,1532.190996,888.247130,9474.636058
819.776765,-153.219100,1406.391290,8808.450710
819.777080,536.266849,-592.164754,9178.553681
819.777396,842.705048,-888.247130,9474.636058
819.777712,1149.143247,-148.041188,9844.739029
819.778027,-459.657299,-370.102971,9326.594869
819.778343,-383.047749,-1184.329507,10066.800811
819.778659,-383.047749,-1036.288319,10584.944971
819.778974,612.876398,-370.102971,10955.047942
819.779290,153.219100,666.185348,10362.883188
819.779606,-1072.533697,962.267725,9622.677246
819.779922,-689.485948,-518.144159,9918.759623
819.780237,612.876398,-740.205942,9918.759623
819.780553,995.924147,-518.144159,10214.842000
819.780869,536.266849,-0.000000,10288.862594
819.781184,0.000000,444.123565,9400.615463
819.781500,229.828649,-444.123565,8882.471304
819.781816,612.876398,-0.000000,9030.512492
819.782131,919.314598,-370.102971,10362.883188
819.782447,229.828649,-0.000000,10362.883188
819.782763,-153.219100,-0.000000,9178.553681
819.783078,0.000000,-1554.432478,8882.471304
819.783394,1455.581446,-1332.370696,9030.512492
819.783710,1302.362347,-1184.329507,9622.677246
819.784026,-536.266849,-814.226536,9844.739029
819.784341,-459.657299,-1184.329507,9474.636058
819.784657,-153.219100,-1628.453072,9030.512492
819.784973,0.000000,-1110.308913,10214.842000
819.785288,-536.266849,-444.123565,9622.677246
819.785604,-842.705048,-592.164754,9622.677246
819.785920,-306.438199,-1110.308913,9252.574275
819.786235,-306.438199,-1110.308913,9326.594869
819.786551,1072.533697,-370.102971,9770.718434
819.786867,536.266849,814.226536,8956.491898
819.787182,229.828649,1184.329507,8364.327145
819.787498,919.314598,-222.061783,8586.388927
819.787814,1378.971896,-518.144159,8956.491898
819.788130,1378.971896,222.061783,9844.739029
819.788445,612.876398,592.164754,9918.759623
819.788761,459.657299,370.102971,8956.491898
819.789077,612.876398,296.082377,7920.203579
819.789392,1532.190996,962.267725,9252.574275
819.789708,1378.971896,1332.370696,9696.697840
819.790024,383.047749,1110.308913,9178.553681
819.790339,766.095498,888.247130,8734.430116
819.790655,459.657299,-296.082377,8586.388927
819.790971,919.314598,-0.000000,10584.944971
819.791286,459.657299,888.247130,8956.491898
819.791602,0.000000,666.185348,8586.388927
819.791918,76.609550,-296.082377,9770.718434
819.792234,536.266849,-148.041188,8808.450710
819.792549,1225.752797,518.144159,9992.780217
819.792865,383.047749,814.226536,8734.430116
819.793181,0.000000,-0.000000,10066.800811
819.793496,0.000000,-962.267725,9178.553681
819.793812,842.705048,-518.144159,9918.759623
819.794128,229.828649,666.185348,10214.842000
819.794443,0.000000,740.205942,9992.780217
819.794759,229.828649,-370.102971,9548.656652
819.795075,76.609550,-296.082377,9104.533087
819.795391,919.314598,-0.000000,10288.862594
819.795706,1225.752797,-444.123565,9696.697840
819.796022,306.438199,-0.000000,10362.883188
819.796338,1302.362347,-592.164754,9918.759623
819.796653,1149.143247,222.061783,8586.388927
819.796969,1838.629195,1406.391290,9548.656652
819.797285,689.485948,666.185348,9918.759623
819.797600,459.657299,-0.000000,10214.842000
819.797916,229.828649,-74.020594,9030.512492
819.798232,306.438199,-222.061783,9104.533087
819.798547,1072.533697,-666.185348,10955.047942
819.798863,-153.219100,-222.061783,10436.903782
819.799179,-383.047749,-518.144159,9992.780217
819.799495,-229.828649,-444.123565,9474.636058
819.799810,306.438199,222.061783,9548.656652
819.800126,383.047749,444.123565,10140.821405
819.800442,-383.047749,370.102971,9474.636058
819.800758,153.219100,-1036.288319,10362.883188
819.801074,306.438199,-1110.308913,9474.636058
819.801389,1608.800546,-444.123565,9252.574275
819.801705,842.705048,-0.000000,9474.636058
819.802021,383.047749,296.082377,9400.615463
819.802337,919.314598,-370.102971,8438.347739
819.802652,842.705048,-370.102971,8956.491898
819.802968,919.314598,814.226536,10510.924376
819.803284,0.000000,-0.000000,10510.924376
819.803600,0.000000,222.061783,8956.491898
819.803915,0.000000,-444.123565,9178.553681
819.804231,842.705048,-1110.308913,9770.718434
819.804547,919.314598,-0.000000,9474.636058
819.804863,-306.438199,-74.020594,9474.636058
819.805179,-383.047749,-1036.288319,9104.533087
819.805494,229.828649,-1110.308913,9178.553681
819.805810,306.438199,-592.164754,9770.718434
819.806126,229.828649,518.144159,9474.636058
819.806442,-459.657299,666.185348,9178.553681
819.806757,0.000000,-222.061783,8660.409521
819.807073,153.219100,-814.226536,8364.327145
819.807389,919.314598,-962.267725,9770.718434
819.807705,-459.657299,-814.226536,9474.636058
819.808020,-689.485948,-1036.288319,9918.759623
819.808336,0.000000,-1406.391290,9030.512492
819.808652,919.314598,-1480.411884,9400.615463
819.808968,229.828649,-1332.370696,10510.924376
819.809284,-383.047749,296.082377,9622.677246
819.809599,-689.485948,-148.041188,8882.471304
819.809915,0.000000,-518.144159,7994.224174
819.810231,1225.752797,-666.185348,9400.615463
819.810547,1072.533697,-370.102971,9030.512492
819.810862,229.828649,222.061783,8216.285956
819.811178,76.609550,-1406.391290,9400.615463
819.811494,459.657299,-2442.679609,9400.615463
819.811810,689.485948,-1702.473667,9992.780217
819.812125,153.219100,-296.082377,9918.759623
819.812441,-153.219100,-518.144159,9474.636058
819.812757,0.000000,-740.205942,9844.739029
819.813073,1072.533697,-222.061783,9252.574275
819.813389,1838.629195,-0.000000,9770.718434
819.813704,459.657299,296.082377,10362.883188
819.814020,612.876398,-74.020594,8808.450710
819.814336,1225.752797,-0.000000,8142.265362
819.814652,1532.190996,-518.144159,9770.718434
819.814967,2068.457845,-222.061783,10436.903782
819.815283,842.705048,962.267725,9178.553681
819.815599,536.266849,-222.061783,9252.574275
819.815915,995.924147,-592.164754,9474.636058
819.816230,2451.505594,-0.000000,9992.780217
819.816546,1991.848295,592.164754,9400.615463
819.816862,536.266849,740.205942,10140.821405
819.817178,842.705048,-666.185348,9992.780217
819.817494,1149.143247,-74.020594,8808.450710
819.817809,1302.362347,370.102971,9992.780217
819.818125,459.657299,222.061783,10658.965565
819.818441,76.609550,518.144159,9474.636058
819.818757,383.047749,-0.000000,9400.615463
819.819072,995.924147,296.082377,9178.553681
819.819388,1378.971896,296.082377,9844.739029
819.819704,383.047749,518.144159,9252.574275
819.820020,612.876398,740.205942,9326.594869
819.820335,612.876398,-0.000000,8808.450710
819.820651,1225.752797,-0.000000,9474.636058
819.820967,153.219100,296.082377,9844.739029
819.821283,-306.438199,592.164754,9622.677246
819.821599,-459.657299,-0.000000,10214.842000
819.821914,-153.219100,370.102971,8586.388927
819.822230,153.219100,148.041188,9696.697840
819.822546,-76.609550,518.144159,9918.759623
819.822862,-1072.533697,-0.000000,9918.759623
819.823177,-536.266849,-592.164754,9474.636058
819.823493,76.609550,-74.020594,9104.533087
819.823809,383.047749,222.061783,10066.800811
819.824125,-536.266849,1406.391290,9474.636058
819.824440,-153.219100,296.082377,8808.450710
819.824756,153.219100,-296.082377,8512.368333
819.825072,689.485948,-0.000000,8586.388927
819.825388,689.485948,-222.061783,9474.636058
819.825704,0.000000,-0.000000,9252.574275
819.826019,-153.219100,-518.144159,9178.553681
819.826335,-153.219100,-740.205942,9178.553681
819.826651,689.485948,-0.000000,9548.656652
819.826967,153.219100,-0.000000,9770.718434
819.827282,-153.219100,-444.123565,9844.739029
819.827598,153.219100,-1850.514855,9104.533087
819.827914,459.657299,-740.205942,9030.512492
819.828230,1302.362347,-592.164754,9770.718434
819.828545,306.438199,-444.123565,9030.512492
819.828861,229.828649,-148.041188,9622.677246
819.829177,459.657299,-1110.308913,8956.491898
819.829493,995.924147,-518.144159,9326.594869
819.829809,919.314598,-222.061783,9844.739029
819.830124,0.000000,-370.102971,9104.533087
819.830440,153.219100,-740.205942,9474.636058
819.830756,766.095498,-962.267725,8808.450710
819.831072,1225.752797,-740.205942,9400.615463
819.831387,1225.752797,-74.020594,10807.006753
819.831703,153.219100,222.061783,9696.697840
819.832019,229.828649,-888.247130,9252.574275
819.832335,689.485948,-666.185348,9474.636058
819.832650,1302.362347,-148.041188,10140.821405
819.832966,612.876398,222.061783,10807.006753
819.833282,229.828649,444.123565,9696.697840
819.833598,459.657299,-518.144159,8512.368333
819.833914,1302.362347,-296.082377,9474.636058
819.834229,1915.238745,-74.020594,9474.636058
819.834545,1072.533697,148.041188,9104.533087
819.834861,0.000000,-518.144159,9252.574275
819.835177,0.000000,-1258.350101,9326.594869
819.835492,153.219100,-1036.288319,10288.862594
819.835808,383.047749,-74.020594,10732.986159
819.836124,-612.876398,444.123565,9400.615463
819.836440,-229.828649,-74.020594,9548.656652
819.836755,306.438199,-518.144159,8808.450710
819.837071,1072.533697,-518.144159,9696.697840
819.837387,1149.143247,-74.020594,9992.780217
819.837703,153.219100,-148.041188,9030.512492
819.838019,0.000000,-1406.391290,9326.594869
819.838334,612.876398,-444.123565,8734.430116
819.838650,1608.800546,-0.000000,9844.739029
819.838966,536.266849,-0.000000,10288.862594
819.839282,0.000000,148.041188,8808.450710
819.839597,-459.657299,-0.000000,8512.368333
819.839913,766.095498,-370.102971,8068.244768
819.840229,1302.362347,-370.102971,9992.780217
819.840545,153.219100,-222.061783,10732.986159
819.840860,-536.266849,-296.082377,9474.636058
819.841176,-153.219100,-1258.350101,8290.306550
819.841492,229.828649,-592.164754,10362.883188
819.841808,383.047749,-222.061783,10658.965565
819.842124,-842.705048,-0.000000,9474.636058
819.842439,-383.047749,-0.000000,9104.533087
819.842755,612.876398,-0.000000,8290.306550
819.843071,995.924147,-222.061783,9178.553681
819.843387,766.095498,-370.102971,9918.759623
819.843702,-229.828649,-0.000000,9178.553681
819.844018,-153.219100,-518.144159,8808.450710
819.844334,306.438199,-666.185348,9252.574275
819.844650,229.828649,-518.144159,10436.903782
819.844966,-459.657299,518.144159,10288.862594
819.845281,-383.047749,-0.000000,9326.594869
819.845597,-459.657299,-296.082377,8808.450710
819.845913,306.438199,-0.000000,10140.821405
819.846229,766.095498,-370.102971,10658.965565
819.846544,-306.438199,1258.350101,8956.491898
819.846860,229.828649,814.226536,8512.368333
819.847176,459.657299,-518.144159,9030.512492
819.847492,1378.971896,-0.000000,9992.780217
819.847807,766.095498,222.061783,10510.924376
819.848123,0.000000,222.061783,9326.594869
819.848439,383.047749,-222.061783,10066.800811
819.848755,919.314598,-444.123565,9696.697840
819.849071,1225.752797,666.185348,9104.533087
819.849386,842.705048,1258.350101,9400.615463
819.849702,76.609550,-0.000000,9622.677246
819.850018,383.047749,-666.185348,9326.594869
819.850334,459.657299,-740.205942,9770.718434
819.850649,766.095498,-518.144159,10658.965565
819.850965,306.438199,962.267725,9770.718434
819.851281,229.828649,296.082377,9178.553681
819.851597,229.828649,-370.102971,9030.512492
819.851912,1072.533697,-0.000000,9992.780217
819.852228,995.924147,592.164754,9548.656652
819.852544,0.000000,-0.000000,8956.491898
