#time,accel_x,accel_y,accel_z
1072.904151,612.876398,-0.000000,9474.636058
1072.904467,229.828649,-0.000000,9474.636058
1072.904783,383.047749,-0.000000,9474.636058
1072.905099,153.219100,-0.000000,9474.636058
1072.905414,612.876398,-222.061783,9548.656652
1072.905730,383.047749,-370.102971,9548.656652
1072.906046,383.047749,-222.061783,9400.615463
1072.906362,383.047749,-222.061783,9474.636058
1072.906678,383.047749,-74.020594,9474.636058
1072.906993,995.924147,-296.082377,9326.594869
1072.907309,766.095498,-296.082377,9252.574275
1072.907625,153.219100,-444.123565,9474.636058
1072.907941,383.047749,-74.020594,9474.636058
1072.908257,229.828649,-296.082377,9548.656652
1072.908572,383.047749,-222.061783,9474.636058
1072.908888,612.876398,-0.000000,9474.636058
1072.909204,383.047749,296.082377,9400.615463
1072.909520,536.266849,148.041188,9474.636058
1072.909836,536.266849,370.102971,9400.615463
1072.910151,536.266849,666.185348,9400.615463
1072.910467,1685.410096,370.102971,9178.553681
1072.910783,383.047749,370.102971,9400.615463
1072.911099,459.657299,148.041188,8956.491898
1072.911415,459.657299,-0.000000,9400.615463
1072.911730,612.876398,-0.000000,9474.636058
1072.912046,306.438199,-0.000000,9548.656652
1072.912362,459.657299,370.102971,9474.636058
1072.912678,612.876398,370.102971,9548.656652
1072.912994,536.266849,444.123565,9474.636058
1072.913309,306.438199,962.267725,9326.594869
1072.913625,766.095498,740.205942,9178.553681
1072.913941,229.828649,666.185348,9400.615463
1072.914257,76.609550,814.226536,9548.656652
1072.914573,229.828649,1036.288319,9252.574275
1072.914888,229.828649,592.164754,9326.594869
1072.915204,306.438199,740.205942,9844.739029
1072.915520,-306.438199,1036.288319,9474.636058
1072.915836,-536.266849,1110.308913,9326.594869
1072.916151,-76.609550,1184.329507,9474.636058
1072.916467,-459.657299,1258.350101,9252.574275
1072.916783,-842.705048,1184.329507,9104.533087
1072.917099,-1072.533697,1480.411884,9400.615463
1072.917415,-1225.752797,1480.411884,9326.594869
1072.917730,-1685.410096,1406.391290,9548.656652
1072.918046,-1532.190996,1406.391290,9474.636058
1072.918362,-2068.457845,1258.350101,9474.636058
1072.918678,-2145.067394,1258.350101,9770.718434
1072.918994,-1991.848295,1480.411884,9696.697840
1072.919309,-2374.896044,1406.391290,9696.697840
1072.919625,-2298.286494,1776.494261,9844.739029
1072.919941,-1608.800546,1924.535449,9548.656652
1072.920257,-2145.067394,1850.514855,9474.636058
1072.920573,-1685.410096,1850.514855,9400.615463
1072.920888,-1762.019645,1776.494261,9252.574275
1072.921204,-1762.019645,1850.514855,9474.636058
1072.921520,-1685.410096,1850.514855,9622.677246
1072.921836,-1608.800546,1776.494261,9770.718434
1072.922152,-1455.581446,1776.494261,9696.697840
1072.922467,-1608.800546,1998.556043,9400.615463
1072.922783,-1302.362347,1850.514855,9400.615463
1072.923099,-1225.752797,2442.679609,9474.636058
1072.923415,-1455.581446,2220.617826,9252.574275
1072.923731,-1225.752797,2220.617826,9474.636058
1072.924046,-1455.581446,2146.597232,9400.615463
1072.924362,-1838.629195,1628.453072,9252.574275
1072.924678,-1915.238745,1554.432478,9548.656652
1072.924994,-2221.676944,1184.329507,9844.739029
1072.925310,-2221.676944,1036.288319,9844.739029
1072.925625,-2221.676944,1110.308913,9992.780217
1072.925941,-2145.067394,1258.350101,10140.821405
1072.926257,-1991.848295,1258.350101,9548.656652
1072.926573,-2068.457845,1406.391290,9770.718434
1072.926889,-1838.629195,1480.411884,9918.759623
1072.927204,-1608.800546,962.267725,9696.697840
1072.927520,-1532.190996,1480.411884,9474.636058
1072.927836,-1608.800546,1628.453072,9400.615463
1072.928152,-1685.410096,1776.494261,9252.574275
1072.928468,-1762.019645,1850.514855,8956.491898
1072.928783,-1149.143247,2294.638420,8882.471304
1072.929099,-2145.067394,2294.638420,8882.471304
1072.929415,-2451.505594,2294.638420,8956.491898
1072.929731,-2374.896044,1998.556043,9252.574275
1072.930046,-2757.943793,1628.453072,9474.636058
1072.930362,-2528.115143,1184.329507,9548.656652
1072.930678,-2528.115143,592.164754,9992.780217
1072.930994,-2451.505594,-0.000000,10288.862594
1072.931310,-2221.676944,-0.000000,10362.883188
1072.931625,-1455.581446,148.041188,10140.821405
1072.931941,-766.095498,740.205942,9696.697840
1072.932257,-842.705048,1702.473667,9474.636058
1072.932573,0.000000,2146.597232,8882.471304
1072.932889,459.657299,2442.679609,8438.347739
1072.933204,612.876398,3034.844362,8142.265362
1072.933520,229.828649,3182.885551,8142.265362
1072.933836,306.438199,2812.782580,7698.141797
1072.934152,229.828649,2886.803174,7920.203579
1072.934468,-383.047749,2738.761985,8142.265362
1072.934783,-1532.190996,2220.617826,8660.409521
1072.935099,-2451.505594,1184.329507,9252.574275
1072.935415,-3064.381992,1332.370696,9770.718434
1072.935731,-3753.867940,1110.308913,10214.842000
1072.936047,-4213.525239,518.144159,10584.944971
1072.936362,-4673.182538,-0.000000,11251.130318
1072.936678,-3677.258390,-0.000000,11325.150913
1072.936994,-2911.162892,-0.000000,10881.027347
1072.937310,-2145.067394,444.123565,10362.883188
1072.937626,-1072.533697,962.267725,9696.697840
1072.937941,-459.657299,1110.308913,9474.636058
1072.938257,76.609550,1924.535449,8734.430116
1072.938573,842.705048,2960.823768,8290.306550
1072.938889,919.314598,4145.153275,7920.203579
1072.939205,459.657299,4589.276840,7624.121203
1072.939520,612.876398,4737.318029,7476.080014
1072.939836,-536.266849,4515.256246,7254.018232
1072.940152,-1532.190996,3701.029710,7920.203579
1072.940468,-2451.505594,2442.679609,9178.553681
1072.940784,-3600.648841,1184.329507,10140.821405
1072.941099,-4519.963438,-0.000000,11621.233289
1072.941415,-5515.887586,-740.205942,12287.418637
1072.941731,-5209.449386,-1036.288319,12435.459826
1072.942047,-4903.011187,-1406.391290,12435.459826
1072.942363,-4366.744339,-1184.329507,12361.439231
1072.942678,-3064.381992,-296.082377,11621.233289
1072.942994,-1608.800546,1184.329507,9918.759623
1072.943310,0.000000,2960.823768,8808.450710
1072.943626,766.095498,3997.112087,7550.100608
1072.943941,1915.238745,5107.421000,6365.771101
1072.944257,1762.019645,6069.688724,5921.647536
1072.944573,1455.581446,5773.606348,6513.812290
1072.944889,1072.533697,4737.318029,7031.956449
1072.945205,76.609550,2812.782580,7994.224174
1072.945520,-1762.019645,1110.308913,9252.574275
1072.945836,-3217.601092,-518.144159,11251.130318
1072.946152,-4060.306139,-1924.535449,11917.315666
1072.946468,-4519.963438,-1480.411884,12435.459826
1072.946784,-4366.744339,-888.247130,11991.336260
1072.947099,-4213.525239,-444.123565,11177.109724
1072.947415,-3677.258390,370.102971,10658.965565
1072.947731,-3064.381992,962.267725,9622.677246
1072.948047,-1378.971896,2220.617826,8956.491898
1072.948363,-995.924147,3182.885551,8512.368333
1072.948678,-153.219100,3108.864956,8142.265362
1072.948994,0.000000,3182.885551,8068.244768
1072.949310,153.219100,2442.679609,7846.182985
1072.949626,306.438199,2072.576638,8290.306550
1072.949942,76.609550,1036.288319,8734.430116
1072.950257,-306.438199,518.144159,9252.574275
1072.950573,-1378.971896,666.185348,9622.677246
1072.950889,-1608.800546,518.144159,9918.759623
1072.951205,-1991.848295,666.185348,10214.842000
1072.951521,-2451.505594,370.102971,9696.697840
1072.951836,-2681.334243,518.144159,9918.759623
1072.952152,-2757.943793,-74.020594,9918.759623
1072.952468,-2757.943793,-740.205942,10140.821405
1072.952784,-1608.800546,-888.247130,10066.800811
1072.953100,-1608.800546,-296.082377,9400.615463
1072.953415,-1532.190996,148.041188,9178.553681
1072.953731,-689.485948,444.123565,9178.553681
1072.954047,0.000000,592.164754,9104.533087
1072.954363,76.609550,1332.370696,9474.636058
1072.954679,0.000000,1332.370696,9326.594869
1072.954994,153.219100,962.267725,8882.471304
1072.955310,842.705048,-0.000000,9400.615463
1072.955626,1072.533697,-444.123565,9400.615463
1072.955942,1378.971896,-888.247130,9474.636058
1072.956258,1378.971896,-444.123565,9030.512492
1072.956573,842.705048,-370.102971,8808.450710
1072.956889,1378.971896,-370.102971,9104.533087
1072.957205,1072.533697,740.205942,9326.594869
1072.957521,612.876398,1332.370696,9400.615463
1072.957837,612.876398,740.205942,9400.615463
1072.958152,689.485948,518.144159,9770.718434
1072.958468,689.485948,296.082377,9622.677246
1072.958784,229.828649,444.123565,9326.594869
1072.959100,612.876398,-148.041188,9400.615463
1072.959415,306.438199,-518.144159,9474.636058
1072.959731,-306.438199,-444.123565,9770.718434
1072.960047,-766.095498,-222.061783,9918.759623
1072.960363,-1378.971896,-296.082377,10214.842000
1072.960679,-766.095498,-592.164754,10510.924376
1072.960994,-306.438199,-296.082377,10436.903782
1072.961310,0.000000,-518.144159,9548.656652
1072.961626,459.657299,-74.020594,9178.553681
1072.961942,1378.971896,-0.000000,8956.491898
1072.962258,1915.238745,518.144159,8734.430116
1072.962573,1532.190996,444.123565,8808.450710
1072.962889,1532.190996,296.082377,9178.553681
1072.963205,1455.581446,-0.000000,9474.636058
1072.963521,1608.800546,-0.000000,9548.656652
1072.963837,1225.752797,222.061783,9400.615463
1072.964152,536.266849,296.082377,9104.533087
1072.964468,995.924147,518.144159,9178.553681
1072.964784,1149.143247,740.205942,9474.636058
1072.965100,995.924147,370.102971,9770.718434
1072.965416,-306.438199,370.102971,9696.697840
1072.965731,0.000000,-518.144159,9992.780217
1072.966047,-459.657299,-888.247130,10658.965565
1072.966363,-383.047749,-740.205942,9992.780217
1072.966679,-459.657299,-518.144159,9844.739029
1072.966995,-229.828649,-444.123565,9474.636058
1072.967310,153.219100,-222.061783,9104.533087
1072.967626,0.000000,888.247130,8808.450710
1072.967942,0.000000,740.205942,9252.574275
1072.968258,229.828649,592.164754,9548.656652
1072.968573,536.266849,-74.020594,9548.656652
1072.968889,229.828649,-0.000000,9474.636058
1072.969205,306.438199,-0.000000,9252.574275
1072.969521,459.657299,-0.000000,9178.553681
1072.969837,689.485948,-0.000000,9178.553681
1072.970152,459.657299,592.164754,8882.471304
1072.970468,153.219100,666.185348,9252.574275
1072.970784,76.609550,666.185348,9548.656652
1072.971100,383.047749,222.061783,9844.739029
1072.971416,0.000000,-370.102971,9474.636058
1072.971731,0.000000,-444.123565,9622.677246
1072.972047,306.438199,-592.164754,9918.759623
1072.972363,536.266849,-1036.288319,9992.780217
1072.972679,0.000000,-518.144159,10140.821405
1072.972995,153.219100,-74.020594,9992.780217
1072.973310,459.657299,-0.000000,10214.842000
1072.973626,995.924147,-0.000000,9548.656652
1072.973942,842.705048,444.123565,9474.636058
1072.974258,1608.800546,148.041188,9178.553681
1072.974574,1762.019645,-370.102971,9326.594869
1072.974889,1991.848295,-148.041188,9252.574275
1072.975205,1991.848295,-74.020594,8808.450710
1072.975521,1762.019645,296.082377,8882.471304
1072.975837,2068.457845,74.020594,8882.471304
1072.976152,1532.190996,-222.061783,9474.636058
1072.976468,1149.143247,-222.061783,9252.574275
1072.976784,612.876398,-592.164754,9474.636058
1072.977100,229.828649,-888.247130,9548.656652
1072.977416,-153.219100,-962.267725,9844.739029
1072.977731,-536.266849,-1258.350101,9844.739029
1072.978047,-995.924147,-1036.288319,10288.862594
1072.978363,-536.266849,-1110.308913,10510.924376
1072.978679,-383.047749,-1110.308913,10066.800811
1072.978995,383.047749,-1184.329507,9696.697840
1072.979310,612.876398,-814.226536,9622.677246
1072.979626,919.314598,-518.144159,8660.409521
1072.979942,1378.971896,-296.082377,9104.533087
1072.980258,1915.238745,-148.041188,8734.430116
1072.980574,1302.362347,888.247130,9252.574275
1072.980889,1455.581446,740.205942,8882.471304
1072.981205,1455.581446,962.267725,8808.450710
1072.981521,1378.971896,888.247130,8734.430116
1072.981837,612.876398,296.082377,9030.512492
1072.982153,689.485948,-0.000000,8734.430116
1072.982468,383.047749,-370.102971,9104.533087
1072.982784,306.438199,-518.144159,9918.759623
1072.983100,-536.266849,-148.041188,9844.739029
1072.983416,-1072.533697,-444.123565,10214.842000
1072.983731,-919.314598,-592.164754,10584.944971
1072.984047,-536.266849,-444.123565,10288.862594
1072.984363,-459.657299,-222.061783,9918.759623
1072.984679,76.609550,-444.123565,9696.697840
1072.984995,383.047749,-444.123565,9104.533087
1072.985310,842.705048,-0.000000,8882.471304
1072.985626,766.095498,296.082377,9030.512492
1072.985942,766.095498,518.144159,9474.636058
1072.986258,919.314598,444.123565,8956.491898
1072.986574,1149.143247,592.164754,8882.471304
1072.986889,383.047749,740.205942,9030.512492
1072.987205,536.266849,-0.000000,9400.615463
1072.987521,612.876398,-296.082377,9474.636058
1072.987837,0.000000,-74.020594,9474.636058
1072.988153,0.000000,-518.144159,9844.739029
1072.988468,0.000000,-444.123565,10362.883188
1072.988784,0.000000,-740.205942,10436.903782
1072.989100,0.000000,-222.061783,9696.697840
1072.989416,-383.047749,-0.000000,9474.636058
1072.989732,76.609550,296.082377,9326.594869
1072.990047,229.828649,222.061783,9548.656652
1072.990363,0.000000,518.144159,9326.594869
1072.990679,0.000000,370.102971,9622.677246
1072.990995,-229.828649,444.123565,9696.697840
1072.991310,0.000000,222.061783,9622.677246
1072.991626,76.609550,-0.000000,9844.739029
1072.991942,-229.828649,-74.020594,9474.636058
1072.992258,76.609550,-0.000000,9474.636058
1072.992574,0.000000,-592.164754,9548.656652
1072.992889,76.609550,-0.000000,9548.656652
1072.993205,-153.219100,-0.000000,9474.636058
1072.993521,0.000000,-0.000000,9622.677246
1072.993837,842.705048,-0.000000,10066.800811
1072.994153,229.828649,-296.082377,9548.656652
1072.994468,689.485948,222.061783,9030.512492
1072.994784,842.705048,-0.000000,8734.430116
1072.995100,689.485948,-148.041188,9030.512492
1072.995416,1149.143247,-222.061783,8956.491898
1072.995732,536.266849,148.041188,9104.533087
1072.996047,536.266849,-0.000000,9696.697840
1072.996363,612.876398,-296.082377,9696.697840
1072.996679,536.266849,-296.082377,9400.615463
1072.996995,306.438199,-0.000000,9474.636058
1072.997311,306.438199,-666.185348,9474.636058
1072.997626,766.095498,-814.226536,9696.697840
1072.997942,919.314598,-740.205942,9400.615463
1072.998258,383.047749,-444.123565,9326.594869
1072.998574,1149.143247,-666.185348,9696.697840
1072.998889,1532.190996,-740.205942,9770.718434
1072.999205,1378.971896,-222.061783,9178.553681
1072.999521,1149.143247,-0.000000,8956.491898
1072.999837,1608.800546,-518.144159,9178.553681
1073.000153,1532.190996,-666.185348,9104.533087
1073.000468,1225.752797,-444.123565,9030.512492
1073.000784,689.485948,-222.061783,9548.656652
1073.001100,919.314598,-296.082377,9918.759623
1073.001416,766.095498,-740.205942,9622.677246
1073.001732,383.047749,-518.144159,9400.615463
1073.002047,76.609550,-666.185348,9622.677246
1073.002363,689.485948,-740.205942,9252.574275
1073.002679,383.047749,-962.267725,9474.636058
1073.002995,0.000000,-1036.288319,9548.656652
1073.003311,-229.828649,-1110.308913,10066.800811
1073.003626,153.219100,-1110.308913,10362.883188
1073.003942,229.828649,-592.164754,9844.739029
1073.004258,229.828649,-370.102971,9474.636058
1073.004574,1302.362347,-74.020594,9400.615463
1073.004890,1532.190996,-148.041188,8586.388927
1073.005205,1302.362347,-0.000000,8808.450710
1073.005521,995.924147,296.082377,8660.409521
1073.005837,383.047749,296.082377,9104.533087
1073.006153,76.609550,-74.020594,9770.718434
1073.006469,153.219100,-74.020594,9918.759623
1073.006784,0.000000,-0.000000,9400.615463
1073.007100,-459.657299,-148.041188,9252.574275
1073.007416,0.000000,-666.185348,9696.697840
1073.007732,153.219100,-444.123565,9844.739029
1073.008047,0.000000,-592.164754,9474.636058
1073.008363,-306.438199,-296.082377,9918.759623
1073.008679,0.000000,-296.082377,9992.780217
1073.008995,383.047749,-370.102971,9696.697840
1073.009311,459.657299,-0.000000,9104.533087
1073.009626,229.828649,370.102971,8956.491898
1073.009942,842.705048,222.061783,9030.512492
1073.010258,995.924147,-0.000000,9104.533087
1073.010574,459.657299,444.123565,9030.512492
1073.010890,536.266849,-0.000000,8956.491898
1073.011205,536.266849,74.020594,9844.739029
1073.011521,766.095498,-0.000000,10140.821405
1073.011837,612.876398,296.082377,9178.553681
1073.012153,229.828649,-0.000000,9252.574275
1073.012469,0.000000,-370.102971,9770.718434
1073.012784,229.828649,-592.164754,9992.780217
1073.013100,306.438199,-0.000000,9844.739029
1073.013416,0.000000,222.061783,9474.636058
1073.013732,229.828649,-0.000000,10066.800811
1073.014048,459.657299,-148.041188,9844.739029
1073.014363,383.047749,518.144159,9400.615463
1073.014679,842.705048,444.123565,9326.594869
1073.014995,995.924147,-0.000000,9400.615463
1073.015311,1225.752797,592.164754,9326.594869
1073.015626,766.095498,444.123565,9104.533087
1073.015942,536.266849,888.247130,9474.636058
1073.016258,306.438199,-0.000000,9622.677246
1073.016574,459.657299,370.102971,9696.697840
1073.016890,383.047749,-0.000000,9252.574275
1073.017205,-459.657299,-444.123565,9696.697840
1073.017521,383.047749,-0.000000,9252.574275
1073.017837,306.438199,-592.164754,9178.553681
1073.018153,0.000000,-592.164754,9918.759623
1073.018469,-229.828649,-592.164754,10066.800811
1073.018784,0.000000,-444.123565,9992.780217
1073.019100,229.828649,-370.102971,10362.883188
1073.019416,0.000000,-74.020594,9844.739029
1073.019732,153.219100,-0.000000,9178.553681
1073.020048,612.876398,-0.000000,9474.636058
1073.020363,612.876398,-0.000000,8956.491898
1073.020679,536.266849,148.041188,9474.636058
1073.020995,842.705048,-74.020594,9178.553681
1073.021311,612.876398,-148.041188,9474.636058
1073.021627,842.705048,-0.000000,9918.759623
1073.021942,842.705048,-666.185348,9474.636058
1073.022258,919.314598,-666.185348,9252.574275
1073.022574,842.705048,-518.144159,9622.677246
1073.022890,1762.019645,-740.205942,9474.636058
1073.023205,689.485948,-666.185348,9104.533087
1073.023521,229.828649,-592.164754,10214.842000
1073.023837,689.485948,-740.205942,10066.800811
1073.024153,689.485948,-518.144159,9844.739029
1073.024469,383.047749,-592.164754,9696.697840
1073.024784,612.876398,-814.226536,9400.615463
1073.025100,1149.143247,-1036.288319,9400.615463
1073.025416,1225.752797,-962.267725,9104.533087
1073.025732,612.876398,-666.185348,8882.471304
1073.026048,766.095498,-666.185348,9474.636058
1073.026363,689.485948,-888.247130,9548.656652
1073.026679,689.485948,-518.144159,9548.656652
1073.026995,459.657299,-296.082377,8882.471304
1073.027311,459.657299,-740.205942,8660.409521
1073.027627,153.219100,-1258.350101,9178.553681
1073.027942,766.095498,-1406.391290,9400.615463
1073.028258,383.047749,-1184.329507,9252.574275
1073.028574,0.000000,-1332.370696,9474.636058
1073.028890,76.609550,-1184.329507,9918.759623
1073.029206,306.438199,-814.226536,9770.718434
1073.029521,153.219100,-148.041188,8808.450710
1073.029837,76.609550,-0.000000,8882.471304
1073.030153,383.047749,-148.041188,9326.594869
1073.030469,689.485948,-666.185348,9104.533087
1073.030784,383.047749,-296.082377,8586.388927
1073.031100,383.047749,-0.000000,8956.491898
1073.031416,76.609550,-222.061783,9474.636058
1073.031732,383.047749,-74.020594,9252.574275
1073.032048,76.609550,-666.185348,9474.636058
1073.032363,-229.828649,-0.000000,9326.594869
1073.032679,229.828649,-74.020594,9548.656652
1073.032995,0.000000,-0.000000,9030.512492
1073.033311,0.000000,222.061783,9252.574275
1073.033627,-1072.533697,148.041188,9622.677246
1073.033942,536.266849,-0.000000,10362.883188
1073.034258,919.314598,444.123565,9326.594869
1073.034574,919.314598,740.205942,9104.533087
1073.034890,995.924147,1036.288319,9030.512492
1073.035206,1608.800546,666.185348,8882.471304
1073.035521,1455.581446,888.247130,8586.388927
1073.035837,919.314598,1036.288319,9104.533087
1073.036153,153.219100,592.164754,9696.697840
1073.036469,0.000000,-0.000000,9992.780217
1073.036785,0.000000,222.061783,9992.780217
1073.037100,-229.828649,370.102971,10362.883188
1073.037416,-306.438199,-0.000000,10214.842000
1073.037732,0.000000,-0.000000,10214.842000
1073.038048,0.000000,518.144159,9696.697840
1073.038363,-229.828649,222.061783,10140.821405
1073.038679,0.000000,148.041188,10362.883188
1073.038995,229.828649,296.082377,10436.903782
1073.039311,306.438199,888.247130,10214.842000
1073.039627,612.876398,592.164754,9918.759623
1073.039942,689.485948,888.247130,9474.636058
1073.040258,1225.752797,1184.329507,9178.553681
1073.040574,1302.362347,1406.391290,9326.594869
1073.040890,1378.971896,1258.350101,8734.430116
1073.041206,1149.143247,814.226536,10066.800811
1073.041521,536.266849,222.061783,9918.759623
1073.041837,306.438199,-0.000000,10584.944971
1073.042153,0.000000,148.041188,10066.800811
1073.042469,-536.266849,-148.041188,9844.739029
1073.042785,-919.314598,-296.082377,10214.842000
1073.043100,-1149.143247,-148.041188,9992.780217
1073.043416,-1149.143247,-148.041188,9548.656652
1073.043732,-1302.362347,-370.102971,10362.883188
1073.044048,-1149.143247,-740.205942,10362.883188
1073.044364,-383.047749,-740.205942,9844.739029
1073.044679,-229.828649,-592.164754,9326.594869
1073.044995,-153.219100,-518.144159,9252.574275
1073.045311,612.876398,-370.102971,9178.553681
1073.045627,1149.143247,-222.061783,8364.327145
1073.045942,842.705048,-222.061783,8216.285956
1073.046258,1378.971896,-0.000000,8882.471304
1073.046574,1072.533697,-370.102971,8956.491898
1073.046890,1072.533697,-444.123565,9104.533087
1073.047206,1378.971896,-814.226536,9030.512492
1073.047521,1225.752797,-444.123565,8068.244768
1073.047837,1225.752797,-592.164754,8882.471304
1073.048153,1149.143247,-1184.329507,8882.471304
1073.048469,459.657299,-1036.288319,8808.450710
1073.048785,0.000000,-1258.350101,9474.636058
1073.049100,0.000000,-1998.556043,9844.739029
1073.049416,229.828649,-1776.494261,9918.759623
1073.049732,0.000000,-1332.370696,9178.553681
1073.050048,76.609550,-1258.350101,9104.533087
1073.050364,459.657299,-1406.391290,9326.594869
1073.050679,1149.143247,-1110.308913,9104.533087
1073.050995,689.485948,-666.185348,8808.450710
1073.051311,536.266849,-1036.288319,9104.533087
1073.051627,383.047749,-1628.453072,9696.697840
1073.051943,1149.143247,-1258.350101,9252.574275
1073.052258,919.314598,-518.144159,9252.574275
1073.052574,1072.533697,-0.000000,8290.306550
1073.052890,842.705048,-296.082377,8882.471304
1073.053206,1378.971896,-740.205942,8808.450710
1073.053521,612.876398,-666.185348,9400.615463
1073.053837,153.219100,-740.205942,9918.759623
1073.054153,383.047749,-1036.288319,10066.800811
1073.054469,536.266849,-592.164754,9918.759623
1073.054785,229.828649,-666.185348,10214.842000
1073.055100,0.000000,-370.102971,9548.656652
1073.055416,306.438199,-370.102971,9474.636058
1073.055732,76.609550,-296.082377,9696.697840
1073.056048,-153.219100,296.082377,9474.636058
1073.056364,306.438199,-74.020594,9252.574275
1073.056679,153.219100,222.061783,10214.842000
1073.056995,459.657299,-0.000000,10288.862594
1073.057311,689.485948,296.082377,9622.677246
1073.057627,689.485948,666.185348,9474.636058
1073.057943,536.266849,444.123565,9326.594869
1073.058258,1378.971896,444.123565,9400.615463
1073.058574,919.314598,888.247130,8956.491898
1073.058890,459.657299,592.164754,9844.739029
1073.059206,459.657299,-0.000000,10584.944971
1073.059522,689.485948,-0.000000,10288.862594
1073.059837,459.657299,740.205942,9252.574275
1073.060153,306.438199,592.164754,9622.677246
1073.060469,612.876398,222.061783,9400.615463
1073.060785,612.876398,296.082377,9474.636058
1073.061101,76.609550,592.164754,9178.553681
1073.061416,-153.219100,-222.061783,9992.780217
1073.061732,0.000000,-370.102971,10436.903782
1073.062048,153.219100,370.102971,10288.862594
1073.062364,153.219100,444.123565,9696.697840
1073.062679,76.609550,518.144159,9252.574275
1073.062995,383.047749,444.123565,9696.697840
1073.063311,689.485948,740.205942,8734.430116
1073.063627,383.047749,370.102971,9104.533087
1073.063942,229.828649,-0.000000,9622.677246
1073.064258,76.609550,-0.000000,9992.780217
1073.064574,459.657299,296.082377,9844.739029
1073.064889,229.828649,740.205942,9474.636058
1073.065205,229.828649,444.123565,9178.553681
1073.065521,306.438199,740.205942,9030.512492
1073.065836,306.438199,296.082377,9326.594869
1073.066152,-229.828649,-0.000000,9326.594869
1073.066468,-536.266849,444.123565,9770.718434
1073.066783,-306.438199,-0.000000,9548.656652
1073.067099,0.000000,-148.041188,9548.656652
1073.067415,-459.657299,148.041188,9548.656652
1073.067730,-383.047749,-0.000000,8956.491898
1073.068046,153.219100,-370.102971,9548.656652
1073.068362,0.000000,-962.267725,8882.471304
1073.068677,-306.438199,-74.020594,8808.450710
1073.068993,-459.657299,-518.144159,9474.636058
1073.069309,0.000000,-518.144159,9918.759623
1073.069624,383.047749,-222.061783,9622.677246
1073.069940,383.047749,-148.041188,8956.491898
1073.070256,612.876398,-296.082377,8956.491898
1073.070571,1302.362347,-740.205942,8882.471304
1073.070887,1302.362347,-740.205942,9030.512492
1073.071203,766.095498,-222.061783,8956.491898
1073.071518,766.095498,-518.144159,9622.677246
1073.071834,919.314598,-222.061783,9474.636058
1073.072150,1072.533697,-370.102971,9622.677246
1073.072465,612.876398,-740.205942,9844.739029
1073.072781,689.485948,-592.164754,9696.697840
1073.073097,689.485948,-814.226536,9104.533087
1073.073412,1072.533697,-1184.329507,9696.697840
1073.073728,842.705048,-1332.370696,9992.780217
1073.074044,689.485948,-1184.329507,9844.739029
1073.074359,1072.533697,-1184.329507,9992.780217
1073.074675,612.876398,-740.205942,10288.862594
1073.074991,1302.362347,-370.102971,9770.718434
1073.075306,919.314598,-296.082377,9400.615463
1073.075622,1532.190996,-814.226536,9474.636058
1073.075938,1149.143247,-1036.288319,9696.697840
1073.076253,1378.971896,-370.102971,9474.636058
1073.076569,1225.752797,-592.164754,9326.594869
1073.076885,1072.533697,-666.185348,10066.800811
1073.077200,1302.362347,-666.185348,9844.739029
1073.077516,1072.533697,-518.144159,9474.636058
1073.077832,766.095498,-0.000000,9252.574275
1073.078147,612.876398,-444.123565,9696.697840
1073.078463,536.266849,-518.144159,9252.574275
1073.078779,229.828649,-1110.308913,9548.656652
1073.079094,612.876398,-1258.350101,10362.883188
1073.079410,76.609550,-1258.350101,10362.883188
1073.079726,306.438199,-1036.288319,9844.739029
1073.080041,459.657299,-518.144159,9326.594869
1073.080357,689.485948,-0.000000,9030.512492
1073.080673,459.657299,-148.041188,8808.450710
1073.080988,919.314598,-222.061783,8882.471304
1073.081304,612.876398,-0.000000,8808.450710
1073.081620,229.828649,-148.041188,9326.594869
1073.081935,459.657299,-148.041188,9178.553681
1073.082251,306.438199,-296.082377,9030.512492
1073.082567,229.828649,-222.061783,8734.430116
1073.082882,76.609550,222.061783,8956.491898
1073.083198,229.828649,-444.123565,9104.533087
1073.083514,76.609550,-666.185348,9474.636058
1073.083829,0.000000,-370.102971,9178.553681
1073.084145,0.000000,-74.020594,9030.512492
1073.084461,76.609550,-148.041188,9696.697840
1073.084776,306.438199,222.061783,9696.697840
1073.085092,76.609550,518.144159,9178.553681
1073.085408,383.047749,518.144159,8956.491898
1073.085723,536.266849,370.102971,9104.533087
1073.086039,383.047749,518.144159,8882.471304
1073.086355,229.828649,444.123565,8956.491898
1073.086670,153.219100,296.082377,9252.574275
1073.086986,919.314598,444.123565,10362.883188
1073.087302,306.438199,444.123565,9696.697840
1073.087617,153.219100,740.205942,9548.656652
1073.087933,-229.828649,666.185348,9400.615463
1073.088249,383.047749,518.144159,9400.615463
1073.088564,459.657299,296.082377,9178.553681
1073.088880,229.828649,-0.000000,9992.780217
1073.089196,-229.828649,-0.000000,9844.739029
1073.089511,229.828649,-0.000000,10140.821405
1073.089827,306.438199,222.061783,10288.862594
1073.090143,76.609550,444.123565,9622.677246
1073.090458,306.438199,592.164754,9474.636058
1073.090774,383.047749,740.205942,9326.594869
1073.091090,383.047749,666.185348,9474.636058
1073.091405,459.657299,444.123565,9326.594869
1073.091721,-153.219100,444.123565,9622.677246
1073.092037,-383.047749,222.061783,10214.842000
1073.092352,-153.219100,-222.061783,10362.883188
1073.092668,-229.828649,-222.061783,9844.739029
1073.092984,0.000000,-518.144159,9918.759623
1073.093299,76.609550,-296.082377,9844.739029
1073.093615,306.438199,-370.102971,9770.718434
1073.093931,229.828649,-296.082377,9474.636058
1073.094247,0.000000,-74.020594,10066.800811
1073.094562,0.000000,-444.123565,9844.739029
1073.094878,689.485948,-74.020594,9622.677246
1073.095194,766.095498,-0.000000,9696.697840
1073.095509,383.047749,-0.000000,8882.471304
1073.095825,995.924147,-0.000000,9104.533087
1073.096141,842.705048,-296.082377,9696.697840
1073.096456,536.266849,-666.185348,9474.636058
1073.096772,536.266849,-444.123565,9548.656652
1073.097088,0.000000,-888.247130,10362.883188
1073.097403,306.438199,-888.247130,9992.780217
1073.097719,306.438199,-740.205942,9696.697840
1073.098035,229.828649,-592.164754,9252.574275
1073.098350,459.657299,-666.185348,9030.512492
1073.098666,1149.143247,-1110.308913,9178.553681
1073.098982,612.876398,-1184.329507,9326.594869
1073.099297,383.047749,-666.185348,9400.615463
1073.099613,1455.581446,-592.164754,9548.656652
1073.099929,1455.581446,-962.267725,9252.574275
1073.100244,1149.143247,-666.185348,8882.471304
1073.100560,1608.800546,-666.185348,8660.409521
1073.100876,1608.800546,-444.123565,9400.615463
1073.101191,1532.190996,-444.123565,8512.368333
1073.101507,1225.752797,-296.082377,8956.491898
1073.101823,842.705048,-518.144159,9104.533087
1073.102138,842.705048,-1036.288319,9696.697840
1073.102454,1072.533697,-814.226536,9548.656652
1073.102770,459.657299,-1110.308913,9474.636058
1073.103085,153.219100,-814.226536,9326.594869
1073.103401,536.266849,-1184.329507,9178.553681
1073.103717,459.657299,-1554.432478,9696.697840
1073.104032,306.438199,-1036.288319,9400.615463
1073.104348,229.828649,-1110.308913,9400.615463
1073.104664,153.219100,-1036.288319,9844.739029
1073.104979,766.095498,-1036.288319,9696.697840
1073.105295,689.485948,-296.082377,9178.553681
1073.105611,689.485948,444.123565,8734.430116
1073.105926,919.314598,592.164754,8660.409521
1073.106242,995.924147,-74.020594,8956.491898
1073.106558,383.047749,-296.082377,8586.388927
1073.106873,0.000000,-0.000000,8956.491898
1073.107189,0.000000,-370.102971,9992.780217
1073.107505,76.609550,-888.247130,9918.759623
1073.107820,-536.266849,-222.061783,9770.718434
1073.108136,-459.657299,-0.000000,9622.677246
1073.108452,0.000000,-444.123565,9474.636058
1073.108767,153.219100,-148.041188,9622.677246
1073.109083,76.609550,148.041188,9474.636058
1073.109399,0.000000,-444.123565,9696.697840
1073.109714,229.828649,-74.020594,10510.924376
1073.110030,766.095498,444.123565,9474.636058
1073.110346,689.485948,370.102971,8734.430116
1073.110661,459.657299,814.226536,9104.533087
1073.110977,995.924147,296.082377,9474.636058
1073.111293,766.095498,592.164754,9326.594869
1073.111608,459.657299,1036.288319,9104.533087
1073.111924,76.609550,962.267725,9696.697840
1073.112240,459.657299,444.123565,10066.800811
1073.112555,459.657299,740.205942,9844.739029
1073.112871,0.000000,-0.000000,9622.677246
1073.113187,-229.828649,370.102971,9400.615463
1073.113502,153.219100,-0.000000,9918.759623
1073.113818,383.047749,-148.041188,9548.656652
1073.114134,0.000000,296.082377,10066.800811
1073.114449,-536.266849,444.123565,9918.759623
1073.114765,76.609550,444.123565,10510.924376
1073.115081,459.657299,518.144159,9548.656652
1073.115396,0.000000,814.226536,9992.780217
1073.115712,766.095498,962.267725,9400.615463
1073.116028,536.266849,518.144159,9252.574275
1073.116343,689.485948,518.144159,9178.553681
1073.116659,0.000000,592.164754,9104.533087
1073.116975,0.000000,592.164754,9992.780217
1073.117290,0.000000,222.061783,9992.780217
1073.117606,-383.047749,592.164754,10066.800811
1073.117922,-306.438199,444.123565,9474.636058
1073.118237,-383.047749,444.123565,9548.656652
1073.118553,-153.219100,-222.061783,9548.656652
1073.118869,76.609550,-1110.308913,9992.780217
1073.119184,0.000000,-444.123565,9252.574275
1073.119500,-612.876398,-370.102971,9770.718434
1073.119816,153.219100,-666.185348,10510.924376
1073.120131,459.657299,-666.185348,9992.780217
1073.120447,306.438199,222.061783,9030.512492
1073.120763,536.266849,592.164754,8734.430116
1073.121078,1455.581446,444.123565,8882.471304
1073.121394,1685.410096,296.082377,8142.265362
1073.121710,1455.581446,296.082377,9178.553681
1073.122025,919.314598,-592.164754,9474.636058
1073.122341,995.924147,-888.247130,9474.636058
1073.122657,1072.533697,-814.226536,9622.677246
1073.122972,1072.533697,-1110.308913,9252.574275
1073.123288,995.924147,-962.267725,9326.594869
1073.123604,842.705048,-962.267725,9104.533087
1073.123919,919.314598,-814.226536,9326.594869
1073.124235,689.485948,-1258.350101,9326.594869
1073.124551,459.657299,-1258.350101,9548.656652
1073.124866,766.095498,-1184.329507,9696.697840
1073.125182,995.924147,-1554.432478,9918.759623
1073.125498,919.314598,-1406.391290,9178.553681
1073.125813,1302.362347,-666.185348,8956.491898
1073.126129,1762.019645,-814.226536,8660.409521
1073.126445,1838.629195,-888.247130,8882.471304
1073.126760,1149.143247,-592.164754,8660.409521
1073.127076,689.485948,-814.226536,9252.574275
1073.127392,919.314598,-1036.288319,10066.800811
1073.127707,919.314598,-814.226536,9770.718434
1073.128023,153.219100,-592.164754,9548.656652
1073.128339,612.876398,-666.185348,9178.553681
1073.128654,612.876398,-1406.391290,9548.656652
1073.128970,689.485948,-962.267725,9326.594869
1073.129286,383.047749,-888.247130,9548.656652
1073.129601,153.219100,-1184.329507,10214.842000
1073.129917,689.485948,-888.247130,10140.821405
1073.130233,383.047749,-592.164754,9696.697840
1073.130548,76.609550,-222.061783,9622.677246
1073.130864,229.828649,-222.061783,9622.677246
1073.131180,689.485948,-0.000000,8734.430116
1073.131495,842.705048,148.041188,9104.533087
1073.131811,153.219100,222.061783,9104.533087
1073.132127,153.219100,-0.000000,9622.677246
1073.132442,153.219100,-0.000000,9474.636058
1073.132758,306.438199,-370.102971,9400.615463
1073.133074,0.000000,-0.000000,9474.636058
1073.133389,0.000000,-148.041188,9548.656652
1073.133705,383.047749,-296.082377,9178.553681
1073.134021,153.219100,-148.041188,9474.636058
1073.134336,612.876398,-148.041188,9622.677246
1073.134652,229.828649,370.102971,9696.697840
1073.134968,306.438199,-0.000000,9474.636058
1073.135283,689.485948,-0.000000,9622.677246
1073.135599,459.657299,592.164754,9178.553681
1073.135915,842.705048,518.144159,9104.533087
1073.136231,689.485948,666.185348,8882.471304
1073.136546,612.876398,814.226536,9030.512492
1073.136862,0.000000,888.247130,9474.636058
1073.137178,153.219100,518.144159,9918.759623
1073.137493,383.047749,814.226536,9770.718434
1073.137809,0.000000,1110.308913,9844.739029
1073.138125,459.657299,740.205942,9474.636058
1073.138440,0.000000,814.226536,9326.594869
1073.138756,76.609550,370.102971,9252.574275
1073.139072,536.266849,-518.144159,9918.759623
1073.139387,306.438199,222.061783,9992.780217
1073.139703,0.000000,444.123565,9770.718434
1073.140019,306.438199,444.123565,9992.780217
1073.140334,919.314598,370.102971,9844.739029
1073.140650,536.266849,1110.308913,9178.553681
1073.140966,536.266849,962.267725,9252.574275
1073.141281,459.657299,1036.288319,9104.533087
1073.141597,689.485948,370.102971,8956.491898
1073.141913,689.485948,370.102971,8808.450710
1073.142228,0.000000,-0.000000,9770.718434
1073.142544,76.609550,-0.000000,10140.821405
1073.142860,0.000000,-148.041188,10066.800811
1073.143175,-229.828649,148.041188,9622.677246
1073.143491,-306.438199,-0.000000,9770.718434
1073.143807,0.000000,-0.000000,9622.677246
1073.144122,153.219100,-148.041188,9474.636058
1073.144438,0.000000,-592.164754,9696.697840
1073.144754,0.000000,-814.226536,9918.759623
1073.145069,76.609550,-592.164754,10214.842000
1073.145385,689.485948,-444.123565,10510.924376
1073.145701,766.095498,-148.041188,9548.656652
1073.146016,766.095498,222.061783,9030.512492
1073.146332,1149.143247,222.061783,8586.388927
1073.146648,766.095498,296.082377,8808.450710
1073.146963,1149.143247,-0.000000,9252.574275
1073.147279,536.266849,-518.144159,9622.677246
1073.147595,229.828649,-518.144159,9770.718434
1073.147910,766.095498,-444.123565,9696.697840
1073.148226,536.266849,-666.185348,9474.636058
1073.148542,306.438199,-666.185348,9696.697840
1073.148857,459.657299,-1036.288319,9548.656652
1073.149173,842.705048,-1036.288319,9474.636058
1073.149489,689.485948,-814.226536,9548.656652
1073.149804,383.047749,-1184.329507,9696.697840
1073.150120,306.438199,-1702.473667,9918.759623
1073.150436,689.485948,-1480.411884,10066.800811
1073.150751,536.266849,-962.267725,9474.636058
1073.151067,766.095498,-666.185348,8956.491898
1073.151383,1225.752797,-518.144159,8512.368333
1073.151698,1149.143247,-592.164754,8438.347739
1073.152014,1072.533697,-814.226536,9104.533087
1073.152330,919.314598,-1184.329507,9474.636058
1073.152645,459.657299,-1776.494261,9992.780217
1073.152961,612.876398,-1332.370696,9844.739029
1073.153277,459.657299,-1036.288319,9400.615463
1073.153592,229.828649,-1036.288319,9252.574275
1073.153908,612.876398,-888.247130,9104.533087
1073.154224,995.924147,-1258.350101,9178.553681
1073.154539,689.485948,-1184.329507,9326.594869
1073.154855,153.219100,-666.185348,9326.594869
1073.155171,536.266849,-1332.370696,9844.739029
1073.155486,1072.533697,-1480.411884,9622.677246
1073.155802,766.095498,-1036.288319,9548.656652
1073.156118,766.095498,-592.164754,9104.533087
1073.156433,1149.143247,-74.020594,8438.347739
1073.156749,1072.533697,-74.020594,8882.471304
1073.157065,229.828649,74.020594,8586.388927
1073.157380,153.219100,222.061783,9400.615463
1073.157696,0.000000,-0.000000,9548.656652
1073.158012,153.219100,-296.082377,9400.615463
1073.158327,76.609550,-666.185348,9548.656652
1073.158643,-229.828649,-370.102971,9252.574275
1073.158959,153.219100,-148.041188,9252.574275
1073.159274,229.828649,-296.082377,9770.718434
1073.159590,306.438199,222.061783,9474.636058
1073.159906,0.000000,296.082377,9770.718434
1073.160221,536.266849,-0.000000,10288.862594
1073.160537,919.314598,370.102971,9548.656652
1073.160853,842.705048,814.226536,9400.615463
1073.161168,919.314598,1184.329507,8808.450710
1073.161484,1302.362347,1554.432478,8882.471304
1073.161800,1378.971896,1406.391290,9178.553681
1073.162115,1072.533697,1110.308913,9178.553681
1073.162431,459.657299,1332.370696,9622.677246
1073.162747,306.438199,592.164754,10140.821405
1073.163062,536.266849,-0.000000,10140.821405
1073.163378,-306.438199,296.082377,10362.883188
1073.163694,-842.705048,518.144159,10066.800811
1073.164009,-306.438199,148.041188,9992.780217
1073.164325,-153.219100,370.102971,9992.780217
1073.164641,153.219100,518.144159,10510.924376
1073.164956,-306.438199,518.144159,9696.697840
1073.165272,0.000000,148.041188,10584.944971
1073.165588,612.876398,296.082377,10066.800811
1073.165903,383.047749,296.082377,9548.656652
1073.166219,153.219100,1184.329507,9622.677246
1073.166535,689.485948,518.144159,9178.553681
1073.166850,766.095498,666.185348,8956.491898
1073.167166,0.000000,222.061783,9622.677246
1073.167482,0.000000,222.061783,9918.759623
1073.167797,383.047749,592.164754,9696.697840
1073.168113,76.609550,222.061783,9844.739029
1073.168429,-153.219100,-222.061783,9696.697840
1073.168744,0.000000,-222.061783,9770.718434
1073.169060,0.000000,-666.185348,9400.615463
1073.169376,229.828649,-370.102971,9770.718434
1073.169691,-229.828649,-0.000000,10066.800811
1073.170007,-229.828649,-296.082377,9770.718434
1073.170323,-229.828649,-518.144159,9918.759623
1073.170638,229.828649,-444.123565,10140.821405
1073.170954,383.047749,-296.082377,9622.677246
1073.171270,383.047749,-74.020594,8882.471304
1073.171585,919.314598,-222.061783,9104.533087
1073.171901,1225.752797,-222.061783,8956.491898
1073.172217,766.095498,-0.000000,8882.471304
1073.172532,459.657299,-0.000000,9104.533087
1073.172848,459.657299,-222.061783,9178.553681
1073.173164,459.657299,-888.247130,9104.533087
1073.173479,306.438199,-1480.411884,9326.594869
1073.173795,306.438199,-1406.391290,9252.574275
1073.174111,536.266849,-1332.370696,9178.553681
1073.174426,995.924147,-1406.391290,8956.491898
1073.174742,766.095498,-962.267725,9104.533087
1073.175058,459.657299,-1036.288319,9252.574275
1073.175373,842.705048,-1110.308913,9770.718434
1073.175689,1225.752797,-1184.329507,9474.636058
1073.176005,1302.362347,-1036.288319,8808.450710
1073.176320,919.314598,-740.205942,9178.553681
1073.176636,1149.143247,-962.267725,8734.430116
1073.176952,1225.752797,-740.205942,8512.368333
1073.177267,766.095498,-814.226536,9030.512492
1073.177583,459.657299,-888.247130,9548.656652
1073.177899,689.485948,-888.247130,9548.656652
1073.178214,766.095498,-962.267725,9474.636058
1073.178530,306.438199,-962.267725,9548.656652
1073.178846,76.609550,-1110.308913,9474.636058
1073.179161,689.485948,-1258.350101,9326.594869
1073.179477,306.438199,-814.226536,9474.636058
1073.179793,383.047749,-444.123565,9548.656652
1073.180108,536.266849,-592.164754,10066.800811
1073.180424,0.000000,-592.164754,9696.697840
1073.180740,689.485948,-592.164754,10140.821405
1073.181055,612.876398,-740.205942,9474.636058
1073.181371,689.485948,-0.000000,8882.471304
1073.181687,1072.533697,-0.000000,9400.615463
1073.182002,689.485948,-0.000000,9178.553681
1073.182318,842.705048,444.123565,8660.409521
1073.182634,0.000000,296.082377,9474.636058
1073.182949,0.000000,-0.000000,10066.800811
1073.183265,383.047749,-444.123565,9770.718434
1073.183581,-153.219100,-370.102971,9548.656652
1073.183896,-153.219100,-74.020594,9770.718434
1073.184212,0.000000,-296.082377,9622.677246
1073.184528,383.047749,-0.000000,9474.636058
1073.184843,459.657299,-0.000000,10140.821405
1073.185159,-229.828649,-0.000000,9844.739029
1073.185475,306.438199,444.123565,9992.780217
1073.185790,612.876398,592.164754,9548.656652
1073.186106,766.095498,1036.288319,9474.636058
1073.186422,766.095498,222.061783,9400.615463
1073.186737,1225.752797,814.226536,8808.450710
1073.187053,1149.143247,1110.308913,9400.615463
1073.187369,1149.143247,1258.350101,9326.594869
1073.187684,842.705048,1184.329507,9104.533087
1073.188000,-153.219100,1036.288319,9622.677246
1073.188316,229.828649,962.267725,10066.800811
1073.188631,229.828649,814.226536,9474.636058
1073.188947,306.438199,518.144159,9474.636058
1073.189263,229.828649,-0.000000,9548.656652
1073.189578,76.609550,-0.000000,9622.677246
1073.189894,0.000000,-0.000000,9844.739029
1073.190210,-153.219100,148.041188,9548.656652
1073.190525,-153.219100,-0.000000,10584.944971
1073.190841,612.876398,-74.020594,10066.800811
1073.191157,536.266849,296.082377,9622.677246
1073.191472,229.828649,370.102971,9548.656652
1073.191788,842.705048,370.102971,9400.615463
1073.192104,1072.533697,518.144159,8512.368333
1073.192419,459.657299,666.185348,8586.388927
1073.192735,229.828649,518.144159,9400.615463
1073.193051,153.219100,-0.000000,9622.677246
1073.193366,153.219100,-0.000000,9474.636058
1073.193682,-153.219100,-74.020594,9474.636058
1073.193998,0.000000,-296.082377,9844.739029
1073.194313,-229.828649,-370.102971,9400.615463
1073.194629,0.000000,-370.102971,9178.553681
1073.194945,-153.219100,-1110.308913,9992.780217
1073.195260,-383.047749,-370.102971,9622.677246
1073.195576,-536.266849,-1110.308913,9992.780217
1073.195892,153.219100,-1036.288319,10140.821405
1073.196207,76.609550,-222.061783,9326.594869
1073.196523,-306.438199,-296.082377,9030.512492
1073.196839,766.095498,-0.000000,9178.553681
1073.197154,1225.752797,-444.123565,8882.471304
1073.197470,383.047749,-296.082377,8882.471304
1073.197786,229.828649,-370.102971,9326.594869
1073.198101,306.438199,-1184.329507,9696.697840
1073.198417,612.876398,-592.164754,9844.739029
1073.198733,536.266849,-0.000000,9178.553681
1073.199048,383.047749,-740.205942,9252.574275
1073.199364,995.924147,-888.247130,9770.718434
1073.199680,842.705048,-1184.329507,9400.615463
1073.199995,842.705048,-814.226536,9474.636058
1073.200311,995.924147,-1406.391290,9770.718434
1073.200627,766.095498,-1554.432478,10140.821405
1073.200942,1532.190996,-888.247130,10214.842000
1073.201258,1455.581446,-814.226536,9326.594869
1073.201574,1532.190996,-592.164754,8734.430116
1073.201889,1608.800546,-296.082377,8734.430116
1073.202205,1455.581446,-444.123565,8660.409521
1073.202521,995.924147,-888.247130,9030.512492
1073.202836,689.485948,-1036.288319,9696.697840
1073.203152,842.705048,-1480.411884,10140.821405
1073.203468,459.657299,-1702.473667,9844.739029
1073.203783,306.438199,-1480.411884,9548.656652
1073.204099,76.609550,-1332.370696,9622.677246
1073.204415,459.657299,-1628.453072,9474.636058
1073.204730,766.095498,-1628.453072,9918.759623
1073.205046,459.657299,-814.226536,9474.636058
1073.205362,536.266849,-592.164754,9770.718434
1073.205677,612.876398,-814.226536,9770.718434
1073.205993,919.314598,-296.082377,9696.697840
1073.206309,1225.752797,148.041188,9178.553681
1073.206624,919.314598,370.102971,8586.388927
1073.206940,1302.362347,370.102971,8808.450710
1073.207256,995.924147,-148.041188,8512.368333
1073.207571,1225.752797,-148.041188,8956.491898
1073.207887,0.000000,-296.082377,9326.594869
1073.208203,76.609550,-518.144159,9918.759623
1073.208518,0.000000,-148.041188,9622.677246
1073.208834,-306.438199,148.041188,8882.471304
1073.209150,-306.438199,-0.000000,9622.677246
1073.209465,0.000000,-222.061783,9474.636058
1073.209781,306.438199,-74.020594,9252.574275
1073.210097,-76.609550,-148.041188,9030.512492
1073.210412,0.000000,-148.041188,9770.718434
1073.210728,459.657299,-222.061783,9696.697840
1073.211044,689.485948,222.061783,9474.636058
1073.211359,689.485948,888.247130,8956.491898
1073.211675,766.095498,962.267725,8956.491898
1073.211991,995.924147,1258.350101,8808.450710
1073.212306,1302.362347,1406.391290,8586.388927
1073.212622,766.095498,1554.432478,8808.450710
1073.212938,306.438199,962.267725,9548.656652
1073.213253,536.266849,740.205942,10140.821405
1073.213569,689.485948,740.205942,9992.780217
1073.213885,0.000000,666.185348,9844.739029
1073.214200,-459.657299,666.185348,9696.697840
1073.214516,0.000000,592.164754,9622.677246
1073.214831,153.219100,518.144159,9696.697840
1073.215147,612.876398,370.102971,9992.780217
1073.215463,-229.828649,-0.000000,10214.842000
1073.215778,-229.828649,222.061783,10362.883188
1073.216094,383.047749,518.144159,9992.780217
1073.216410,306.438199,592.164754,9474.636058
1073.216725,0.000000,296.082377,8882.471304
1073.217041,229.828649,74.020594,9474.636058
1073.217357,612.876398,74.020594,9474.636058
1073.217672,76.609550,592.164754,9252.574275
1073.217988,-153.219100,296.082377,9474.636058
1073.218304,153.219100,-0.000000,9622.677246
1073.218619,-306.438199,148.041188,9918.759623
1073.218935,-459.657299,-0.000000,9548.656652
1073.219251,-459.657299,-0.000000,9844.739029
1073.219566,-306.438199,-222.061783,9622.677246
1073.219882,-383.047749,-0.000000,9474.636058
1073.220198,-306.438199,-222.061783,9770.718434
1073.220513,-459.657299,-370.102971,10214.842000
1073.220829,0.000000,-444.123565,10362.883188
1073.221145,536.266849,-222.061783,10140.821405
1073.221460,536.266849,-0.000000,9104.533087
1073.221776,306.438199,-0.000000,9104.533087
1073.222092,919.314598,-222.061783,9104.533087
1073.222407,1072.533697,-148.041188,8882.471304
1073.222723,1072.533697,-0.000000,9178.553681
1073.223039,1072.533697,-296.082377,9548.656652
1073.223354,1149.143247,-518.144159,9474.636058
1073.223670,995.924147,-444.123565,9326.594869
1073.223986,1072.533697,-592.164754,8956.491898
1073.224301,766.095498,-814.226536,9104.533087
1073.224617,1225.752797,-888.247130,9474.636058
1073.224933,1072.533697,-1184.329507,8956.491898
1073.225248,919.314598,-1406.391290,9326.594869
1073.225564,536.266849,-1702.473667,9622.677246
1073.225880,766.095498,-1998.556043,9992.780217
1073.226195,1302.362347,-1480.411884,9474.636058
1073.226511,995.924147,-1406.391290,8660.409521
1073.226827,1378.971896,-888.247130,9030.512492
1073.227142,1532.190996,-1406.391290,9030.512492
1073.227458,1225.752797,-1406.391290,8882.471304
1073.227774,919.314598,-1332.370696,9326.594869
1073.228089,689.485948,-1480.411884,9030.512492
1073.228405,919.314598,-1184.329507,9400.615463
1073.228721,1072.533697,-962.267725,9474.636058
1073.229036,536.266849,-814.226536,8882.471304
1073.229352,536.266849,-888.247130,9548.656652
1073.229668,995.924147,-1036.288319,8586.388927
1073.229983,689.485948,-1258.350101,9252.574275
1073.230299,76.609550,-1258.350101,9474.636058
1073.230615,612.876398,-1924.535449,9918.759623
1073.230930,76.609550,-1628.453072,10066.800811
1073.231246,459.657299,-1036.288319,9918.759623
1073.231562,383.047749,-814.226536,9178.553681
1073.231877,536.266849,-370.102971,8882.471304
1073.232193,612.876398,-518.144159,8882.471304
1073.232509,842.705048,-592.164754,8734.430116
1073.232824,536.266849,148.041188,8956.491898
1073.233140,0.000000,296.082377,9474.636058
1073.233456,459.657299,-74.020594,9474.636058
1073.233771,306.438199,-0.000000,9326.594869
1073.234087,-153.219100,-74.020594,9696.697840
1073.234403,0.000000,-0.000000,9696.697840
1073.234718,0.000000,-148.041188,9326.594869
1073.235034,153.219100,-74.020594,9326.594869
1073.235350,0.000000,296.082377,9548.656652
1073.235665,0.000000,-0.000000,9622.677246
1073.235981,383.047749,444.123565,10066.800811
1073.236297,76.609550,888.247130,9696.697840
1073.236612,383.047749,666.185348,9548.656652
1073.236928,689.485948,1110.308913,9178.553681
1073.237244,689.485948,1332.370696,9178.553681
1073.237559,842.705048,1554.432478,9178.553681
1073.237875,689.485948,1628.453072,9326.594869
1073.238191,76.609550,1628.453072,9326.594869
1073.238506,0.000000,1110.308913,10140.821405
1073.238822,229.828649,888.247130,10436.903782
1073.239138,0.000000,1036.288319,9622.677246
1073.239453,-383.047749,1184.329507,9770.718434
1073.239769,-306.438199,1036.288319,9696.697840
1073.240085,153.219100,444.123565,10140.821405
1073.240400,-536.266849,222.061783,9844.739029
1073.240716,-689.485948,222.061783,10288.862594
1073.241032,-459.657299,148.041188,10584.944971
1073.241347,-306.438199,148.041188,10214.842000
1073.241663,76.609550,1036.288319,9770.718434
1073.241979,0.000000,1184.329507,9622.677246
1073.242294,689.485948,1184.329507,9474.636058
1073.242610,229.828649,888.247130,9030.512492
1073.242926,306.438199,1110.308913,9474.636058
1073.243241,0.000000,888.247130,9622.677246
1073.243557,0.000000,814.226536,9474.636058
1073.243873,153.219100,148.041188,9844.739029
1073.244188,0.000000,-0.000000,9696.697840
1073.244504,-1149.143247,-0.000000,9104.533087
1073.244820,-229.828649,-0.000000,9548.656652
1073.245135,-229.828649,-222.061783,9474.636058
1073.245451,-536.266849,-370.102971,9770.718434
1073.245767,-229.828649,-518.144159,10066.800811
1073.246082,0.000000,-592.164754,10584.944971
1073.246398,229.828649,-74.020594,9844.739029
1073.246714,536.266849,-74.020594,9178.553681
1073.247029,842.705048,-222.061783,8882.471304
1073.247345,995.924147,-0.000000,8660.409521
1073.247661,1455.581446,-74.020594,9178.553681
1073.247976,1072.533697,-740.205942,9030.512492
1073.248292,689.485948,-666.185348,9400.615463
1073.248608,842.705048,-592.164754,9622.677246
1073.248923,1225.752797,-518.144159,9400.615463
1073.249239,766.095498,-814.226536,9622.677246
1073.249555,842.705048,-666.185348,9252.574275
1073.249870,1455.581446,-666.185348,8882.471304
1073.250186,1685.410096,-1332.370696,9030.512492
1073.250502,1072.533697,-1332.370696,9474.636058
1073.250817,1378.971896,-1924.535449,9992.780217
1073.251133,1149.143247,-1924.535449,9696.697840
1073.251449,1455.581446,-1406.391290,9548.656652
1073.251764,1072.533697,-1480.411884,9400.615463
1073.252080,1378.971896,-1332.370696,9474.636058
1073.252396,1455.581446,-962.267725,8956.491898
1073.252711,1302.362347,-1110.308913,8882.471304
1073.253027,1378.971896,-1184.329507,9548.656652
1073.253343,995.924147,-1332.370696,9400.615463
1073.253658,1149.143247,-1184.329507,9548.656652
1073.253974,1225.752797,-1554.432478,9844.739029
1073.254290,383.047749,-1258.350101,9326.594869
1073.254605,306.438199,-1184.329507,9104.533087
1073.254921,689.485948,-1332.370696,9326.594869
1073.255237,1455.581446,-1332.370696,9326.594869
1073.255552,153.219100,-1036.288319,9696.697840
1073.255868,0.000000,-888.247130,9696.697840
1073.256184,0.000000,-1554.432478,9918.759623
1073.256499,306.438199,-1332.370696,10066.800811
1073.256815,76.609550,-666.185348,9104.533087
1073.257131,0.000000,-444.123565,8660.409521
1073.257446,459.657299,-518.144159,9326.594869
1073.257762,689.485948,-444.123565,9030.512492
1073.258078,229.828649,-74.020594,9178.553681
1073.258393,153.219100,-222.061783,9030.512492
1073.258709,0.000000,-370.102971,9474.636058
1073.259025,229.828649,-0.000000,9548.656652
1073.259340,0.000000,-0.000000,9400.615463
1073.259656,-306.438199,-0.000000,9178.553681
1073.259972,76.609550,-222.061783,9178.553681
1073.260287,383.047749,-0.000000,9326.594869
1073.260603,0.000000,222.061783,9326.594869
1073.260919,-459.657299,-0.000000,9696.697840
1073.261234,383.047749,-296.082377,9992.780217
1073.261550,0.000000,296.082377,9548.656652
1073.261866,153.219100,666.185348,9844.739029
1073.262181,153.219100,1036.288319,9326.594869
1073.262497,383.047749,1332.370696,8734.430116
1073.262813,766.095498,1110.308913,9400.615463
1073.263128,536.266849,1332.370696,9030.512492
1073.263444,0.000000,1258.350101,9326.594869
1073.263760,153.219100,1036.288319,10140.821405
1073.264075,383.047749,666.185348,9696.697840
1073.264391,0.000000,962.267725,9474.636058
1073.264707,0.000000,814.226536,10214.842000
1073.265022,229.828649,370.102971,9918.759623
1073.265338,306.438199,666.185348,9548.656652
1073.265654,-229.828649,962.267725,9622.677246
1073.265969,76.609550,814.226536,9770.718434
1073.266285,306.438199,518.144159,10436.903782
1073.266601,229.828649,888.247130,9992.780217
1073.266917,612.876398,1184.329507,9400.615463
1073.267232,612.876398,1110.308913,9252.574275
1073.267548,919.314598,1184.329507,9252.574275
1073.267864,612.876398,666.185348,9252.574275
1073.268180,689.485948,370.102971,9622.677246
1073.268495,153.219100,222.061783,9918.759623
1073.268811,306.438199,296.082377,10362.883188
1073.269127,229.828649,444.123565,9770.718434
1073.269442,0.000000,592.164754,9400.615463
1073.269758,0.000000,370.102971,9400.615463
1073.270074,306.438199,370.102971,9622.677246
1073.270390,536.266849,-148.041188,9252.574275
1073.270705,-153.219100,-0.000000,9474.636058
1073.271021,-383.047749,-0.000000,10066.800811
1073.271337,0.000000,-222.061783,10140.821405
1073.271653,229.828649,-444.123565,9400.615463
1073.271968,0.000000,296.082377,9548.656652
1073.272284,153.219100,-148.041188,9474.636058
1073.272600,1072.533697,-666.185348,9844.739029
1073.272915,689.485948,-0.000000,8956.491898
1073.273231,689.485948,-444.123565,9178.553681
1073.273547,1302.362347,-222.061783,9548.656652
1073.273863,1072.533697,-666.185348,9770.718434
1073.274178,1149.143247,-0.000000,9326.594869
1073.274494,995.924147,-222.061783,9030.512492
1073.274810,306.438199,-888.247130,9104.533087
1073.275126,919.314598,-1184.329507,9326.594869
1073.275441,842.705048,-1628.453072,9178.553681
1073.275757,766.095498,-1628.453072,9548.656652
1073.276073,459.657299,-1406.391290,9844.739029
1073.276389,842.705048,-1554.432478,9696.697840
1073.276704,1302.362347,-1258.350101,9770.718434
1073.277020,919.314598,-1258.350101,8956.491898
1073.277336,612.876398,-1332.370696,9178.553681
1073.277651,995.924147,-1480.411884,9104.533087
1073.277967,1455.581446,-1850.514855,9252.574275
1073.278283,995.924147,-1258.350101,9104.533087
1073.278599,383.047749,-1258.350101,9104.533087
1073.278914,689.485948,-1258.350101,9326.594869
1073.279230,842.705048,-1332.370696,9474.636058
1073.279546,842.705048,-962.267725,9326.594869
1073.279862,536.266849,-740.205942,9030.512492
1073.280177,689.485948,-1184.329507,9178.553681
1073.280493,766.095498,-1702.473667,9252.574275
1073.280809,76.609550,-1110.308913,9400.615463
1073.281124,-536.266849,-1332.370696,9178.553681
1073.281440,0.000000,-1628.453072,10066.800811
1073.281756,153.219100,-1258.350101,9770.718434
1073.282072,153.219100,-666.185348,9326.594869
1073.282387,153.219100,-740.205942,8956.491898
1073.282703,536.266849,-814.226536,9030.512492
1073.283019,919.314598,-592.164754,9178.553681
1073.283335,383.047749,-444.123565,8734.430116
1073.283650,306.438199,-74.020594,9474.636058
1073.283966,612.876398,-370.102971,9474.636058
1073.284282,1149.143247,-0.000000,9178.553681
1073.284597,153.219100,370.102971,9030.512492
1073.284913,229.828649,296.082377,8956.491898
1073.285229,459.657299,-0.000000,9104.533087
1073.285545,536.266849,-0.000000,9622.677246
1073.285860,306.438199,-0.000000,9622.677246
1073.286176,-306.438199,370.102971,9770.718434
1073.286492,306.438199,-0.000000,9696.697840
1073.286808,459.657299,444.123565,9918.759623
1073.287123,383.047749,1184.329507,9770.718434
1073.287439,689.485948,1110.308913,9474.636058
1073.287755,995.924147,1110.308913,9104.533087
1073.288070,995.924147,1184.329507,9030.512492
1073.288386,766.095498,1258.350101,9326.594869
1073.288702,383.047749,1036.288319,9474.636058
1073.289018,229.828649,518.144159,10436.903782
1073.289333,612.876398,888.247130,10140.821405
1073.289649,76.609550,1110.308913,9548.656652
1073.289965,76.609550,888.247130,9696.697840
1073.290281,766.095498,444.123565,9548.656652
1073.290596,306.438199,740.205942,9770.718434
1073.290912,306.438199,592.164754,10066.800811
1073.291228,76.609550,814.226536,10066.800811
1073.291543,229.828649,592.164754,9992.780217
1073.291859,842.705048,666.185348,10140.821405
1073.292175,536.266849,740.205942,9548.656652
1073.292491,229.828649,666.185348,9474.636058
1073.292806,153.219100,814.226536,9474.636058
1073.293122,153.219100,444.123565,9326.594869
1073.293438,-306.438199,-296.082377,9992.780217
1073.293754,-536.266849,-0.000000,10288.862594
1073.294069,-612.876398,370.102971,10140.821405
1073.294385,-229.828649,518.144159,9844.739029
1073.294701,-536.266849,444.123565,9696.697840
1073.295017,-919.314598,222.061783,9622.677246
1073.295332,229.828649,-0.000000,9178.553681
1073.295648,-229.828649,-0.000000,9474.636058
1073.295964,-383.047749,-148.041188,9548.656652
1073.296279,-459.657299,-148.041188,10066.800811
1073.296595,229.828649,-370.102971,10288.862594
1073.296911,76.609550,-518.144159,9548.656652
1073.297227,0.000000,-444.123565,9548.656652
1073.297542,383.047749,-592.164754,9474.636058
1073.297858,612.876398,-222.061783,9178.553681
1073.298174,1532.190996,-296.082377,8660.409521
1073.298490,1149.143247,-0.000000,8512.368333
1073.298805,536.266849,-296.082377,9104.533087
1073.299121,766.095498,-518.144159,9474.636058
1073.299437,842.705048,-814.226536,9400.615463
1073.299752,612.876398,-1110.308913,9326.594869
1073.300068,612.876398,-888.247130,8808.450710
1073.300384,1608.800546,-1184.329507,9178.553681
1073.300700,1455.581446,-1110.308913,8808.450710
1073.301015,995.924147,-1554.432478,8882.471304
1073.301331,459.657299,-1332.370696,9474.636058
1073.301647,306.438199,-1850.514855,9770.718434
1073.301963,766.095498,-1406.391290,9326.594869
1073.302278,1149.143247,-1184.329507,8956.491898
1073.302594,766.095498,-1850.514855,8882.471304
1073.302910,1072.533697,-1850.514855,9326.594869
1073.303225,1149.143247,-1480.411884,9178.553681
1073.303541,1225.752797,-1332.370696,9178.553681
1073.303857,766.095498,-1036.288319,9178.553681
1073.304173,995.924147,-666.185348,8882.471304
1073.304488,1072.533697,-814.226536,9400.615463
1073.304804,766.095498,-1332.370696,9326.594869
1073.305120,612.876398,-1110.308913,8956.491898
1073.305436,612.876398,-1036.288319,8956.491898
1073.305751,383.047749,-1332.370696,9252.574275
1073.306067,536.266849,-1110.308913,9326.594869
1073.306383,153.219100,-1036.288319,9474.636058
1073.306698,76.609550,-1184.329507,9992.780217
1073.307014,76.609550,-1258.350101,9622.677246
1073.307330,383.047749,-962.267725,9622.677246
1073.307646,0.000000,-518.144159,9326.594869
1073.307961,459.657299,-518.144159,9252.574275
1073.308277,766.095498,-296.082377,9400.615463
1073.308593,383.047749,222.061783,9178.553681
1073.308909,76.609550,-0.000000,9474.636058
1073.309224,383.047749,-296.082377,9474.636058
1073.309540,459.657299,-74.020594,9696.697840
1073.309856,76.609550,148.041188,9474.636058
1073.310171,383.047749,518.144159,9474.636058
1073.310487,306.438199,370.102971,9474.636058
1073.310803,536.266849,444.123565,9252.574275
1073.311119,0.000000,962.267725,9474.636058
1073.311434,76.609550,592.164754,9548.656652
1073.311750,306.438199,888.247130,9992.780217
1073.312066,459.657299,666.185348,9844.739029
1073.312382,153.219100,518.144159,9622.677246
1073.312697,383.047749,814.226536,9474.636058
1073.313013,766.095498,370.102971,9252.574275
1073.313329,842.705048,888.247130,9326.594869
1073.313644,153.219100,962.267725,9474.636058
1073.313960,153.219100,1036.288319,9844.739029
1073.314276,229.828649,1406.391290,10288.862594
1073.314592,459.657299,962.267725,10214.842000
1073.314907,76.609550,1332.370696,9326.594869
1073.315223,229.828649,666.185348,9178.553681
1073.315539,689.485948,296.082377,9622.677246
1073.315855,536.266849,296.082377,9918.759623
1073.316170,383.047749,740.205942,9474.636058
1073.316486,0.000000,740.205942,9622.677246
1073.316802,229.828649,962.267725,9918.759623
1073.317118,459.657299,888.247130,9548.656652
1073.317433,612.876398,666.185348,9696.697840
1073.317749,153.219100,222.061783,9622.677246
1073.318065,459.657299,666.185348,9474.636058
1073.318380,306.438199,370.102971,9622.677246
1073.318696,153.219100,592.164754,9326.594869
1073.319012,0.000000,592.164754,9696.697840
1073.319328,153.219100,148.041188,9770.718434
1073.319643,-383.047749,-0.000000,10362.883188
1073.319959,-459.657299,148.041188,9770.718434
1073.320275,-842.705048,-296.082377,9548.656652
1073.320591,-383.047749,-592.164754,9400.615463
1073.320906,383.047749,-296.082377,9844.739029
1073.321222,-536.266849,-444.123565,9400.615463
1073.321538,-459.657299,-592.164754,9992.780217
1073.321853,0.000000,-740.205942,10362.883188
1073.322169,306.438199,-592.164754,9696.697840
1073.322485,612.876398,-0.000000,8956.491898
1073.322801,842.705048,-370.102971,9104.533087
1073.323116,1225.752797,-444.123565,9252.574275
1073.323432,1225.752797,-0.000000,8734.430116
1073.323748,919.314598,-0.000000,8512.368333
1073.324064,842.705048,-296.082377,8956.491898
1073.324379,1072.533697,-666.185348,9400.615463
1073.324695,995.924147,-888.247130,9474.636058
1073.325011,766.095498,-1036.288319,9474.636058
1073.325326,689.485948,-1258.350101,9326.594869
1073.325642,766.095498,-1332.370696,9474.636058
1073.325958,1072.533697,-1184.329507,9104.533087
1073.326274,536.266849,-1184.329507,9030.512492
1073.326589,459.657299,-1184.329507,9622.677246
1073.326905,919.314598,-1184.329507,9992.780217
1073.327221,612.876398,-1258.350101,9548.656652
1073.327537,536.266849,-888.247130,9400.615463
1073.327852,766.095498,-1554.432478,9178.553681
1073.328168,1072.533697,-1110.308913,9030.512492
1073.328484,1455.581446,-814.226536,8882.471304
1073.328799,1225.752797,-592.164754,8808.450710
1073.329115,919.314598,-1036.288319,9252.574275
1073.329431,842.705048,-888.247130,9770.718434
1073.329747,459.657299,-814.226536,9474.636058
1073.330062,766.095498,-1184.329507,9474.636058
1073.330378,689.485948,-666.185348,9178.553681
1073.330694,612.876398,-1406.391290,8956.491898
1073.331010,612.876398,-1776.494261,9474.636058
1073.331325,229.828649,-1406.391290,9992.780217
1073.331641,0.000000,-1406.391290,9992.780217
1073.331957,842.705048,-1110.308913,9548.656652
1073.332272,689.485948,-592.164754,9400.615463
1073.332588,612.876398,-370.102971,9178.553681
1073.332904,766.095498,-518.144159,9252.574275
1073.333220,459.657299,-814.226536,8956.491898
1073.333535,612.876398,-444.123565,8956.491898
1073.333851,306.438199,-74.020594,9252.574275
1073.334167,153.219100,-0.000000,9252.574275
1073.334483,229.828649,-0.000000,9770.718434
1073.334798,459.657299,-370.102971,9770.718434
1073.335114,383.047749,-296.082377,9770.718434
1073.335430,306.438199,-0.000000,9400.615463
1073.335746,229.828649,-370.102971,9474.636058
1073.336061,612.876398,-0.000000,9474.636058
1073.336377,536.266849,222.061783,9400.615463
1073.336693,383.047749,518.144159,9696.697840
1073.337008,612.876398,222.061783,10140.821405
1073.337324,689.485948,666.185348,9622.677246
1073.337640,459.657299,1184.329507,9030.512492
1073.337956,689.485948,1406.391290,9474.636058
1073.338271,1225.752797,1406.391290,9104.533087
1073.338587,1378.971896,1184.329507,8734.430116
1073.338903,612.876398,1332.370696,9252.574275
1073.339219,76.609550,1184.329507,10066.800811
1073.339534,0.000000,592.164754,9992.780217
1073.339850,76.609550,1036.288319,9696.697840
1073.340166,-459.657299,666.185348,9992.780217
1073.340481,-306.438199,148.041188,9770.718434
1073.340797,0.000000,74.020594,9696.697840
1073.341113,0.000000,-296.082377,9992.780217
1073.341429,-383.047749,592.164754,9696.697840
1073.341744,-229.828649,666.185348,9622.677246
1073.342060,0.000000,814.226536,9770.718434
1073.342376,459.657299,666.185348,9844.739029
1073.342692,0.000000,814.226536,9474.636058
1073.343007,0.000000,518.144159,9030.512492
1073.343323,306.438199,518.144159,9326.594869
1073.343639,306.438199,148.041188,9104.533087
1073.343954,76.609550,222.061783,9474.636058
1073.344270,-383.047749,518.144159,9918.759623
1073.344586,-383.047749,-0.000000,10140.821405
1073.344902,0.000000,222.061783,9844.739029
1073.345217,-306.438199,-0.000000,9474.636058
1073.345533,-842.705048,-74.020594,8660.409521
1073.345849,-306.438199,-370.102971,9474.636058
1073.346165,0.000000,-666.185348,9474.636058
1073.346480,-229.828649,-814.226536,9696.697840
1073.346796,0.000000,-592.164754,9696.697840
1073.347112,766.095498,-666.185348,9844.739029
1073.347427,306.438199,-518.144159,9770.718434
1073.347743,612.876398,-518.144159,9104.533087
1073.348059,1072.533697,-0.000000,9178.553681
1073.348375,1532.190996,-0.000000,8882.471304
1073.348690,1455.581446,222.061783,8956.491898
1073.349006,1608.800546,222.061783,8586.388927
1073.349322,1072.533697,-444.123565,9474.636058
1073.349638,1072.533697,-518.144159,9474.636058
1073.349953,766.095498,-296.082377,9400.615463
1073.350269,689.485948,-592.164754,9326.594869
1073.350585,766.095498,-962.267725,9474.636058
1073.350900,919.314598,-1258.350101,9474.636058
1073.351216,1149.143247,-1184.329507,9178.553681
1073.351532,689.485948,-1184.329507,9474.636058
1073.351848,383.047749,-1036.288319,9622.677246
1073.352163,689.485948,-1480.411884,10140.821405
1073.352479,612.876398,-1184.329507,10066.800811
1073.352795,689.485948,-814.226536,9696.697840
1073.353111,612.876398,-814.226536,9252.574275
1073.353426,1225.752797,-962.267725,9326.594869
1073.353742,1072.533697,-444.123565,8734.430116
1073.354058,842.705048,-814.226536,8808.450710
1073.354374,536.266849,-888.247130,9400.615463
1073.354689,229.828649,-1406.391290,9992.780217
1073.355005,383.047749,-1406.391290,9844.739029
1073.355321,0.000000,-666.185348,9474.636058
1073.355636,0.000000,-740.205942,9178.553681
1073.355952,306.438199,-1184.329507,9474.636058
1073.356268,0.000000,-1036.288319,9622.677246
1073.356584,0.000000,-1036.288319,9770.718434
1073.356899,0.000000,-1258.350101,9696.697840
1073.357215,229.828649,-1036.288319,9696.697840
1073.357531,306.438199,-1036.288319,9770.718434
1073.357847,229.828649,-518.144159,9178.553681
1073.358162,383.047749,-148.041188,9400.615463
1073.358478,919.314598,222.061783,9178.553681
1073.358794,842.705048,-0.000000,8882.471304
1073.359109,306.438199,222.061783,8956.491898
1073.359425,-306.438199,-370.102971,9474.636058
1073.359741,383.047749,-222.061783,9474.636058
1073.360057,306.438199,-444.123565,10140.821405
1073.360372,153.219100,-74.020594,9696.697840
1073.360688,306.438199,296.082377,9030.512492
1073.361004,612.876398,-74.020594,9030.512492
1073.361320,689.485948,-0.000000,9400.615463
1073.361635,229.828649,518.144159,9474.636058
1073.361951,459.657299,518.144159,9696.697840
1073.362267,766.095498,370.102971,9844.739029
1073.362582,766.095498,296.082377,9696.697840
1073.362898,842.705048,814.226536,9104.533087
1073.363214,919.314598,962.267725,8956.491898
1073.363530,842.705048,888.247130,9178.553681
1073.363845,1378.971896,370.102971,9474.636058
1073.364161,612.876398,666.185348,9104.533087
1073.364477,153.219100,814.226536,9622.677246
1073.364793,153.219100,370.102971,9992.780217
1073.365108,306.438199,666.185348,9918.759623
1073.365424,229.828649,1110.308913,9104.533087
1073.365740,-306.438199,1036.288319,9252.574275
1073.366055,459.657299,740.205942,9696.697840
1073.366371,383.047749,592.164754,9696.697840
1073.366687,-459.657299,296.082377,9844.739029
1073.367003,-383.047749,296.082377,9844.739029
1073.367318,0.000000,-0.000000,10066.800811
1073.367634,0.000000,148.041188,9992.780217
1073.367950,-459.657299,148.041188,9992.780217
1073.368265,0.000000,148.041188,9844.739029
1073.368581,612.876398,666.185348,9548.656652
1073.368897,0.000000,962.267725,8956.491898
1073.369213,-306.438199,592.164754,9030.512492
1073.369528,-536.266849,814.226536,9696.697840
1073.369844,76.609550,296.082377,10362.883188
1073.370160,153.219100,444.123565,10066.800811
1073.370475,-306.438199,296.082377,9696.697840
1073.370791,-383.047749,-0.000000,9252.574275
1073.371107,153.219100,-222.061783,9326.594869
1073.371423,76.609550,-370.102971,9622.677246
1073.371738,-229.828649,-222.061783,9844.739029
1073.372054,0.000000,-592.164754,10066.800811
1073.372370,383.047749,-518.144159,10510.924376
1073.372685,536.266849,-296.082377,9992.780217
1073.373001,536.266849,-74.020594,9474.636058
1073.373317,612.876398,-0.000000,9030.512492
1073.373633,919.314598,296.082377,8660.409521
1073.373948,1378.971896,-0.000000,8808.450710
1073.374264,612.876398,-370.102971,9104.533087
1073.374580,-306.438199,-592.164754,9400.615463
1073.374895,229.828649,-962.267725,9770.718434
1073.375211,612.876398,-888.247130,9918.759623
1073.375527,306.438199,-888.247130,9474.636058
1073.375843,536.266849,-962.267725,9252.574275
1073.376158,842.705048,-1110.308913,9474.636058
1073.376474,766.095498,-1110.308913,8882.471304
1073.376790,995.924147,-888.247130,9104.533087
1073.377105,536.266849,-962.267725,9548.656652
1073.377421,919.314598,-1776.494261,9918.759623
1073.377737,1149.143247,-1480.411884,9844.739029
1073.378053,1149.143247,-1258.350101,9030.512492
1073.378368,1302.362347,-740.205942,8660.409521
1073.378684,1455.581446,-592.164754,8956.491898
1073.379000,1378.971896,-962.267725,8364.327145
1073.379315,919.314598,-518.144159,8956.491898
1073.379631,536.266849,-1184.329507,9622.677246
1073.379947,689.485948,-1258.350101,9918.759623
1073.380262,383.047749,-1406.391290,9548.656652
1073.380578,76.609550,-1480.411884,9030.512492
1073.380894,306.438199,-1406.391290,9474.636058
1073.381210,459.657299,-1628.453072,9400.615463
1073.381525,612.876398,-1480.411884,9474.636058
1073.381841,383.047749,-592.164754,9326.594869
1073.382157,306.438199,-740.205942,9548.656652
1073.382472,919.314598,-814.226536,9696.697840
1073.382788,1072.533697,-518.144159,9252.574275
1073.383104,1225.752797,-370.102971,9030.512492
1073.383420,1149.143247,-222.061783,8882.471304
1073.383735,1072.533697,-370.102971,8956.491898
1073.384051,995.924147,-74.020594,9104.533087
1073.384367,842.705048,-0.000000,9030.512492
1073.384682,153.219100,-0.000000,9400.615463
1073.384998,153.219100,-0.000000,9474.636058
1073.385314,306.438199,-0.000000,9622.677246
1073.385630,153.219100,-148.041188,9548.656652
1073.385945,0.000000,-0.000000,9548.656652
1073.386261,76.609550,-370.102971,9548.656652
1073.386577,0.000000,-370.102971,9474.636058
1073.386892,459.657299,296.082377,9844.739029
1073.387208,153.219100,518.144159,9474.636058
1073.387524,459.657299,-0.000000,9844.739029
1073.387840,229.828649,444.123565,9992.780217
1073.388155,536.266849,518.144159,9548.656652
1073.388471,459.657299,666.185348,9326.594869
1073.388787,919.314598,962.267725,8956.491898
1073.389102,1149.143247,1184.329507,9030.512492
1073.389418,459.657299,1036.288319,9400.615463
1073.389734,-229.828649,814.226536,9548.656652
1073.390050,-153.219100,740.205942,9918.759623
1073.390365,0.000000,888.247130,10066.800811
1073.390681,-459.657299,444.123565,9474.636058
1073.390997,-689.485948,296.082377,9844.739029
1073.391312,0.000000,-296.082377,9696.697840
1073.391628,-383.047749,-148.041188,10066.800811
1073.391944,-459.657299,444.123565,10066.800811
1073.392260,-689.485948,370.102971,9844.739029
1073.392575,-229.828649,592.164754,9696.697840
1073.392891,612.876398,740.205942,9770.718434
1073.393207,0.000000,1184.329507,9696.697840
1073.393522,0.000000,1036.288319,9474.636058
1073.393838,383.047749,518.144159,9030.512492
1073.394154,536.266849,814.226536,9252.574275
1073.394470,536.266849,888.247130,8660.409521
1073.394785,0.000000,518.144159,9844.739029
1073.395101,0.000000,296.082377,10066.800811
1073.395417,76.609550,222.061783,10214.842000
1073.395732,-229.828649,-0.000000,9844.739029
1073.396048,-383.047749,-0.000000,9622.677246
1073.396364,0.000000,-0.000000,9622.677246
1073.396680,842.705048,-222.061783,9252.574275
1073.396995,153.219100,-148.041188,9622.677246
1073.397311,0.000000,-370.102971,10140.821405
1073.397627,383.047749,-814.226536,10362.883188
1073.397942,536.266849,-444.123565,9992.780217
1073.398258,536.266849,-0.000000,9474.636058
1073.398574,995.924147,-0.000000,8808.450710
1073.398889,1532.190996,-0.000000,8882.471304
1073.399205,1685.410096,-74.020594,8808.450710
1073.399521,1225.752797,-666.185348,9326.594869
1073.399837,995.924147,-1036.288319,9104.533087
1073.400152,995.924147,-666.185348,9770.718434
1073.400468,919.314598,-444.123565,9770.718434
1073.400784,1149.143247,-370.102971,8734.430116
1073.401099,842.705048,-518.144159,9178.553681
1073.401415,1149.143247,-1258.350101,9400.615463
1073.401731,1149.143247,-1036.288319,9104.533087
1073.402047,1149.143247,-1110.308913,9178.553681
1073.402362,689.485948,-1554.432478,9622.677246
1073.402678,919.314598,-1776.494261,9918.759623
1073.402994,919.314598,-1184.329507,9548.656652
1073.403309,1072.533697,-592.164754,9474.636058
1073.403625,919.314598,-444.123565,9474.636058
1073.403941,1455.581446,-444.123565,8660.409521
1073.404257,995.924147,-592.164754,8290.306550
1073.404572,536.266849,-814.226536,9326.594869
1073.404888,459.657299,-1776.494261,9770.718434
1073.405204,612.876398,-1184.329507,9696.697840
1073.405519,919.314598,-1184.329507,9548.656652
1073.405835,842.705048,-1110.308913,9178.553681
1073.406151,383.047749,-888.247130,9178.553681
1073.406467,536.266849,-444.123565,9474.636058
1073.406782,536.266849,-1258.350101,9178.553681
1073.407098,383.047749,-962.267725,9548.656652
1073.407414,229.828649,-1036.288319,9622.677246
1073.407729,153.219100,-1406.391290,10066.800811
1073.408045,536.266849,-1110.308913,9992.780217
1073.408361,459.657299,-444.123565,9400.615463
1073.408677,689.485948,-0.000000,8660.409521
1073.408992,612.876398,-518.144159,8734.430116
1073.409308,229.828649,-592.164754,8956.491898
1073.409624,459.657299,-296.082377,9326.594869
1073.409939,153.219100,-148.041188,9622.677246
1073.410255,-153.219100,-74.020594,9326.594869
1073.410571,76.609550,-444.123565,9918.759623
1073.410887,0.000000,-0.000000,9252.574275
1073.411202,-153.219100,-0.000000,9178.553681
1073.411518,0.000000,-222.061783,9326.594869
1073.411834,306.438199,-148.041188,9696.697840
1073.412149,-229.828649,-74.020594,9918.759623
1073.412465,229.828649,-370.102971,9474.636058
1073.412781,0.000000,148.041188,10140.821405
1073.413097,536.266849,222.061783,9770.718434
1073.413412,536.266849,1036.288319,9326.594869
1073.413728,919.314598,1332.370696,8882.471304
1073.414044,842.705048,1332.370696,8734.430116
1073.414359,919.314598,1332.370696,8808.450710
1073.414675,306.438199,1480.411884,9104.533087
1073.414991,383.047749,814.226536,9474.636058
1073.415306,0.000000,444.123565,9918.759623
1073.415622,459.657299,370.102971,10288.862594
1073.415938,-229.828649,444.123565,9474.636058
1073.416254,-383.047749,370.102971,9622.677246
1073.416569,-153.219100,222.061783,9770.718434
1073.416885,76.609550,296.082377,9474.636058
1073.417201,-459.657299,222.061783,10214.842000
1073.417516,-306.438199,222.061783,10214.842000
1073.417832,383.047749,592.164754,9696.697840
1073.418148,459.657299,1110.308913,9548.656652
1073.418464,306.438199,814.226536,9252.574275
1073.418779,919.314598,592.164754,9178.553681
1073.419095,842.705048,814.226536,9178.553681
1073.419411,995.924147,1110.308913,9104.533087
1073.419726,383.047749,814.226536,9178.553681
1073.420042,383.047749,518.144159,9622.677246
1073.420358,76.609550,148.041188,9992.780217
1073.420674,0.000000,444.123565,10214.842000
1073.420989,0.000000,370.102971,9992.780217
1073.421305,0.000000,148.041188,9474.636058
1073.421621,383.047749,-666.185348,9918.759623
1073.421936,383.047749,-518.144159,10066.800811
1073.422252,0.000000,-518.144159,9548.656652
1073.422568,-229.828649,-666.185348,9918.759623
1073.422884,383.047749,-1110.308913,10362.883188
1073.423199,1149.143247,-296.082377,9844.739029
1073.423515,842.705048,518.144159,8734.430116
1073.423831,1149.143247,444.123565,8956.491898
1073.424146,1149.143247,444.123565,8956.491898
1073.424462,1225.752797,296.082377,8586.388927
1073.424778,766.095498,148.041188,9104.533087
1073.425094,766.095498,-740.205942,9252.574275
1073.425409,536.266849,-1258.350101,9918.759623
1073.425725,689.485948,-1332.370696,9696.697840
1073.426041,383.047749,-1184.329507,9622.677246
1073.426356,383.047749,-1258.350101,9474.636058
1073.426672,612.876398,-1184.329507,9548.656652
1073.426988,612.876398,-888.247130,9104.533087
1073.427304,766.095498,-740.205942,9326.594869
1073.427619,459.657299,-1036.288319,9622.677246
1073.427935,1685.410096,-1480.411884,9770.718434
1073.428251,1225.752797,-1554.432478,9548.656652
1073.428566,995.924147,-1110.308913,8734.430116
1073.428882,995.924147,-1110.308913,8512.368333
1073.429198,1072.533697,-1036.288319,8882.471304
1073.429514,1149.143247,-814.226536,9030.512492
1073.429829,919.314598,-888.247130,9326.594869
1073.430145,536.266849,-740.205942,9326.594869
1073.430461,536.266849,-1332.370696,9548.656652
1073.430776,306.438199,-962.267725,9622.677246
1073.431092,536.266849,-1554.432478,9622.677246
1073.431408,306.438199,-1406.391290,9326.594869
1073.431724,612.876398,-1480.411884,9474.636058
1073.432039,383.047749,-1628.453072,9104.533087
1073.432355,919.314598,-1702.473667,9326.594869
1073.432671,0.000000,-1406.391290,9918.759623
1073.432986,153.219100,-1258.350101,9770.718434
1073.433302,153.219100,-814.226536,9548.656652
1073.433618,306.438199,-444.123565,9326.594869
1073.433933,459.657299,-222.061783,8734.430116
1073.434249,842.705048,-148.041188,8882.471304
1073.434565,842.705048,-0.000000,8586.388927
1073.434881,153.219100,-296.082377,9104.533087
1073.435196,0.000000,-296.082377,9474.636058
1073.435512,153.219100,-814.226536,10066.800811
1073.435828,76.609550,-296.082377,9622.677246
1073.436143,-306.438199,-0.000000,9252.574275
1073.436459,0.000000,-74.020594,9474.636058
1073.436775,-153.219100,-148.041188,9474.636058
1073.437091,459.657299,444.123565,9326.594869
1073.437406,459.657299,1036.288319,9030.512492
1073.437722,76.609550,518.144159,9622.677246
1073.438038,612.876398,-0.000000,9992.780217
1073.438353,842.705048,222.061783,9548.656652
1073.438669,536.266849,666.185348,9326.594869
1073.438985,153.219100,592.164754,9400.615463
1073.439301,306.438199,740.205942,9252.574275
1073.439616,689.485948,1184.329507,9474.636058
1073.439932,153.219100,1258.350101,9400.615463
1073.440248,0.000000,1702.473667,9622.677246
1073.440563,229.828649,1258.350101,9548.656652
1073.440879,153.219100,740.205942,9992.780217
1073.441195,0.000000,888.247130,9770.718434
1073.441511,0.000000,222.061783,9992.780217
1073.441826,153.219100,-0.000000,9548.656652
1073.442142,229.828649,370.102971,9696.697840
1073.442458,76.609550,592.164754,9696.697840
1073.442773,0.000000,518.144159,10066.800811
1073.443089,842.705048,370.102971,10362.883188
1073.443405,229.828649,740.205942,9844.739029
1073.443721,229.828649,1258.350101,9474.636058
1073.444036,689.485948,888.247130,9326.594869
1073.444352,919.314598,740.205942,9622.677246
1073.444668,766.095498,814.226536,9030.512492
1073.444983,229.828649,740.205942,9104.533087
1073.445299,229.828649,518.144159,9918.759623
1073.445615,0.000000,518.144159,9844.739029
1073.445931,-459.657299,518.144159,10288.862594
1073.446246,-536.266849,444.123565,9622.677246
1073.446562,76.609550,-0.000000,9400.615463
1073.446878,0.000000,-148.041188,9770.718434
1073.447193,0.000000,-518.144159,9992.780217
1073.447509,229.828649,-592.164754,9548.656652
1073.447825,0.000000,-74.020594,10066.800811
1073.448141,153.219100,-740.205942,10288.862594
1073.448456,612.876398,-444.123565,9992.780217
1073.448772,536.266849,-222.061783,9178.553681
1073.449088,153.219100,-0.000000,9252.574275
1073.449403,1072.533697,-148.041188,9178.553681
1073.449719,1225.752797,-444.123565,8512.368333
1073.450035,842.705048,148.041188,8660.409521
1073.450350,766.095498,148.041188,9252.574275
1073.450666,919.314598,-444.123565,9622.677246
1073.450982,689.485948,-740.205942,9030.512492
1073.451298,383.047749,-814.226536,9548.656652
1073.451613,383.047749,-1776.494261,9252.574275
1073.451929,612.876398,-2220.617826,9622.677246
1073.452245,459.657299,-1924.535449,9696.697840
1073.452560,153.219100,-1776.494261,9770.718434
1073.452876,76.609550,-1184.329507,9474.636058
1073.453192,536.266849,-1036.288319,9548.656652
1073.453508,766.095498,-1110.308913,9696.697840
1073.453823,995.924147,-1480.411884,9400.615463
1073.454139,1532.190996,-962.267725,8808.450710
1073.454455,1532.190996,-1036.288319,8734.430116
1073.454770,1762.019645,-1258.350101,8512.368333
1073.455086,1378.971896,-962.267725,8956.491898
1073.455402,766.095498,-888.247130,9178.553681
1073.455718,1072.533697,-1110.308913,9326.594869
1073.456033,842.705048,-1036.288319,9474.636058
1073.456349,229.828649,-1110.308913,9252.574275
1073.456665,0.000000,-962.267725,9400.615463
1073.456980,383.047749,-1258.350101,9326.594869
1073.457296,229.828649,-1554.432478,9252.574275
1073.457612,0.000000,-1628.453072,9474.636058
1073.457928,-153.219100,-1850.514855,9992.780217
1073.458243,306.438199,-1776.494261,10066.800811
1073.458559,306.438199,-888.247130,9548.656652
1073.458875,153.219100,-592.164754,9252.574275
1073.459190,383.047749,-666.185348,8882.471304
1073.459506,919.314598,-0.000000,8660.409521
1073.459822,1225.752797,-0.000000,8512.368333
1073.460138,919.314598,296.082377,8956.491898
1073.460453,459.657299,-148.041188,9474.636058
1073.460769,612.876398,-222.061783,9178.553681
1073.461085,766.095498,-148.041188,9474.636058
1073.461400,229.828649,-0.000000,9178.553681
1073.461716,153.219100,148.041188,9252.574275
1073.462032,459.657299,-0.000000,9400.615463
1073.462348,536.266849,-148.041188,9474.636058
1073.462663,0.000000,148.041188,9770.718434
1073.462979,0.000000,222.061783,9918.759623
1073.463295,0.000000,-0.000000,10436.903782
1073.463610,842.705048,740.205942,9548.656652
1073.463926,536.266849,962.267725,9326.594869
1073.464242,1149.143247,888.247130,9474.636058
1073.464558,1149.143247,1036.288319,9252.574275
1073.464873,1072.533697,1332.370696,9252.574275
1073.465189,536.266849,1332.370696,9400.615463
1073.465505,-153.219100,1480.411884,9400.615463
1073.465820,459.657299,296.082377,10140.821405
1073.466136,153.219100,1110.308913,10066.800811
1073.466452,-306.438199,888.247130,9696.697840
1073.466768,-306.438199,518.144159,10066.800811
1073.467083,306.438199,296.082377,9622.677246
1073.467399,229.828649,518.144159,9104.533087
1073.467715,153.219100,666.185348,10362.883188
1073.468030,0.000000,370.102971,10066.800811
1073.468346,0.000000,592.164754,9844.739029
1073.468662,153.219100,666.185348,9918.759623
1073.468978,229.828649,666.185348,9548.656652
1073.469293,459.657299,888.247130,9178.553681
1073.469609,459.657299,1554.432478,8882.471304
1073.469925,229.828649,1110.308913,8808.450710
1073.470241,153.219100,518.144159,9548.656652
1073.470556,-536.266849,444.123565,9548.656652
1073.470872,-612.876398,222.061783,10066.800811
1073.471188,-689.485948,148.041188,9918.759623
1073.471504,-995.924147,444.123565,9696.697840
1073.471819,-1149.143247,-0.000000,9696.697840
1073.472135,-919.314598,-370.102971,9992.780217
1073.472451,-842.705048,-296.082377,9992.780217
1073.472767,-919.314598,-296.082377,9770.718434
1073.473082,-612.876398,-444.123565,9918.759623
1073.473398,306.438199,-666.185348,10436.903782
1073.473714,459.657299,-0.000000,9474.636058
1073.474030,536.266849,-0.000000,9178.553681
1073.474345,612.876398,-74.020594,9178.553681
1073.474661,995.924147,-74.020594,9178.553681
1073.474977,1378.971896,-148.041188,8734.430116
1073.475293,842.705048,-74.020594,8808.450710
1073.475608,919.314598,-0.000000,9400.615463
1073.475924,919.314598,-444.123565,9474.636058
1073.476240,1072.533697,-296.082377,9252.574275
1073.476556,76.609550,-1332.370696,9178.553681
1073.476871,766.095498,-1406.391290,9030.512492
1073.477187,1225.752797,-1628.453072,9474.636058
1073.477503,995.924147,-1702.473667,9252.574275
1073.477819,612.876398,-1554.432478,9326.594869
1073.478134,919.314598,-1776.494261,9844.739029
1073.478450,1149.143247,-1554.432478,9548.656652
1073.478766,1072.533697,-1036.288319,9474.636058
1073.479082,1072.533697,-1184.329507,9252.574275
1073.479397,1455.581446,-1110.308913,8882.471304
1073.479713,1532.190996,-1332.370696,8882.471304
1073.480029,1685.410096,-1036.288319,9252.574275
1073.480345,1532.190996,-1036.288319,8882.471304
1073.480660,1302.362347,-1184.329507,9030.512492
1073.480976,1225.752797,-962.267725,9474.636058
1073.481292,995.924147,-1332.370696,9474.636058
1073.481607,919.314598,-740.205942,9326.594869
1073.481923,842.705048,-740.205942,9104.533087
1073.482239,995.924147,-1406.391290,9326.594869
1073.482555,995.924147,-1258.350101,9548.656652
1073.482870,306.438199,-1332.370696,9548.656652
1073.483186,76.609550,-1554.432478,10066.800811
1073.483502,459.657299,-1406.391290,10510.924376
1073.483818,612.876398,-1110.308913,9770.718434
1073.484133,383.047749,-740.205942,9326.594869
1073.484449,459.657299,-370.102971,9326.594869
1073.484765,919.314598,-296.082377,9400.615463
1073.485081,689.485948,-444.123565,9030.512492
1073.485396,459.657299,-0.000000,9326.594869
1073.485712,0.000000,148.041188,9844.739029
1073.486028,153.219100,-0.000000,9474.636058
1073.486344,306.438199,-0.000000,9622.677246
1073.486659,153.219100,-0.000000,9548.656652
1073.486975,-306.438199,148.041188,9844.739029
1073.487291,0.000000,296.082377,9326.594869
1073.487607,0.000000,74.020594,9474.636058
1073.487922,-306.438199,-0.000000,9844.739029
1073.488238,-383.047749,-0.000000,10140.821405
1073.488554,76.609550,148.041188,10436.903782
1073.488870,153.219100,296.082377,9770.718434
1073.489185,153.219100,888.247130,9474.636058
1073.489501,153.219100,1184.329507,9548.656652
1073.489817,612.876398,1110.308913,8956.491898
1073.490133,689.485948,1406.391290,8956.491898
1073.490448,383.047749,1258.350101,9030.512492
1073.490764,0.000000,1036.288319,9400.615463
1073.491080,153.219100,1110.308913,9770.718434
1073.491396,0.000000,814.226536,9474.636058
1073.491711,-459.657299,666.185348,9474.636058
1073.492027,-153.219100,888.247130,9622.677246
1073.492343,0.000000,444.123565,9548.656652
1073.492659,153.219100,518.144159,9548.656652
1073.492974,76.609550,296.082377,9844.739029
1073.493290,-383.047749,518.144159,10066.800811
1073.493606,-76.609550,370.102971,10288.862594
1073.493922,153.219100,518.144159,9770.718434
1073.494237,306.438199,814.226536,9252.574275
1073.494553,536.266849,518.144159,9252.574275
1073.494869,919.314598,444.123565,9770.718434
1073.495185,842.705048,740.205942,9104.533087
1073.495500,459.657299,1110.308913,9474.636058
1073.495816,459.657299,1036.288319,9474.636058
1073.496132,536.266849,740.205942,9696.697840
1073.496447,459.657299,222.061783,9844.739029
1073.496763,76.609550,-0.000000,9696.697840
1073.497079,0.000000,-0.000000,9696.697840
1073.497395,-153.219100,-296.082377,9992.780217
1073.497710,689.485948,-0.000000,9844.739029
1073.498026,76.609550,-0.000000,9474.636058
1073.498342,229.828649,-148.041188,9844.739029
1073.498658,229.828649,-296.082377,10288.862594
1073.498973,766.095498,-444.123565,10066.800811
1073.499289,766.095498,-444.123565,9622.677246
1073.499605,842.705048,-518.144159,9104.533087
1073.499921,1225.752797,-370.102971,9252.574275
1073.500236,1302.362347,-148.041188,9326.594869
1073.500552,1532.190996,-0.000000,9104.533087
1073.500868,689.485948,-0.000000,9104.533087
1073.501184,919.314598,-148.041188,9474.636058
1073.501499,766.095498,-518.144159,9104.533087
1073.501815,766.095498,-592.164754,9104.533087
1073.502131,612.876398,-1036.288319,8808.450710
1073.502447,766.095498,-1702.473667,9696.697840
1073.502762,995.924147,-1628.453072,9474.636058
1073.503078,383.047749,-1184.329507,9474.636058
1073.503394,76.609550,-888.247130,9252.574275
1073.503710,1149.143247,-1110.308913,9400.615463
1073.504025,842.705048,-888.247130,9474.636058
1073.504341,1072.533697,-1110.308913,9252.574275
1073.504657,919.314598,-1628.453072,9178.553681
1073.504973,1302.362347,-1406.391290,9178.553681
1073.505288,842.705048,-1184.329507,9474.636058
1073.505604,689.485948,-740.205942,8808.450710
1073.505920,689.485948,-666.185348,9326.594869
1073.506236,766.095498,-1406.391290,9474.636058
1073.506551,766.095498,-962.267725,9918.759623
1073.506867,536.266849,-1110.308913,9326.594869
1073.507183,306.438199,-1628.453072,9104.533087
1073.507499,612.876398,-1110.308913,9252.574275
1073.507814,306.438199,-962.267725,9326.594869
1073.508130,0.000000,-1036.288319,9326.594869
1073.508446,0.000000,-1628.453072,10140.821405
1073.508762,76.609550,-1776.494261,9992.780217
1073.509077,153.219100,-1258.350101,9622.677246
1073.509393,0.000000,-592.164754,9326.594869
1073.509709,-153.219100,-962.267725,9474.636058
1073.510025,689.485948,-666.185348,9400.615463
1073.510340,612.876398,-148.041188,9030.512492
1073.510656,76.609550,-0.000000,9104.533087
1073.510972,-383.047749,-0.000000,9474.636058
1073.511288,0.000000,-296.082377,9548.656652
1073.511603,306.438199,-444.123565,9844.739029
1073.511919,0.000000,-0.000000,9474.636058
1073.512235,0.000000,148.041188,9400.615463
1073.512550,766.095498,-0.000000,9474.636058
1073.512866,612.876398,-0.000000,9104.533087
1073.513182,0.000000,-0.000000,9326.594869
1073.513498,229.828649,740.205942,9548.656652
1073.513813,612.876398,592.164754,9844.739029
1073.514129,1072.533697,814.226536,9326.594869
1073.514445,536.266849,962.267725,9548.656652
1073.514761,612.876398,740.205942,9178.553681
1073.515076,1302.362347,666.185348,9400.615463
1073.515392,1072.533697,888.247130,8956.491898
1073.515708,536.266849,1184.329507,9030.512492
1073.516024,76.609550,1258.350101,10066.800811
1073.516339,766.095498,1554.432478,10140.821405
1073.516655,383.047749,1258.350101,9474.636058
1073.516971,0.000000,814.226536,9770.718434
1073.517287,0.000000,592.164754,9696.697840
1073.517602,153.219100,518.144159,9696.697840
1073.517918,76.609550,666.185348,9400.615463
1073.518234,0.000000,814.226536,9474.636058
1073.518550,76.609550,444.123565,10510.924376
1073.518865,689.485948,296.082377,10214.842000
1073.519181,306.438199,444.123565,10214.842000
1073.519497,0.000000,518.144159,9474.636058
1073.519813,76.609550,-0.000000,9696.697840
1073.520128,766.095498,518.144159,9548.656652
1073.520444,842.705048,962.267725,9326.594869
1073.520760,153.219100,1406.391290,9104.533087
1073.521076,-153.219100,1184.329507,9622.677246
1073.521391,229.828649,666.185348,10066.800811
1073.521707,229.828649,518.144159,9696.697840
1073.522023,-689.485948,-0.000000,10214.842000
1073.522339,-153.219100,-296.082377,9844.739029
1073.522654,0.000000,-518.144159,9548.656652
1073.522970,0.000000,-148.041188,9770.718434
1073.523286,-229.828649,222.061783,9918.759623
1073.523602,-459.657299,-370.102971,9844.739029
1073.523917,0.000000,-370.102971,9992.780217
1073.524233,-229.828649,-0.000000,9622.677246
1073.524549,0.000000,-666.185348,9770.718434
1073.524865,76.609550,-666.185348,9474.636058
1073.525180,383.047749,-444.123565,9030.512492
1073.525496,766.095498,-888.247130,9400.615463
1073.525812,459.657299,-666.185348,9696.697840
1073.526128,306.438199,-666.185348,9548.656652
1073.526443,612.876398,-666.185348,9622.677246
1073.526759,766.095498,-148.041188,9252.574275
1073.527075,689.485948,-740.205942,9252.574275
1073.527390,919.314598,-740.205942,9104.533087
1073.527706,1225.752797,-814.226536,8734.430116
1073.528022,1608.800546,-962.267725,8734.430116
1073.528338,1149.143247,-814.226536,8808.450710
1073.528653,842.705048,-1258.350101,9474.636058
1073.528969,1072.533697,-1332.370696,9844.739029
1073.529285,1149.143247,-888.247130,8956.491898
1073.529601,1455.581446,-1628.453072,8956.491898
1073.529916,689.485948,-1776.494261,9326.594869
1073.530232,1072.533697,-1554.432478,9400.615463
1073.530548,995.924147,-1332.370696,8956.491898
1073.530864,689.485948,-1184.329507,9326.594869
1073.531179,306.438199,-1184.329507,9326.594869
1073.531495,536.266849,-1258.350101,9474.636058
1073.531811,766.095498,-1110.308913,9178.553681
1073.532127,0.000000,-1184.329507,9326.594869
1073.532442,383.047749,-1702.473667,8882.471304
1073.532758,612.876398,-1924.535449,9178.553681
1073.533074,229.828649,-1554.432478,9326.594869
1073.533390,153.219100,-1554.432478,9400.615463
1073.533705,153.219100,-1258.350101,9474.636058
1073.534021,536.266849,-1258.350101,9844.739029
1073.534337,612.876398,-740.205942,9400.615463
1073.534653,536.266849,-148.041188,8808.450710
1073.534968,612.876398,-74.020594,8956.491898
1073.535284,689.485948,-370.102971,9030.512492
1073.535600,995.924147,-0.000000,9104.533087
1073.535916,0.000000,296.082377,9400.615463
1073.536231,153.219100,-0.000000,9622.677246
1073.536547,76.609550,-0.000000,9992.780217
1073.536863,76.609550,-148.041188,9770.718434
1073.537179,0.000000,-0.000000,9622.677246
1073.537494,-229.828649,-0.000000,9400.615463
1073.537810,229.828649,296.082377,9252.574275
1073.538126,612.876398,148.041188,9548.656652
1073.538442,153.219100,296.082377,9252.574275
1073.538757,536.266849,-0.000000,9992.780217
1073.539073,766.095498,296.082377,9770.718434
1073.539389,612.876398,592.164754,9326.594869
1073.539705,383.047749,962.267725,9474.636058
1073.540020,536.266849,814.226536,9548.656652
1073.540336,995.924147,962.267725,9030.512492
1073.540652,1072.533697,1332.370696,8734.430116
1073.540968,689.485948,1258.350101,9400.615463
1073.541283,306.438199,962.267725,9770.718434
1073.541599,536.266849,814.226536,9992.780217
1073.541915,306.438199,740.205942,9844.739029
1073.542231,0.000000,962.267725,10140.821405
1073.542546,-383.047749,592.164754,10066.800811
1073.542862,76.609550,888.247130,9844.739029
1073.543178,76.609550,962.267725,9326.594869
1073.543493,-766.095498,888.247130,9770.718434
1073.543809,-536.266849,444.123565,10436.903782
1073.544125,0.000000,518.144159,10510.924376
1073.544441,0.000000,592.164754,10140.821405
1073.544756,-153.219100,518.144159,10066.800811
1073.545072,0.000000,-0.000000,9770.718434
1073.545388,612.876398,370.102971,9844.739029
1073.545704,766.095498,888.247130,9104.533087
1073.546019,153.219100,888.247130,9104.533087
1073.546335,306.438199,518.144159,9770.718434
1073.546651,76.609550,370.102971,9844.739029
1073.546967,306.438199,-0.000000,9844.739029
1073.547282,229.828649,-0.000000,9622.677246
1073.547598,0.000000,-74.020594,9178.553681
1073.547914,0.000000,-222.061783,10066.800811
1073.548230,153.219100,-444.123565,9474.636058
1073.548545,-383.047749,-148.041188,9252.574275
1073.548861,-306.438199,-370.102971,9844.739029
1073.549177,0.000000,-814.226536,9918.759623
1073.549493,306.438199,-592.164754,9326.594869
1073.549808,0.000000,-592.164754,9474.636058
1073.550124,0.000000,-814.226536,9474.636058
1073.550440,306.438199,-740.205942,9326.594869
1073.550756,842.705048,-296.082377,9030.512492
1073.551071,766.095498,-518.144159,9178.553681
1073.551387,229.828649,-666.185348,9474.636058
1073.551703,689.485948,-666.185348,9474.636058
1073.552019,689.485948,-592.164754,9326.594869
1073.552334,842.705048,-666.185348,9178.553681
1073.552650,1225.752797,-592.164754,8808.450710
1073.552966,1302.362347,-444.123565,8438.347739
1073.553282,1685.410096,-592.164754,8956.491898
1073.553597,1072.533697,-518.144159,8956.491898
1073.553913,995.924147,-666.185348,9326.594869
1073.554229,1302.362347,-1184.329507,9474.636058
1073.554545,1302.362347,-1406.391290,9178.553681
1073.554860,995.924147,-1406.391290,9178.553681
1073.555176,766.095498,-1702.473667,9252.574275
1073.555492,1149.143247,-1924.535449,9474.636058
1073.555808,842.705048,-1406.391290,9474.636058
1073.556123,153.219100,-888.247130,9104.533087
1073.556439,383.047749,-962.267725,9548.656652
1073.556755,459.657299,-1258.350101,9918.759623
1073.557071,689.485948,-1110.308913,9474.636058
1073.557386,229.828649,-1480.411884,9104.533087
1073.557702,919.314598,-1332.370696,9178.553681
1073.558018,842.705048,-1406.391290,9178.553681
1073.558333,1072.533697,-1406.391290,8956.491898
1073.558649,919.314598,-1406.391290,9474.636058
1073.558965,766.095498,-962.267725,9696.697840
1073.559281,1225.752797,-666.185348,9844.739029
1073.559596,842.705048,-518.144159,9326.594869
1073.559912,919.314598,-370.102971,9400.615463
1073.560228,1072.533697,-444.123565,9474.636058
1073.560544,1149.143247,-74.020594,9030.512492
1073.560859,995.924147,-370.102971,9400.615463
1073.561175,689.485948,-518.144159,9252.574275
1073.561491,229.828649,-0.000000,9474.636058
1073.561807,153.219100,-222.061783,9548.656652
1073.562122,306.438199,-148.041188,9992.780217
1073.562438,0.000000,-74.020594,9918.759623
1073.562754,0.000000,-0.000000,9474.636058
1073.563070,459.657299,-0.000000,9400.615463
1073.563385,383.047749,148.041188,9474.636058
1073.563701,76.609550,148.041188,9696.697840
1073.564017,153.219100,740.205942,9474.636058
1073.564333,689.485948,444.123565,9844.739029
1073.564648,689.485948,666.185348,9622.677246
1073.564964,383.047749,740.205942,9326.594869
1073.565280,536.266849,740.205942,9326.594869
1073.565596,1225.752797,666.185348,9252.574275
1073.565911,1072.533697,888.247130,8734.430116
1073.566227,229.828649,888.247130,9326.594869
1073.566543,0.000000,1110.308913,9400.615463
1073.566859,76.609550,740.205942,9844.739029
1073.567174,0.000000,1110.308913,9696.697840
1073.567490,-306.438199,1258.350101,9474.636058
1073.567806,0.000000,592.164754,9622.677246
1073.568122,-153.219100,518.144159,9400.615463
1073.568437,-229.828649,296.082377,9252.574275
1073.568753,-689.485948,-0.000000,9844.739029
1073.569069,-383.047749,-296.082377,10732.986159
1073.569384,-536.266849,-0.000000,10362.883188
1073.569700,-842.705048,592.164754,9400.615463
1073.570016,-919.314598,740.205942,9696.697840
1073.570331,-383.047749,592.164754,9548.656652
1073.570647,0.000000,-0.000000,9696.697840
1073.570962,0.000000,74.020594,9252.574275
1073.571278,-306.438199,222.061783,9474.636058
1073.571594,-306.438199,-0.000000,9622.677246
1073.571909,76.609550,-222.061783,9918.759623
1073.572225,0.000000,222.061783,9474.636058
1073.572541,0.000000,518.144159,9474.636058
1073.572856,76.609550,518.144159,9326.594869
1073.573172,306.438199,-74.020594,9548.656652
1073.573488,612.876398,-0.000000,9104.533087
1073.573803,76.609550,444.123565,9178.553681
1073.574119,76.609550,-148.041188,9696.697840
1073.574435,536.266849,-444.123565,10066.800811
1073.574750,995.924147,-74.020594,9696.697840
1073.575066,306.438199,-148.041188,9104.533087
1073.575382,536.266849,-370.102971,9474.636058
1073.575697,766.095498,-222.061783,9474.636058
1073.576013,1225.752797,-222.061783,9252.574275
1073.576329,459.657299,-0.000000,9104.533087
1073.576644,536.266849,-222.061783,9844.739029
1073.576960,1072.533697,-296.082377,9622.677246
1073.577276,1455.581446,-666.185348,9400.615463
1073.577591,842.705048,-592.164754,9326.594869
1073.577907,1072.533697,-740.205942,9030.512492
1073.578222,1685.410096,-1036.288319,9030.512492
1073.578538,1608.800546,-1036.288319,8882.471304
1073.578854,1225.752797,-1036.288319,9400.615463
1073.579169,1149.143247,-1258.350101,9918.759623
1073.579485,1149.143247,-814.226536,9918.759623
1073.579801,2145.067394,-814.226536,9474.636058
1073.580116,1455.581446,-962.267725,9178.553681
1073.580432,1149.143247,-962.267725,9178.553681
1073.580748,1608.800546,-962.267725,9474.636058
1073.581063,1455.581446,-666.185348,8956.491898
1073.581379,1072.533697,-370.102971,8956.491898
1073.581695,459.657299,-1036.288319,9326.594869
1073.582010,536.266849,-1702.473667,10140.821405
1073.582326,459.657299,-1628.453072,10214.842000
1073.582642,153.219100,-1480.411884,9918.759623
1073.582957,76.609550,-666.185348,9326.594869
1073.583273,459.657299,-1110.308913,9326.594869
1073.583589,459.657299,-1036.288319,9474.636058
1073.583904,153.219100,-666.185348,9622.677246
1073.584220,229.828649,-888.247130,9400.615463
1073.584536,536.266849,-666.185348,9770.718434
1073.584851,689.485948,-740.205942,9474.636058
1073.585167,689.485948,-666.185348,9104.533087
1073.585483,689.485948,-814.226536,9400.615463
1073.585798,766.095498,-592.164754,9178.553681
1073.586114,842.705048,-0.000000,8512.368333
1073.586429,536.266849,592.164754,8512.368333
1073.586745,229.828649,-0.000000,9548.656652
1073.587061,76.609550,-74.020594,9844.739029
1073.587376,612.876398,222.061783,9474.636058
1073.587692,-229.828649,296.082377,9030.512492
1073.588008,-76.609550,-0.000000,9178.553681
1073.588323,229.828649,-222.061783,9326.594869
1073.588639,229.828649,-74.020594,9622.677246
1073.588955,-689.485948,-0.000000,9474.636058
1073.589270,-919.314598,-296.082377,10140.821405
1073.589586,-383.047749,518.144159,10066.800811
1073.589902,-306.438199,370.102971,9622.677246
1073.590217,0.000000,592.164754,9326.594869
1073.590533,383.047749,666.185348,9030.512492
1073.590849,612.876398,296.082377,8660.409521
1073.591164,995.924147,518.144159,9326.594869
1073.591480,306.438199,444.123565,9252.574275
1073.591796,0.000000,814.226536,9622.677246
1073.592111,383.047749,962.267725,9844.739029
1073.592427,153.219100,1036.288319,9474.636058
1073.592743,76.609550,1110.308913,9992.780217
1073.593058,0.000000,1110.308913,9548.656652
1073.593374,153.219100,592.164754,9326.594869
1073.593690,766.095498,814.226536,9326.594869
1073.594005,153.219100,296.082377,10066.800811
1073.594321,306.438199,444.123565,10288.862594
1073.594636,459.657299,222.061783,10362.883188
1073.594952,459.657299,666.185348,9992.780217
1073.595268,612.876398,814.226536,9474.636058
1073.595583,536.266849,888.247130,9252.574275
1073.595899,1302.362347,888.247130,9252.574275
1073.596215,689.485948,888.247130,9400.615463
1073.596530,536.266849,370.102971,9622.677246
1073.596846,842.705048,-0.000000,9918.759623
1073.597162,536.266849,-0.000000,10288.862594
1073.597477,689.485948,222.061783,9474.636058
1073.597793,536.266849,666.185348,9696.697840
1073.598109,689.485948,-0.000000,9622.677246
1073.598424,383.047749,-0.000000,10214.842000
1073.598740,459.657299,-0.000000,9474.636058
1073.599056,0.000000,-592.164754,9548.656652
1073.599371,0.000000,-666.185348,10510.924376
1073.599687,76.609550,-370.102971,10214.842000
1073.600003,153.219100,-0.000000,9844.739029
1073.600318,383.047749,-0.000000,9400.615463
1073.600634,536.266849,-222.061783,9030.512492
1073.600950,995.924147,-370.102971,8882.471304
1073.601265,766.095498,-518.144159,9104.533087
1073.601581,306.438199,-888.247130,9474.636058
1073.601896,229.828649,-666.185348,10140.821405
1073.602212,536.266849,-888.247130,10140.821405
1073.602528,766.095498,-222.061783,9326.594869
1073.602843,612.876398,-296.082377,8734.430116
1073.603159,689.485948,-666.185348,8882.471304
1073.603475,1149.143247,-1480.411884,9400.615463
1073.603790,1072.533697,-1332.370696,9030.512492
1073.604106,689.485948,-1184.329507,9326.594869
1073.604422,842.705048,-1110.308913,9326.594869
1073.604737,842.705048,-1628.453072,9252.574275
1073.605053,1149.143247,-888.247130,9326.594869
1073.605369,383.047749,-814.226536,9030.512492
1073.605684,919.314598,-1036.288319,8882.471304
1073.606000,995.924147,-1406.391290,8882.471304
1073.606316,689.485948,-1184.329507,9178.553681
1073.606631,383.047749,-1406.391290,9178.553681
1073.606947,0.000000,-1332.370696,9104.533087
1073.607263,995.924147,-1406.391290,9548.656652
1073.607578,0.000000,-1554.432478,9474.636058
1073.607894,0.000000,-1332.370696,9548.656652
1073.608210,0.000000,-962.267725,9178.553681
1073.608525,0.000000,-1406.391290,9326.594869
1073.608841,536.266849,-1184.329507,9400.615463
1073.609157,306.438199,-962.267725,9400.615463
1073.609472,153.219100,-666.185348,9474.636058
1073.609788,536.266849,-740.205942,9696.697840
1073.610103,536.266849,-814.226536,9326.594869
1073.610419,153.219100,148.041188,9104.533087
1073.610735,689.485948,-222.061783,9474.636058
1073.611050,1072.533697,-148.041188,9104.533087
1073.611366,612.876398,-74.020594,9030.512492
1073.611682,-306.438199,296.082377,9400.615463
1073.611997,76.609550,-222.061783,9844.739029
1073.612313,153.219100,-0.000000,9844.739029
1073.612629,0.000000,148.041188,9474.636058
1073.612944,0.000000,-222.061783,9400.615463
1073.613260,306.438199,-296.082377,9622.677246
1073.613576,383.047749,-148.041188,9474.636058
1073.613891,383.047749,-74.020594,9696.697840
1073.614207,153.219100,296.082377,9548.656652
1073.614523,153.219100,592.164754,9770.718434
1073.614838,766.095498,740.205942,9474.636058
1073.615154,689.485948,518.144159,9474.636058
1073.615470,306.438199,740.205942,9548.656652
1073.615785,689.485948,592.164754,9400.615463
1073.616101,1149.143247,592.164754,9326.594869
1073.616417,1302.362347,1036.288319,9992.780217
1073.616732,383.047749,666.185348,9770.718434
1073.617048,536.266849,962.267725,9770.718434
1073.617364,689.485948,962.267725,9770.718434
1073.617679,229.828649,1332.370696,9474.636058
1073.617995,76.609550,962.267725,9474.636058
1073.618310,76.609550,592.164754,9622.677246
1073.618626,459.657299,518.144159,9696.697840
1073.618942,536.266849,666.185348,9696.697840
1073.619257,-153.219100,962.267725,9622.677246
1073.619573,-229.828649,296.082377,9548.656652
1073.619889,383.047749,296.082377,10362.883188
1073.620204,612.876398,444.123565,10140.821405
1073.620520,153.219100,444.123565,9326.594869
1073.620836,0.000000,814.226536,9400.615463
1073.621151,306.438199,518.144159,9622.677246
1073.621467,383.047749,444.123565,9252.574275
1073.621783,-153.219100,1258.350101,9474.636058
1073.622098,-459.657299,518.144159,9622.677246
1073.622414,-383.047749,444.123565,9844.739029
1073.622730,-229.828649,222.061783,9696.697840
1073.623045,-1072.533697,-0.000000,9178.553681
1073.623361,-459.657299,-592.164754,9696.697840
1073.623677,-612.876398,-814.226536,10066.800811
1073.623992,0.000000,-666.185348,9622.677246
1073.624308,-459.657299,-444.123565,10066.800811
1073.624624,-229.828649,-666.185348,10066.800811
1073.624939,0.000000,-296.082377,10140.821405
1073.625255,383.047749,148.041188,9030.512492
1073.625570,459.657299,-0.000000,9104.533087
1073.625886,689.485948,-0.000000,8956.491898
1073.626202,995.924147,-296.082377,8808.450710
1073.626517,1455.581446,-222.061783,8882.471304
1073.626833,766.095498,-370.102971,9104.533087
1073.627149,306.438199,-370.102971,9474.636058
1073.627464,459.657299,-518.144159,9400.615463
1073.627780,536.266849,-296.082377,9474.636058
1073.628096,306.438199,-148.041188,9030.512492
1073.628411,306.438199,-814.226536,9474.636058
1073.628727,689.485948,-1998.556043,9474.636058
1073.629043,766.095498,-1924.535449,9474.636058
1073.629358,536.266849,-1480.411884,9326.594869
1073.629674,459.657299,-1406.391290,9770.718434
1073.629990,919.314598,-1110.308913,9992.780217
1073.630305,995.924147,-74.020594,9104.533087
1073.630621,995.924147,-0.000000,8586.388927
1073.630937,1149.143247,-740.205942,9030.512492
1073.631252,1225.752797,-962.267725,8882.471304
1073.631568,1072.533697,-1184.329507,8734.430116
1073.631884,995.924147,-1110.308913,9548.656652
1073.632199,766.095498,-1406.391290,9326.594869
1073.632515,919.314598,-888.247130,9696.697840
1073.632831,919.314598,-370.102971,9030.512492
1073.633146,383.047749,-814.226536,8956.491898
1073.633462,459.657299,-962.267725,9030.512492
1073.633777,459.657299,-1628.453072,9770.718434
1073.634093,229.828649,-1480.411884,9844.739029
1073.634409,153.219100,-1258.350101,9696.697840
1073.634724,-153.219100,-740.205942,10288.862594
1073.635040,612.876398,-962.267725,10362.883188
1073.635356,842.705048,-1036.288319,9474.636058
1073.635671,689.485948,-148.041188,9104.533087
1073.635987,919.314598,-74.020594,9030.512492
1073.636303,1685.410096,-74.020594,8956.491898
1073.636618,1149.143247,-370.102971,9400.615463
1073.636934,612.876398,444.123565,9178.553681
1073.637250,459.657299,-0.000000,9030.512492
1073.637565,689.485948,222.061783,9474.636058
1073.637881,536.266849,-0.000000,9696.697840
1073.638197,229.828649,-74.020594,9400.615463
1073.638512,0.000000,-666.185348,9178.553681
1073.638828,153.219100,-666.185348,9992.780217
1073.639144,383.047749,-814.226536,10066.800811
1073.639459,229.828649,-0.000000,9844.739029
1073.639775,0.000000,296.082377,9770.718434
1073.640091,459.657299,-0.000000,10214.842000
1073.640406,919.314598,814.226536,9178.553681
1073.640722,536.266849,962.267725,9178.553681
1073.641038,842.705048,814.226536,9548.656652
1073.641353,995.924147,888.247130,8660.409521
1073.641669,1072.533697,1332.370696,8660.409521
1073.641984,229.828649,1184.329507,9400.615463
1073.642300,0.000000,666.185348,10140.821405
1073.642616,383.047749,444.123565,9918.759623
1073.642931,76.609550,518.144159,9770.718434
1073.643247,0.000000,518.144159,9548.656652
1073.643563,0.000000,444.123565,9770.718434
1073.643878,459.657299,-0.000000,9326.594869
1073.644194,306.438199,222.061783,9918.759623
1073.644510,0.000000,666.185348,9770.718434
1073.644825,306.438199,888.247130,9548.656652
1073.645141,153.219100,740.205942,9696.697840
1073.645457,459.657299,296.082377,9770.718434
1073.645772,383.047749,518.144159,9030.512492
1073.646088,383.047749,444.123565,9252.574275
1073.646404,536.266849,296.082377,9400.615463
1073.646719,383.047749,592.164754,9326.594869
1073.647035,0.000000,814.226536,9548.656652
1073.647351,0.000000,222.061783,9622.677246
1073.647666,-229.828649,296.082377,10140.821405
1073.647982,-306.438199,-0.000000,9844.739029
1073.648298,-459.657299,-74.020594,9770.718434
1073.648613,-612.876398,-592.164754,9696.697840
1073.648929,-229.828649,-592.164754,9622.677246
1073.649244,-306.438199,-592.164754,9548.656652
1073.649560,-306.438199,-296.082377,9474.636058
1073.649876,-153.219100,-222.061783,10214.842000
1073.650191,536.266849,-370.102971,9992.780217
1073.650507,459.657299,148.041188,9178.553681
1073.650823,536.266849,-0.000000,9178.553681
1073.651138,612.876398,-74.020594,9178.553681
1073.651454,689.485948,-444.123565,8882.471304
1073.651770,919.314598,-296.082377,9178.553681
1073.652085,383.047749,74.020594,9178.553681
1073.652401,459.657299,370.102971,9400.615463
1073.652717,612.876398,-0.000000,9326.594869
1073.653032,536.266849,-148.041188,9178.553681
1073.653348,229.828649,-814.226536,9400.615463
1073.653664,612.876398,-1184.329507,9622.677246
1073.653979,612.876398,-1554.432478,9548.656652
1073.654295,689.485948,-1406.391290,9696.697840
1073.654611,612.876398,-1036.288319,9844.739029
1073.654926,536.266849,-1258.350101,9326.594869
1073.655242,1072.533697,-740.205942,9622.677246
1073.655558,612.876398,-888.247130,9474.636058
1073.655873,1225.752797,-814.226536,8734.430116
1073.656189,1378.971896,-962.267725,9326.594869
1073.656505,1532.190996,-1184.329507,9178.553681
1073.656820,1532.190996,-740.205942,9104.533087
1073.657136,919.314598,-296.082377,8956.491898
1073.657451,612.876398,-518.144159,9104.533087
1073.657767,1455.581446,-1406.391290,9844.739029
1073.658083,919.314598,-1036.288319,9548.656652
1073.658398,459.657299,-1258.350101,9252.574275
1073.658714,536.266849,-1480.411884,9178.553681
1073.659030,612.876398,-1480.411884,9400.615463
1073.659345,766.095498,-1184.329507,9474.636058
1073.659661,459.657299,-888.247130,9696.697840
1073.659977,0.000000,-888.247130,9844.739029
1073.660292,76.609550,-962.267725,9770.718434
1073.660608,229.828649,-1110.308913,9992.780217
1073.660924,153.219100,-814.226536,9400.615463
1073.661239,536.266849,-444.123565,9030.512492
1073.661555,689.485948,-592.164754,9326.594869
1073.661871,689.485948,-296.082377,8882.471304
1073.662186,229.828649,370.102971,9474.636058
1073.662502,153.219100,740.205942,9178.553681
1073.662818,153.219100,444.123565,9252.574275
1073.663133,459.657299,370.102971,9400.615463
1073.663449,229.828649,-370.102971,9178.553681
1073.663765,-306.438199,-592.164754,9696.697840
1073.664080,459.657299,-592.164754,9696.697840
1073.664396,689.485948,-222.061783,9548.656652
1073.664712,306.438199,518.144159,9252.574275
1073.665027,383.047749,518.144159,9474.636058
1073.665343,612.876398,518.144159,9622.677246
1073.665658,612.876398,666.185348,9474.636058
1073.665974,612.876398,592.164754,9178.553681
1073.666290,919.314598,222.061783,9326.594869
1073.666605,995.924147,370.102971,9400.615463
1073.666921,842.705048,666.185348,9178.553681
1073.667237,459.657299,962.267725,9326.594869
1073.667552,0.000000,1036.288319,9622.677246
1073.667868,153.219100,1184.329507,9918.759623
1073.668184,153.219100,814.226536,9548.656652
1073.668499,-306.438199,-0.000000,9844.739029
1073.668815,-229.828649,-444.123565,10066.800811
1073.669131,0.000000,-370.102971,10214.842000
1073.669445,612.876398,-0.000000,9918.759623
1073.669761,-153.219100,814.226536,9548.656652
1073.670077,76.609550,814.226536,9770.718434
1073.670392,383.047749,518.144159,9918.759623
1073.670708,536.266849,740.205942,9548.656652
1073.671024,306.438199,666.185348,9696.697840
1073.671340,383.047749,-0.000000,9474.636058
1073.671655,459.657299,296.082377,9696.697840
1073.671971,612.876398,518.144159,9104.533087
1073.672287,0.000000,888.247130,9252.574275
1073.672602,-306.438199,962.267725,9770.718434
1073.672918,-229.828649,740.205942,9696.697840
1073.673234,-383.047749,370.102971,9770.718434
1073.673550,-842.705048,-296.082377,9918.759623
1073.673865,-459.657299,-962.267725,10362.883188
1073.674181,153.219100,-1406.391290,10362.883188
1073.674497,153.219100,-518.144159,10140.821405
1073.674813,-306.438199,74.020594,9252.574275
1073.675128,0.000000,-0.000000,9844.739029
1073.675444,536.266849,222.061783,9548.656652
1073.675760,995.924147,222.061783,9474.636058
1073.676075,612.876398,444.123565,9326.594869
1073.676391,919.314598,-222.061783,9030.512492
1073.676707,1225.752797,-518.144159,9622.677246
1073.677023,1378.971896,-444.123565,9178.553681
1073.677338,919.314598,-296.082377,9474.636058
1073.677654,689.485948,-444.123565,9622.677246
1073.677970,536.266849,-296.082377,9548.656652
1073.678286,383.047749,-518.144159,9104.533087
1073.678601,306.438199,-1110.308913,9400.615463
1073.678917,459.657299,-1110.308913,9770.718434
1073.679233,689.485948,-1554.432478,9400.615463
1073.679548,919.314598,-1036.288319,8882.471304
1073.679864,612.876398,-1258.350101,9252.574275
1073.680180,383.047749,-1110.308913,9474.636058
1073.680496,1072.533697,-1480.411884,9622.677246
1073.680811,1149.143247,-1184.329507,9696.697840
1073.681127,1149.143247,-740.205942,9104.533087
1073.681443,1149.143247,-814.226536,8586.388927
1073.681759,1532.190996,-814.226536,8882.471304
1073.682074,1455.581446,-518.144159,8586.388927
1073.682390,766.095498,-0.000000,8586.388927
1073.682706,766.095498,-444.123565,9104.533087
1073.683021,842.705048,-1110.308913,9326.594869
1073.683337,459.657299,-1332.370696,9474.636058
1073.683653,306.438199,-1406.391290,9252.574275
1073.683969,0.000000,-1924.535449,9992.780217
1073.684284,459.657299,-1702.473667,10214.842000
1073.684600,612.876398,-888.247130,9474.636058
1073.684916,383.047749,-0.000000,9178.553681
1073.685232,306.438199,-296.082377,9474.636058
1073.685547,919.314598,-518.144159,9622.677246
1073.685863,995.924147,-518.144159,9252.574275
1073.686179,612.876398,-222.061783,9178.553681
1073.686494,459.657299,-370.102971,8956.491898
1073.686810,919.314598,-666.185348,8660.409521
1073.687126,919.314598,-296.082377,9030.512492
1073.687442,153.219100,-0.000000,9030.512492
1073.687757,-612.876398,-0.000000,10140.821405
1073.688073,-153.219100,-222.061783,10214.842000
1073.688389,-536.266849,-296.082377,9696.697840
1073.688705,-536.266849,-222.061783,9696.697840
1073.689020,-229.828649,-444.123565,9770.718434
1073.689336,-153.219100,-444.123565,9548.656652
1073.689652,229.828649,296.082377,9104.533087
1073.689968,0.000000,-0.000000,9104.533087
1073.690283,459.657299,148.041188,9622.677246
1073.690599,459.657299,222.061783,10066.800811
1073.690915,1149.143247,518.144159,9326.594869
1073.691230,919.314598,888.247130,9622.677246
1073.691546,919.314598,666.185348,9474.636058
1073.691862,1532.190996,1184.329507,9252.574275
1073.692178,612.876398,1628.453072,9030.512492
1073.692493,689.485948,1628.453072,9252.574275
1073.692809,459.657299,1110.308913,9770.718434
1073.693125,229.828649,814.226536,10214.842000
1073.693441,229.828649,518.144159,9844.739029
1073.693756,0.000000,518.144159,9548.656652
1073.694072,-229.828649,444.123565,9918.759623
1073.694388,0.000000,148.041188,10140.821405
1073.694703,0.000000,222.061783,10362.883188
1073.695019,-459.657299,296.082377,10066.800811
1073.695335,-153.219100,-0.000000,10214.842000
1073.695651,229.828649,-0.000000,10584.944971
1073.695966,766.095498,148.041188,9770.718434
1073.696282,612.876398,370.102971,9548.656652
1073.696598,536.266849,666.185348,9474.636058
1073.696914,995.924147,814.226536,9252.574275
1073.697229,612.876398,1110.308913,8734.430116
1073.697545,229.828649,1480.411884,8660.409521
1073.697861,0.000000,814.226536,9474.636058
1073.698176,229.828649,148.041188,9992.780217
1073.698492,0.000000,-74.020594,9844.739029
1073.698808,-459.657299,-518.144159,9622.677246
1073.699124,-459.657299,-962.267725,9844.739029
1073.699439,-229.828649,-1036.288319,9696.697840
1073.699755,0.000000,-1110.308913,9770.718434
1073.700071,-306.438199,-296.082377,9474.636058
1073.700387,-383.047749,-518.144159,9474.636058
1073.700702,229.828649,-888.247130,10066.800811
1073.701018,306.438199,-1036.288319,9474.636058
1073.701334,459.657299,-444.123565,9252.574275
1073.701649,842.705048,-444.123565,8808.450710
1073.701965,1149.143247,-518.144159,8808.450710
1073.702281,1455.581446,-0.000000,8660.409521
1073.702597,1072.533697,-0.000000,8142.265362
1073.702912,1455.581446,-148.041188,8956.491898
1073.703228,995.924147,-740.205942,9548.656652
1073.703544,919.314598,-962.267725,9474.636058
1073.703860,766.095498,-962.267725,9030.512492
1073.704175,536.266849,-1406.391290,9622.677246
1073.704491,1149.143247,-1184.329507,8956.491898
1073.704807,842.705048,-814.226536,8808.450710
1073.705122,459.657299,-518.144159,9326.594869
1073.705438,383.047749,-1110.308913,9696.697840
1073.705754,766.095498,-2146.597232,9844.739029
1073.706070,842.705048,-1480.411884,9696.697840
1073.706385,383.047749,-1480.411884,9548.656652
1073.706701,995.924147,-1258.350101,9030.512492
1073.707017,1225.752797,-666.185348,9178.553681
1073.707333,1378.971896,-74.020594,8734.430116
1073.707648,689.485948,222.061783,8364.327145
1073.707964,459.657299,-222.061783,9252.574275
1073.708280,689.485948,-1036.288319,9696.697840
1073.708595,459.657299,-1406.391290,9474.636058
1073.708911,-153.219100,-1406.391290,9770.718434
1073.709227,-229.828649,-1924.535449,9696.697840
1073.709543,459.657299,-1850.514855,9992.780217
1073.709858,536.266849,-592.164754,9548.656652
1073.710174,0.000000,-518.144159,9400.615463
1073.710490,229.828649,-888.247130,9696.697840
1073.710806,536.266849,-666.185348,10140.821405
1073.711121,766.095498,-888.247130,9474.636058
1073.711437,536.266849,-444.123565,9474.636058
1073.711753,612.876398,-666.185348,9178.553681
1073.712068,842.705048,-222.061783,9030.512492
1073.712384,919.314598,592.164754,9030.512492
1073.712700,229.828649,888.247130,9030.512492
1073.713016,0.000000,592.164754,9548.656652
1073.713331,0.000000,-0.000000,10214.842000
