#time,accel_x,accel_y,accel_z
832.019577,306.438199,-148.041188,9622.677246
832.019893,306.438199,-148.041188,9474.636058
832.020209,229.828649,-296.082377,9474.636058
832.020525,459.657299,-222.061783,9474.636058
832.020841,612.876398,-296.082377,9474.636058
832.021157,383.047749,-370.102971,9474.636058
832.021473,459.657299,-296.082377,9474.636058
832.021789,153.219100,-0.000000,9770.718434
832.022105,459.657299,-0.000000,9474.636058
832.022421,306.438199,-222.061783,9400.615463
832.022737,306.438199,-222.061783,9474.636058
832.023053,306.438199,-370.102971,9474.636058
832.023369,459.657299,-370.102971,9548.656652
832.023685,153.219100,-296.082377,9400.615463
832.024001,306.438199,-0.000000,9548.656652
832.024317,612.876398,-0.000000,9622.677246
832.024633,383.047749,-0.000000,9326.594869
832.024949,306.438199,222.061783,9326.594869
832.025265,229.828649,296.082377,9326.594869
832.025581,229.828649,148.041188,9400.615463
832.025897,0.000000,222.061783,9474.636058
832.026213,536.266849,-0.000000,9548.656652
832.026529,306.438199,-0.000000,9474.636058
832.026845,0.000000,-222.061783,9622.677246
832.027161,76.609550,-296.082377,9844.739029
832.027477,0.000000,-74.020594,9474.636058
832.027793,306.438199,296.082377,9622.677246
832.028109,536.266849,518.144159,9622.677246
832.028425,766.095498,888.247130,8882.471304
832.028741,306.438199,814.226536,9252.574275
832.029057,1072.533697,666.185348,9400.615463
832.029373,612.876398,814.226536,9030.512492
832.029689,536.266849,814.226536,9326.594869
832.030005,536.266849,370.102971,9400.615463
832.030321,536.266849,518.144159,9622.677246
832.030637,689.485948,-0.000000,9770.718434
832.030953,612.876398,222.061783,9548.656652
832.031269,689.485948,592.164754,9770.718434
832.031585,919.314598,1036.288319,9696.697840
832.031901,536.266849,666.185348,9400.615463
832.032217,1378.971896,1258.350101,9548.656652
832.032533,1608.800546,1480.411884,9400.615463
832.032849,1608.800546,1554.432478,9178.553681
832.033165,2221.676944,1480.411884,8956.491898
832.033481,2298.286494,1258.350101,9104.533087
832.033797,2451.505594,1702.473667,9104.533087
832.034113,2451.505594,1628.453072,9326.594869
832.034429,2374.896044,1924.535449,9474.636058
832.034745,2528.115143,1702.473667,9548.656652
832.035061,2987.772442,1850.514855,9548.656652
832.035377,2911.162892,1924.535449,9252.574275
832.035693,2757.943793,1998.556043,9622.677246
832.036009,2911.162892,2072.576638,9474.636058
832.036325,2987.772442,2294.638420,9252.574275
832.036641,3064.381992,2590.720797,9474.636058
832.036957,3370.820191,2516.700203,9400.615463
832.037273,3600.648841,2368.659014,9178.553681
832.037589,3140.991542,2368.659014,9252.574275
832.037905,3524.039291,2368.659014,9252.574275
832.038221,3294.210641,2220.617826,9400.615463
832.038537,3140.991542,2442.679609,9326.594869
832.038853,3064.381992,2812.782580,9622.677246
832.039169,2911.162892,2516.700203,9844.739029
832.039485,2987.772442,2442.679609,9548.656652
832.039801,2987.772442,2368.659014,9622.677246
832.040117,2757.943793,2368.659014,9696.697840
832.040433,2528.115143,2146.597232,9844.739029
832.040749,2451.505594,1998.556043,9992.780217
832.041065,2604.724693,2072.576638,9844.739029
832.041381,2528.115143,2294.638420,10140.821405
832.041697,2528.115143,2516.700203,9844.739029
832.042013,2451.505594,2294.638420,9696.697840
832.042329,2834.553343,2220.617826,9992.780217
832.042645,3064.381992,2368.659014,9696.697840
832.042961,2757.943793,2146.597232,9474.636058
832.043277,2604.724693,2220.617826,9548.656652
832.043593,2834.553343,2146.597232,9400.615463
832.043909,2451.505594,1998.556043,9474.636058
832.044225,2451.505594,1924.535449,9326.594869
832.044541,1991.848295,1702.473667,9252.574275
832.044857,1378.971896,1110.308913,9770.718434
832.045173,766.095498,518.144159,10288.862594
832.045489,536.266849,74.020594,10510.924376
832.045805,612.876398,-296.082377,10807.006753
832.046121,612.876398,-666.185348,10807.006753
832.046437,995.924147,-666.185348,10881.027347
832.046753,1149.143247,-74.020594,10436.903782
832.047069,1762.019645,814.226536,9992.780217
832.047385,2451.505594,1332.370696,9548.656652
832.047701,3447.429741,2220.617826,8438.347739
832.048017,4213.525239,3182.885551,7698.141797
832.048333,4290.134789,3182.885551,7254.018232
832.048649,4519.963438,3034.844362,7328.038826
832.048965,4366.744339,2220.617826,7254.018232
832.049281,3677.258390,1924.535449,7846.182985
832.049597,3064.381992,1036.288319,8438.347739
832.049912,1838.629195,666.185348,9326.594869
832.050228,1302.362347,296.082377,9622.677246
832.050544,689.485948,-0.000000,10288.862594
832.050860,-842.705048,-148.041188,10584.944971
832.051176,-919.314598,-148.041188,10732.986159
832.051492,-919.314598,-592.164754,11251.130318
832.051808,-689.485948,-1036.288319,11251.130318
832.052124,0.000000,-666.185348,10584.944971
832.052440,842.705048,-148.041188,10436.903782
832.052756,1762.019645,962.267725,9918.759623
832.053072,2757.943793,1480.411884,9252.574275
832.053388,4366.744339,3330.926739,8586.388927
832.053704,4979.620737,3330.926739,7105.977043
832.054020,5975.544884,4071.132681,7105.977043
832.054336,6665.030833,4219.173869,6587.832884
832.054652,6818.249932,4367.215058,6735.874072
832.054968,6511.811733,4293.194464,6809.894666
832.055284,5439.278036,3849.070898,7254.018232
832.055600,4826.401637,3034.844362,8290.306550
832.055916,3294.210641,1776.494261,9622.677246
832.056232,1532.190996,444.123565,10658.965565
832.056548,383.047749,-740.205942,11843.295072
832.056864,-919.314598,-740.205942,12805.562797
832.057180,-1378.971896,-666.185348,13545.768739
832.057496,-842.705048,-0.000000,13175.665768
832.057812,-459.657299,814.226536,12213.398043
832.058128,383.047749,1924.535449,11103.089130
832.058444,1532.190996,3182.885551,9844.739029
832.058760,2911.162892,4071.132681,8438.347739
832.059076,4673.182538,4367.215058,7550.100608
832.059392,5592.497135,4441.235652,7105.977043
832.059708,6741.640382,3701.029710,7031.956449
832.060024,6358.592633,3775.050304,7328.038826
832.060340,6052.154434,2516.700203,8216.285956
832.060656,5132.839837,2442.679609,9178.553681
832.060972,4136.915689,2664.741391,9844.739029
832.061288,3217.601092,1998.556043,11621.233289
832.061604,2221.676944,1850.514855,11843.295072
832.061920,995.924147,2368.659014,11251.130318
832.062236,766.095498,3034.844362,10807.006753
832.062552,1455.581446,2442.679609,10658.965565
832.062868,1608.800546,2664.741391,10140.821405
832.063184,1685.410096,2516.700203,9548.656652
832.063500,1149.143247,2220.617826,9252.574275
832.063816,1685.410096,1184.329507,9474.636058
832.064132,2298.286494,1776.494261,9030.512492
832.064448,2374.896044,2072.576638,8660.409521
832.064764,1838.629195,3034.844362,8956.491898
832.065080,1302.362347,2516.700203,9104.533087
832.065396,1225.752797,1776.494261,9474.636058
832.065712,1762.019645,1406.391290,9992.780217
832.066028,1991.848295,962.267725,10214.842000
832.066344,1762.019645,1184.329507,10510.924376
832.066660,1532.190996,1406.391290,10658.965565
832.066976,2221.676944,1850.514855,10584.944971
832.067292,2911.162892,2072.576638,9918.759623
832.067608,2987.772442,3404.947333,9030.512492
832.067924,3064.381992,4219.173869,7846.182985
832.068240,4060.306139,3404.947333,7105.977043
832.068556,4749.792088,2738.761985,7105.977043
832.068872,4366.744339,2738.761985,6883.915261
832.069188,3447.429741,2294.638420,7624.121203
832.069504,3524.039291,888.247130,8882.471304
832.069820,2451.505594,-444.123565,9474.636058
832.070136,1378.971896,-74.020594,10881.027347
832.070452,-306.438199,296.082377,11251.130318
832.070768,-306.438199,962.267725,11473.192101
832.071084,153.219100,518.144159,10955.047942
832.071400,919.314598,1184.329507,10658.965565
832.071716,919.314598,1258.350101,9992.780217
832.072032,1685.410096,1184.329507,10140.821405
832.072348,2834.553343,592.164754,9474.636058
832.072664,3677.258390,1258.350101,8586.388927
832.072980,4596.572988,2368.659014,7772.162391
832.073296,5132.839837,2812.782580,7624.121203
832.073612,5286.058936,2812.782580,7476.080014
832.073928,5056.230287,2886.803174,7179.997637
832.074244,5056.230287,2368.659014,7476.080014
832.074560,5209.449386,2220.617826,8512.368333
832.074876,3677.258390,2368.659014,9178.553681
832.075192,2298.286494,2442.679609,9474.636058
832.075508,2145.067394,1998.556043,9474.636058
832.075824,1378.971896,962.267725,10732.986159
832.076140,0.000000,740.205942,11399.171507
832.076456,-689.485948,-888.247130,11991.336260
832.076772,-919.314598,-1332.370696,11917.315666
832.077088,-766.095498,-370.102971,11695.253884
832.077404,459.657299,-0.000000,11251.130318
832.077720,2374.896044,592.164754,11251.130318
832.078036,2681.334243,2072.576638,9252.574275
832.078352,3294.210641,3404.947333,7920.203579
832.078668,4596.572988,2590.720797,7476.080014
832.078984,5286.058936,3108.864956,8364.327145
832.079300,4443.353888,3849.070898,7772.162391
832.079615,4903.011187,3330.926739,7624.121203
832.079931,4749.792088,2442.679609,8142.265362
832.080247,3294.210641,2294.638420,9474.636058
832.080563,2374.896044,1776.494261,10140.821405
832.080879,1685.410096,1184.329507,11029.068536
832.081195,1072.533697,1850.514855,10732.986159
832.081511,1225.752797,2294.638420,9844.739029
832.081827,1838.629195,1258.350101,11177.109724
832.082143,1685.410096,1258.350101,10955.047942
832.082459,1149.143247,1480.411884,10140.821405
832.082775,1991.848295,1184.329507,9474.636058
832.083091,1532.190996,1628.453072,9770.718434
832.083407,2068.457845,2072.576638,9474.636058
832.083723,2221.676944,2072.576638,9104.533087
832.084039,2221.676944,2368.659014,8956.491898
832.084355,2221.676944,2294.638420,9104.533087
832.084671,2528.115143,2072.576638,9474.636058
832.084987,2604.724693,2960.823768,8882.471304
832.085303,2451.505594,2516.700203,9252.574275
832.085619,2911.162892,2368.659014,9474.636058
832.085935,2911.162892,2738.761985,9326.594869
832.086251,2298.286494,3034.844362,9178.553681
832.086567,2528.115143,2664.741391,8956.491898
832.086883,2451.505594,2812.782580,7846.182985
832.087199,2681.334243,2220.617826,10288.862594
832.087515,1762.019645,1184.329507,9622.677246
832.087831,1302.362347,1628.453072,9696.697840
832.088147,1455.581446,1554.432478,9252.574275
832.088463,1302.362347,1776.494261,8734.430116
832.088779,1455.581446,962.267725,9918.759623
832.089095,1302.362347,148.041188,11103.089130
832.089411,383.047749,444.123565,10510.924376
832.089727,383.047749,1110.308913,9992.780217
832.090043,842.705048,2072.576638,9178.553681
832.090359,1225.752797,2072.576638,9548.656652
832.090675,2451.505594,1406.391290,10584.944971
832.090991,2681.334243,2368.659014,9548.656652
832.091307,2374.896044,3256.906145,7994.224174
832.091623,4903.011187,2368.659014,8586.388927
832.091939,5209.449386,2220.617826,7254.018232
832.092255,4519.963438,3256.906145,8660.409521
832.092571,4979.620737,2220.617826,8290.306550
832.092886,4136.915689,1628.453072,8364.327145
832.093202,2681.334243,2368.659014,8216.285956
832.093518,2757.943793,1628.453072,10066.800811
832.093834,3294.210641,962.267725,10436.903782
832.094150,1838.629195,592.164754,10807.006753
832.094466,306.438199,296.082377,10732.986159
832.094782,0.000000,-592.164754,11917.315666
832.095098,1302.362347,-0.000000,11547.212695
832.095414,1302.362347,-666.185348,10881.027347
832.095730,1685.410096,518.144159,10807.006753
832.096046,1915.238745,1480.411884,9992.780217
832.096362,2221.676944,1480.411884,8734.430116
832.096678,3600.648841,1332.370696,8956.491898
832.096994,4749.792088,1406.391290,9178.553681
832.097310,3907.087040,1480.411884,7328.038826
832.097626,3677.258390,1110.308913,8216.285956
832.097942,3140.991542,1110.308913,8438.347739
832.098258,3753.867940,-74.020594,9696.697840
832.098574,3064.381992,-0.000000,10140.821405
832.098890,1455.581446,740.205942,9326.594869
832.099206,153.219100,444.123565,9548.656652
832.099522,-229.828649,370.102971,9992.780217
832.099838,-229.828649,-296.082377,10362.883188
832.100154,-459.657299,-888.247130,10288.862594
832.100470,-1378.971896,-814.226536,10658.965565
832.100786,-1608.800546,-1036.288319,9844.739029
832.101102,-612.876398,-1406.391290,9622.677246
832.101418,-306.438199,-1480.411884,9622.677246
832.101734,-383.047749,-444.123565,9844.739029
832.102050,306.438199,222.061783,8660.409521
832.102366,0.000000,444.123565,7402.059420
832.102682,383.047749,-0.000000,9178.553681
832.102998,1225.752797,-1406.391290,10510.924376
832.103314,919.314598,-666.185348,8512.368333
832.103630,229.828649,-370.102971,9770.718434
832.103946,612.876398,-814.226536,9252.574275
832.104262,1072.533697,296.082377,8512.368333
832.104578,1225.752797,518.144159,9474.636058
832.104894,459.657299,666.185348,8660.409521
832.105210,536.266849,1036.288319,8290.306550
832.105526,1149.143247,-0.000000,7920.203579
832.105841,1149.143247,-1258.350101,8882.471304
832.106157,536.266849,-1998.556043,9622.677246
832.106473,383.047749,-1480.411884,9992.780217
832.106789,0.000000,-888.247130,9548.656652
832.107105,-229.828649,-370.102971,8956.491898
832.107421,0.000000,592.164754,9474.636058
832.107737,-612.876398,814.226536,8660.409521
832.108053,-536.266849,518.144159,9178.553681
832.108369,-306.438199,-0.000000,9548.656652
832.108685,76.609550,-148.041188,8586.388927
832.109001,153.219100,370.102971,9400.615463
832.109317,0.000000,222.061783,9474.636058
832.109633,-842.705048,740.205942,9474.636058
832.109949,153.219100,740.205942,9252.574275
832.110265,-383.047749,222.061783,8956.491898
832.110581,-229.828649,1110.308913,10288.862594
832.110897,-459.657299,148.041188,10066.800811
832.111213,76.609550,-518.144159,10066.800811
832.111529,536.266849,-666.185348,10214.842000
832.111845,612.876398,592.164754,9918.759623
832.112161,383.047749,888.247130,10436.903782
832.112477,0.000000,222.061783,10140.821405
832.112793,689.485948,1184.329507,9548.656652
832.113109,919.314598,1258.350101,9030.512492
832.113425,689.485948,2220.617826,9548.656652
832.113741,689.485948,1332.370696,10658.965565
832.114057,612.876398,740.205942,9474.636058
832.114373,1838.629195,444.123565,9104.533087
832.114689,1225.752797,148.041188,9400.615463
832.115005,1378.971896,-74.020594,10362.883188
832.115321,1149.143247,-740.205942,11177.109724
832.115637,1072.533697,-814.226536,10510.924376
832.115953,2145.067394,-370.102971,10658.965565
832.116269,536.266849,444.123565,9622.677246
832.116585,306.438199,592.164754,11769.274478
832.116901,383.047749,592.164754,10066.800811
832.117217,1685.410096,296.082377,8882.471304
832.117533,1302.362347,1036.288319,8882.471304
832.117849,536.266849,-0.000000,9474.636058
832.118165,536.266849,-296.082377,9992.780217
832.118481,919.314598,-740.205942,9844.739029
832.118797,1225.752797,-1184.329507,9474.636058
832.119112,612.876398,222.061783,9326.594869
832.119428,229.828649,814.226536,10362.883188
832.119744,689.485948,-0.000000,9474.636058
832.120060,1072.533697,-74.020594,8734.430116
832.120376,1378.971896,-74.020594,8660.409521
832.120692,766.095498,74.020594,8956.491898
832.121008,689.485948,-0.000000,9918.759623
832.121324,995.924147,148.041188,9178.553681
832.121640,1072.533697,-0.000000,8290.306550
832.121956,76.609550,444.123565,8290.306550
832.122272,-306.438199,296.082377,9548.656652
832.122588,-459.657299,-592.164754,9030.512492
832.122904,-76.609550,-518.144159,8808.450710
832.123220,0.000000,-1628.453072,9252.574275
832.123536,-76.609550,-1110.308913,8586.388927
832.123852,-536.266849,-888.247130,11177.109724
832.124168,0.000000,-1036.288319,9474.636058
832.124484,383.047749,-148.041188,8290.306550
832.124800,-536.266849,-0.000000,7698.141797
832.125116,-919.314598,-0.000000,9548.656652
832.125432,-383.047749,-370.102971,9474.636058
832.125748,153.219100,-296.082377,7772.162391
832.126064,153.219100,-1036.288319,8660.409521
832.126380,0.000000,-962.267725,9992.780217
832.126696,153.219100,-444.123565,10658.965565
832.127012,153.219100,-518.144159,8956.491898
832.127328,459.657299,-962.267725,9252.574275
832.127644,612.876398,-1258.350101,9030.512492
832.127960,-536.266849,-222.061783,11251.130318
832.128276,-383.047749,-370.102971,10140.821405
832.128592,229.828649,-1406.391290,9104.533087
832.128908,76.609550,-740.205942,8586.388927
832.129224,-306.438199,-592.164754,9918.759623
832.129540,-229.828649,-666.185348,10066.800811
832.129856,-536.266849,-444.123565,9178.553681
832.130172,-306.438199,-740.205942,8956.491898
832.130488,0.000000,-1480.411884,10140.821405
832.130804,-383.047749,-1480.411884,10140.821405
832.131120,-1455.581446,-0.000000,10140.821405
832.131436,-153.219100,-1480.411884,10362.883188
832.131752,612.876398,-1628.453072,9992.780217
832.132068,0.000000,148.041188,9326.594869
832.132383,-459.657299,-0.000000,10066.800811
832.132699,612.876398,-740.205942,9696.697840
832.133015,612.876398,-1258.350101,9844.739029
832.133331,842.705048,888.247130,8586.388927
832.133647,689.485948,1554.432478,9770.718434
832.133963,76.609550,962.267725,8734.430116
832.134279,842.705048,370.102971,8068.244768
832.134595,1225.752797,-0.000000,8586.388927
832.134911,1072.533697,-0.000000,9696.697840
832.135227,0.000000,222.061783,9548.656652
832.135543,612.876398,-74.020594,9400.615463
832.135859,612.876398,-1406.391290,9622.677246
832.136175,689.485948,-592.164754,9770.718434
832.136491,153.219100,296.082377,10362.883188
832.136807,-229.828649,-74.020594,9622.677246
832.137123,229.828649,-74.020594,10362.883188
832.137439,612.876398,-296.082377,8956.491898
832.137755,842.705048,296.082377,9178.553681
832.138071,1378.971896,296.082377,9918.759623
832.138387,995.924147,-296.082377,9770.718434
832.138703,1838.629195,370.102971,8216.285956
832.139019,2451.505594,740.205942,9104.533087
832.139335,1838.629195,1554.432478,9178.553681
832.139651,995.924147,2072.576638,8290.306550
832.139967,2068.457845,296.082377,8216.285956
832.140283,2451.505594,-666.185348,9252.574275
832.140599,1762.019645,-0.000000,9992.780217
832.140915,1072.533697,-74.020594,9992.780217
832.141231,1072.533697,-222.061783,9696.697840
832.141547,1378.971896,-444.123565,9400.615463
832.141863,1455.581446,740.205942,8882.471304
832.142179,689.485948,1332.370696,9104.533087
832.142495,-229.828649,666.185348,9918.759623
832.142811,229.828649,592.164754,8956.491898
832.143127,919.314598,-592.164754,9326.594869
832.143443,76.609550,-296.082377,9992.780217
832.143759,-383.047749,-74.020594,10881.027347
832.144075,-229.828649,-296.082377,10214.842000
832.144391,612.876398,-0.000000,8956.491898
832.144707,766.095498,370.102971,8956.491898
832.145023,766.095498,1184.329507,9252.574275
832.145338,-612.876398,518.144159,9696.697840
832.145654,0.000000,-0.000000,9178.553681
832.145970,612.876398,-666.185348,9326.594869
832.146286,0.000000,444.123565,9104.533087
832.146602,-919.314598,-0.000000,10510.924376
832.146918,-536.266849,-296.082377,10140.821405
832.147234,0.000000,-814.226536,8586.388927
832.147550,0.000000,-518.144159,9326.594869
832.147866,0.000000,-222.061783,10214.842000
832.148182,-229.828649,-518.144159,10362.883188
832.148498,-229.828649,-74.020594,9548.656652
832.148814,536.266849,-814.226536,9696.697840
832.149130,76.609550,-0.000000,8216.285956
832.149446,0.000000,-0.000000,10140.821405
832.149762,-766.095498,-740.205942,9326.594869
832.150078,689.485948,-1184.329507,9770.718434
832.150394,919.314598,-592.164754,8290.306550
832.150710,-153.219100,222.061783,8956.491898
832.151026,76.609550,222.061783,9992.780217
832.151342,306.438199,-888.247130,8882.471304
832.151658,612.876398,-148.041188,9326.594869
832.151974,0.000000,-518.144159,10214.842000
832.152290,153.219100,-444.123565,10140.821405
832.152606,-306.438199,-740.205942,9474.636058
832.152922,306.438199,-1406.391290,9252.574275
832.153238,612.876398,-1776.494261,10066.800811
832.153554,153.219100,-370.102971,10732.986159
832.153870,-842.705048,740.205942,9030.512492
832.154186,766.095498,370.102971,8586.388927
832.154502,1608.800546,-518.144159,9178.553681
832.154818,919.314598,-1110.308913,9770.718434
832.155134,689.485948,-740.205942,10436.903782
832.155450,459.657299,-814.226536,9474.636058
832.155766,1455.581446,-1110.308913,9992.780217
832.156082,1455.581446,-814.226536,9326.594869
832.156398,1302.362347,222.061783,9326.594869
832.156714,612.876398,-0.000000,9252.574275
832.157030,459.657299,148.041188,8956.491898
832.157346,1302.362347,-592.164754,9474.636058
832.157662,1455.581446,148.041188,8586.388927
832.157978,995.924147,370.102971,9326.594869
832.158294,0.000000,-1702.473667,9474.636058
832.158609,306.438199,-2516.700203,10362.883188
832.158925,689.485948,-1776.494261,10362.883188
832.159241,-229.828649,-0.000000,9252.574275
832.159557,-306.438199,296.082377,8882.471304
832.159873,229.828649,-518.144159,9104.533087
832.160189,306.438199,-1258.350101,9696.697840
832.160505,383.047749,-1998.556043,9474.636058
832.160821,-536.266849,-962.267725,10362.883188
832.161137,76.609550,-1406.391290,10214.842000
832.161453,459.657299,-962.267725,9326.594869
832.161769,1838.629195,518.144159,8216.285956
832.162085,612.876398,1036.288319,8512.368333
832.162401,995.924147,1036.288319,9104.533087
832.162717,1455.581446,222.061783,7772.162391
832.163033,2451.505594,-0.000000,7920.203579
832.163349,1378.971896,222.061783,9030.512492
832.163665,1149.143247,-148.041188,9548.656652
832.163981,536.266849,-222.061783,9400.615463
832.164297,536.266849,148.041188,9696.697840
832.164613,766.095498,-0.000000,9178.553681
832.164929,153.219100,1480.411884,9622.677246
832.165245,-612.876398,1480.411884,9178.553681
832.165561,-383.047749,148.041188,10140.821405
832.165877,76.609550,-296.082377,9918.759623
832.166193,229.828649,-222.061783,9696.697840
832.166509,-689.485948,148.041188,10584.944971
832.166825,-842.705048,222.061783,10584.944971
832.167141,153.219100,-0.000000,9474.636058
832.167457,229.828649,814.226536,9548.656652
832.167773,306.438199,1554.432478,9622.677246
832.168089,0.000000,1554.432478,10214.842000
832.168405,229.828649,1406.391290,8808.450710
832.168721,1302.362347,370.102971,9252.574275
832.169037,1225.752797,-0.000000,10066.800811
832.169353,766.095498,888.247130,9918.759623
832.169669,0.000000,370.102971,9474.636058
832.169985,842.705048,-370.102971,10658.965565
832.170301,1225.752797,-296.082377,10510.924376
832.170617,459.657299,1554.432478,9400.615463
832.170933,459.657299,1184.329507,9918.759623
832.171249,306.438199,296.082377,9696.697840
832.171564,995.924147,592.164754,8586.388927
832.171880,1225.752797,-0.000000,9400.615463
832.172196,383.047749,-370.102971,9770.718434
832.172512,-383.047749,-888.247130,10658.965565
832.172828,0.000000,-1110.308913,10807.006753
832.173144,153.219100,-1258.350101,9548.656652
832.173460,0.000000,-296.082377,9696.697840
832.173776,-536.266849,222.061783,10140.821405
832.174092,-383.047749,-74.020594,9770.718434
832.174408,76.609550,-1110.308913,9326.594869
832.174724,1072.533697,-444.123565,9104.533087
832.175040,0.000000,-666.185348,9474.636058
832.175356,229.828649,-1184.329507,9622.677246
832.175672,612.876398,-1850.514855,9104.533087
832.175988,995.924147,-1406.391290,8068.244768
832.176304,689.485948,-666.185348,10362.883188
832.176620,0.000000,-592.164754,9104.533087
832.176936,76.609550,-666.185348,8586.388927
832.177252,1455.581446,-1184.329507,8290.306550
832.177568,612.876398,-1332.370696,8438.347739
832.177884,536.266849,-666.185348,9844.739029
832.178200,-153.219100,-666.185348,9474.636058
832.178516,383.047749,-888.247130,8512.368333
832.178832,383.047749,-962.267725,8142.265362
832.179147,229.828649,-0.000000,8882.471304
832.179463,0.000000,-148.041188,9548.656652
832.179779,-459.657299,-296.082377,8734.430116
832.180095,842.705048,-1258.350101,8068.244768
832.180410,995.924147,-1406.391290,8586.388927
832.180726,383.047749,-666.185348,9918.759623
832.181042,-383.047749,-888.247130,9548.656652
832.181358,383.047749,-148.041188,9326.594869
832.181673,689.485948,-666.185348,8586.388927
832.181989,459.657299,222.061783,8882.471304
832.182305,766.095498,444.123565,9844.739029
832.182621,153.219100,-518.144159,8512.368333
832.182936,229.828649,-888.247130,9030.512492
832.183252,766.095498,-1554.432478,9474.636058
832.183568,842.705048,-444.123565,9474.636058
832.183884,76.609550,-0.000000,10658.965565
832.184199,229.828649,-0.000000,9474.636058
832.184515,1608.800546,-0.000000,9400.615463
832.184831,1072.533697,222.061783,8956.491898
832.185147,76.609550,1480.411884,9770.718434
832.185462,612.876398,222.061783,10214.842000
832.185778,1072.533697,-592.164754,9104.533087
832.186094,689.485948,-814.226536,9326.594869
832.186410,153.219100,-0.000000,10584.944971
832.186725,0.000000,-370.102971,10732.986159
832.187041,-536.266849,148.041188,9030.512492
832.187357,383.047749,-592.164754,10288.862594
832.187673,229.828649,296.082377,10436.903782
832.187988,-612.876398,962.267725,10955.047942
832.188304,-919.314598,444.123565,9696.697840
832.188620,0.000000,-592.164754,9696.697840
832.188936,0.000000,-1110.308913,10066.800811
832.189252,0.000000,-370.102971,11103.089130
832.189567,-689.485948,-74.020594,10807.006753
832.189883,-153.219100,-0.000000,8808.450710
832.190199,76.609550,296.082377,9696.697840
832.190515,612.876398,-148.041188,9770.718434
832.190830,153.219100,666.185348,10362.883188
832.191146,0.000000,1554.432478,9326.594869
832.191462,459.657299,-222.061783,8512.368333
832.191778,1915.238745,-148.041188,9400.615463
832.192093,919.314598,-0.000000,9992.780217
832.192409,0.000000,888.247130,9400.615463
832.192725,306.438199,148.041188,8438.347739
832.193041,995.924147,-888.247130,9918.759623
832.193356,689.485948,444.123565,9474.636058
832.193672,153.219100,1850.514855,9696.697840
832.193988,153.219100,518.144159,7476.080014
832.194304,383.047749,-296.082377,9326.594869
832.194619,1302.362347,-888.247130,9622.677246
832.194935,919.314598,-148.041188,9474.636058
832.195251,229.828649,-0.000000,9548.656652
832.195567,229.828649,-1184.329507,9622.677246
832.195882,995.924147,-1258.350101,9548.656652
832.196198,229.828649,148.041188,9622.677246
832.196514,-536.266849,1036.288319,9548.656652
832.196830,306.438199,444.123565,9178.553681
832.197145,689.485948,-0.000000,8290.306550
832.197461,842.705048,-74.020594,8734.430116
832.197777,919.314598,148.041188,9548.656652
832.198093,842.705048,-444.123565,9400.615463
832.198408,459.657299,-814.226536,8364.327145
832.198724,1532.190996,-1332.370696,9548.656652
832.199040,1762.019645,-814.226536,9400.615463
832.199356,919.314598,740.205942,8512.368333
832.199672,306.438199,-0.000000,9326.594869
832.199987,612.876398,-518.144159,9178.553681
832.200303,1072.533697,-592.164754,9030.512492
832.200619,612.876398,-222.061783,8734.430116
832.200935,76.609550,-74.020594,9696.697840
832.201250,0.000000,-1184.329507,9326.594869
832.201566,-229.828649,-1480.411884,10140.821405
832.201882,76.609550,-1554.432478,10288.862594
832.202198,-306.438199,-1036.288319,10066.800811
832.202513,-842.705048,-814.226536,10288.862594
832.202829,76.609550,-888.247130,9326.594869
832.203145,1149.143247,-962.267725,9326.594869
832.203461,383.047749,-296.082377,9030.512492
832.203776,-229.828649,-444.123565,10658.965565
832.204092,919.314598,-518.144159,9104.533087
832.204408,1608.800546,-888.247130,7772.162391
832.204724,1149.143247,-518.144159,9622.677246
832.205039,612.876398,-222.061783,10584.944971
832.205355,689.485948,-888.247130,9104.533087
832.205671,766.095498,-222.061783,8882.471304
832.205987,766.095498,-740.205942,9400.615463
832.206302,612.876398,-962.267725,9474.636058
832.206618,-229.828649,-0.000000,9844.739029
832.206934,-536.266849,222.061783,10584.944971
832.207250,536.266849,-740.205942,10732.986159
832.207565,459.657299,296.082377,8734.430116
832.207881,0.000000,962.267725,10140.821405
832.208197,0.000000,296.082377,9844.739029
832.208513,383.047749,-666.185348,8956.491898
832.208828,1149.143247,-518.144159,9844.739029
832.209144,995.924147,-370.102971,10362.883188
832.209460,536.266849,222.061783,10066.800811
832.209776,0.000000,444.123565,8882.471304
832.210092,1072.533697,-74.020594,9844.739029
832.210407,1225.752797,-0.000000,9400.615463
832.210723,76.609550,888.247130,9696.697840
832.211039,-229.828649,518.144159,9696.697840
832.211355,153.219100,-962.267725,9696.697840
832.211670,842.705048,-1332.370696,9696.697840
832.211986,536.266849,-74.020594,8660.409521
832.212302,383.047749,-0.000000,9844.739029
832.212618,0.000000,-444.123565,10066.800811
832.212933,995.924147,-592.164754,9622.677246
832.213249,689.485948,296.082377,8512.368333
832.213565,0.000000,666.185348,9474.636058
832.213881,-229.828649,370.102971,9696.697840
832.214196,383.047749,148.041188,8808.450710
832.214512,995.924147,-148.041188,8216.285956
832.214828,1072.533697,-0.000000,8808.450710
832.215144,459.657299,-0.000000,10066.800811
832.215459,-383.047749,-888.247130,9252.574275
832.215775,153.219100,-740.205942,9326.594869
832.216091,689.485948,-740.205942,9474.636058
832.216407,0.000000,444.123565,9400.615463
832.216722,-459.657299,1036.288319,9474.636058
832.217038,-153.219100,-74.020594,9400.615463
832.217354,1302.362347,-814.226536,9030.512492
832.217670,536.266849,-148.041188,8586.388927
832.217985,-306.438199,-0.000000,9844.739029
832.218301,306.438199,-148.041188,9326.594869
832.218617,919.314598,-370.102971,8882.471304
832.218933,995.924147,-0.000000,9030.512492
832.219248,459.657299,296.082377,9696.697840
832.219564,153.219100,592.164754,9474.636058
832.219880,76.609550,222.061783,9178.553681
832.220196,1149.143247,-296.082377,9622.677246
832.220512,1225.752797,296.082377,8882.471304
832.220827,306.438199,888.247130,9696.697840
832.221143,1149.143247,370.102971,9918.759623
832.221459,689.485948,-296.082377,9844.739029
832.221775,995.924147,-0.000000,9178.553681
832.222090,612.876398,592.164754,9104.533087
832.222406,76.609550,518.144159,10288.862594
832.222722,153.219100,592.164754,9474.636058
832.223038,1149.143247,222.061783,9696.697840
832.223353,1225.752797,592.164754,9030.512492
832.223669,153.219100,370.102971,10214.842000
832.223985,0.000000,-74.020594,10584.944971
832.224301,229.828649,-1258.350101,9548.656652
832.224616,612.876398,-962.267725,9622.677246
832.224932,0.000000,-444.123565,11399.171507
832.225248,-536.266849,-222.061783,10955.047942
832.225564,-766.095498,-74.020594,9992.780217
832.225879,1302.362347,-1184.329507,9104.533087
832.226195,766.095498,-222.061783,9400.615463
832.226511,459.657299,-0.000000,10732.986159
832.226827,-306.438199,-814.226536,9548.656652
832.227142,842.705048,-0.000000,9474.636058
832.227458,1608.800546,-814.226536,9104.533087
832.227774,1225.752797,518.144159,9400.615463
832.228090,919.314598,1110.308913,9770.718434
832.228405,1072.533697,-444.123565,8808.450710
832.228721,995.924147,-518.144159,8586.388927
832.229037,1149.143247,-1332.370696,10140.821405
832.229353,766.095498,-814.226536,10140.821405
832.229668,-383.047749,-0.000000,9622.677246
832.229984,-153.219100,-1036.288319,9474.636058
832.230300,153.219100,-814.226536,8808.450710
832.230616,153.219100,-370.102971,9770.718434
832.230932,-995.924147,-296.082377,9548.656652
832.231247,-536.266849,-814.226536,9178.553681
832.231563,76.609550,-1554.432478,8808.450710
832.231879,612.876398,-1406.391290,8956.491898
832.232195,229.828649,-888.247130,9252.574275
832.232510,-306.438199,-222.061783,8956.491898
832.232826,229.828649,-962.267725,8808.450710
832.233142,306.438199,-1184.329507,8882.471304
832.233458,459.657299,370.102971,9252.574275
832.233773,0.000000,370.102971,8808.450710
832.234089,459.657299,-0.000000,8216.285956
832.234405,1072.533697,-888.247130,8956.491898
832.234721,766.095498,-592.164754,7994.224174
832.235036,842.705048,148.041188,9400.615463
832.235352,0.000000,-370.102971,9474.636058
832.235668,76.609550,296.082377,9474.636058
832.235984,383.047749,-518.144159,9400.615463
832.236299,153.219100,518.144159,9178.553681
832.236615,306.438199,-0.000000,9992.780217
832.236931,-306.438199,-222.061783,8956.491898
832.237247,919.314598,-888.247130,9622.677246
832.237562,689.485948,-888.247130,9474.636058
832.237878,306.438199,-0.000000,10214.842000
832.238194,-536.266849,-0.000000,10140.821405
832.238510,0.000000,-0.000000,9326.594869
832.238825,689.485948,-0.000000,9104.533087
832.239141,612.876398,370.102971,9400.615463
832.239457,153.219100,518.144159,10436.903782
832.239773,459.657299,370.102971,9326.594869
832.240088,459.657299,-814.226536,9622.677246
832.240404,1608.800546,-74.020594,9622.677246
832.240720,842.705048,296.082377,9696.697840
832.241036,459.657299,666.185348,9548.656652
832.241352,689.485948,-370.102971,9918.759623
832.241667,1302.362347,-1184.329507,10436.903782
832.241983,1072.533697,666.185348,9548.656652
832.242299,459.657299,1110.308913,9548.656652
832.242615,306.438199,148.041188,9474.636058
832.242930,1225.752797,-666.185348,10214.842000
832.243246,1149.143247,-370.102971,9474.636058
832.243562,612.876398,592.164754,9548.656652
832.243878,-229.828649,-148.041188,10214.842000
832.244193,229.828649,-370.102971,9400.615463
832.244509,842.705048,-1110.308913,9770.718434
832.244825,842.705048,-74.020594,9770.718434
832.245141,0.000000,444.123565,10214.842000
832.245456,-229.828649,-148.041188,9400.615463
832.245772,842.705048,-370.102971,9548.656652
832.246088,1302.362347,-296.082377,9474.636058
832.246404,842.705048,666.185348,8660.409521
832.246719,76.609550,-296.082377,9918.759623
832.247035,229.828649,-1110.308913,9770.718434
832.247351,1149.143247,-1406.391290,10214.842000
832.247667,919.314598,370.102971,8734.430116
832.247982,766.095498,592.164754,9178.553681
832.248298,459.657299,-0.000000,8882.471304
832.248614,1455.581446,-444.123565,9770.718434
832.248930,1378.971896,-666.185348,8290.306550
832.249245,536.266849,-0.000000,9252.574275
832.249561,536.266849,-0.000000,9548.656652
832.249877,306.438199,-1332.370696,9178.553681
832.250193,919.314598,-1480.411884,9326.594869
832.250508,766.095498,-962.267725,9400.615463
832.250824,536.266849,518.144159,9622.677246
832.251140,0.000000,-370.102971,9252.574275
832.251456,995.924147,-518.144159,8734.430116
832.251772,1072.533697,370.102971,8808.450710
832.252087,842.705048,740.205942,9030.512492
832.252403,0.000000,740.205942,8734.430116
832.252719,153.219100,296.082377,9030.512492
832.253035,689.485948,-666.185348,9326.594869
832.253350,306.438199,-222.061783,8438.347739
832.253666,0.000000,222.061783,10510.924376
832.253982,-459.657299,-518.144159,9474.636058
832.254298,0.000000,-370.102971,9474.636058
832.254613,612.876398,-296.082377,9696.697840
832.254929,306.438199,370.102971,9770.718434
832.255245,-536.266849,296.082377,9844.739029
832.255561,-459.657299,-0.000000,9696.697840
832.255876,459.657299,-0.000000,10510.924376
832.256192,995.924147,370.102971,9400.615463
832.256508,536.266849,1702.473667,9104.533087
832.256824,0.000000,666.185348,8808.450710
832.257139,766.095498,-592.164754,9178.553681
832.257455,1378.971896,-740.205942,9696.697840
832.257771,689.485948,-592.164754,9622.677246
832.258087,0.000000,-296.082377,9548.656652
832.258402,-153.219100,-592.164754,9844.739029
832.258718,612.876398,-1406.391290,10288.862594
832.259034,536.266849,-0.000000,9696.697840
832.259350,-536.266849,-296.082377,11251.130318
832.259665,-919.314598,-222.061783,9326.594869
832.259981,153.219100,-518.144159,9326.594869
832.260297,153.219100,-1184.329507,9326.594869
832.260613,-306.438199,-1258.350101,10510.924376
832.260928,-383.047749,-814.226536,10436.903782
832.261244,-229.828649,-1406.391290,10140.821405
832.261560,153.219100,-1850.514855,11103.089130
832.261876,229.828649,-444.123565,9992.780217
832.262192,153.219100,1036.288319,9030.512492
832.262507,0.000000,518.144159,8734.430116
832.262823,306.438199,-740.205942,9548.656652
832.263139,1762.019645,-296.082377,9400.615463
832.263455,1378.971896,222.061783,8364.327145
832.263770,612.876398,-0.000000,9696.697840
832.264086,383.047749,-666.185348,9104.533087
832.264402,1149.143247,-740.205942,8808.450710
832.264718,842.705048,-148.041188,9696.697840
832.265033,153.219100,444.123565,9696.697840
832.265349,-306.438199,518.144159,9030.512492
832.265665,229.828649,-222.061783,9400.615463
832.265981,1149.143247,-814.226536,9178.553681
832.266296,612.876398,-0.000000,8734.430116
832.266612,0.000000,-222.061783,10288.862594
832.266928,306.438199,-592.164754,9030.512492
832.267244,459.657299,-962.267725,9696.697840
832.267559,766.095498,-0.000000,9178.553681
832.267875,-459.657299,518.144159,9474.636058
832.268191,-306.438199,148.041188,9400.615463
832.268507,995.924147,518.144159,8438.347739
832.268822,1608.800546,-222.061783,8586.388927
832.269138,1225.752797,-222.061783,9104.533087
832.269454,1072.533697,-0.000000,9844.739029
832.269770,919.314598,-370.102971,8216.285956
832.270085,1532.190996,-666.185348,9400.615463
832.270401,1685.410096,-0.000000,9400.615463
832.270717,1072.533697,740.205942,9178.553681
832.271033,536.266849,1258.350101,9400.615463
832.271349,612.876398,-0.000000,9030.512492
832.271664,1915.238745,-666.185348,9844.739029
832.271980,1149.143247,148.041188,8364.327145
832.272296,-229.828649,222.061783,9474.636058
832.272612,0.000000,-888.247130,10584.944971
832.272927,0.000000,-814.226536,10288.862594
832.273243,229.828649,-222.061783,9400.615463
832.273559,-229.828649,592.164754,10066.800811
832.273875,-766.095498,296.082377,10436.903782
832.274190,-229.828649,-962.267725,9400.615463
832.274506,459.657299,-592.164754,10066.800811
832.274822,689.485948,-296.082377,9400.615463
832.275138,229.828649,-0.000000,10140.821405
832.275453,306.438199,-222.061783,9474.636058
832.275769,919.314598,-296.082377,9918.759623
832.276085,1149.143247,-666.185348,9178.553681
832.276401,919.314598,222.061783,9030.512492
832.276716,76.609550,592.164754,9696.697840
832.277032,229.828649,-222.061783,9252.574275
832.277348,1072.533697,-518.144159,9326.594869
832.277664,995.924147,-0.000000,8512.368333
832.277979,536.266849,592.164754,10140.821405
832.278295,-612.876398,-666.185348,9400.615463
832.278611,-153.219100,-296.082377,9326.594869
832.278927,383.047749,-0.000000,9400.615463
832.279242,0.000000,-444.123565,9474.636058
832.279558,-766.095498,222.061783,11029.068536
832.279874,-842.705048,-1110.308913,9474.636058
832.280190,76.609550,-962.267725,10140.821405
832.280505,459.657299,-74.020594,9474.636058
832.280821,153.219100,148.041188,9844.739029
832.281137,76.609550,592.164754,8734.430116
832.281453,0.000000,-370.102971,9992.780217
832.281768,536.266849,-148.041188,9400.615463
832.282084,1072.533697,592.164754,9252.574275
832.282400,383.047749,296.082377,9548.656652
832.282716,612.876398,-148.041188,9104.533087
832.283031,1302.362347,-740.205942,9770.718434
832.283347,1685.410096,-0.000000,8068.244768
832.283663,1302.362347,222.061783,9400.615463
832.283979,76.609550,-148.041188,9474.636058
832.284294,1149.143247,-296.082377,9622.677246
832.284610,1149.143247,-518.144159,8734.430116
832.284926,306.438199,-0.000000,9178.553681
832.285242,0.000000,-0.000000,10362.883188
832.285557,-612.876398,-0.000000,9104.533087
832.285873,689.485948,-1258.350101,9474.636058
832.286189,766.095498,-962.267725,9030.512492
832.286505,153.219100,-740.205942,10288.862594
832.286820,0.000000,-592.164754,9622.677246
832.287136,842.705048,-962.267725,9548.656652
832.287452,1149.143247,-148.041188,9178.553681
832.287768,919.314598,370.102971,8364.327145
832.288083,383.047749,666.185348,9474.636058
832.288399,919.314598,740.205942,9030.512492
832.288715,1532.190996,-592.164754,9326.594869
832.289031,1455.581446,-74.020594,8142.265362
832.289346,995.924147,444.123565,9548.656652
832.289662,153.219100,-74.020594,9178.553681
832.289978,612.876398,-592.164754,10066.800811
832.290294,1072.533697,-296.082377,9326.594869
832.290609,536.266849,518.144159,8734.430116
832.290925,-229.828649,444.123565,10214.842000
832.291241,0.000000,370.102971,9030.512492
832.291557,383.047749,-370.102971,9622.677246
832.291872,1225.752797,-370.102971,8882.471304
832.292188,383.047749,666.185348,9252.574275
832.292504,-229.828649,222.061783,9992.780217
832.292820,612.876398,-518.144159,9104.533087
832.293135,766.095498,-518.144159,9326.594869
832.293451,383.047749,740.205942,9252.574275
832.293767,229.828649,666.185348,11103.089130
832.294082,-153.219100,222.061783,9178.553681
832.294398,689.485948,-296.082377,9696.697840
832.294714,1072.533697,296.082377,9326.594869
832.295030,612.876398,518.144159,9474.636058
832.295345,153.219100,296.082377,10066.800811
832.295661,459.657299,-74.020594,10140.821405
832.295977,766.095498,-148.041188,9030.512492
832.296293,383.047749,-0.000000,9400.615463
832.296608,76.609550,-0.000000,11029.068536
832.296924,0.000000,370.102971,9548.656652
832.297240,612.876398,-370.102971,9696.697840
832.297556,536.266849,-74.020594,9474.636058
832.297871,0.000000,-0.000000,10288.862594
832.298187,153.219100,-74.020594,9992.780217
832.298503,76.609550,-1258.350101,9622.677246
832.298819,459.657299,-1258.350101,10140.821405
832.299134,919.314598,-592.164754,10140.821405
832.299450,153.219100,518.144159,9696.697840
832.299766,153.219100,-0.000000,9548.656652
832.300082,1072.533697,-148.041188,9400.615463
832.300397,1072.533697,370.102971,8216.285956
832.300713,383.047749,-0.000000,8512.368333
832.301029,-383.047749,-370.102971,9622.677246
832.301345,0.000000,-1406.391290,9474.636058
832.301660,153.219100,-1924.535449,9474.636058
832.301976,306.438199,-1036.288319,9918.759623
832.302292,-919.314598,-592.164754,10066.800811
832.302608,-766.095498,-1184.329507,9252.574275
832.302923,-229.828649,-1332.370696,9178.553681
832.303239,229.828649,-1332.370696,9252.574275
832.303555,229.828649,-444.123565,9770.718434
832.303871,-153.219100,-814.226536,9474.636058
832.304186,-306.438199,-1480.411884,9474.636058
832.304502,919.314598,-1332.370696,9400.615463
832.304818,1455.581446,-740.205942,9104.533087
832.305134,766.095498,740.205942,8882.471304
832.305449,229.828649,-148.041188,8364.327145
832.305765,1532.190996,-1480.411884,8734.430116
832.306081,2145.067394,-814.226536,8586.388927
832.306397,1762.019645,-296.082377,8512.368333
832.306712,459.657299,-666.185348,9696.697840
832.307028,536.266849,-962.267725,9178.553681
832.307344,689.485948,-1480.411884,9400.615463
832.307660,995.924147,-222.061783,8956.491898
832.307975,229.828649,296.082377,9474.636058
832.308291,-306.438199,-518.144159,8882.471304
832.308607,153.219100,-1776.494261,9992.780217
832.308923,153.219100,-1184.329507,8216.285956
832.309238,229.828649,-296.082377,9252.574275
832.309554,-383.047749,-592.164754,10288.862594
832.309870,-536.266849,-814.226536,9178.553681
832.310186,459.657299,-888.247130,9844.739029
832.310501,229.828649,-370.102971,8290.306550
832.310817,-306.438199,148.041188,10140.821405
832.311133,-306.438199,-814.226536,10510.924376
832.311448,612.876398,-1258.350101,9178.553681
832.311764,1378.971896,-0.000000,9252.574275
832.312080,1149.143247,-74.020594,9474.636058
832.312396,459.657299,444.123565,9696.697840
832.312711,0.000000,962.267725,9844.739029
832.313027,1302.362347,-296.082377,9474.636058
832.313343,1225.752797,222.061783,9252.574275
832.313659,459.657299,1480.411884,10807.006753
832.313974,229.828649,1998.556043,9326.594869
832.314290,1455.581446,1110.308913,8882.471304
832.314606,1302.362347,814.226536,9474.636058
832.314922,612.876398,740.205942,10066.800811
832.315237,0.000000,518.144159,10807.006753
832.315553,0.000000,962.267725,9474.636058
832.315869,1149.143247,222.061783,10362.883188
832.316185,536.266849,222.061783,10584.944971
832.316500,383.047749,962.267725,10955.047942
832.316816,-383.047749,1554.432478,9474.636058
832.317132,0.000000,1258.350101,9104.533087
832.317448,919.314598,296.082377,9030.512492
832.317763,536.266849,1480.411884,10436.903782
832.318079,0.000000,1480.411884,9770.718434
832.318395,0.000000,-74.020594,9030.512492
832.318711,383.047749,-296.082377,10140.821405
832.319026,383.047749,-222.061783,9622.677246
832.319342,459.657299,888.247130,9844.739029
832.319658,-459.657299,1184.329507,9326.594869
832.319974,0.000000,888.247130,9104.533087
832.320289,919.314598,296.082377,8956.491898
832.320605,536.266849,740.205942,8956.491898
832.320921,-76.609550,1110.308913,9696.697840
832.321237,76.609550,-74.020594,9696.697840
832.321552,76.609550,-814.226536,9696.697840
832.321868,383.047749,370.102971,9918.759623
832.322184,0.000000,1406.391290,9696.697840
832.322500,76.609550,814.226536,8734.430116
832.322815,-459.657299,-0.000000,9918.759623
832.323131,766.095498,-592.164754,9992.780217
832.323447,919.314598,-518.144159,9844.739029
832.323763,0.000000,740.205942,9104.533087
832.324078,0.000000,-370.102971,9474.636058
832.324394,689.485948,-1628.453072,10658.965565
832.324710,919.314598,-0.000000,8956.491898
832.325026,919.314598,-370.102971,9252.574275
832.325341,-229.828649,-296.082377,9918.759623
832.325657,536.266849,-740.205942,8956.491898
832.325973,1302.362347,-1480.411884,9400.615463
832.326289,1455.581446,-1258.350101,9622.677246
832.326604,306.438199,-1332.370696,9844.739029
832.326920,76.609550,-1110.308913,9030.512492
832.327236,995.924147,-1480.411884,9770.718434
832.327552,1762.019645,-2072.576638,9030.512492
832.327867,1762.019645,-444.123565,9030.512492
832.328183,383.047749,-592.164754,9030.512492
832.328499,612.876398,-1776.494261,8808.450710
832.328814,2221.676944,-1628.453072,9030.512492
832.329130,1072.533697,-1332.370696,7920.203579
832.329446,229.828649,-1184.329507,10140.821405
832.329762,0.000000,-1628.453072,9844.739029
832.330077,153.219100,-1998.556043,9104.533087
832.330393,0.000000,-1406.391290,9622.677246
832.330709,-153.219100,-666.185348,9252.574275
832.331025,-689.485948,-592.164754,9474.636058
832.331340,-689.485948,-2368.659014,9992.780217
832.331656,153.219100,-2886.803174,9992.780217
832.331972,0.000000,-1924.535449,9622.677246
832.332288,-612.876398,-1184.329507,9844.739029
832.332603,-766.095498,-1110.308913,9474.636058
832.332919,306.438199,-1554.432478,9548.656652
832.333235,689.485948,-962.267725,9104.533087
832.333551,0.000000,-296.082377,9474.636058
832.333866,0.000000,-518.144159,9178.553681
832.334182,1072.533697,-592.164754,8438.347739
832.334498,1225.752797,-1332.370696,8734.430116
832.334814,1225.752797,-1184.329507,9030.512492
832.335129,1072.533697,-370.102971,9326.594869
832.335445,76.609550,-666.185348,8734.430116
832.335761,689.485948,-1332.370696,9400.615463
832.336077,689.485948,-1406.391290,9770.718434
832.336392,689.485948,-74.020594,8808.450710
832.336708,-536.266849,148.041188,9178.553681
832.337024,0.000000,-666.185348,9696.697840
832.337340,995.924147,-666.185348,9400.615463
832.337655,383.047749,-370.102971,8808.450710
832.337971,-229.828649,-0.000000,10214.842000
832.338287,229.828649,-296.082377,9696.697840
832.338603,153.219100,-666.185348,9326.594869
832.338918,229.828649,-370.102971,11103.089130
832.339234,0.000000,-0.000000,9696.697840
832.339550,-459.657299,1184.329507,9548.656652
832.339866,-536.266849,1036.288319,9770.718434
832.340181,383.047749,-296.082377,10066.800811
832.340497,1225.752797,1406.391290,8808.450710
832.340813,306.438199,1850.514855,9326.594869
832.341129,0.000000,666.185348,9770.718434
832.341444,1532.190996,444.123565,9992.780217
832.341760,1302.362347,1480.411884,9030.512492
832.342076,1532.190996,2220.617826,9474.636058
832.342392,536.266849,2442.679609,9696.697840
832.342707,459.657299,1924.535449,8586.388927
832.343023,1532.190996,1332.370696,9400.615463
832.343339,1225.752797,814.226536,9474.636058
832.343655,459.657299,1036.288319,10510.924376
832.343970,-459.657299,1628.453072,9474.636058
832.344286,383.047749,296.082377,9992.780217
832.344602,1225.752797,888.247130,9844.739029
832.344918,153.219100,1628.453072,9400.615463
832.345233,0.000000,2072.576638,10214.842000
832.345549,-536.266849,518.144159,9252.574275
832.345865,1225.752797,-148.041188,10362.883188
832.346181,1225.752797,444.123565,9918.759623
832.346496,1072.533697,888.247130,10066.800811
832.346812,76.609550,1554.432478,9326.594869
832.347128,842.705048,814.226536,9400.615463
832.347443,2221.676944,444.123565,9252.574275
832.347759,1072.533697,1480.411884,9474.636058
832.348075,383.047749,1924.535449,9844.739029
832.348391,1302.362347,1110.308913,7920.203579
832.348706,1608.800546,592.164754,8290.306550
832.349022,1915.238745,-666.185348,9696.697840
832.349338,1149.143247,-666.185348,10362.883188
832.349654,76.609550,-0.000000,9400.615463
832.349969,153.219100,-370.102971,10066.800811
832.350285,1378.971896,-592.164754,9622.677246
832.350601,383.047749,-0.000000,8956.491898
832.350917,-229.828649,370.102971,10066.800811
832.351232,-229.828649,-222.061783,9252.574275
832.351548,995.924147,-1406.391290,10288.862594
832.351864,229.828649,-888.247130,8364.327145
832.352180,0.000000,-0.000000,9992.780217
832.352495,-229.828649,-592.164754,9474.636058
832.352811,229.828649,-1480.411884,9178.553681
832.353127,306.438199,-1776.494261,9696.697840
832.353443,766.095498,-1924.535449,10658.965565
832.353758,383.047749,-962.267725,10658.965565
832.354074,-536.266849,-1036.288319,8882.471304
832.354390,229.828649,-2368.659014,10288.862594
832.354706,1532.190996,-1702.473667,9400.615463
832.355021,306.438199,-592.164754,9252.574275
832.355337,0.000000,-148.041188,9326.594869
832.355653,689.485948,-1924.535449,9474.636058
832.355969,1149.143247,-2072.576638,8586.388927
832.356284,919.314598,-888.247130,9104.533087
832.356600,-306.438199,-518.144159,9622.677246
832.356916,-383.047749,-1924.535449,8808.450710
832.357232,459.657299,-3034.844362,9696.697840
832.357547,995.924147,-2072.576638,8660.409521
832.357863,459.657299,-1554.432478,8956.491898
832.358179,-459.657299,-1480.411884,9992.780217
832.358495,0.000000,-2368.659014,9400.615463
832.358810,0.000000,-2812.782580,9770.718434
832.359126,153.219100,-1184.329507,9030.512492
832.359442,-689.485948,-888.247130,9252.574275
832.359758,-919.314598,-1702.473667,8512.368333
832.360073,0.000000,-3182.885551,9770.718434
832.360389,536.266849,-2368.659014,9326.594869
832.360705,153.219100,-740.205942,9400.615463
832.361021,-536.266849,-518.144159,9030.512492
832.361336,689.485948,-1332.370696,9474.636058
832.361652,1915.238745,-518.144159,9030.512492
832.361968,1149.143247,-370.102971,7476.080014
832.362284,612.876398,666.185348,9252.574275
832.362599,229.828649,-74.020594,8882.471304
832.362915,1149.143247,-666.185348,8808.450710
832.363231,1991.848295,-0.000000,7994.224174
832.363547,766.095498,592.164754,7994.224174
832.363862,153.219100,962.267725,9622.677246
832.364178,0.000000,-222.061783,9770.718434
832.364494,919.314598,-518.144159,9474.636058
832.364809,612.876398,740.205942,9474.636058
832.365125,-306.438199,1628.453072,9474.636058
832.365441,-229.828649,962.267725,8882.471304
832.365757,536.266849,-222.061783,10288.862594
832.366072,536.266849,518.144159,9474.636058
832.366388,0.000000,740.205942,9474.636058
832.366704,-689.485948,1036.288319,10732.986159
832.367020,-459.657299,740.205942,9474.636058
832.367335,766.095498,-0.000000,9622.677246
832.367651,689.485948,518.144159,10140.821405
832.367967,0.000000,1332.370696,10881.027347
832.368283,0.000000,1554.432478,10288.862594
832.368598,459.657299,592.164754,9622.677246
832.368914,1302.362347,148.041188,9178.553681
832.369230,1685.410096,1702.473667,10436.903782
832.369546,536.266849,2294.638420,9104.533087
832.369861,459.657299,1480.411884,9844.739029
832.370177,1685.410096,444.123565,9696.697840
832.370493,1378.971896,1036.288319,9252.574275
832.370809,919.314598,2072.576638,10066.800811
832.371124,229.828649,1184.329507,9474.636058
832.371440,842.705048,592.164754,9696.697840
832.371756,1072.533697,148.041188,9548.656652
832.372072,842.705048,444.123565,9918.759623
832.372387,-383.047749,888.247130,10955.047942
832.372703,-383.047749,592.164754,10510.924376
832.373019,229.828649,-370.102971,9844.739029
832.373335,76.609550,740.205942,9844.739029
832.373650,0.000000,1628.453072,11177.109724
832.373966,-306.438199,1480.411884,9400.615463
832.374282,306.438199,518.144159,9474.636058
832.374598,1532.190996,-222.061783,10214.842000
832.374913,919.314598,1036.288319,8956.491898
832.375229,153.219100,1184.329507,9326.594869
832.375545,229.828649,74.020594,9548.656652
832.375861,1455.581446,-222.061783,10066.800811
832.376176,1838.629195,1332.370696,8512.368333
832.376492,459.657299,2146.597232,8882.471304
832.376808,229.828649,1332.370696,9104.533087
832.377124,536.266849,-74.020594,9696.697840
832.377439,1685.410096,-0.000000,8660.409521
832.377755,1149.143247,-0.000000,9474.636058
832.378071,459.657299,-0.000000,10362.883188
832.378387,153.219100,-148.041188,8586.388927
832.378702,612.876398,-1332.370696,9548.656652
832.379018,536.266849,-444.123565,9178.553681
832.379334,76.609550,-0.000000,9474.636058
832.379650,-153.219100,-0.000000,8956.491898
832.379965,153.219100,-1184.329507,9178.553681
832.380281,766.095498,-1702.473667,9252.574275
832.380593,842.705048,-666.185348,8956.491898
832.380909,153.219100,-444.123565,9252.574275
832.381225,-383.047749,-2146.597232,9770.718434
832.381540,229.828649,-2516.700203,10066.800811
832.381856,306.438199,-2072.576638,9252.574275
832.382172,-383.047749,-1406.391290,9326.594869
832.382488,0.000000,-1628.453072,9918.759623
832.382803,459.657299,-2590.720797,9400.615463
832.383119,1072.533697,-2738.761985,8734.430116
832.383435,842.705048,-1776.494261,9474.636058
832.383750,229.828649,-1036.288319,9030.512492
832.384066,153.219100,-1110.308913,8586.388927
832.384382,995.924147,-2738.761985,9252.574275
832.384697,1225.752797,-2220.617826,8438.347739
832.385013,459.657299,-1036.288319,9030.512492
832.385329,-536.266849,-2072.576638,9474.636058
832.385644,-153.219100,-2368.659014,9474.636058
832.385960,689.485948,-2220.617826,9104.533087
832.386276,76.609550,-1776.494261,9104.533087
832.386592,-842.705048,-962.267725,10436.903782
832.386907,-766.095498,-1406.391290,9992.780217
832.387223,-459.657299,-1850.514855,9548.656652
832.387539,-459.657299,-888.247130,9696.697840
832.387854,-459.657299,-740.205942,9992.780217
832.388170,0.000000,-148.041188,8956.491898
832.388486,-459.657299,-1184.329507,9104.533087
832.388801,612.876398,-1184.329507,10288.862594
832.389117,995.924147,-888.247130,9770.718434
832.389433,383.047749,814.226536,9548.656652
832.389749,0.000000,814.226536,8808.450710
832.390064,1149.143247,-296.082377,8956.491898
832.390380,1378.971896,-74.020594,9030.512492
832.390696,459.657299,1258.350101,9696.697840
832.391011,306.438199,370.102971,10140.821405
832.391327,766.095498,-74.020594,8660.409521
832.391643,1149.143247,-74.020594,8660.409521
832.391958,383.047749,-518.144159,9326.594869
832.392274,766.095498,-0.000000,10214.842000
832.392590,0.000000,370.102971,8734.430116
832.392906,0.000000,-296.082377,9622.677246
832.393221,536.266849,-222.061783,10066.800811
832.393537,842.705048,592.164754,9178.553681
832.393853,0.000000,814.226536,9178.553681
832.394168,306.438199,222.061783,9474.636058
832.394484,1072.533697,-518.144159,9474.636058
832.394800,1378.971896,518.144159,9030.512492
832.395115,229.828649,740.205942,10436.903782
832.395431,0.000000,-0.000000,10362.883188
832.395747,612.876398,370.102971,9474.636058
832.396062,919.314598,1332.370696,9622.677246
832.396378,689.485948,1998.556043,9918.759623
832.396694,995.924147,1554.432478,10362.883188
832.397010,459.657299,1554.432478,8216.285956
832.397325,1608.800546,592.164754,9474.636058
832.397641,2221.676944,592.164754,9474.636058
832.397957,1838.629195,1776.494261,9992.780217
832.398272,766.095498,1702.473667,9178.553681
832.398588,1225.752797,-0.000000,9474.636058
832.398904,1532.190996,666.185348,9696.697840
832.399219,842.705048,1998.556043,9696.697840
832.399535,229.828649,1998.556043,10214.842000
832.399851,0.000000,962.267725,9178.553681
832.400167,612.876398,592.164754,9178.553681
832.400482,1149.143247,1036.288319,9104.533087
832.400798,229.828649,888.247130,10066.800811
832.401114,-689.485948,888.247130,10510.924376
832.401429,-383.047749,-444.123565,9474.636058
832.401745,0.000000,-740.205942,10140.821405
832.402061,-689.485948,666.185348,10510.924376
832.402376,-459.657299,740.205942,10288.862594
832.402692,-612.876398,-222.061783,9696.697840
832.403008,459.657299,-0.000000,8734.430116
832.403324,842.705048,-370.102971,9622.677246
832.403639,536.266849,-0.000000,9992.780217
832.403955,229.828649,148.041188,9104.533087
832.404271,766.095498,-1036.288319,9104.533087
832.404586,1149.143247,-74.020594,9400.615463
832.404902,995.924147,296.082377,9474.636058
832.405218,306.438199,666.185348,9474.636058
832.405533,0.000000,518.144159,9104.533087
832.405849,919.314598,-1258.350101,8882.471304
832.406165,842.705048,-0.000000,7994.224174
832.406480,306.438199,-740.205942,9474.636058
832.406796,0.000000,-1406.391290,9474.636058
832.407112,229.828649,-1258.350101,9992.780217
832.407428,612.876398,-1480.411884,8808.450710
832.407743,0.000000,-444.123565,9178.553681
832.408059,-536.266849,-518.144159,9622.677246
832.408375,-689.485948,-1258.350101,9252.574275
832.408690,306.438199,-2368.659014,10436.903782
832.409006,766.095498,-1702.473667,8882.471304
832.409322,-306.438199,-1110.308913,9696.697840
832.409637,-689.485948,-1184.329507,9918.759623
832.409953,229.828649,-2368.659014,9622.677246
832.410269,1149.143247,-1702.473667,9030.512492
832.410585,383.047749,-444.123565,9474.636058
832.410900,0.000000,-740.205942,8882.471304
832.411216,842.705048,-1406.391290,8438.347739
832.411532,1608.800546,-1998.556043,9622.677246
832.411847,919.314598,-1110.308913,8734.430116
832.412163,1149.143247,-1036.288319,9326.594869
832.412479,612.876398,-962.267725,8290.306550
832.412794,612.876398,-1184.329507,9252.574275
832.413110,766.095498,-2072.576638,9992.780217
832.413426,766.095498,-444.123565,9252.574275
832.413742,-153.219100,370.102971,8882.471304
832.414057,-306.438199,-1406.391290,10510.924376
832.414373,536.266849,-1702.473667,9770.718434
832.414689,766.095498,-1628.453072,8882.471304
832.415004,229.828649,-222.061783,9844.739029
832.415320,-229.828649,-296.082377,9252.574275
832.415636,0.000000,-1258.350101,8734.430116
832.415951,766.095498,-444.123565,9548.656652
832.416267,842.705048,148.041188,9770.718434
832.416583,0.000000,444.123565,8956.491898
832.416898,0.000000,222.061783,9104.533087
832.417214,459.657299,-1480.411884,9622.677246
832.417530,1455.581446,-370.102971,9474.636058
832.417846,919.314598,370.102971,8808.450710
832.418161,-612.876398,-148.041188,8956.491898
832.418477,-153.219100,-1332.370696,11029.068536
832.418793,383.047749,-1184.329507,9696.697840
832.419108,383.047749,1036.288319,9178.553681
832.419424,-766.095498,518.144159,10140.821405
832.419740,-995.924147,-0.000000,9104.533087
832.420055,153.219100,-74.020594,9770.718434
832.420371,842.705048,-296.082377,8734.430116
832.420687,306.438199,592.164754,9104.533087
832.421003,0.000000,444.123565,9770.718434
832.421318,-153.219100,148.041188,8216.285956
832.421634,459.657299,-0.000000,10214.842000
832.421950,689.485948,370.102971,9918.759623
832.422265,-153.219100,444.123565,9326.594869
832.422581,-766.095498,370.102971,10140.821405
832.422897,306.438199,-222.061783,9992.780217
832.423212,689.485948,148.041188,9104.533087
832.423528,229.828649,1110.308913,9622.677246
832.423844,0.000000,1184.329507,9992.780217
832.424160,306.438199,962.267725,9474.636058
832.424475,1225.752797,148.041188,9548.656652
832.424791,383.047749,370.102971,9400.615463
832.425107,0.000000,1184.329507,10362.883188
832.425422,0.000000,518.144159,9178.553681
832.425738,919.314598,222.061783,9844.739029
832.426054,1378.971896,888.247130,9104.533087
832.426369,1072.533697,962.267725,9622.677246
832.426685,842.705048,1110.308913,9992.780217
832.427001,689.485948,370.102971,9474.636058
832.427316,1378.971896,-74.020594,9770.718434
832.427632,1685.410096,1110.308913,10362.883188
832.427948,536.266849,2072.576638,9252.574275
832.428264,306.438199,1924.535449,9622.677246
832.428579,919.314598,962.267725,9474.636058
832.428895,1991.848295,814.226536,9326.594869
832.429211,2145.067394,1332.370696,9030.512492
832.429526,612.876398,1332.370696,9178.553681
832.429842,1072.533697,-148.041188,10066.800811
832.430158,1762.019645,-962.267725,9548.656652
832.430473,1532.190996,444.123565,9104.533087
832.430789,842.705048,888.247130,10510.924376
832.431105,0.000000,518.144159,9474.636058
832.431421,383.047749,-444.123565,9622.677246
832.431736,766.095498,-444.123565,9696.697840
832.432052,229.828649,-74.020594,9474.636058
832.432368,-153.219100,-444.123565,9696.697840
832.432683,-306.438199,-1036.288319,9918.759623
832.432999,689.485948,-1480.411884,10955.047942
832.433315,842.705048,-370.102971,9696.697840
832.433630,842.705048,444.123565,8956.491898
832.433946,-383.047749,-0.000000,8512.368333
832.434262,1149.143247,-1480.411884,9770.718434
832.434578,1838.629195,-962.267725,8512.368333
832.434893,1149.143247,-962.267725,9178.553681
832.435209,919.314598,-0.000000,10288.862594
832.435525,459.657299,-1258.350101,8364.327145
832.435840,612.876398,-1702.473667,8290.306550
832.436156,995.924147,-1036.288319,9548.656652
832.436472,229.828649,-592.164754,9548.656652
832.436787,-383.047749,-592.164754,9770.718434
832.437103,-383.047749,-1332.370696,9400.615463
832.437419,0.000000,-2294.638420,9770.718434
832.437734,0.000000,-1628.453072,10214.842000
832.438050,-995.924147,-518.144159,9474.636058
832.438366,-1455.581446,-1332.370696,9844.739029
832.438682,0.000000,-1776.494261,10732.986159
832.438997,0.000000,-962.267725,8734.430116
832.439313,-612.876398,-222.061783,9030.512492
832.439629,76.609550,-0.000000,9400.615463
832.439944,383.047749,-1184.329507,9104.533087
832.440260,1072.533697,-1406.391290,9400.615463
832.440576,766.095498,222.061783,8660.409521
832.440891,76.609550,518.144159,8882.471304
832.441207,306.438199,-74.020594,9252.574275
832.441523,383.047749,-888.247130,9474.636058
832.441839,842.705048,-222.061783,9400.615463
832.442154,306.438199,222.061783,9326.594869
832.442470,-383.047749,592.164754,9326.594869
832.442786,-306.438199,-814.226536,9326.594869
832.443101,766.095498,-814.226536,9474.636058
832.443417,536.266849,-370.102971,9252.574275
832.443733,-229.828649,-0.000000,9178.553681
832.444048,-383.047749,-296.082377,9474.636058
832.444364,-536.266849,-1554.432478,9844.739029
832.444680,383.047749,-592.164754,9844.739029
832.444996,229.828649,-74.020594,9400.615463
832.445311,-842.705048,666.185348,8882.471304
832.445627,-153.219100,-1332.370696,10510.924376
832.445943,0.000000,-1554.432478,9400.615463
832.446258,536.266849,-370.102971,9474.636058
832.446574,153.219100,-74.020594,10362.883188
832.446890,-383.047749,-370.102971,9548.656652
832.447205,919.314598,-814.226536,10066.800811
832.447521,1149.143247,296.082377,9326.594869
832.447837,1302.362347,1110.308913,9696.697840
832.448152,306.438199,814.226536,8512.368333
832.448468,842.705048,444.123565,9104.533087
832.448784,1991.848295,-444.123565,9104.533087
832.449100,1762.019645,-296.082377,8660.409521
832.449415,766.095498,296.082377,9474.636058
832.449731,-229.828649,-370.102971,9770.718434
832.450047,995.924147,-1332.370696,10584.944971
832.450362,536.266849,666.185348,9474.636058
832.450678,459.657299,1702.473667,9548.656652
832.450994,306.438199,814.226536,9474.636058
832.451309,995.924147,370.102971,9104.533087
832.451625,995.924147,-814.226536,10807.006753
832.451941,1302.362347,-592.164754,9844.739029
832.452257,995.924147,666.185348,10214.842000
832.452572,459.657299,370.102971,9548.656652
832.452888,1532.190996,148.041188,9844.739029
832.453204,2145.067394,1184.329507,8956.491898
832.453519,995.924147,1924.535449,8734.430116
832.453835,536.266849,1776.494261,9474.636058
832.454151,1072.533697,-296.082377,9770.718434
832.454466,1762.019645,-740.205942,9770.718434
832.454782,1915.238745,592.164754,9696.697840
832.455098,306.438199,518.144159,9770.718434
832.455414,459.657299,888.247130,9252.574275
832.455729,459.657299,-222.061783,9326.594869
832.456045,995.924147,-74.020594,9844.739029
832.456361,383.047749,518.144159,9622.677246
832.456676,-229.828649,814.226536,9696.697840
832.456992,-306.438199,-222.061783,9326.594869
832.457308,689.485948,-814.226536,9770.718434
832.457623,1072.533697,-0.000000,8660.409521
832.457939,153.219100,296.082377,9548.656652
832.458255,-689.485948,-296.082377,8882.471304
832.458570,-459.657299,-1554.432478,10066.800811
832.458886,0.000000,-1332.370696,10288.862594
832.459202,229.828649,-444.123565,10140.821405
832.459518,-1072.533697,-0.000000,9474.636058
832.459833,-1149.143247,-962.267725,9844.739029
832.460149,0.000000,-1998.556043,9474.636058
832.460465,766.095498,-740.205942,8956.491898
832.460780,0.000000,-296.082377,9548.656652
832.461096,-689.485948,-444.123565,8142.265362
832.461412,0.000000,-1702.473667,9992.780217
832.461727,383.047749,-1554.432478,9104.533087
832.462043,76.609550,-518.144159,9548.656652
832.462359,153.219100,222.061783,8956.491898
832.462675,-229.828649,-296.082377,8512.368333
832.462990,612.876398,-740.205942,8882.471304
832.463306,1378.971896,-814.226536,8512.368333
832.463622,612.876398,-74.020594,8956.491898
832.463937,0.000000,-666.185348,9104.533087
832.464253,0.000000,-1702.473667,9252.574275
832.464569,689.485948,-1258.350101,9622.677246
832.464884,0.000000,-148.041188,9400.615463
832.465200,-153.219100,-148.041188,9992.780217
832.465516,-536.266849,-222.061783,9474.636058
832.465832,612.876398,-666.185348,9030.512492
832.466147,1149.143247,-370.102971,8438.347739
832.466463,459.657299,-148.041188,10140.821405
832.466779,306.438199,444.123565,9548.656652
832.467094,842.705048,-888.247130,9548.656652
832.467410,1608.800546,-0.000000,9400.615463
832.467726,1532.190996,518.144159,9548.656652
832.468041,842.705048,-222.061783,9178.553681
832.468357,766.095498,222.061783,10140.821405
832.468673,1378.971896,-1184.329507,9696.697840
832.468988,2298.286494,-222.061783,9104.533087
832.469304,1762.019645,1480.411884,9474.636058
832.469620,153.219100,1110.308913,9104.533087
832.469936,1149.143247,-444.123565,9548.656652
832.470251,1225.752797,-962.267725,9548.656652
832.470567,1608.800546,296.082377,9770.718434
832.470883,229.828649,1406.391290,9622.677246
832.471198,0.000000,-148.041188,9622.677246
832.471514,383.047749,-962.267725,10510.924376
832.471830,1072.533697,-962.267725,9770.718434
832.472145,0.000000,444.123565,9770.718434
832.472461,-536.266849,592.164754,10214.842000
832.472777,-919.314598,-888.247130,9844.739029
832.473093,383.047749,-1110.308913,10658.965565
832.473408,153.219100,-222.061783,10066.800811
832.473724,-536.266849,740.205942,10066.800811
832.474040,-459.657299,-518.144159,10066.800811
832.474355,536.266849,-592.164754,9178.553681
832.474671,383.047749,-148.041188,9474.636058
832.474987,229.828649,518.144159,9622.677246
832.475302,-306.438199,666.185348,9104.533087
832.475618,76.609550,-296.082377,9548.656652
832.475934,612.876398,-740.205942,9696.697840
832.476250,459.657299,592.164754,8882.471304
832.476565,0.000000,1554.432478,8512.368333
832.476881,-536.266849,222.061783,7994.224174
832.477197,76.609550,-2072.576638,10436.903782
832.477512,689.485948,-814.226536,9178.553681
832.477828,0.000000,-0.000000,8882.471304
832.478144,-1302.362347,-444.123565,9474.636058
832.478459,-766.095498,-740.205942,9178.553681
832.478775,0.000000,-370.102971,9918.759623
832.479091,153.219100,518.144159,8586.388927
832.479406,0.000000,814.226536,9178.553681
832.479722,-306.438199,370.102971,8586.388927
832.480038,459.657299,-1184.329507,8734.430116
832.480354,995.924147,-962.267725,8956.491898
832.480669,842.705048,518.144159,9030.512492
832.480985,153.219100,-222.061783,8882.471304
832.481301,153.219100,-444.123565,9104.533087
832.481616,612.876398,-814.226536,10732.986159
832.481932,995.924147,370.102971,8734.430116
832.482248,306.438199,740.205942,9548.656652
832.482563,-383.047749,-222.061783,9474.636058
832.482879,306.438199,-1406.391290,10362.883188
832.483195,1225.752797,-888.247130,9770.718434
832.483510,383.047749,-518.144159,9918.759623
832.483826,76.609550,296.082377,10288.862594
832.484141,536.266849,-740.205942,9770.718434
832.484457,689.485948,-592.164754,9326.594869
832.484773,1685.410096,370.102971,9770.718434
832.485088,689.485948,888.247130,9844.739029
832.485404,383.047749,1480.411884,8734.430116
832.485720,1378.971896,-518.144159,9400.615463
832.486035,2068.457845,-666.185348,8734.430116
832.486351,1302.362347,-296.082377,9918.759623
832.486667,76.609550,-296.082377,9992.780217
832.486982,612.876398,-444.123565,9326.594869
832.487298,1149.143247,-1110.308913,10436.903782
832.487614,1378.971896,-0.000000,10288.862594
832.487929,459.657299,666.185348,10066.800811
832.488245,-766.095498,-0.000000,9400.615463
832.488560,536.266849,-1258.350101,10362.883188
832.488876,919.314598,-888.247130,9474.636058
832.489192,842.705048,-0.000000,9844.739029
832.489507,0.000000,-296.082377,9770.718434
832.489823,229.828649,-592.164754,9622.677246
832.490139,1149.143247,-1258.350101,9770.718434
832.490454,995.924147,518.144159,9030.512492
832.490770,842.705048,1110.308913,9326.594869
832.491086,229.828649,518.144159,8808.450710
832.491401,1072.533697,-740.205942,8660.409521
832.491717,1915.238745,-1036.288319,9252.574275
832.492033,1225.752797,-74.020594,9400.615463
832.492348,383.047749,-296.082377,9178.553681
832.492664,-153.219100,-740.205942,8882.471304
832.492980,919.314598,-1406.391290,10140.821405
832.493295,689.485948,-666.185348,9696.697840
832.493611,306.438199,666.185348,9030.512492
832.493926,-306.438199,962.267725,8142.265362
832.494242,-306.438199,-1480.411884,9252.574275
832.494558,459.657299,-1110.308913,9548.656652
832.494873,459.657299,-0.000000,9326.594869
832.495189,-612.876398,296.082377,9474.636058
832.495505,-459.657299,-1110.308913,9178.553681
832.495820,0.000000,-1998.556043,10140.821405
832.496136,76.609550,-740.205942,9770.718434
832.496452,-306.438199,-0.000000,9770.718434
832.496767,-689.485948,370.102971,9844.739029
832.497083,0.000000,-74.020594,9252.574275
832.497399,1072.533697,-444.123565,9770.718434
832.497714,1072.533697,666.185348,8734.430116
832.498030,766.095498,1332.370696,8734.430116
832.498345,459.657299,370.102971,8808.450710
832.498661,1225.752797,-666.185348,9326.594869
832.498977,1378.971896,-0.000000,9326.594869
832.499292,842.705048,1110.308913,9622.677246
832.499608,153.219100,962.267725,9178.553681
832.499924,612.876398,-222.061783,9474.636058
832.500239,1149.143247,-592.164754,10066.800811
832.500555,1072.533697,-0.000000,9326.594869
832.500871,229.828649,962.267725,9622.677246
832.501186,-306.438199,666.185348,9400.615463
832.501502,-153.219100,-888.247130,10288.862594
832.501818,1302.362347,-148.041188,10362.883188
832.502133,536.266849,1110.308913,9474.636058
832.502449,-459.657299,888.247130,9474.636058
832.502764,383.047749,-814.226536,9474.636058
832.503080,1455.581446,-962.267725,9474.636058
832.503396,1225.752797,296.082377,9474.636058
832.503711,383.047749,296.082377,9770.718434
832.504027,153.219100,-444.123565,10066.800811
832.504343,1378.971896,-814.226536,10214.842000
832.504658,1072.533697,-0.000000,8882.471304
832.504974,459.657299,1036.288319,9400.615463
832.505290,0.000000,1184.329507,9326.594869
832.505605,689.485948,-0.000000,8660.409521
832.505921,1225.752797,-222.061783,9326.594869
832.506237,995.924147,-370.102971,9474.636058
832.506552,459.657299,148.041188,9918.759623
832.506868,0.000000,-888.247130,9030.512492
832.507183,306.438199,-1480.411884,10362.883188
832.507499,995.924147,-222.061783,9844.739029
832.507815,229.828649,296.082377,9548.656652
832.508130,-383.047749,1036.288319,9474.636058
832.508446,0.000000,-666.185348,9696.697840
832.508762,1378.971896,-1184.329507,9696.697840
832.509077,1532.190996,-518.144159,8808.450710
832.509393,383.047749,-666.185348,10362.883188
832.509709,306.438199,-74.020594,9474.636058
832.510024,1225.752797,-1258.350101,9622.677246
832.510340,1149.143247,-0.000000,8808.450710
832.510656,689.485948,740.205942,9844.739029
832.510971,0.000000,740.205942,8956.491898
832.511287,383.047749,-74.020594,9178.553681
832.511603,995.924147,-1184.329507,9844.739029
832.511918,1455.581446,-74.020594,8660.409521
832.512234,306.438199,-518.144159,9622.677246
832.512549,0.000000,-0.000000,8956.491898
832.512865,612.876398,-888.247130,9178.553681
832.513181,383.047749,-518.144159,9326.594869
832.513496,306.438199,-0.000000,10732.986159
832.513812,-383.047749,518.144159,9400.615463
832.514128,-995.924147,740.205942,8882.471304
832.514443,-153.219100,-1332.370696,9400.615463
832.514759,306.438199,-592.164754,9326.594869
832.515075,-536.266849,1776.494261,8882.471304
832.515390,-1302.362347,-0.000000,9622.677246
832.515706,76.609550,-1332.370696,10510.924376
832.516022,153.219100,-1480.411884,9400.615463
832.516337,-153.219100,-518.144159,9770.718434
832.516653,-766.095498,222.061783,9622.677246
832.516968,-229.828649,-444.123565,9474.636058
832.517284,689.485948,-1406.391290,9474.636058
832.517600,0.000000,296.082377,8438.347739
832.517915,0.000000,-74.020594,10362.883188
832.518231,-612.876398,-0.000000,8586.388927
832.518547,306.438199,-1332.370696,9030.512492
832.518862,459.657299,-1628.453072,9474.636058
832.519178,919.314598,-74.020594,9548.656652
832.519494,0.000000,-0.000000,9104.533087
832.519809,153.219100,-1110.308913,9326.594869
832.520125,383.047749,-1554.432478,9696.697840
832.520441,612.876398,-1110.308913,8512.368333
832.520756,459.657299,148.041188,10288.862594
832.521072,153.219100,-666.185348,9918.759623
832.521387,383.047749,-1036.288319,8956.491898
832.521703,995.924147,-74.020594,9474.636058
832.522019,1378.971896,-148.041188,9548.656652
832.522334,383.047749,518.144159,9252.574275
832.522650,0.000000,-518.144159,9030.512492
832.522966,689.485948,-1702.473667,9918.759623
832.523281,1532.190996,-0.000000,10436.903782
832.523597,689.485948,1036.288319,9622.677246
832.523913,0.000000,1184.329507,8808.450710
832.524228,306.438199,-74.020594,9992.780217
832.524544,1149.143247,-148.041188,9622.677246
832.524860,1455.581446,1702.473667,9326.594869
832.525175,229.828649,1036.288319,9104.533087
832.525491,536.266849,-0.000000,9474.636058
832.525806,1302.362347,-2146.597232,10658.965565
832.526122,1455.581446,-148.041188,8808.450710
832.526438,689.485948,888.247130,10288.862594
832.526753,-229.828649,814.226536,9400.615463
832.527069,229.828649,592.164754,9030.512492
832.527385,1302.362347,-74.020594,10066.800811
832.527700,689.485948,814.226536,9104.533087
832.528016,153.219100,962.267725,9030.512492
832.528332,153.219100,-518.144159,9622.677246
832.528647,995.924147,-1406.391290,9252.574275
832.528963,842.705048,-814.226536,9030.512492
832.529279,536.266849,-1036.288319,10732.986159
832.529594,-689.485948,-1480.411884,9918.759623
832.529910,-766.095498,-1110.308913,10214.842000
832.530225,0.000000,-1776.494261,10510.924376
832.530541,153.219100,-1628.453072,10288.862594
832.530857,0.000000,-592.164754,10584.944971
832.531172,0.000000,-1628.453072,8956.491898
832.531488,306.438199,-2220.617826,10436.903782
832.531804,1608.800546,-2146.597232,10288.862594
832.532119,1991.848295,-518.144159,7550.100608
832.532435,1378.971896,222.061783,8808.450710
832.532751,919.314598,-1036.288319,9326.594869
832.533066,2451.505594,-1776.494261,8586.388927
832.533382,1991.848295,-222.061783,8068.244768
832.533698,1149.143247,-962.267725,9104.533087
832.534013,153.219100,-1184.329507,7846.182985
832.534329,153.219100,-2220.617826,9252.574275
832.534645,919.314598,-2220.617826,9474.636058
832.534960,153.219100,-1406.391290,8216.285956
832.535276,-919.314598,-2146.597232,9474.636058
832.535591,-1225.752797,-2738.761985,9918.759623
832.535907,-919.314598,-3108.864956,10066.800811
832.536223,-383.047749,-1628.453072,8956.491898
832.536538,-1532.190996,-370.102971,8956.491898
832.536854,-2451.505594,-222.061783,9474.636058
832.537170,-1225.752797,-740.205942,8586.388927
832.537485,-766.095498,-592.164754,9104.533087
832.537801,-842.705048,-666.185348,8512.368333
832.538117,-1685.410096,-1332.370696,9400.615463
832.538432,-2298.286494,-1406.391290,9104.533087
832.538748,-1685.410096,-2294.638420,9622.677246
832.539064,-1455.581446,-2220.617826,10066.800811
832.539379,-1608.800546,-1036.288319,9844.739029
832.539695,-2681.334243,-666.185348,9622.677246
832.540010,-3140.991542,-1110.308913,8808.450710
832.540326,-2068.457845,-2294.638420,10584.944971
832.540642,-1302.362347,-2072.576638,10807.006753
832.540957,-1991.848295,-962.267725,9548.656652
832.541273,-2221.676944,-1998.556043,10288.862594
832.541589,-2221.676944,-3034.844362,9918.759623
832.541904,-842.705048,-3552.988522,10732.986159
832.542220,-842.705048,-2146.597232,10140.821405
832.542536,-1149.143247,-888.247130,9474.636058
832.542851,-1378.971896,-1036.288319,9030.512492
832.543167,-1149.143247,-1258.350101,8586.388927
832.543483,0.000000,-1628.453072,9400.615463
832.543798,0.000000,-1554.432478,9474.636058
832.544114,-842.705048,-1924.535449,9474.636058
832.544429,-1608.800546,-2886.803174,10140.821405
832.544745,-995.924147,-2886.803174,9622.677246
832.545061,-459.657299,-2590.720797,9992.780217
832.545376,-1072.533697,-1850.514855,10140.821405
832.545692,-1685.410096,-1850.514855,10140.821405
832.546008,-2145.067394,-2220.617826,9548.656652
832.546323,-1991.848295,-2072.576638,9326.594869
832.546639,-2068.457845,-1924.535449,9622.677246
832.546955,-1991.848295,-1702.473667,9178.553681
832.547270,-2834.553343,-2072.576638,9326.594869
832.547586,-2451.505594,-2812.782580,9178.553681
832.547902,-2145.067394,-2812.782580,9326.594869
832.548217,-2298.286494,-1628.453072,9474.636058
832.548533,-2374.896044,-2294.638420,9622.677246
832.548848,-2145.067394,-2516.700203,9548.656652
832.549164,-2298.286494,-2294.638420,9400.615463
832.549480,-2451.505594,-2442.679609,9548.656652
832.549795,-2374.896044,-1628.453072,9400.615463
832.550111,-1915.238745,-1628.453072,9400.615463
832.550427,-919.314598,-1776.494261,9104.533087
832.550742,-766.095498,-1406.391290,8660.409521
832.551058,-995.924147,-1480.411884,8808.450710
832.551374,-842.705048,-1406.391290,8956.491898
832.551689,-995.924147,-814.226536,8882.471304
832.552005,-229.828649,-1184.329507,8512.368333
832.552321,0.000000,-592.164754,8216.285956
832.552636,-995.924147,-1332.370696,8882.471304
832.552952,-1455.581446,-2072.576638,9696.697840
832.553268,-1455.581446,-2368.659014,9474.636058
832.553583,-1915.238745,-2072.576638,8956.491898
832.553899,-1838.629195,-2072.576638,9474.636058
832.554214,-1838.629195,-2664.741391,10140.821405
832.554530,-2298.286494,-3182.885551,9992.780217
832.554846,-2451.505594,-3108.864956,10584.944971
832.555161,-2451.505594,-3404.947333,9770.718434
832.555477,-2221.676944,-2146.597232,9770.718434
832.555793,-1991.848295,-1480.411884,10214.842000
832.556108,-1149.143247,-1998.556043,8956.491898
832.556424,-919.314598,-2072.576638,9474.636058
832.556740,-1378.971896,-2442.679609,9770.718434
832.557055,-1225.752797,-2072.576638,8660.409521
832.557371,-383.047749,-1850.514855,8882.471304
832.557687,-919.314598,-1554.432478,9326.594869
832.558002,-459.657299,-2294.638420,9474.636058
832.558318,-306.438199,-2516.700203,9918.759623
832.558633,-1532.190996,-2220.617826,9770.718434
832.558949,-1991.848295,-2146.597232,9844.739029
832.559265,-1149.143247,-2738.761985,9770.718434
832.559580,-2451.505594,-1554.432478,9474.636058
832.559896,-2451.505594,-1332.370696,9696.697840
832.560212,-1685.410096,-2738.761985,11473.192101
832.560527,-1991.848295,-2812.782580,9844.739029
832.560843,-2911.162892,-2664.741391,9548.656652
832.561159,-2221.676944,-3404.947333,10140.821405
832.561474,-2374.896044,-2442.679609,9622.677246
832.561790,-2604.724693,-1480.411884,9104.533087
832.562106,-2068.457845,-2368.659014,9770.718434
832.562421,-1608.800546,-2442.679609,8956.491898
832.562737,-2221.676944,-2368.659014,8586.388927
832.563052,-2834.553343,-3182.885551,9326.594869
832.563368,-2221.676944,-3997.112087,9992.780217
832.563684,-2374.896044,-3108.864956,10510.924376
832.563999,-2451.505594,-2442.679609,9844.739029
832.564315,-2221.676944,-2368.659014,9474.636058
832.564631,-1455.581446,-2442.679609,9104.533087
832.564946,-1685.410096,-2664.741391,9326.594869
832.565262,-1225.752797,-2590.720797,8956.491898
832.565578,-459.657299,-2442.679609,8808.450710
832.565893,-459.657299,-1776.494261,8216.285956
832.566209,-842.705048,-1554.432478,7920.203579
832.566525,-1072.533697,-1702.473667,7846.182985
832.566840,-1838.629195,-2368.659014,8586.388927
832.567156,-1991.848295,-2590.720797,8882.471304
832.567471,-1991.848295,-3775.050304,9474.636058
832.567787,-2604.724693,-4293.194464,9696.697840
832.568103,-3294.210641,-4589.276840,10510.924376
832.568418,-3294.210641,-5033.400406,11251.130318
832.568734,-2987.772442,-4589.276840,11399.171507
832.569050,-3370.820191,-3256.906145,10807.006753
832.569365,-3140.991542,-1406.391290,9992.780217
832.569681,-1685.410096,-814.226536,8808.450710
832.569997,-612.876398,-1036.288319,8142.265362
832.570312,0.000000,-962.267725,7772.162391
832.570628,306.438199,-962.267725,7105.977043
832.570944,689.485948,-1776.494261,7105.977043
832.571259,995.924147,-1850.514855,7994.224174
832.571575,536.266849,-2368.659014,8512.368333
832.571891,153.219100,-1480.411884,8586.388927
832.572206,-1455.581446,-1036.288319,9474.636058
832.572522,-1991.848295,-1702.473667,9770.718434
832.572837,-1532.190996,-2590.720797,10140.821405
832.573153,-1915.238745,-2590.720797,10288.862594
832.573469,-2451.505594,-2516.700203,10881.027347
832.573784,-2374.896044,-3034.844362,11177.109724
832.574100,-2221.676944,-2516.700203,10881.027347
832.574416,-1302.362347,-2072.576638,10658.965565
832.574731,-1302.362347,-1258.350101,9844.739029
832.575047,-1149.143247,148.041188,8882.471304
832.575363,-1225.752797,222.061783,7920.203579
832.575678,-306.438199,-222.061783,7698.141797
832.575994,0.000000,-296.082377,8290.306550
832.576310,0.000000,-1110.308913,7994.224174
832.576625,-383.047749,-2368.659014,8808.450710
832.576941,-1225.752797,-3552.988522,9918.759623
832.577256,-2451.505594,-3404.947333,10658.965565
832.577572,-3447.429741,-2960.823768,11473.192101
832.577888,-3064.381992,-2294.638420,11917.315666
832.578203,-3064.381992,-2072.576638,11917.315666
832.578519,-3140.991542,-1406.391290,11029.068536
832.578835,-2757.943793,-888.247130,9770.718434
832.579150,-1838.629195,-148.041188,9178.553681
832.579466,-1072.533697,-740.205942,8364.327145
832.579782,-459.657299,-1258.350101,8290.306550
832.580097,-153.219100,-2146.597232,7994.224174
832.580413,-536.266849,-2812.782580,8438.347739
832.580729,-1302.362347,-2886.803174,9696.697840
832.581044,-1838.629195,-3478.967927,10066.800811
832.581360,-1915.238745,-3701.029710,10510.924376
832.581675,-2068.457845,-2960.823768,10807.006753
832.581991,-1915.238745,-2738.761985,10732.986159
832.582307,-1915.238745,-2072.576638,10288.862594
832.582622,-1915.238745,-1554.432478,9918.759623
832.582938,-2068.457845,-1036.288319,8956.491898
832.583254,-1762.019645,-1258.350101,8808.450710
832.583570,-1685.410096,-1776.494261,8660.409521
832.583885,-1072.533697,-2368.659014,8586.388927
832.584201,-1685.410096,-3404.947333,8808.450710
832.584517,-1608.800546,-4219.173869,8882.471304
832.584832,-1302.362347,-4293.194464,9400.615463
832.585148,-1762.019645,-4071.132681,9918.759623
832.585464,-2298.286494,-3627.009116,9992.780217
832.585779,-2834.553343,-3182.885551,10362.883188
832.586095,-2451.505594,-2664.741391,10436.903782
832.586411,-2757.943793,-2072.576638,10140.821405
832.586726,-2145.067394,-1702.473667,9474.636058
832.587042,-1762.019645,-1480.411884,9030.512492
832.587358,-995.924147,-1554.432478,8364.327145
832.587674,-306.438199,-1184.329507,7994.224174
832.587989,76.609550,-1480.411884,7328.038826
832.588305,76.609550,-1702.473667,6957.935855
832.588621,0.000000,-2072.576638,7179.997637
832.588936,-459.657299,-2220.617826,7402.059420
832.589252,-1532.190996,-3849.070898,8660.409521
832.589568,-2221.676944,-3775.050304,9400.615463
832.589883,-2911.162892,-4737.318029,10584.944971
832.590199,-4060.306139,-5255.462188,11843.295072
832.590515,-4213.525239,-5551.544565,11843.295072
832.590830,-4673.182538,-5329.482782,11991.336260
832.591146,-3753.867940,-3849.070898,11843.295072
832.591462,-3140.991542,-2368.659014,11103.089130
832.591778,-1991.848295,-888.247130,9770.718434
832.592093,-536.266849,-0.000000,8290.306550
832.592409,1302.362347,74.020594,7476.080014
832.592725,2451.505594,148.041188,6439.791695
832.593040,3217.601092,-74.020594,6143.709319
832.593356,3370.820191,-592.164754,5921.647536
832.593672,3140.991542,-1332.370696,6587.832884
832.593987,2604.724693,-1628.453072,7994.224174
832.594303,766.095498,-2590.720797,9326.594869
832.594619,-766.095498,-3108.864956,10436.903782
832.594934,-2298.286494,-3478.967927,11251.130318
832.595250,-3524.039291,-3182.885551,11991.336260
832.595566,-4213.525239,-2590.720797,11991.336260
832.595882,-4596.572988,-2072.576638,11843.295072
832.596197,-4596.572988,-1480.411884,11473.192101
832.596513,-4443.353888,-1776.494261,10807.006753
832.596829,-3753.867940,-1998.556043,9992.780217
832.597144,-3217.601092,-2442.679609,9474.636058
832.597460,-2528.115143,-2516.700203,9104.533087
832.597776,-1838.629195,-1998.556043,8438.347739
832.598091,-1149.143247,-1332.370696,8068.244768
832.598407,-612.876398,-1480.411884,7920.203579
832.598723,-842.705048,-1406.391290,8586.388927
832.599038,-1072.533697,-2072.576638,9400.615463
832.599354,-1532.190996,-2072.576638,9622.677246
832.599670,-1532.190996,-2368.659014,10288.862594
832.599986,-2068.457845,-1924.535449,10510.924376
832.600301,-2221.676944,-1480.411884,10732.986159
832.600617,-2451.505594,-1258.350101,10510.924376
832.600933,-2374.896044,-1406.391290,10436.903782
832.601248,-2451.505594,-1850.514855,9992.780217
832.601564,-2298.286494,-2220.617826,9992.780217
832.601880,-2221.676944,-2442.679609,9474.636058
832.602195,-1608.800546,-2886.803174,9400.615463
832.602511,-1149.143247,-2886.803174,9326.594869
832.602827,-1378.971896,-2664.741391,9252.574275
832.603142,-1225.752797,-2738.761985,9400.615463
832.603458,-689.485948,-3330.926739,9548.656652
832.603774,-766.095498,-2812.782580,9770.718434
832.604090,-612.876398,-2146.597232,9474.636058
832.604405,-536.266849,-1554.432478,9770.718434
832.604721,-306.438199,-888.247130,9474.636058
832.605037,76.609550,-666.185348,9030.512492
832.605352,459.657299,-740.205942,8586.388927
832.605668,459.657299,-740.205942,8216.285956
832.605984,536.266849,-1110.308913,8068.244768
832.606299,919.314598,-1554.432478,8290.306550
832.606615,459.657299,-1702.473667,7920.203579
832.606931,-229.828649,-1776.494261,8438.347739
832.607246,-612.876398,-2368.659014,8882.471304
832.607562,-1378.971896,-3034.844362,9474.636058
832.607878,-2451.505594,-2812.782580,10140.821405
832.608194,-2911.162892,-2368.659014,10214.842000
832.608509,-3294.210641,-1998.556043,10436.903782
832.608825,-3447.429741,-1332.370696,10288.862594
832.609141,-2987.772442,-740.205942,9918.759623
832.609456,-2451.505594,-370.102971,9474.636058
832.609772,-1991.848295,-814.226536,9252.574275
832.610088,-1532.190996,-1480.411884,8956.491898
832.610403,-612.876398,-1332.370696,8882.471304
832.610719,0.000000,-1850.514855,8586.388927
832.611035,-383.047749,-1110.308913,8364.327145
832.611350,-612.876398,-1332.370696,8734.430116
832.611666,-842.705048,-1628.453072,8956.491898
832.611982,-1225.752797,-1850.514855,9326.594869
832.612298,-1685.410096,-1776.494261,9474.636058
832.612613,-2604.724693,-2294.638420,9696.697840
832.612929,-3447.429741,-2664.741391,10362.883188
832.613245,-3753.867940,-2738.761985,10436.903782
832.613560,-3983.696590,-2590.720797,10732.986159
832.613876,-4213.525239,-2812.782580,10881.027347
832.614192,-4290.134789,-3330.926739,10584.944971
832.614507,-3983.696590,-3775.050304,10510.924376
832.614823,-3600.648841,-4071.132681,10288.862594
832.615139,-2834.553343,-4293.194464,10362.883188
832.615454,-2834.553343,-4219.173869,9992.780217
832.615770,-2068.457845,-3997.112087,9252.574275
832.616086,-1838.629195,-4071.132681,8882.471304
832.616402,-1225.752797,-3775.050304,9178.553681
832.616717,-1072.533697,-3849.070898,9252.574275
832.617033,-1455.581446,-3775.050304,9474.636058
832.617349,-1915.238745,-3923.091493,9474.636058
832.617664,-1838.629195,-3627.009116,9696.697840
832.617980,-1991.848295,-3627.009116,9918.759623
832.618296,-1915.238745,-3701.029710,9918.759623
832.618611,-1915.238745,-3552.988522,9770.718434
832.618927,-1455.581446,-3182.885551,9844.739029
832.619243,-1685.410096,-3404.947333,9474.636058
832.619558,-766.095498,-3034.844362,9178.553681
832.619874,-689.485948,-2664.741391,8808.450710
832.620190,-383.047749,-2146.597232,8216.285956
832.620506,-306.438199,-2294.638420,7846.182985
832.620821,-229.828649,-2146.597232,7476.080014
832.621137,-459.657299,-2368.659014,8068.244768
832.621453,-1072.533697,-2368.659014,7994.224174
832.621768,-1532.190996,-2812.782580,8808.450710
832.622084,-2374.896044,-3256.906145,9622.677246
832.622400,-2681.334243,-3256.906145,9844.739029
832.622715,-2911.162892,-3552.988522,10436.903782
832.623031,-2987.772442,-3256.906145,10510.924376
832.623347,-2987.772442,-3182.885551,10436.903782
832.623662,-2681.334243,-3478.967927,10584.944971
832.623978,-1762.019645,-2516.700203,9918.759623
832.624294,-842.705048,-1702.473667,9548.656652
832.624610,-306.438199,-888.247130,8660.409521
832.624925,459.657299,-0.000000,7846.182985
832.625241,1072.533697,666.185348,7402.059420
832.625557,1762.019645,740.205942,6513.812290
832.625872,1762.019645,814.226536,6661.853478
832.626188,1455.581446,518.144159,7031.956449
832.626504,612.876398,-814.226536,7624.121203
832.626819,-229.828649,-1850.514855,8734.430116
832.627135,-1608.800546,-2664.741391,9770.718434
832.627451,-2451.505594,-3478.967927,11473.192101
832.627766,-3370.820191,-4367.215058,12509.480420
832.628082,-4060.306139,-4293.194464,13101.645173
832.628398,-4136.915689,-4441.235652,13545.768739
832.628714,-3753.867940,-2886.803174,13397.727550
832.629029,-2834.553343,-1554.432478,11399.171507
832.629345,-1608.800546,-0.000000,9918.759623
832.629661,-383.047749,1332.370696,8364.327145
832.629976,689.485948,1702.473667,7105.977043
832.630292,1225.752797,1554.432478,6143.709319
832.630608,1455.581446,1258.350101,5921.647536
832.630923,1072.533697,370.102971,6439.791695
832.631239,383.047749,-962.267725,7772.162391
832.631555,-612.876398,-2738.761985,9326.594869
832.631870,-2145.067394,-3404.947333,11399.171507
832.632186,-3907.087040,-4071.132681,12509.480420
832.632502,-4596.572988,-4737.318029,13397.727550
832.632818,-4979.620737,-3330.926739,13323.706956
832.633133,-5209.449386,-2664.741391,12805.562797
832.633449,-4290.134789,-1110.308913,12065.356855
832.633765,-4366.744339,-222.061783,10362.883188
832.634080,-3677.258390,-296.082377,8956.491898
832.634396,-2298.286494,-592.164754,8586.388927
832.634712,-1532.190996,-1480.411884,8142.265362
832.635027,-766.095498,-1998.556043,8364.327145
832.635343,-689.485948,-2368.659014,8290.306550
832.635659,-842.705048,-2442.679609,7994.224174
832.635974,-689.485948,-1924.535449,8438.347739
832.636290,-1149.143247,-2294.638420,8956.491898
832.636606,-1838.629195,-1998.556043,8956.491898
832.636922,-2451.505594,-2368.659014,9474.636058
832.637237,-2451.505594,-3256.906145,10140.821405
832.637553,-2757.943793,-3701.029710,10658.965565
832.637869,-2757.943793,-4293.194464,11103.089130
832.638184,-3600.648841,-3552.988522,11251.130318
832.638500,-3140.991542,-3108.864956,10066.800811
832.638816,-2451.505594,-3182.885551,9992.780217
832.639131,-1762.019645,-3330.926739,9548.656652
832.639447,-1455.581446,-2886.803174,8808.450710
832.639763,-689.485948,-2516.700203,7328.038826
832.640078,229.828649,-3034.844362,6587.832884
832.640394,1072.533697,-3997.112087,7179.997637
832.640710,153.219100,-3923.091493,8290.306550
832.641026,-766.095498,-3775.050304,9178.553681
832.641341,-1149.143247,-4219.173869,9548.656652
832.641657,-1685.410096,-3923.091493,9992.780217
832.641973,-1838.629195,-2738.761985,9992.780217
832.642288,-2221.676944,-1924.535449,9474.636058
832.642604,-1378.971896,-2146.597232,9548.656652
832.642920,-459.657299,-2812.782580,9474.636058
832.643235,76.609550,-2960.823768,8660.409521
832.643551,76.609550,-2368.659014,7994.224174
832.643867,766.095498,-2368.659014,8512.368333
832.644182,153.219100,-2812.782580,7994.224174
832.644498,-153.219100,-3108.864956,8364.327145
832.644814,-689.485948,-3404.947333,8808.450710
832.645130,-1378.971896,-3775.050304,9400.615463
832.645445,-1685.410096,-4293.194464,9844.739029
832.645761,-2834.553343,-4145.153275,9770.718434
832.646077,-2451.505594,-3182.885551,10140.821405
832.646392,-2528.115143,-1702.473667,9992.780217
832.646708,-2451.505594,-222.061783,10066.800811
832.647024,-2221.676944,-296.082377,9696.697840
832.647339,-1455.581446,-962.267725,9030.512492
832.647655,-1532.190996,-1110.308913,9252.574275
832.647971,-1225.752797,-1702.473667,8808.450710
832.648286,-153.219100,-1258.350101,8216.285956
832.648602,-612.876398,-1554.432478,8290.306550
832.648918,-1149.143247,-1924.535449,8734.430116
832.649234,-842.705048,-2442.679609,8956.491898
832.649549,-1762.019645,-2664.741391,9400.615463
832.649865,-3753.867940,-2516.700203,10955.047942
832.650181,-4060.306139,-2812.782580,11103.089130
832.650496,-4060.306139,-2294.638420,11473.192101
832.650812,-4213.525239,-1406.391290,11695.253884
832.651128,-3830.477490,-888.247130,11843.295072
832.651443,-3140.991542,-1332.370696,10436.903782
832.651759,-2987.772442,-740.205942,9696.697840
832.652075,-2528.115143,-518.144159,9400.615463
832.652390,-766.095498,-444.123565,9104.533087
832.652706,229.828649,148.041188,7846.182985
832.653022,459.657299,-148.041188,7624.121203
832.653338,1149.143247,-1110.308913,7698.141797
832.653653,459.657299,-1850.514855,8364.327145
832.653969,-919.314598,-1998.556043,9030.512492
832.654285,-1991.848295,-2886.803174,10140.821405
832.654600,-1838.629195,-3330.926739,11177.109724
832.654916,-3064.381992,-3034.844362,11399.171507
832.655232,-3600.648841,-3182.885551,12287.418637
832.655547,-3983.696590,-2368.659014,12065.356855
832.655863,-4290.134789,-1998.556043,11621.233289
832.656179,-3600.648841,-888.247130,10510.924376
832.656495,-2604.724693,-1258.350101,10362.883188
832.656810,-1302.362347,-1480.411884,9844.739029
832.657126,-612.876398,-1776.494261,8512.368333
832.657442,0.000000,-2072.576638,7624.121203
832.657757,995.924147,-1406.391290,8142.265362
832.658073,1532.190996,-518.144159,7402.059420
832.658389,1838.629195,-1110.308913,6809.894666
832.658704,1302.362347,-2294.638420,8290.306550
832.659020,-459.657299,-2516.700203,8882.471304
832.659336,-1455.581446,-3108.864956,9696.697840
832.659651,-1685.410096,-2368.659014,9992.780217
832.659967,-2221.676944,-2442.679609,10436.903782
832.660283,-2298.286494,-3404.947333,11917.315666
832.660599,-2604.724693,-3034.844362,11103.089130
832.660914,-3294.210641,-2738.761985,10584.944971
832.661230,-2911.162892,-3404.947333,10510.924376
832.661546,-2068.457845,-2590.720797,9696.697840
832.661861,-1149.143247,-2442.679609,9030.512492
832.662177,0.000000,-2294.638420,8438.347739
832.662493,306.438199,-888.247130,6957.935855
832.662808,153.219100,-444.123565,6217.729913
832.663124,459.657299,-518.144159,6809.894666
832.663440,536.266849,-1776.494261,7105.977043
832.663755,-459.657299,-2590.720797,8142.265362
832.664071,-1072.533697,-2738.761985,9030.512492
832.664387,-2834.553343,-3775.050304,9844.739029
832.664703,-2757.943793,-3182.885551,10732.986159
832.665018,-2528.115143,-3108.864956,11103.089130
832.665334,-3294.210641,-3182.885551,10510.924376
832.665650,-4060.306139,-1924.535449,10955.047942
832.665965,-3677.258390,-2072.576638,10066.800811
832.666281,-3064.381992,-2294.638420,9252.574275
832.666597,-1532.190996,-1036.288319,9252.574275
832.666912,-1149.143247,-1776.494261,8438.347739
832.667228,-1149.143247,-888.247130,7624.121203
832.667544,-995.924147,-1628.453072,8142.265362
832.667859,0.000000,-1702.473667,8882.471304
832.668175,0.000000,-518.144159,8512.368333
832.668491,-1072.533697,-518.144159,8734.430116
832.668807,-1225.752797,-74.020594,9474.636058
832.669122,-612.876398,-444.123565,9696.697840
832.669438,459.657299,-666.185348,10288.862594
832.669754,-383.047749,-1036.288319,10288.862594
832.670069,0.000000,-148.041188,9622.677246
832.670385,229.828649,-666.185348,10140.821405
832.670701,0.000000,-666.185348,9992.780217
832.671016,306.438199,-148.041188,10510.924376
832.671332,306.438199,-1332.370696,11103.089130
832.671648,229.828649,370.102971,8734.430116
832.671963,-689.485948,-518.144159,9178.553681
832.672279,536.266849,-1554.432478,8734.430116
832.672595,612.876398,-1998.556043,10881.027347
832.672911,-459.657299,-1776.494261,11177.109724
832.673226,-689.485948,-74.020594,10214.842000
832.673542,0.000000,-222.061783,9696.697840
832.673858,383.047749,222.061783,8882.471304
832.674173,842.705048,-148.041188,10362.883188
832.674489,76.609550,370.102971,10732.986159
832.674805,612.876398,296.082377,9918.759623
832.675120,536.266849,-74.020594,8586.388927
832.675436,1302.362347,-666.185348,10955.047942
832.675752,2451.505594,-666.185348,9918.759623
832.676067,919.314598,444.123565,8956.491898
832.676383,612.876398,-518.144159,9992.780217
832.676699,1762.019645,-1036.288319,11177.109724
832.677015,2528.115143,-222.061783,10584.944971
832.677330,919.314598,592.164754,9474.636058
832.677646,459.657299,814.226536,9696.697840
832.677962,459.657299,222.061783,9178.553681
832.678277,842.705048,-148.041188,8882.471304
832.678593,1915.238745,518.144159,9548.656652
832.678909,995.924147,888.247130,8882.471304
832.679224,153.219100,814.226536,7476.080014
832.679540,459.657299,-962.267725,9252.574275
832.679856,995.924147,-2072.576638,9474.636058
832.680171,919.314598,-518.144159,10584.944971
832.680487,229.828649,-0.000000,9252.574275
832.680803,612.876398,-1184.329507,9178.553681
832.681119,995.924147,-1036.288319,9178.553681
832.681434,1378.971896,296.082377,9178.553681
832.681750,842.705048,666.185348,9400.615463
832.682066,229.828649,518.144159,8808.450710
832.682381,153.219100,-296.082377,8142.265362
832.682697,842.705048,148.041188,8660.409521
832.683013,1532.190996,296.082377,8586.388927
832.683328,-459.657299,370.102971,8956.491898
832.683644,-536.266849,-740.205942,8956.491898
832.683960,612.876398,-2072.576638,8734.430116
832.684275,919.314598,-1406.391290,9326.594869
832.684591,459.657299,296.082377,8808.450710
832.684907,76.609550,-518.144159,9252.574275
832.685223,459.657299,-740.205942,9252.574275
832.685538,383.047749,-666.185348,8734.430116
832.685854,229.828649,-148.041188,8956.491898
832.686170,-536.266849,-74.020594,9474.636058
832.686485,-995.924147,-1554.432478,9992.780217
832.686801,-612.876398,-1776.494261,9474.636058
832.687117,0.000000,-1924.535449,10066.800811
832.687433,-459.657299,-962.267725,9622.677246
832.687748,-1685.410096,-444.123565,9696.697840
832.688064,-1685.410096,-1628.453072,9918.759623
832.688380,-536.266849,-2072.576638,9992.780217
832.688695,-229.828649,-740.205942,9622.677246
832.689011,-612.876398,444.123565,9992.780217
832.689327,-919.314598,-370.102971,10140.821405
832.689643,383.047749,-1406.391290,8956.491898
832.689958,1378.971896,-1850.514855,10510.924376
832.690274,1149.143247,-444.123565,9844.739029
832.690590,1072.533697,518.144159,9918.759623
832.690905,919.314598,296.082377,9622.677246
832.691221,1762.019645,-1036.288319,9622.677246
832.691537,2298.286494,-444.123565,10362.883188
832.691853,1608.800546,1554.432478,8882.471304
832.692168,536.266849,1258.350101,9178.553681
832.692484,1149.143247,-592.164754,9548.656652
832.692800,2374.896044,-1332.370696,9918.759623
832.693115,1149.143247,148.041188,9104.533087
832.693431,612.876398,222.061783,9474.636058
832.693747,-76.609550,-1258.350101,9770.718434
832.694062,153.219100,-1776.494261,9770.718434
832.694378,229.828649,-814.226536,10362.883188
832.694694,-229.828649,444.123565,10288.862594
832.695010,153.219100,1110.308913,9622.677246
832.695325,0.000000,-148.041188,8734.430116
832.695641,995.924147,-518.144159,9400.615463
832.695957,1685.410096,296.082377,8660.409521
832.696272,1072.533697,148.041188,8586.388927
832.696588,612.876398,-148.041188,9696.697840
832.696904,1149.143247,-1258.350101,9178.553681
832.697220,1838.629195,-370.102971,9252.574275
832.697535,1149.143247,1406.391290,8586.388927
832.697851,229.828649,962.267725,8882.471304
832.698167,459.657299,-0.000000,9474.636058
832.698482,919.314598,-740.205942,9474.636058
832.698798,536.266849,-0.000000,9178.553681
832.699114,153.219100,1110.308913,9178.553681
832.699430,-536.266849,-0.000000,8808.450710
832.699745,459.657299,-1406.391290,9770.718434
832.700061,1149.143247,-740.205942,9844.739029
832.700377,-689.485948,1480.411884,8586.388927
832.700692,-383.047749,740.205942,9178.553681
832.701008,766.095498,-666.185348,9104.533087
832.701324,1225.752797,296.082377,8734.430116
832.701640,1378.971896,-370.102971,8660.409521
832.701955,995.924147,740.205942,8956.491898
832.702271,459.657299,-0.000000,9178.553681
832.702587,-153.219100,-1110.308913,9326.594869
832.702902,919.314598,-592.164754,10510.924376
832.703218,383.047749,148.041188,9252.574275
832.703534,-229.828649,962.267725,9400.615463
832.703849,-536.266849,-0.000000,8956.491898
832.704165,689.485948,-888.247130,9992.780217
832.704481,1072.533697,370.102971,9548.656652
832.704797,0.000000,1110.308913,8882.471304
832.705112,689.485948,222.061783,9770.718434
832.705428,766.095498,-518.144159,9326.594869
832.705744,1532.190996,-370.102971,9770.718434
832.706059,1302.362347,-0.000000,9696.697840
832.706375,459.657299,444.123565,9326.594869
832.706691,459.657299,-444.123565,10732.986159
832.707007,766.095498,-296.082377,9696.697840
832.707322,1378.971896,296.082377,9104.533087
832.707638,306.438199,-370.102971,10140.821405
832.707954,-153.219100,-0.000000,10658.965565
832.708269,-76.609550,-666.185348,9622.677246
832.708585,459.657299,-222.061783,10807.006753
832.708901,-229.828649,148.041188,10436.903782
832.709217,-612.876398,148.041188,10584.944971
832.709532,0.000000,-0.000000,9474.636058
832.709848,383.047749,-296.082377,8956.491898
832.710164,612.876398,-814.226536,9844.739029
832.710479,459.657299,-0.000000,9548.656652
832.710795,-383.047749,-148.041188,9104.533087
832.711111,0.000000,-1036.288319,9992.780217
832.711427,766.095498,-962.267725,10436.903782
832.711742,459.657299,444.123565,8734.430116
832.712058,-459.657299,1036.288319,9622.677246
832.712374,0.000000,-370.102971,9326.594869
832.712689,536.266849,-1480.411884,9548.656652
832.713005,1149.143247,-962.267725,9696.697840
832.713321,229.828649,-222.061783,8882.471304
832.713636,0.000000,-444.123565,9770.718434
832.713952,153.219100,-1702.473667,9326.594869
832.714268,1378.971896,-1110.308913,9474.636058
832.714584,842.705048,222.061783,9474.636058
832.714899,0.000000,592.164754,8808.450710
832.715215,76.609550,-444.123565,8290.306550
832.715531,1302.362347,-1480.411884,9400.615463
832.715846,1302.362347,-666.185348,8734.430116
832.716162,766.095498,-444.123565,8512.368333
832.716478,153.219100,-814.226536,9178.553681
832.716794,0.000000,-1850.514855,9474.636058
832.717109,306.438199,-1554.432478,9918.759623
832.717425,689.485948,-0.000000,8586.388927
832.717741,0.000000,666.185348,8808.450710
832.718056,-383.047749,-518.144159,9622.677246
832.718372,383.047749,-1924.535449,9400.615463
832.718688,1149.143247,-1554.432478,9252.574275
832.719004,842.705048,-1110.308913,9326.594869
832.719319,229.828649,-370.102971,9178.553681
832.719635,766.095498,-740.205942,8882.471304
832.719951,536.266849,-518.144159,8808.450710
832.720266,1455.581446,-0.000000,9030.512492
832.720582,229.828649,1110.308913,9030.512492
832.720898,-229.828649,518.144159,9400.615463
832.721214,383.047749,-148.041188,8956.491898
832.721529,1378.971896,-1036.288319,9992.780217
832.721845,459.657299,-296.082377,9326.594869
832.722161,-612.876398,-222.061783,9992.780217
832.722476,0.000000,-74.020594,9622.677246
832.722792,383.047749,-962.267725,9474.636058
832.723108,76.609550,592.164754,9104.533087
832.723423,-612.876398,1258.350101,9474.636058
832.723739,-306.438199,-444.123565,9548.656652
832.724055,0.000000,-962.267725,9992.780217
832.724371,766.095498,-296.082377,9474.636058
832.724686,229.828649,518.144159,8882.471304
832.725002,-153.219100,444.123565,10066.800811
832.725318,-306.438199,-0.000000,8734.430116
832.725633,383.047749,-148.041188,9474.636058
832.725949,536.266849,-0.000000,10066.800811
832.726265,-689.485948,592.164754,9696.697840
832.726581,-383.047749,148.041188,10510.924376
832.726896,0.000000,-1258.350101,9918.759623
832.727212,919.314598,370.102971,9770.718434
832.727528,306.438199,1036.288319,9400.615463
832.727843,459.657299,296.082377,10214.842000
832.728159,76.609550,518.144159,9400.615463
832.728475,919.314598,-148.041188,9474.636058
832.728791,919.314598,592.164754,9474.636058
832.729106,383.047749,-0.000000,9252.574275
832.729422,-383.047749,-888.247130,10436.903782
832.729738,689.485948,-962.267725,9622.677246
832.730053,1302.362347,-370.102971,9104.533087
832.730369,459.657299,814.226536,9400.615463
832.730685,-612.876398,296.082377,10584.944971
832.731001,0.000000,-888.247130,10510.924376
832.731316,459.657299,-666.185348,9992.780217
832.731632,76.609550,-0.000000,9992.780217
832.731948,306.438199,370.102971,10066.800811
832.732263,689.485948,74.020594,10066.800811
832.732579,383.047749,222.061783,9252.574275
832.732895,1762.019645,-0.000000,9326.594869
832.733210,2068.457845,370.102971,8586.388927
832.733526,995.924147,1036.288319,9252.574275
832.733842,1225.752797,-0.000000,9252.574275
832.734158,1608.800546,-888.247130,8586.388927
832.734473,1532.190996,-444.123565,9326.594869
832.734789,536.266849,-0.000000,9844.739029
832.735105,383.047749,-740.205942,9178.553681
832.735420,536.266849,-888.247130,10066.800811
832.735736,1378.971896,-666.185348,9474.636058
832.736052,1149.143247,-222.061783,8586.388927
832.736368,0.000000,-296.082377,9696.697840
832.736683,76.609550,-962.267725,8808.450710
832.736999,842.705048,-1998.556043,9104.533087
832.737315,1072.533697,-666.185348,9992.780217
832.737630,0.000000,-0.000000,8956.491898
832.737946,0.000000,666.185348,8882.471304
832.738262,459.657299,-0.000000,7994.224174
832.738578,1149.143247,-518.144159,7994.224174
832.738893,1378.971896,-592.164754,8734.430116
832.739209,383.047749,-592.164754,8512.368333
832.739525,0.000000,-1480.411884,9474.636058
832.739840,0.000000,-2368.659014,10140.821405
832.740156,-536.266849,-962.267725,11325.150913
832.740472,-919.314598,518.144159,9918.759623
832.740788,-919.314598,1184.329507,9104.533087
832.741103,-689.485948,-0.000000,9104.533087
832.741419,153.219100,-666.185348,9770.718434
832.741735,1378.971896,-74.020594,9178.553681
832.742050,536.266849,148.041188,9104.533087
832.742366,536.266849,-740.205942,9844.739029
832.742682,842.705048,-962.267725,8882.471304
832.742997,1532.190996,-148.041188,9252.574275
832.743313,766.095498,1554.432478,9030.512492
832.743629,153.219100,444.123565,9696.697840
832.743945,229.828649,-222.061783,9326.594869
832.744260,689.485948,-370.102971,9474.636058
832.744576,689.485948,-740.205942,9400.615463
832.744892,383.047749,-222.061783,10140.821405
832.745207,-612.876398,-1480.411884,10807.006753
832.745523,0.000000,-1110.308913,9992.780217
832.745839,0.000000,-666.185348,9622.677246
832.746155,0.000000,222.061783,9178.553681
832.746470,-612.876398,-0.000000,10732.986159
832.746786,-306.438199,-1332.370696,9696.697840
832.747102,612.876398,-148.041188,9918.759623
832.747417,689.485948,370.102971,9474.636058
832.747733,689.485948,444.123565,9844.739029
832.748049,536.266849,518.144159,9178.553681
832.748365,612.876398,-888.247130,8808.450710
832.748680,1608.800546,-148.041188,10066.800811
832.748996,383.047749,962.267725,9622.677246
832.749312,76.609550,592.164754,10140.821405
832.749627,383.047749,444.123565,9548.656652
832.749943,995.924147,-222.061783,9844.739029
832.750259,1072.533697,962.267725,9622.677246
832.750575,842.705048,370.102971,8882.471304
832.750890,-383.047749,-148.041188,9844.739029
832.751206,689.485948,-0.000000,9474.636058
832.751522,1072.533697,-0.000000,9844.739029
832.751837,842.705048,666.185348,8660.409521
832.752153,-383.047749,518.144159,9696.697840
832.752469,229.828649,-1036.288319,8882.471304
832.752784,919.314598,-518.144159,9104.533087
832.753100,153.219100,-296.082377,8956.491898
832.753416,-383.047749,814.226536,9104.533087
832.753732,-459.657299,-148.041188,9178.553681
832.754047,-229.828649,-1332.370696,9104.533087
832.754363,383.047749,-444.123565,10584.944971
832.754679,306.438199,222.061783,9104.533087
832.754994,229.828649,-148.041188,9548.656652
832.755310,76.609550,-222.061783,8734.430116
832.755626,1455.581446,-666.185348,9178.553681
832.755942,1915.238745,592.164754,8512.368333
832.756257,1225.752797,444.123565,9104.533087
832.756573,1225.752797,-0.000000,8660.409521
832.756889,1608.800546,-370.102971,8068.244768
832.757204,1378.971896,-296.082377,8882.471304
832.757520,1225.752797,592.164754,8956.491898
832.757836,459.657299,-370.102971,9844.739029
832.758152,0.000000,-888.247130,9696.697840
832.758467,459.657299,-592.164754,9696.697840
832.758783,689.485948,-296.082377,9548.656652
832.759099,-459.657299,222.061783,9622.677246
832.759414,-536.266849,-518.144159,10436.903782
832.759730,383.047749,-1554.432478,10140.821405
832.760046,153.219100,-666.185348,9992.780217
832.760362,-229.828649,518.144159,9622.677246
832.760677,229.828649,370.102971,10214.842000
832.760993,612.876398,-222.061783,9252.574275
832.761309,1455.581446,-74.020594,9622.677246
832.761624,1991.848295,444.123565,9918.759623
832.761940,1378.971896,518.144159,8438.347739
832.762256,153.219100,296.082377,8290.306550
832.762571,536.266849,-1480.411884,10288.862594
832.762887,1378.971896,-1554.432478,11621.233289
832.763203,229.828649,1036.288319,9178.553681
832.763519,-689.485948,962.267725,10214.842000
832.763834,-612.876398,-444.123565,10584.944971
832.764150,383.047749,-444.123565,9770.718434
832.764466,689.485948,-0.000000,9474.636058
832.764781,383.047749,148.041188,9844.739029
832.765097,-153.219100,-222.061783,10214.842000
832.765413,459.657299,-444.123565,9030.512492
832.765729,1225.752797,-370.102971,9770.718434
832.766044,383.047749,-74.020594,9548.656652
832.766360,-383.047749,296.082377,9770.718434
832.766676,-612.876398,-74.020594,9178.553681
832.766991,0.000000,-444.123565,9548.656652
832.767307,536.266849,-518.144159,9178.553681
832.767623,-689.485948,518.144159,9030.512492
832.767939,-536.266849,-444.123565,10510.924376
832.768254,-153.219100,-1480.411884,9696.697840
832.768570,612.876398,-370.102971,9326.594869
832.768886,-612.876398,-0.000000,10140.821405
832.769201,-153.219100,222.061783,9992.780217
832.769517,0.000000,592.164754,8660.409521
832.769833,459.657299,-148.041188,8512.368333
832.770149,1532.190996,-1110.308913,9918.759623
832.770464,919.314598,-148.041188,8956.491898
832.770780,919.314598,444.123565,8290.306550
832.771096,1532.190996,-222.061783,7772.162391
832.771411,1838.629195,-814.226536,9030.512492
832.771727,1225.752797,-148.041188,9400.615463
832.772043,0.000000,-0.000000,9326.594869
832.772358,0.000000,-592.164754,9030.512492
832.772674,766.095498,-1628.453072,9400.615463
832.772990,612.876398,-814.226536,9992.780217
832.773306,229.828649,-888.247130,9918.759623
832.773621,0.000000,-1110.308913,10510.924376
832.773937,-153.219100,-814.226536,9104.533087
832.774253,612.876398,-1036.288319,9400.615463
832.774568,1072.533697,518.144159,9622.677246
832.774884,459.657299,1110.308913,9178.553681
832.775200,842.705048,148.041188,7846.182985
832.775516,1378.971896,-518.144159,9104.533087
832.775831,2068.457845,-296.082377,10066.800811
832.776147,1532.190996,888.247130,8956.491898
832.776463,1302.362347,592.164754,9696.697840
832.776778,1149.143247,-740.205942,9696.697840
832.777094,1378.971896,-0.000000,10066.800811
832.777410,766.095498,666.185348,9474.636058
832.777726,229.828649,740.205942,10066.800811
832.778041,229.828649,222.061783,9992.780217
832.778357,919.314598,-592.164754,10140.821405
832.778673,1072.533697,370.102971,9400.615463
832.778988,383.047749,814.226536,9104.533087
832.779304,76.609550,370.102971,9696.697840
832.779620,536.266849,-222.061783,9252.574275
832.779936,766.095498,-666.185348,9696.697840
832.780251,995.924147,666.185348,9326.594869
832.780567,-153.219100,1110.308913,9252.574275
832.780883,0.000000,-222.061783,9696.697840
832.781198,383.047749,-296.082377,9696.697840
832.781514,766.095498,-0.000000,9844.739029
832.781830,0.000000,814.226536,8808.450710
832.782145,-383.047749,-0.000000,10140.821405
832.782461,-383.047749,-1480.411884,10807.006753
832.782777,153.219100,-1554.432478,10658.965565
832.783093,-229.828649,148.041188,9696.697840
832.783408,-229.828649,1332.370696,9400.615463
832.783724,-383.047749,518.144159,9400.615463
832.784040,383.047749,-148.041188,9400.615463
832.784355,1225.752797,-222.061783,9178.553681
832.784671,766.095498,370.102971,8808.450710
832.784987,-383.047749,-444.123565,9326.594869
832.785303,153.219100,-1258.350101,9622.677246
832.785619,919.314598,-814.226536,9548.656652
832.785934,459.657299,-740.205942,9548.656652
832.786250,-459.657299,296.082377,9326.594869
832.786566,-459.657299,-1036.288319,10362.883188
832.786882,0.000000,-1480.411884,9548.656652
832.787197,766.095498,-1184.329507,9844.739029
832.787513,76.609550,-148.041188,9104.533087
832.787829,0.000000,-222.061783,9474.636058
832.788145,153.219100,-1628.453072,9252.574275
832.788460,995.924147,-1480.411884,9252.574275
832.788776,1072.533697,-1184.329507,9326.594869
832.789092,0.000000,370.102971,8882.471304
832.789408,229.828649,-0.000000,8882.471304
832.789723,995.924147,-1332.370696,8956.491898
832.790039,1762.019645,-148.041188,9030.512492
832.790355,1149.143247,222.061783,9030.512492
832.790671,612.876398,-74.020594,9178.553681
832.790987,459.657299,-222.061783,9178.553681
832.791302,766.095498,-1554.432478,9992.780217
832.791618,919.314598,-148.041188,9696.697840
832.791934,0.000000,-0.000000,9178.553681
832.792250,-612.876398,-222.061783,10732.986159
832.792565,612.876398,-666.185348,10066.800811
832.792881,536.266849,-296.082377,9030.512492
832.793197,459.657299,592.164754,9252.574275
832.793513,76.609550,148.041188,9474.636058
832.793828,229.828649,-222.061783,9326.594869
832.794144,1455.581446,-148.041188,9252.574275
832.794460,1072.533697,-592.164754,9400.615463
832.794776,842.705048,-148.041188,9622.677246
832.795091,-229.828649,296.082377,9770.718434
832.795407,76.609550,-222.061783,8438.347739
832.795723,1149.143247,-666.185348,9548.656652
832.796039,306.438199,-0.000000,9104.533087
832.796355,-766.095498,-0.000000,10288.862594
832.796670,-612.876398,-518.144159,9992.780217
832.796986,536.266849,-1406.391290,9400.615463
832.797302,842.705048,222.061783,9622.677246
832.797618,153.219100,1036.288319,9770.718434
832.797933,0.000000,148.041188,9474.636058
832.798249,842.705048,-0.000000,8956.491898
832.798565,1838.629195,-74.020594,8438.347739
832.798881,1532.190996,518.144159,9400.615463
832.799196,383.047749,-0.000000,9400.615463
832.799512,306.438199,-518.144159,9548.656652
832.799828,1072.533697,-296.082377,9474.636058
832.800144,1225.752797,296.082377,9474.636058
832.800459,0.000000,888.247130,9326.594869
832.800775,-766.095498,222.061783,9844.739029
832.801091,383.047749,-666.185348,9622.677246
832.801407,842.705048,-592.164754,9252.574275
832.801723,229.828649,296.082377,9548.656652
832.802038,0.000000,-148.041188,10214.842000
832.802354,76.609550,-814.226536,10140.821405
832.802670,536.266849,-518.144159,9326.594869
832.802986,612.876398,-296.082377,9770.718434
832.803301,0.000000,-0.000000,9696.697840
832.803617,-229.828649,-0.000000,10066.800811
832.803933,306.438199,-222.061783,8956.491898
832.804249,995.924147,-148.041188,8660.409521
832.804564,995.924147,-0.000000,9696.697840
832.804880,459.657299,296.082377,9696.697840
832.805196,383.047749,-666.185348,9104.533087
832.805512,306.438199,-1258.350101,9548.656652
832.805828,1302.362347,-592.164754,9696.697840
832.806143,76.609550,-0.000000,9844.739029
832.806459,-459.657299,740.205942,9400.615463
832.806775,383.047749,-148.041188,9104.533087
832.807091,1225.752797,-740.205942,9252.574275
832.807406,689.485948,666.185348,8882.471304
832.807722,229.828649,666.185348,8882.471304
832.808038,459.657299,-1110.308913,9252.574275
832.808354,306.438199,-1628.453072,9104.533087
832.808669,766.095498,-962.267725,9696.697840
832.808985,306.438199,740.205942,8364.327145
832.809301,-612.876398,666.185348,9770.718434
832.809617,-612.876398,370.102971,9474.636058
832.809932,689.485948,-0.000000,9104.533087
832.810248,76.609550,-74.020594,9030.512492
832.810564,-229.828649,-296.082377,9918.759623
832.810880,0.000000,-666.185348,9696.697840
832.811196,306.438199,-666.185348,9104.533087
832.811511,536.266849,-370.102971,9696.697840
832.811827,-229.828649,518.144159,9252.574275
832.812143,612.876398,814.226536,9696.697840
832.812459,153.219100,-74.020594,9326.594869
832.812774,842.705048,-74.020594,8882.471304
832.813090,1608.800546,-518.144159,9252.574275
832.813406,995.924147,-222.061783,9104.533087
832.813722,76.609550,-296.082377,10140.821405
832.814037,1149.143247,-962.267725,9326.594869
832.814353,1685.410096,-518.144159,8734.430116
832.814669,459.657299,444.123565,9548.656652
832.814985,-459.657299,296.082377,10066.800811
832.815300,76.609550,-1110.308913,9030.512492
832.815616,536.266849,-888.247130,9696.697840
832.815932,995.924147,-1480.411884,9474.636058
832.816248,76.609550,-370.102971,9474.636058
832.816564,-229.828649,-666.185348,10288.862594
832.816879,536.266849,-2072.576638,9770.718434
832.817195,995.924147,-888.247130,9992.780217
832.817511,459.657299,-0.000000,10214.842000
832.817827,0.000000,-0.000000,9622.677246
832.818142,76.609550,-296.082377,9326.594869
832.818458,1072.533697,-814.226536,9844.739029
832.818774,1378.971896,-222.061783,9548.656652
832.819090,459.657299,444.123565,9104.533087
832.819405,229.828649,-444.123565,10288.862594
832.819721,842.705048,-444.123565,9400.615463
832.820037,919.314598,-444.123565,10066.800811
832.820353,842.705048,370.102971,9178.553681
832.820668,0.000000,814.226536,9474.636058
832.820984,459.657299,-74.020594,10807.006753
832.821300,919.314598,-1036.288319,9622.677246
832.821616,766.095498,74.020594,8882.471304
832.821932,0.000000,962.267725,9548.656652
832.822247,0.000000,222.061783,9474.636058
832.822563,689.485948,-74.020594,8956.491898
832.822879,459.657299,-74.020594,10288.862594
832.823195,-229.828649,-148.041188,9474.636058
832.823510,0.000000,-148.041188,9178.553681
832.823826,-76.609550,-74.020594,9252.574275
832.824142,76.609550,-1036.288319,9030.512492
832.824458,0.000000,-222.061783,10140.821405
832.824773,76.609550,592.164754,9178.553681
832.825089,-995.924147,444.123565,9178.553681
832.825405,-306.438199,-74.020594,9178.553681
832.825721,1149.143247,-740.205942,9178.553681
832.826037,-383.047749,296.082377,9400.615463
832.826352,-1072.533697,592.164754,10288.862594
832.826668,-153.219100,-888.247130,9326.594869
832.826984,-306.438199,-740.205942,8808.450710
832.827300,995.924147,-296.082377,8734.430116
832.827615,-229.828649,-0.000000,9104.533087
832.827931,153.219100,-296.082377,11103.089130
832.828247,-76.609550,-592.164754,8956.491898
832.828563,842.705048,-74.020594,9400.615463
832.828878,1302.362347,-296.082377,9548.656652
832.829194,-306.438199,222.061783,9326.594869
832.829510,153.219100,-74.020594,9622.677246
832.829826,766.095498,-1258.350101,9178.553681
832.830141,1378.971896,-518.144159,9474.636058
832.830457,153.219100,148.041188,9548.656652
832.830773,76.609550,-444.123565,9622.677246
832.831089,459.657299,-1110.308913,9400.615463
832.831405,1149.143247,-1036.288319,9622.677246
832.831720,919.314598,-148.041188,9326.594869
832.832036,0.000000,518.144159,10362.883188
832.832352,229.828649,-222.061783,10066.800811
832.832668,1149.143247,-518.144159,9104.533087
832.832983,1149.143247,148.041188,9104.533087
832.833299,995.924147,370.102971,9992.780217
832.833615,612.876398,-666.185348,10288.862594
832.833931,842.705048,-740.205942,9326.594869
