#time,accel_x,accel_y,accel_z
535.394436,4136.915689,1258.350101,8290.306550
535.394751,4443.353888,1332.370696,8364.327145
535.395067,4290.134789,1036.288319,8364.327145
535.395383,3600.648841,962.267725,8956.491898
535.395699,2834.553343,888.247130,9178.553681
535.396014,2068.457845,1184.329507,9326.594869
535.396330,1608.800546,1184.329507,9474.636058
535.396646,919.314598,1110.308913,9844.739029
535.396962,383.047749,814.226536,9918.759623
535.397278,0.000000,888.247130,9844.739029
535.397593,-153.219100,518.144159,10140.821405
535.397909,-153.219100,740.205942,10066.800811
535.398225,0.000000,666.185348,9844.739029
535.398541,-536.266849,222.061783,9474.636058
535.398857,153.219100,-0.000000,9918.759623
535.399172,459.657299,370.102971,9696.697840
535.399488,842.705048,592.164754,9548.656652
535.399804,766.095498,814.226536,9474.636058
535.400120,1149.143247,888.247130,9696.697840
535.400435,1455.581446,1406.391290,9400.615463
535.400751,1762.019645,1850.514855,9104.533087
535.401067,1915.238745,1850.514855,9178.553681
535.401383,1762.019645,1776.494261,9400.615463
535.401699,1991.848295,1702.473667,9178.553681
535.402014,2068.457845,1258.350101,9326.594869
535.402330,1608.800546,518.144159,9400.615463
535.402646,2145.067394,-0.000000,9696.697840
535.402962,1685.410096,-0.000000,9474.636058
535.403277,1378.971896,-0.000000,9696.697840
535.403593,1532.190996,-0.000000,10140.821405
535.403909,1378.971896,-0.000000,10288.862594
535.404225,1302.362347,-0.000000,9696.697840
535.404541,995.924147,370.102971,10214.842000
535.404856,1455.581446,148.041188,9918.759623
535.405172,1608.800546,518.144159,9844.739029
535.405488,1838.629195,444.123565,9548.656652
535.405804,2451.505594,740.205942,9474.636058
535.406119,2451.505594,518.144159,9474.636058
535.406435,2681.334243,592.164754,9400.615463
535.406751,2681.334243,666.185348,9030.512492
535.407067,2911.162892,888.247130,9178.553681
535.407383,2757.943793,814.226536,8660.409521
535.407698,2987.772442,666.185348,8882.471304
535.408014,2987.772442,962.267725,9030.512492
535.408330,2528.115143,1036.288319,8956.491898
535.408646,1915.238745,1406.391290,8882.471304
535.408962,1455.581446,888.247130,8882.471304
535.409277,995.924147,888.247130,9252.574275
535.409593,306.438199,740.205942,9474.636058
535.409909,-383.047749,222.061783,9696.697840
535.410225,-995.924147,222.061783,10140.821405
535.410540,-995.924147,-74.020594,9992.780217
535.410856,-1225.752797,222.061783,10214.842000
535.411172,-1225.752797,444.123565,10214.842000
535.411488,-919.314598,518.144159,9992.780217
535.411804,-306.438199,740.205942,9622.677246
535.412119,-459.657299,370.102971,9104.533087
535.412435,0.000000,888.247130,9104.533087
535.412751,0.000000,1184.329507,8882.471304
535.413067,76.609550,1184.329507,8882.471304
535.413382,0.000000,888.247130,9104.533087
535.413698,229.828649,814.226536,9474.636058
535.414014,306.438199,666.185348,9178.553681
535.414330,76.609550,444.123565,9400.615463
535.414646,0.000000,148.041188,9770.718434
535.414961,0.000000,-148.041188,9918.759623
535.415277,0.000000,-74.020594,9844.739029
535.415593,0.000000,-222.061783,9844.739029
535.415909,-76.609550,-148.041188,9918.759623
535.416224,0.000000,-370.102971,9622.677246
535.416540,0.000000,-518.144159,9918.759623
535.416856,0.000000,-592.164754,9474.636058
535.417172,153.219100,-592.164754,9474.636058
535.417488,459.657299,-592.164754,9474.636058
535.417803,229.828649,-592.164754,9326.594869
535.418119,0.000000,-814.226536,9474.636058
535.418435,0.000000,-1110.308913,9252.574275
535.418751,229.828649,-1258.350101,9548.656652
535.419067,76.609550,-1258.350101,9548.656652
535.419382,0.000000,-1258.350101,9770.718434
535.419698,153.219100,-1850.514855,9770.718434
535.420014,-536.266849,-1628.453072,10066.800811
535.420329,-689.485948,-1332.370696,10140.821405
535.420645,-459.657299,-1184.329507,10066.800811
535.420960,-383.047749,-1184.329507,9844.739029
535.421276,-306.438199,-666.185348,9918.759623
535.421592,-536.266849,-962.267725,9770.718434
535.421907,229.828649,-888.247130,9104.533087
535.422223,229.828649,-888.247130,9252.574275
535.422538,229.828649,-962.267725,9178.553681
535.422854,842.705048,-1184.329507,9474.636058
535.423170,459.657299,-1332.370696,9474.636058
535.423485,306.438199,-962.267725,9326.594869
535.423801,689.485948,-1036.288319,9474.636058
535.424116,766.095498,-962.267725,9326.594869
535.424432,1072.533697,-814.226536,9252.574275
535.424748,766.095498,-814.226536,9326.594869
535.425063,1378.971896,-444.123565,9326.594869
535.425379,1532.190996,-518.144159,9104.533087
535.425694,1685.410096,-370.102971,8882.471304
535.426010,1608.800546,-740.205942,8956.491898
535.426326,1915.238745,-296.082377,8734.430116
535.426641,1838.629195,-74.020594,8734.430116
535.426957,1762.019645,-0.000000,8512.368333
535.427272,1915.238745,-0.000000,8734.430116
535.427588,1608.800546,-74.020594,8734.430116
535.427904,1302.362347,-148.041188,8956.491898
535.428219,1302.362347,-0.000000,9030.512492
535.428535,766.095498,-74.020594,9400.615463
535.428850,766.095498,-74.020594,9696.697840
535.429166,153.219100,-0.000000,9770.718434
535.429482,229.828649,222.061783,9918.759623
535.429797,153.219100,222.061783,9918.759623
535.430113,153.219100,444.123565,9918.759623
535.430428,536.266849,666.185348,9548.656652
535.430744,766.095498,888.247130,9548.656652
535.431060,689.485948,888.247130,9178.553681
535.431375,766.095498,1036.288319,9104.533087
535.431691,919.314598,1184.329507,8882.471304
535.432007,919.314598,1184.329507,9104.533087
535.432322,689.485948,1036.288319,9474.636058
535.432638,306.438199,740.205942,9474.636058
535.432953,76.609550,888.247130,9770.718434
535.433269,-612.876398,814.226536,10140.821405
535.433585,-689.485948,592.164754,10362.883188
535.433900,-612.876398,370.102971,10362.883188
535.434216,-459.657299,814.226536,10510.924376
535.434531,-766.095498,962.267725,10288.862594
535.434847,-919.314598,888.247130,9992.780217
535.435163,-689.485948,1110.308913,9918.759623
535.435478,-536.266849,1036.288319,9622.677246
535.435794,-459.657299,962.267725,9474.636058
535.436109,-306.438199,962.267725,9474.636058
535.436425,-459.657299,370.102971,9622.677246
535.436741,-842.705048,-148.041188,9918.759623
535.437056,-1072.533697,-296.082377,10066.800811
535.437372,-1378.971896,-592.164754,10362.883188
535.437687,-1455.581446,-444.123565,10658.965565
535.438003,-1685.410096,-518.144159,10658.965565
535.438319,-1149.143247,-666.185348,10584.944971
535.438634,-1608.800546,-592.164754,10510.924376
535.438950,-1149.143247,-370.102971,10140.821405
535.439265,-919.314598,-296.082377,9622.677246
535.439581,-459.657299,-444.123565,9548.656652
535.439897,-229.828649,-888.247130,9400.615463
535.440212,306.438199,-740.205942,9400.615463
535.440528,766.095498,-1036.288319,8956.491898
535.440843,842.705048,-1110.308913,9030.512492
535.441159,1149.143247,-1258.350101,9326.594869
535.441475,1762.019645,-1480.411884,9178.553681
535.441790,1225.752797,-1554.432478,9104.533087
535.442106,1149.143247,-1258.350101,9326.594869
535.442422,1225.752797,-1110.308913,9400.615463
535.442737,1532.190996,-1110.308913,9326.594869
535.443053,1455.581446,-962.267725,9326.594869
535.443368,1455.581446,-888.247130,8956.491898
535.443684,1762.019645,-666.185348,8808.450710
535.444000,1762.019645,-814.226536,8734.430116
535.444315,2145.067394,-740.205942,8512.368333
535.444631,2221.676944,-666.185348,8512.368333
535.444946,2221.676944,-888.247130,8216.285956
535.445262,1915.238745,-888.247130,8438.347739
535.445578,1838.629195,-1036.288319,8586.388927
535.445893,1532.190996,-1110.308913,9178.553681
535.446209,1455.581446,-1258.350101,8956.491898
535.446524,1072.533697,-1036.288319,9400.615463
535.446840,842.705048,-888.247130,9548.656652
535.447156,536.266849,-518.144159,9474.636058
535.447471,612.876398,-444.123565,9178.553681
535.447787,689.485948,-148.041188,9252.574275
535.448102,689.485948,-0.000000,9030.512492
535.448418,919.314598,-0.000000,8882.471304
535.448734,842.705048,-0.000000,8808.450710
535.449049,1072.533697,-74.020594,9178.553681
535.449365,1455.581446,296.082377,9030.512492
535.449680,1225.752797,-74.020594,9326.594869
535.449996,919.314598,-0.000000,9326.594869
535.450312,766.095498,-148.041188,9548.656652
535.450627,536.266849,-74.020594,9622.677246
535.450943,383.047749,-0.000000,10066.800811
535.451258,229.828649,-0.000000,9992.780217
535.451574,153.219100,222.061783,10140.821405
535.451890,153.219100,296.082377,9992.780217
535.452205,0.000000,592.164754,10288.862594
535.452521,76.609550,740.205942,9992.780217
535.452837,0.000000,962.267725,9770.718434
535.453152,0.000000,814.226536,9474.636058
535.453468,0.000000,814.226536,9548.656652
535.453783,306.438199,518.144159,9474.636058
535.454099,153.219100,222.061783,9622.677246
535.454415,-153.219100,222.061783,9770.718434
535.454730,0.000000,-370.102971,10214.842000
535.455046,-766.095498,-222.061783,10436.903782
535.455361,-995.924147,-222.061783,10510.924376
535.455677,-1608.800546,-0.000000,10658.965565
535.455993,-1685.410096,-0.000000,10807.006753
535.456308,-1838.629195,-74.020594,10510.924376
535.456624,-1225.752797,-0.000000,10214.842000
535.456939,-1302.362347,296.082377,10066.800811
535.457255,-766.095498,296.082377,9696.697840
535.457571,-306.438199,296.082377,9622.677246
535.457886,229.828649,-444.123565,9178.553681
535.458202,383.047749,-0.000000,9178.553681
535.458517,612.876398,-148.041188,9400.615463
535.458833,536.266849,-370.102971,9104.533087
535.459149,842.705048,-296.082377,9400.615463
535.459464,766.095498,-444.123565,9622.677246
535.459780,689.485948,-666.185348,9770.718434
535.460095,612.876398,-296.082377,9474.636058
535.460411,842.705048,-518.144159,9770.718434
535.460727,766.095498,-444.123565,9474.636058
535.461042,919.314598,-296.082377,9696.697840
535.461358,1072.533697,-74.020594,9030.512492
535.461673,1225.752797,-148.041188,8808.450710
535.461989,1608.800546,-0.000000,8882.471304
535.462305,1762.019645,-222.061783,8216.285956
535.462620,1838.629195,-444.123565,8586.388927
535.462936,2145.067394,-518.144159,8068.244768
535.463252,1915.238745,-444.123565,8512.368333
535.463567,1915.238745,-592.164754,8586.388927
535.463883,1685.410096,-666.185348,8734.430116
535.464198,1838.629195,-1332.370696,9252.574275
535.464514,1532.190996,-370.102971,9400.615463
535.464830,1072.533697,-296.082377,9326.594869
535.465145,995.924147,-74.020594,9474.636058
535.465461,766.095498,-74.020594,9326.594869
535.465776,1532.190996,-296.082377,9326.594869
535.466092,1532.190996,-0.000000,8956.491898
535.466408,1532.190996,-0.000000,8956.491898
535.466723,1685.410096,-0.000000,8882.471304
535.467039,1685.410096,-0.000000,8882.471304
535.467354,1915.238745,-0.000000,9030.512492
535.467670,1608.800546,-0.000000,9104.533087
535.467986,1378.971896,-222.061783,9252.574275
535.468301,995.924147,-296.082377,9844.739029
535.468617,919.314598,-148.041188,9992.780217
535.468932,919.314598,-0.000000,10214.842000
535.469248,153.219100,-148.041188,10066.800811
535.469564,0.000000,148.041188,10288.862594
535.469879,76.609550,370.102971,10140.821405
535.470195,-76.609550,222.061783,10066.800811
535.470510,306.438199,-0.000000,9770.718434
535.470826,-153.219100,370.102971,9474.636058
535.471142,-153.219100,222.061783,9326.594869
535.471457,-306.438199,-0.000000,9474.636058
535.471773,-459.657299,-370.102971,9474.636058
535.472088,-306.438199,-740.205942,9770.718434
535.472404,-995.924147,-592.164754,10288.862594
535.472720,-1378.971896,-962.267725,10066.800811
535.473035,-1685.410096,-888.247130,10436.903782
535.473351,-2298.286494,-962.267725,10881.027347
535.473667,-1915.238745,-740.205942,10807.006753
535.473982,-2145.067394,-666.185348,10288.862594
535.474298,-2298.286494,-518.144159,10214.842000
535.474613,-1838.629195,-592.164754,9844.739029
535.474929,-1378.971896,-518.144159,9622.677246
535.475245,-536.266849,-518.144159,9548.656652
535.475560,-612.876398,-666.185348,9326.594869
535.475876,-383.047749,-592.164754,9104.533087
535.476191,76.609550,-444.123565,9326.594869
535.476507,153.219100,-666.185348,9252.574275
535.476823,612.876398,-814.226536,9252.574275
535.477138,153.219100,-814.226536,9474.636058
535.477454,536.266849,-814.226536,9400.615463
535.477769,306.438199,-518.144159,9474.636058
535.478085,459.657299,-592.164754,9474.636058
535.478401,536.266849,-888.247130,9326.594869
535.478716,536.266849,-296.082377,9474.636058
535.479032,995.924147,-148.041188,9326.594869
535.479347,919.314598,-0.000000,9030.512492
535.479663,1225.752797,-0.000000,8586.388927
535.479979,1532.190996,370.102971,8808.450710
535.480294,1991.848295,-0.000000,8512.368333
535.480610,2068.457845,-148.041188,8512.368333
535.480925,2068.457845,-148.041188,8734.430116
535.481241,1915.238745,-148.041188,8734.430116
535.481557,2298.286494,-222.061783,9474.636058
535.481872,1762.019645,-0.000000,9474.636058
535.482188,1225.752797,-0.000000,9326.594869
535.482503,1072.533697,-0.000000,9474.636058
535.482819,1225.752797,-0.000000,9474.636058
535.483135,1225.752797,296.082377,9252.574275
535.483450,1072.533697,518.144159,9326.594869
535.483766,1149.143247,592.164754,9326.594869
535.484081,1455.581446,518.144159,9400.615463
535.484397,1532.190996,148.041188,8808.450710
535.484713,1685.410096,296.082377,9252.574275
535.485028,1302.362347,222.061783,9104.533087
535.485344,1302.362347,296.082377,9474.636058
535.485660,1149.143247,222.061783,9622.677246
535.485975,1608.800546,-0.000000,9622.677246
535.486291,842.705048,148.041188,10066.800811
535.486606,842.705048,148.041188,10066.800811
535.486922,383.047749,370.102971,9918.759623
535.487238,383.047749,592.164754,9696.697840
535.487553,842.705048,222.061783,10066.800811
535.487869,383.047749,740.205942,9844.739029
535.488184,459.657299,666.185348,9696.697840
535.488500,153.219100,740.205942,9548.656652
535.488816,0.000000,740.205942,9400.615463
535.489131,536.266849,-222.061783,9548.656652
535.489447,0.000000,-148.041188,9622.677246
535.489762,-229.828649,-296.082377,9844.739029
535.490078,-536.266849,-814.226536,9844.739029
535.490394,-919.314598,-888.247130,10288.862594
535.490709,-842.705048,-1110.308913,10658.965565
535.491025,-1532.190996,-962.267725,10732.986159
535.491340,-1915.238745,-740.205942,10881.027347
535.491656,-1762.019645,-740.205942,10362.883188
535.491972,-1838.629195,-296.082377,10288.862594
535.492287,-1378.971896,-888.247130,9844.739029
535.492603,-919.314598,-444.123565,9400.615463
535.492918,-766.095498,-370.102971,9178.553681
535.493234,-689.485948,-518.144159,9178.553681
535.493550,0.000000,-888.247130,9030.512492
535.493865,459.657299,-814.226536,9104.533087
535.494181,0.000000,-962.267725,9178.553681
535.494496,0.000000,-962.267725,9400.615463
535.494812,0.000000,-1036.288319,9400.615463
535.495128,0.000000,-1036.288319,9474.636058
535.495443,0.000000,-1110.308913,9548.656652
535.495759,0.000000,-962.267725,9252.574275
535.496075,229.828649,-666.185348,9474.636058
535.496390,383.047749,-592.164754,9252.574275
535.496706,229.828649,-222.061783,9030.512492
535.497021,766.095498,-666.185348,8956.491898
535.497337,612.876398,-592.164754,8660.409521
535.497653,1225.752797,-370.102971,8586.388927
535.497968,1685.410096,-444.123565,8364.327145
535.498284,1838.629195,-518.144159,8364.327145
535.498599,2145.067394,-444.123565,8586.388927
535.498915,1685.410096,-370.102971,8734.430116
535.499231,1762.019645,-370.102971,9104.533087
535.499546,1302.362347,-370.102971,9252.574275
535.499862,1378.971896,-222.061783,9178.553681
535.500177,995.924147,-222.061783,9474.636058
535.500493,1072.533697,148.041188,9696.697840
535.500809,1302.362347,296.082377,9400.615463
535.501124,1532.190996,518.144159,9326.594869
535.501440,1838.629195,814.226536,9178.553681
535.501755,1685.410096,518.144159,9400.615463
535.502071,1838.629195,592.164754,9104.533087
535.502387,1991.848295,666.185348,9178.553681
535.502702,1915.238745,666.185348,9252.574275
535.503018,1762.019645,518.144159,9104.533087
535.503333,1915.238745,444.123565,9696.697840
535.503649,1608.800546,666.185348,9844.739029
535.503965,1762.019645,148.041188,9918.759623
535.504280,1532.190996,518.144159,9918.759623
535.504596,1685.410096,592.164754,9992.780217
535.504911,919.314598,666.185348,9918.759623
535.505227,1072.533697,888.247130,9918.759623
535.505543,919.314598,962.267725,9992.780217
535.505858,459.657299,888.247130,9992.780217
535.506174,536.266849,814.226536,9770.718434
535.506490,459.657299,814.226536,9548.656652
535.506805,383.047749,814.226536,9474.636058
535.507121,306.438199,148.041188,9622.677246
535.507436,0.000000,-0.000000,9844.739029
535.507752,-383.047749,-0.000000,9918.759623
535.508068,-919.314598,-518.144159,10214.842000
535.508383,-1225.752797,-370.102971,10510.924376
535.508699,-1685.410096,-444.123565,10584.944971
535.509014,-1532.190996,-444.123565,10288.862594
535.509330,-1838.629195,-222.061783,10436.903782
535.509646,-1378.971896,-74.020594,10140.821405
535.509961,-1685.410096,-370.102971,9918.759623
535.510277,-1302.362347,-148.041188,9622.677246
535.510592,-995.924147,-666.185348,9474.636058
535.510908,-766.095498,-296.082377,9326.594869
535.511224,-306.438199,-592.164754,9400.615463
535.511539,-229.828649,-592.164754,9400.615463
535.511855,0.000000,-740.205942,9326.594869
535.512170,0.000000,-814.226536,9178.553681
535.512486,0.000000,-1184.329507,9252.574275
535.512802,0.000000,-814.226536,9474.636058
535.513117,76.609550,-888.247130,9548.656652
535.513433,76.609550,-888.247130,9474.636058
535.513748,0.000000,-740.205942,9474.636058
535.514064,383.047749,-592.164754,9104.533087
535.514380,306.438199,-666.185348,9252.574275
535.514695,612.876398,-518.144159,9030.512492
535.515011,995.924147,-518.144159,8956.491898
535.515326,1072.533697,-814.226536,8586.388927
535.515642,1378.971896,-592.164754,8734.430116
535.515958,1455.581446,-518.144159,8734.430116
535.516273,1608.800546,-740.205942,8586.388927
535.516589,1532.190996,-1332.370696,8808.450710
535.516905,1608.800546,-1036.288319,8956.491898
535.517220,1225.752797,-740.205942,9178.553681
535.517536,1302.362347,-666.185348,9326.594869
535.517851,919.314598,-444.123565,9474.636058
535.518167,995.924147,-222.061783,9622.677246
535.518483,1225.752797,-370.102971,9252.574275
535.518798,995.924147,-370.102971,9178.553681
535.519114,1225.752797,-74.020594,9030.512492
535.519429,1762.019645,-0.000000,9326.594869
535.519745,1608.800546,-148.041188,8956.491898
535.520061,1762.019645,-0.000000,8882.471304
535.520376,1685.410096,-0.000000,9030.512492
535.520692,1838.629195,-74.020594,9252.574275
535.521007,1378.971896,-0.000000,9696.697840
535.521323,1378.971896,-74.020594,9548.656652
535.521639,1455.581446,-0.000000,9622.677246
535.521954,995.924147,-0.000000,9770.718434
535.522270,766.095498,296.082377,10288.862594
535.522585,995.924147,888.247130,9918.759623
535.522901,842.705048,592.164754,9770.718434
535.523216,612.876398,444.123565,9844.739029
535.523532,229.828649,592.164754,9696.697840
535.523848,76.609550,666.185348,9622.677246
535.524163,306.438199,296.082377,9474.636058
535.524479,153.219100,518.144159,9696.697840
535.524794,-153.219100,-0.000000,9770.718434
535.525110,-229.828649,-74.020594,9918.759623
535.525426,-919.314598,-740.205942,9992.780217
535.525741,-842.705048,-740.205942,10362.883188
535.526057,-1378.971896,-962.267725,10436.903782
535.526372,-1302.362347,-296.082377,10881.027347
535.526688,-1455.581446,-370.102971,10510.924376
535.527004,-1762.019645,-148.041188,10584.944971
535.527319,-1302.362347,-0.000000,10140.821405
535.527635,-1149.143247,-148.041188,9992.780217
535.527950,-995.924147,-74.020594,9696.697840
535.528266,-842.705048,-74.020594,9326.594869
535.528582,-383.047749,-370.102971,9252.574275
535.528897,-153.219100,-222.061783,9252.574275
535.529213,-383.047749,-518.144159,9326.594869
535.529528,0.000000,-518.144159,9548.656652
535.529844,-229.828649,-740.205942,9400.615463
535.530160,-229.828649,-666.185348,9474.636058
535.530475,0.000000,-1036.288319,9770.718434
535.530791,0.000000,-518.144159,9548.656652
535.531106,76.609550,-444.123565,9474.636058
535.531422,-229.828649,-370.102971,9474.636058
535.531737,76.609550,-444.123565,9252.574275
535.532053,612.876398,-74.020594,9252.574275
535.532369,612.876398,-0.000000,8882.471304
535.532684,1072.533697,222.061783,8734.430116
535.533000,919.314598,-0.000000,8734.430116
535.533315,1378.971896,-74.020594,8216.285956
535.533631,1685.410096,-148.041188,8586.388927
535.533947,1608.800546,-148.041188,8734.430116
535.534262,1532.190996,-0.000000,8734.430116
535.534578,1532.190996,-222.061783,8808.450710
535.534893,1225.752797,-74.020594,9474.636058
535.535209,1532.190996,-74.020594,9326.594869
535.535525,689.485948,-148.041188,9548.656652
535.535840,842.705048,-0.000000,9474.636058
535.536156,689.485948,296.082377,9326.594869
535.536471,612.876398,222.061783,9326.594869
535.536787,919.314598,-148.041188,9178.553681
535.537103,1302.362347,222.061783,9178.553681
535.537418,1302.362347,148.041188,9178.553681
535.537734,1455.581446,74.020594,9104.533087
535.538049,1455.581446,148.041188,9326.594869
535.538365,1608.800546,740.205942,9696.697840
535.538680,1225.752797,-0.000000,9696.697840
535.538996,1225.752797,-0.000000,9548.656652
535.539312,1149.143247,148.041188,9770.718434
535.539627,1225.752797,296.082377,9918.759623
535.539943,1149.143247,148.041188,9844.739029
535.540258,842.705048,518.144159,9918.759623
535.540574,919.314598,518.144159,9918.759623
535.540890,919.314598,444.123565,9770.718434
535.541205,689.485948,370.102971,9770.718434
535.541521,459.657299,888.247130,9992.780217
535.541836,842.705048,518.144159,9548.656652
535.542152,612.876398,-0.000000,9770.718434
535.542468,76.609550,-74.020594,9622.677246
535.542783,0.000000,-814.226536,9770.718434
535.543099,-306.438199,-666.185348,9992.780217
535.543414,-766.095498,-740.205942,10288.862594
535.543730,-995.924147,-962.267725,10362.883188
535.544046,-1225.752797,-740.205942,10362.883188
535.544361,-1532.190996,-518.144159,10436.903782
535.544677,-1455.581446,-444.123565,10584.944971
535.544992,-1302.362347,-444.123565,10066.800811
535.545308,-1378.971896,-518.144159,9696.697840
535.545623,-1149.143247,-370.102971,9474.636058
535.545939,-459.657299,-592.164754,9474.636058
535.546255,-612.876398,-592.164754,9326.594869
535.546570,0.000000,-518.144159,9178.553681
535.546886,0.000000,-740.205942,9178.553681
535.547201,0.000000,-740.205942,9030.512492
535.547517,-306.438199,-666.185348,9326.594869
535.547833,153.219100,-666.185348,9400.615463
535.548148,-536.266849,-1110.308913,9326.594869
535.548464,0.000000,-888.247130,9474.636058
535.548779,76.609550,-666.185348,9474.636058
535.549095,0.000000,-666.185348,9474.636058
535.549411,0.000000,-666.185348,9252.574275
535.549726,306.438199,-592.164754,9104.533087
535.550042,689.485948,-370.102971,9030.512492
535.550357,919.314598,-370.102971,8808.450710
535.550673,1302.362347,-0.000000,9030.512492
535.550989,1378.971896,-296.082377,8512.368333
535.551304,1762.019645,-0.000000,8586.388927
535.551620,1532.190996,-222.061783,8808.450710
535.551935,1608.800546,-370.102971,8734.430116
535.552251,1455.581446,-518.144159,9030.512492
535.552566,1302.362347,-592.164754,9030.512492
535.552882,1225.752797,-74.020594,9474.636058
535.553198,995.924147,-74.020594,9400.615463
535.553513,842.705048,-0.000000,9548.656652
535.553829,689.485948,148.041188,9474.636058
535.554144,1149.143247,296.082377,9400.615463
535.554460,1378.971896,370.102971,9178.553681
535.554776,1532.190996,370.102971,9252.574275
535.555091,1302.362347,-0.000000,8882.471304
535.555407,1685.410096,296.082377,9104.533087
535.555722,1762.019645,370.102971,9178.553681
535.556038,1608.800546,296.082377,9474.636058
535.556354,1608.800546,370.102971,9696.697840
535.556669,1685.410096,296.082377,9474.636058
535.556985,1838.629195,296.082377,9844.739029
535.557300,1532.190996,370.102971,9770.718434
535.557616,1225.752797,592.164754,10066.800811
535.557932,1225.752797,592.164754,9918.759623
535.558247,1149.143247,518.144159,10066.800811
535.558563,842.705048,518.144159,9696.697840
535.558878,995.924147,592.164754,9696.697840
535.559194,766.095498,592.164754,9474.636058
535.559510,1072.533697,518.144159,9548.656652
535.559825,459.657299,222.061783,9548.656652
535.560141,383.047749,-0.000000,9696.697840
535.560456,229.828649,-74.020594,9696.697840
535.560772,-383.047749,-444.123565,9844.739029
535.561087,-459.657299,-518.144159,10362.883188
535.561403,-1072.533697,-592.164754,10658.965565
535.561719,-1225.752797,-444.123565,10362.883188
535.562034,-1685.410096,-592.164754,10362.883188
535.562350,-1762.019645,-444.123565,10362.883188
535.562665,-1532.190996,-370.102971,10362.883188
535.562981,-1072.533697,-296.082377,9918.759623
535.563297,-689.485948,-444.123565,9696.697840
535.563612,-1072.533697,-444.123565,9474.636058
535.563928,-612.876398,-666.185348,9178.553681
535.564243,0.000000,-1036.288319,9104.533087
535.564559,0.000000,-888.247130,9252.574275
535.564875,-229.828649,-888.247130,9252.574275
535.565190,0.000000,-962.267725,9474.636058
535.565506,-229.828649,-1110.308913,9326.594869
535.565821,0.000000,-1258.350101,9400.615463
535.566137,0.000000,-814.226536,9622.677246
535.566453,153.219100,-962.267725,9178.553681
535.566768,0.000000,-814.226536,9326.594869
535.567084,306.438199,-666.185348,9178.553681
535.567399,383.047749,-666.185348,9326.594869
535.567715,919.314598,-518.144159,8808.450710
535.568030,1072.533697,-592.164754,8660.409521
535.568346,1225.752797,-592.164754,8438.347739
535.568662,1532.190996,-888.247130,8438.347739
535.568977,1455.581446,-518.144159,8438.347739
535.569293,1302.362347,-814.226536,8216.285956
535.569608,1225.752797,-592.164754,8882.471304
535.569924,1532.190996,-740.205942,8882.471304
535.570240,1455.581446,-370.102971,9326.594869
535.570555,995.924147,-518.144159,9326.594869
535.570871,919.314598,-222.061783,9548.656652
535.571186,766.095498,-222.061783,9474.636058
535.571502,842.705048,-0.000000,9326.594869
535.571818,919.314598,-0.000000,9252.574275
535.572133,1149.143247,370.102971,9400.615463
535.572449,1378.971896,-0.000000,9030.512492
535.572764,1302.362347,296.082377,9178.553681
535.573080,1608.800546,-0.000000,9400.615463
535.573396,1455.581446,370.102971,9326.594869
535.573711,1608.800546,370.102971,9474.636058
535.574027,1455.581446,296.082377,9548.656652
535.574342,1302.362347,148.041188,9770.718434
535.574658,1149.143247,-0.000000,9770.718434
535.574973,1072.533697,444.123565,10066.800811
535.575289,842.705048,518.144159,9992.780217
535.575605,612.876398,592.164754,9918.759623
535.575920,612.876398,740.205942,9992.780217
535.576236,229.828649,740.205942,10214.842000
535.576551,612.876398,962.267725,9844.739029
535.576867,383.047749,814.226536,9548.656652
535.577183,383.047749,666.185348,9548.656652
535.577498,306.438199,444.123565,9474.636058
535.577814,306.438199,148.041188,9548.656652
535.578129,0.000000,-0.000000,9622.677246
535.578445,-306.438199,-148.041188,9844.739029
535.578761,-612.876398,-222.061783,10066.800811
535.579076,-1072.533697,-518.144159,10362.883188
535.579392,-1072.533697,-74.020594,10658.965565
535.579707,-1455.581446,-0.000000,10732.986159
535.580023,-1762.019645,-370.102971,10436.903782
535.580339,-1378.971896,-444.123565,10362.883188
535.580654,-1149.143247,-296.082377,9844.739029
535.580970,-766.095498,-148.041188,9696.697840
535.581285,-1072.533697,-222.061783,9474.636058
535.581601,-459.657299,-222.061783,9474.636058
535.581916,-153.219100,-370.102971,9400.615463
535.582232,-229.828649,-518.144159,9104.533087
535.582548,-383.047749,-814.226536,9400.615463
535.582863,0.000000,-740.205942,9400.615463
535.583179,153.219100,-666.185348,9474.636058
535.583494,0.000000,-814.226536,9548.656652
535.583810,459.657299,-666.185348,9696.697840
535.584126,0.000000,-666.185348,9474.636058
535.584441,0.000000,-740.205942,9178.553681
535.584757,0.000000,-518.144159,9326.594869
535.585072,306.438199,-444.123565,9178.553681
535.585388,306.438199,-592.164754,9178.553681
535.585704,689.485948,-296.082377,8808.450710
535.586019,1149.143247,-296.082377,8512.368333
535.586335,995.924147,-222.061783,8512.368333
535.586650,1378.971896,-592.164754,8364.327145
535.586966,1608.800546,-370.102971,8512.368333
535.587282,1225.752797,-666.185348,9104.533087
535.587597,1072.533697,-592.164754,9104.533087
535.587913,1072.533697,-740.205942,9178.553681
535.588228,842.705048,-296.082377,9400.615463
535.588544,689.485948,-148.041188,9474.636058
535.588860,536.266849,-296.082377,9400.615463
535.589175,766.095498,-0.000000,9326.594869
535.589491,842.705048,-0.000000,9326.594869
535.589806,1378.971896,-0.000000,9326.594869
535.590122,842.705048,-0.000000,9474.636058
535.590437,1302.362347,-0.000000,9178.553681
535.590753,1302.362347,-0.000000,9030.512492
535.591069,1532.190996,222.061783,9104.533087
535.591384,1685.410096,-0.000000,9474.636058
535.591700,1302.362347,-0.000000,9178.553681
535.592015,1225.752797,-148.041188,9696.697840
535.592331,1149.143247,-370.102971,9844.739029
535.592647,1225.752797,-0.000000,9918.759623
535.592962,1072.533697,-0.000000,9918.759623
535.593278,1072.533697,222.061783,9844.739029
535.593593,919.314598,444.123565,9918.759623
535.593909,842.705048,222.061783,9918.759623
535.594225,689.485948,592.164754,9622.677246
535.594540,1302.362347,518.144159,9696.697840
535.594856,536.266849,666.185348,9548.656652
535.595171,689.485948,370.102971,9400.615463
535.595487,459.657299,-0.000000,9252.574275
535.595803,383.047749,-370.102971,9622.677246
535.596118,-229.828649,-740.205942,10066.800811
535.596434,-229.828649,-1036.288319,9918.759623
535.596749,-766.095498,-814.226536,10510.924376
535.597065,-1455.581446,-740.205942,10584.944971
535.597380,-1685.410096,-592.164754,10584.944971
535.597696,-1225.752797,-74.020594,10510.924376
535.598012,-1225.752797,-444.123565,10214.842000
535.598327,-1072.533697,-148.041188,9770.718434
535.598643,-1072.533697,-148.041188,9474.636058
535.598958,-689.485948,-296.082377,9474.636058
535.599274,-306.438199,-740.205942,9252.574275
535.599590,0.000000,-444.123565,9104.533087
535.599905,229.828649,-740.205942,9030.512492
535.600221,0.000000,-666.185348,9326.594869
535.600536,229.828649,-740.205942,9104.533087
535.600852,0.000000,-740.205942,9326.594869
535.601168,0.000000,-814.226536,9622.677246
535.601483,0.000000,-666.185348,9474.636058
535.601799,76.609550,-592.164754,9400.615463
535.602114,0.000000,-592.164754,9252.574275
535.602430,612.876398,-592.164754,9104.533087
535.602746,383.047749,-444.123565,9178.553681
535.603061,689.485948,-74.020594,9104.533087
535.603377,919.314598,-148.041188,8734.430116
535.603692,1149.143247,-74.020594,8586.388927
535.604008,1532.190996,-296.082377,8364.327145
535.604323,1608.800546,-148.041188,8586.388927
535.604639,1685.410096,-296.082377,8438.347739
535.604955,1378.971896,-222.061783,8808.450710
535.605270,1532.190996,-296.082377,9104.533087
535.605586,1532.190996,-370.102971,9326.594869
535.605901,1225.752797,-74.020594,9474.636058
535.606217,995.924147,-0.000000,9474.636058
535.606533,766.095498,296.082377,9474.636058
535.606848,1149.143247,296.082377,9474.636058
535.607164,995.924147,370.102971,9548.656652
535.607479,995.924147,518.144159,9474.636058
535.607795,1608.800546,518.144159,8956.491898
535.608111,1378.971896,296.082377,9252.574275
535.608426,1378.971896,296.082377,8586.388927
535.608742,1532.190996,518.144159,9326.594869
535.609057,1455.581446,296.082377,9474.636058
535.609373,1378.971896,-0.000000,9474.636058
535.609689,919.314598,-0.000000,9622.677246
535.610004,1302.362347,-0.000000,10066.800811
535.610320,1072.533697,148.041188,9918.759623
535.610635,1149.143247,592.164754,9844.739029
535.610951,919.314598,592.164754,10066.800811
535.611266,612.876398,444.123565,9992.780217
535.611582,612.876398,592.164754,9992.780217
535.611898,459.657299,666.185348,9696.697840
535.612213,383.047749,740.205942,9696.697840
535.612529,459.657299,740.205942,9474.636058
535.612844,689.485948,444.123565,9622.677246
535.613160,689.485948,-74.020594,9474.636058
535.613476,76.609550,-148.041188,9918.759623
535.613791,0.000000,-518.144159,9844.739029
535.614107,-612.876398,-592.164754,9992.780217
535.614422,-995.924147,-814.226536,10288.862594
535.614738,-1378.971896,-666.185348,10658.965565
535.615054,-1532.190996,-444.123565,10584.944971
535.615369,-1608.800546,-370.102971,10510.924376
535.615685,-1455.581446,-592.164754,10140.821405
535.616000,-1838.629195,-518.144159,10214.842000
535.616316,-1225.752797,-370.102971,9844.739029
535.616632,-383.047749,-444.123565,9326.594869
535.616947,-153.219100,-592.164754,9178.553681
535.617263,0.000000,-740.205942,9326.594869
535.617578,-153.219100,-888.247130,9252.574275
535.617894,0.000000,-1110.308913,9178.553681
535.618209,0.000000,-1110.308913,9178.553681
535.618525,0.000000,-740.205942,9326.594869
535.618841,689.485948,-962.267725,9252.574275
535.619156,76.609550,-888.247130,9400.615463
535.619472,-229.828649,-962.267725,9474.636058
535.619787,76.609550,-740.205942,9400.615463
535.620103,383.047749,-518.144159,9104.533087
535.620419,536.266849,-592.164754,9326.594869
535.620734,536.266849,-444.123565,9326.594869
535.621050,842.705048,-370.102971,8734.430116
535.621365,1072.533697,-296.082377,8660.409521
535.621681,995.924147,-444.123565,8512.368333
535.621997,1302.362347,-740.205942,8512.368333
535.622313,1378.971896,-740.205942,8660.409521
535.622628,1455.581446,-592.164754,8882.471304
535.622944,1149.143247,-666.185348,8882.471304
535.623260,842.705048,-444.123565,9326.594869
535.623575,766.095498,-222.061783,9252.574275
535.623891,1072.533697,-148.041188,9326.594869
535.624207,612.876398,-74.020594,9474.636058
535.624522,536.266849,-74.020594,9326.594869
535.624838,919.314598,148.041188,9474.636058
535.625154,1225.752797,222.061783,9400.615463
535.625469,1149.143247,296.082377,9178.553681
535.625785,1532.190996,-0.000000,8956.491898
535.626101,1532.190996,370.102971,9030.512492
535.626417,1685.410096,222.061783,8882.471304
535.626732,1608.800546,-0.000000,9252.574275
535.627048,1685.410096,-0.000000,9400.615463
535.627364,1149.143247,222.061783,9548.656652
535.627679,995.924147,296.082377,9918.759623
535.627995,1225.752797,592.164754,9844.739029
535.628311,919.314598,370.102971,9992.780217
535.628626,842.705048,518.144159,9844.739029
535.628942,459.657299,666.185348,9844.739029
535.629258,842.705048,814.226536,10066.800811
535.629574,306.438199,666.185348,9770.718434
535.629889,1072.533697,666.185348,9844.739029
535.630205,383.047749,518.144159,9696.697840
535.630521,536.266849,518.144159,9474.636058
535.630836,306.438199,222.061783,9548.656652
535.631152,383.047749,-74.020594,9992.780217
535.631468,-153.219100,-222.061783,9992.780217
535.631783,-536.266849,-370.102971,10214.842000
535.632099,-766.095498,-296.082377,10584.944971
535.632415,-919.314598,-518.144159,10584.944971
535.632730,-1378.971896,-666.185348,10658.965565
535.633046,-1685.410096,-370.102971,10510.924376
535.633362,-1302.362347,-296.082377,10214.842000
535.633678,-1302.362347,-296.082377,10140.821405
535.633993,-919.314598,-74.020594,9696.697840
535.634309,-459.657299,-518.144159,9400.615463
535.634625,0.000000,-296.082377,9474.636058
535.634940,0.000000,-296.082377,9326.594869
535.635256,0.000000,-444.123565,9178.553681
535.635572,0.000000,-518.144159,9326.594869
535.635887,459.657299,-814.226536,9326.594869
535.636203,153.219100,-740.205942,9400.615463
535.636519,0.000000,-814.226536,9400.615463
535.636835,76.609550,-814.226536,9474.636058
535.637150,76.609550,-740.205942,9474.636058
535.637466,0.000000,-518.144159,9474.636058
535.637782,306.438199,-592.164754,9104.533087
535.638097,689.485948,-518.144159,8956.491898
535.638413,842.705048,-222.061783,8956.491898
535.638729,1225.752797,-518.144159,8586.388927
535.639044,919.314598,-814.226536,8512.368333
535.639360,1225.752797,-518.144159,8216.285956
535.639676,1225.752797,-666.185348,8438.347739
535.639991,1455.581446,-740.205942,8512.368333
535.640307,1378.971896,-592.164754,8808.450710
535.640623,1225.752797,-740.205942,9104.533087
535.640939,1225.752797,-518.144159,9178.553681
535.641254,1225.752797,-518.144159,9326.594869
535.641570,995.924147,-296.082377,9474.636058
535.641886,689.485948,-888.247130,9474.636058
535.642201,919.314598,-74.020594,9326.594869
535.642517,766.095498,-222.061783,9252.574275
535.642833,1225.752797,-0.000000,9252.574275
535.643148,1225.752797,-0.000000,9030.512492
535.643464,1378.971896,74.020594,9252.574275
535.643780,1532.190996,148.041188,9178.553681
535.644096,1608.800546,148.041188,9178.553681
535.644411,1455.581446,-0.000000,9252.574275
535.644727,1378.971896,-0.000000,9474.636058
535.645043,1532.190996,-222.061783,9622.677246
535.645358,1149.143247,-0.000000,9622.677246
535.645674,1072.533697,222.061783,9770.718434
535.645990,919.314598,222.061783,9918.759623
535.646305,995.924147,370.102971,10140.821405
535.646621,459.657299,296.082377,9992.780217
535.646937,689.485948,592.164754,9770.718434
535.647252,919.314598,518.144159,9844.739029
535.647568,612.876398,518.144159,9622.677246
535.647884,536.266849,444.123565,9400.615463
535.648200,689.485948,666.185348,9178.553681
535.648515,689.485948,296.082377,9548.656652
535.648831,0.000000,-0.000000,9474.636058
535.649147,-229.828649,-222.061783,9918.759623
535.649462,-536.266849,-592.164754,10140.821405
535.649778,-1225.752797,-518.144159,10658.965565
535.650094,-1225.752797,-592.164754,10658.965565
535.650409,-1838.629195,-444.123565,10732.986159
535.650725,-1532.190996,-370.102971,10510.924376
535.651041,-1532.190996,-444.123565,10436.903782
535.651357,-1225.752797,-0.000000,10288.862594
535.651672,-1378.971896,-370.102971,9844.739029
535.651988,-689.485948,-296.082377,9474.636058
535.652304,-689.485948,-296.082377,9474.636058
535.652619,153.219100,-370.102971,9400.615463
535.652935,76.609550,-444.123565,9178.553681
535.653251,229.828649,-666.185348,9178.553681
535.653566,229.828649,-370.102971,9252.574275
535.653882,229.828649,-444.123565,9326.594869
535.654198,306.438199,-444.123565,9326.594869
535.654513,306.438199,-962.267725,9548.656652
535.654829,0.000000,-592.164754,9400.615463
535.655145,383.047749,-222.061783,9326.594869
535.655461,536.266849,-666.185348,9178.553681
535.655776,459.657299,-148.041188,9326.594869
535.656092,536.266849,-222.061783,9252.574275
535.656408,842.705048,-148.041188,9030.512492
535.656723,1072.533697,-296.082377,8660.409521
535.657039,1149.143247,-518.144159,8586.388927
535.657355,1532.190996,-518.144159,8512.368333
535.657670,1149.143247,-740.205942,8808.450710
535.657986,1532.190996,-370.102971,8660.409521
535.658302,1225.752797,-666.185348,9030.512492
535.658618,1072.533697,-370.102971,9400.615463
535.658933,1149.143247,-370.102971,9474.636058
535.659249,1072.533697,-74.020594,9400.615463
535.659565,1072.533697,-0.000000,9400.615463
535.659880,842.705048,-0.000000,9326.594869
535.660196,919.314598,222.061783,9548.656652
535.660512,1685.410096,370.102971,9030.512492
535.660827,1225.752797,-74.020594,8808.450710
535.661143,1302.362347,-0.000000,9030.512492
535.661459,1532.190996,74.020594,8956.491898
535.661774,1378.971896,-0.000000,9104.533087
535.662090,1378.971896,-0.000000,9326.594869
535.662406,1302.362347,-0.000000,9548.656652
535.662722,1225.752797,-0.000000,9844.739029
535.663037,995.924147,-148.041188,10066.800811
535.663353,612.876398,222.061783,9918.759623
535.663669,1072.533697,222.061783,10066.800811
535.663984,995.924147,370.102971,10066.800811
535.664300,842.705048,370.102971,9992.780217
535.664616,995.924147,-0.000000,10066.800811
535.664931,536.266849,444.123565,9696.697840
535.665247,459.657299,740.205942,9844.739029
535.665563,306.438199,518.144159,9474.636058
535.665879,536.266849,370.102971,9622.677246
535.666194,153.219100,148.041188,9326.594869
535.666510,0.000000,-0.000000,9770.718434
535.666826,-153.219100,-296.082377,9918.759623
535.667141,-766.095498,-444.123565,10214.842000
535.667457,-995.924147,-740.205942,10362.883188
535.667773,-1225.752797,-666.185348,10807.006753
535.668088,-1378.971896,-444.123565,10362.883188
535.668404,-1762.019645,-592.164754,10362.883188
535.668720,-1455.581446,-444.123565,10288.862594
535.669036,-1532.190996,-592.164754,10140.821405
535.669351,-1455.581446,-444.123565,9844.739029
535.669667,-842.705048,-592.164754,9474.636058
535.669983,-612.876398,-592.164754,9326.594869
535.670298,-306.438199,-518.144159,9104.533087
535.670614,-76.609550,-444.123565,9326.594869
535.670930,153.219100,-666.185348,9474.636058
535.671245,0.000000,-888.247130,9326.594869
535.671561,229.828649,-888.247130,9326.594869
535.671877,0.000000,-592.164754,9326.594869
535.672192,306.438199,-740.205942,9252.574275
535.672508,229.828649,-518.144159,9474.636058
535.672824,229.828649,-444.123565,9400.615463
535.673140,229.828649,-296.082377,9104.533087
535.673455,153.219100,-370.102971,8956.491898
535.673771,536.266849,-0.000000,9030.512492
535.674087,689.485948,-148.041188,8882.471304
535.674402,919.314598,-296.082377,8660.409521
535.674718,1302.362347,-222.061783,8586.388927
535.675034,1532.190996,-370.102971,8586.388927
535.675349,1532.190996,-222.061783,8660.409521
535.675665,1608.800546,-518.144159,8808.450710
535.675981,1302.362347,-370.102971,8882.471304
535.676297,1225.752797,-444.123565,9178.553681
535.676612,919.314598,-370.102971,9252.574275
535.676928,689.485948,-148.041188,9104.533087
535.677244,766.095498,-444.123565,9326.594869
535.677559,842.705048,370.102971,9252.574275
535.677875,689.485948,222.061783,9252.574275
535.678191,995.924147,222.061783,9252.574275
535.678506,1302.362347,-0.000000,9104.533087
535.678822,995.924147,-0.000000,9104.533087
535.679138,1302.362347,-0.000000,8956.491898
535.679453,1302.362347,222.061783,9030.512492
535.679769,1455.581446,148.041188,9474.636058
535.680085,1608.800546,-0.000000,9622.677246
535.680401,766.095498,-296.082377,9622.677246
535.680716,995.924147,-0.000000,9696.697840
535.681032,766.095498,296.082377,10066.800811
535.681348,842.705048,370.102971,9992.780217
535.681663,766.095498,370.102971,10140.821405
535.681979,536.266849,444.123565,9844.739029
535.682295,459.657299,740.205942,9918.759623
535.682610,306.438199,666.185348,9696.697840
535.682926,459.657299,666.185348,9474.636058
535.683242,536.266849,666.185348,9474.636058
535.683558,153.219100,296.082377,9474.636058
535.683873,383.047749,148.041188,9696.697840
535.684189,153.219100,-222.061783,9696.697840
535.684505,-229.828649,-296.082377,9844.739029
535.684820,-689.485948,-444.123565,10584.944971
535.685136,-919.314598,-518.144159,10732.986159
535.685452,-1225.752797,-518.144159,10658.965565
535.685767,-1608.800546,-518.144159,10510.924376
535.686083,-1378.971896,-444.123565,10510.924376
535.686399,-1225.752797,-296.082377,10510.924376
535.686714,-1225.752797,-222.061783,9844.739029
535.687030,-1149.143247,-444.123565,9696.697840
535.687346,-919.314598,-148.041188,9548.656652
535.687662,-383.047749,-370.102971,9400.615463
535.687977,-153.219100,-444.123565,9474.636058
535.688293,0.000000,-370.102971,9474.636058
535.688609,0.000000,-666.185348,9252.574275
535.688924,153.219100,-518.144159,9326.594869
535.689240,0.000000,-962.267725,9326.594869
535.689556,76.609550,-888.247130,9474.636058
535.689871,229.828649,-592.164754,9474.636058
535.690187,229.828649,-518.144159,9474.636058
535.690503,306.438199,-444.123565,9400.615463
535.690819,459.657299,-592.164754,9326.594869
535.691134,383.047749,-518.144159,9178.553681
535.691450,689.485948,-518.144159,9104.533087
535.691766,766.095498,-518.144159,8882.471304
535.692081,1072.533697,-222.061783,8660.409521
535.692397,1225.752797,-444.123565,8438.347739
535.692713,1608.800546,-888.247130,8512.368333
535.693028,1455.581446,-666.185348,8660.409521
535.693344,1225.752797,-518.144159,8586.388927
535.693660,1532.190996,-592.164754,8956.491898
535.693975,1378.971896,-814.226536,9104.533087
535.694291,1072.533697,-296.082377,9326.594869
535.694607,919.314598,-148.041188,9474.636058
535.694923,919.314598,-222.061783,9474.636058
535.695238,1149.143247,-0.000000,9326.594869
535.695554,1302.362347,-148.041188,9178.553681
535.695870,1302.362347,-0.000000,9178.553681
535.696185,1378.971896,-0.000000,8882.471304
535.696501,1378.971896,-0.000000,9030.512492
535.696817,1455.581446,-0.000000,8882.471304
535.697132,1532.190996,148.041188,9178.553681
535.697448,1378.971896,-74.020594,9252.574275
535.697764,1378.971896,-74.020594,9474.636058
535.698080,1378.971896,-0.000000,9474.636058
535.698395,842.705048,-0.000000,9918.759623
535.698711,995.924147,-444.123565,9770.718434
535.699027,1225.752797,-0.000000,9844.739029
535.699342,766.095498,-0.000000,9992.780217
535.699658,689.485948,370.102971,9992.780217
535.699974,689.485948,518.144159,9696.697840
535.700289,766.095498,518.144159,9770.718434
535.700605,612.876398,814.226536,9548.656652
535.700921,766.095498,370.102971,9326.594869
535.701236,689.485948,444.123565,9474.636058
535.701552,536.266849,-0.000000,9474.636058
535.701868,306.438199,-296.082377,9400.615463
535.702184,0.000000,-296.082377,9992.780217
535.702499,-383.047749,-444.123565,10066.800811
535.702815,-1072.533697,-592.164754,10510.924376
535.703131,-1532.190996,-518.144159,10955.047942
535.703446,-1455.581446,-592.164754,10658.965565
535.703762,-1685.410096,-444.123565,10436.903782
535.704078,-1378.971896,-592.164754,10362.883188
535.704393,-1608.800546,-370.102971,10066.800811
535.704709,-766.095498,-370.102971,9548.656652
535.705025,-995.924147,-370.102971,9474.636058
535.705341,-229.828649,-148.041188,9178.553681
535.705656,-153.219100,-444.123565,9252.574275
535.705972,76.609550,-444.123565,9178.553681
535.706288,0.000000,-666.185348,9326.594869
535.706603,153.219100,-814.226536,9400.615463
535.706919,76.609550,-666.185348,9326.594869
535.707235,0.000000,-592.164754,9548.656652
535.707550,153.219100,-518.144159,9326.594869
535.707866,0.000000,-666.185348,9326.594869
535.708182,612.876398,-518.144159,9474.636058
535.708497,383.047749,-222.061783,9252.574275
535.708813,383.047749,-222.061783,9252.574275
535.709129,842.705048,-222.061783,9104.533087
535.709445,842.705048,-148.041188,8882.471304
535.709760,1072.533697,-296.082377,8364.327145
535.710076,1302.362347,-370.102971,8438.347739
535.710392,1378.971896,-444.123565,8512.368333
535.710707,1685.410096,-370.102971,8808.450710
535.711023,1455.581446,-518.144159,8734.430116
535.711339,1455.581446,-370.102971,9104.533087
535.711654,1149.143247,-444.123565,9474.636058
535.711970,1072.533697,-592.164754,9474.636058
535.712286,919.314598,-74.020594,9474.636058
535.712602,842.705048,-0.000000,9400.615463
535.712917,1072.533697,222.061783,9400.615463
535.713233,1149.143247,370.102971,9326.594869
535.713549,1225.752797,296.082377,9400.615463
535.713864,1532.190996,-0.000000,9178.553681
535.714180,1455.581446,222.061783,8956.491898
535.714496,1455.581446,370.102971,9030.512492
535.714811,1685.410096,222.061783,8808.450710
535.715127,1378.971896,222.061783,9252.574275
535.715443,1378.971896,148.041188,9400.615463
535.715759,1225.752797,-0.000000,9474.636058
535.716074,1149.143247,-0.000000,9696.697840
535.716390,1072.533697,-0.000000,9696.697840
535.716706,766.095498,222.061783,9844.739029
535.717021,536.266849,518.144159,9992.780217
535.717337,536.266849,444.123565,9770.718434
535.717653,383.047749,444.123565,9844.739029
535.717968,459.657299,370.102971,9622.677246
535.718284,0.000000,444.123565,9474.636058
535.718600,306.438199,740.205942,9326.594869
535.718915,383.047749,370.102971,9548.656652
535.719231,76.609550,-0.000000,9696.697840
535.719547,0.000000,-296.082377,9696.697840
535.719863,-383.047749,-370.102971,9844.739029
535.720178,-766.095498,-592.164754,10066.800811
535.720494,-1072.533697,-740.205942,10214.842000
535.720810,-1378.971896,-666.185348,10436.903782
535.721125,-1532.190996,-666.185348,10584.944971
535.721441,-1608.800546,-666.185348,10436.903782
535.721757,-1532.190996,-518.144159,10214.842000
535.722072,-1455.581446,-592.164754,10066.800811
535.722388,-995.924147,-444.123565,9696.697840
535.722704,-842.705048,-370.102971,9770.718434
535.723019,-612.876398,-444.123565,9474.636058
535.723335,-306.438199,-592.164754,9326.594869
535.723651,0.000000,-666.185348,9400.615463
535.723967,0.000000,-888.247130,9474.636058
535.724282,-229.828649,-962.267725,9548.656652
535.724598,76.609550,-1258.350101,9104.533087
535.724914,0.000000,-1036.288319,9622.677246
535.725229,229.828649,-814.226536,9252.574275
535.725545,153.219100,-888.247130,9400.615463
535.725861,229.828649,-592.164754,9474.636058
535.726176,383.047749,-444.123565,9104.533087
535.726492,536.266849,-444.123565,9030.512492
535.726808,919.314598,-444.123565,9030.512492
535.727123,995.924147,-296.082377,8956.491898
535.727439,1149.143247,-296.082377,8512.368333
535.727755,1225.752797,-518.144159,8438.347739
535.728070,1608.800546,-444.123565,8660.409521
535.728386,1532.190996,-444.123565,8586.388927
535.728702,1302.362347,-370.102971,8734.430116
535.729017,1225.752797,-518.144159,9030.512492
535.729333,1072.533697,-444.123565,9326.594869
535.729649,842.705048,-296.082377,9474.636058
535.729964,689.485948,-148.041188,9548.656652
535.730280,1302.362347,-148.041188,9326.594869
535.730596,995.924147,74.020594,9326.594869
535.730912,1455.581446,-0.000000,8882.471304
535.731227,1149.143247,296.082377,9030.512492
535.731543,1455.581446,370.102971,9030.512492
535.731859,1455.581446,148.041188,8956.491898
535.732174,1455.581446,222.061783,8882.471304
535.732490,1685.410096,444.123565,8956.491898
535.732806,1532.190996,370.102971,9400.615463
535.733121,1532.190996,222.061783,9474.636058
535.733437,1378.971896,-0.000000,9548.656652
535.733753,1455.581446,148.041188,9770.718434
535.734068,1149.143247,148.041188,9992.780217
535.734384,919.314598,370.102971,9844.739029
535.734700,1072.533697,444.123565,10066.800811
535.735015,995.924147,518.144159,10066.800811
535.735331,536.266849,740.205942,9918.759623
535.735647,612.876398,740.205942,9918.759623
535.735962,536.266849,888.247130,9622.677246
535.736278,229.828649,666.185348,9252.574275
535.736594,306.438199,370.102971,9400.615463
535.736909,153.219100,148.041188,9548.656652
535.737225,0.000000,74.020594,9622.677246
535.737541,-153.219100,-74.020594,9844.739029
535.737857,-689.485948,-444.123565,10214.842000
535.738172,-995.924147,-518.144159,10732.986159
535.738488,-1378.971896,-296.082377,10584.944971
535.738804,-1608.800546,-296.082377,10807.006753
535.739119,-1608.800546,-222.061783,10584.944971
535.739435,-1685.410096,-518.144159,10140.821405
535.739751,-995.924147,-370.102971,10066.800811
535.740066,-1225.752797,-148.041188,9918.759623
535.740382,-689.485948,-296.082377,9474.636058
535.740698,-536.266849,-444.123565,9400.615463
535.741013,0.000000,-370.102971,9474.636058
535.741329,-153.219100,-592.164754,9252.574275
535.741645,0.000000,-666.185348,9474.636058
535.741960,0.000000,-962.267725,9474.636058
535.742276,0.000000,-666.185348,9474.636058
535.742592,229.828649,-814.226536,9548.656652
535.742907,76.609550,-888.247130,9474.636058
535.743223,0.000000,-814.226536,9474.636058
535.743539,229.828649,-592.164754,9400.615463
535.743854,153.219100,-814.226536,9252.574275
535.744170,766.095498,-962.267725,9400.615463
535.744486,766.095498,-296.082377,8882.471304
535.744802,995.924147,-370.102971,8808.450710
535.745117,1532.190996,-666.185348,8660.409521
535.745433,1455.581446,-444.123565,8586.388927
535.745749,1685.410096,-814.226536,8586.388927
535.746064,1302.362347,-666.185348,8586.388927
535.746380,1532.190996,-962.267725,8808.450710
535.746696,1532.190996,-740.205942,8882.471304
535.747011,1455.581446,-592.164754,9252.574275
535.747327,1378.971896,-592.164754,9252.574275
535.747643,1072.533697,-444.123565,9400.615463
535.747958,1149.143247,-296.082377,9252.574275
535.748274,1378.971896,-0.000000,9252.574275
535.748590,1225.752797,-74.020594,9326.594869
535.748905,1225.752797,-0.000000,9252.574275
535.749221,1378.971896,-0.000000,9030.512492
535.749537,1532.190996,-0.000000,8808.450710
535.749852,1915.238745,148.041188,9104.533087
535.750168,1608.800546,370.102971,9178.553681
535.750484,1762.019645,-0.000000,9252.574275
535.750799,1608.800546,-148.041188,9474.636058
535.751115,1072.533697,-74.020594,9548.656652
535.751431,1149.143247,-370.102971,9696.697840
535.751747,995.924147,-74.020594,9696.697840
535.752062,766.095498,-0.000000,9696.697840
535.752378,1072.533697,-0.000000,9770.718434
535.752694,612.876398,370.102971,9770.718434
535.753009,919.314598,-0.000000,9844.739029
535.753325,306.438199,444.123565,9474.636058
535.753641,383.047749,592.164754,9252.574275
535.753956,459.657299,666.185348,9474.636058
535.754272,383.047749,444.123565,9474.636058
535.754588,459.657299,148.041188,9696.697840
535.754903,0.000000,74.020594,9992.780217
535.755219,-306.438199,-222.061783,9770.718434
535.755535,-612.876398,-296.082377,10288.862594
535.755850,-919.314598,-444.123565,10436.903782
535.756166,-842.705048,-296.082377,11103.089130
535.756482,-1608.800546,-296.082377,10732.986159
535.756797,-1685.410096,-370.102971,10807.006753
535.757113,-1762.019645,-444.123565,10288.862594
535.757429,-1378.971896,-296.082377,10066.800811
535.757744,-612.876398,-148.041188,9474.636058
535.758060,-995.924147,-148.041188,9474.636058
535.758376,-536.266849,-148.041188,9474.636058
535.758692,-229.828649,-296.082377,9326.594869
535.759007,0.000000,-444.123565,9400.615463
535.759323,0.000000,-444.123565,9622.677246
535.759639,383.047749,-370.102971,9474.636058
535.759954,306.438199,-444.123565,9326.594869
535.760270,383.047749,-370.102971,9548.656652
535.760586,76.609550,-518.144159,9474.636058
535.760901,0.000000,-370.102971,9326.594869
535.761217,153.219100,-444.123565,9548.656652
535.761533,76.609550,-370.102971,9400.615463
535.761848,229.828649,-370.102971,9326.594869
535.762164,919.314598,-370.102971,9104.533087
535.762480,995.924147,-666.185348,8660.409521
535.762795,536.266849,-222.061783,8882.471304
535.763111,1225.752797,-296.082377,8660.409521
535.763427,1302.362347,-296.082377,8660.409521
535.763742,1608.800546,-444.123565,8586.388927
535.764058,1532.190996,-444.123565,8734.430116
535.764374,1225.752797,-296.082377,8882.471304
535.764689,1225.752797,-222.061783,9252.574275
535.765005,766.095498,-74.020594,9474.636058
535.765321,1225.752797,-0.000000,9474.636058
535.765637,1149.143247,-148.041188,9252.574275
535.765952,689.485948,-0.000000,9474.636058
535.766268,1072.533697,148.041188,9178.553681
535.766584,1149.143247,370.102971,9178.553681
535.766899,1302.362347,-0.000000,9252.574275
535.767215,1378.971896,-0.000000,9178.553681
535.767531,1455.581446,148.041188,9178.553681
535.767846,1302.362347,-0.000000,9178.553681
535.768162,1455.581446,-74.020594,9178.553681
535.768478,1532.190996,-148.041188,9474.636058
535.768793,1532.190996,-148.041188,9326.594869
535.769109,1149.143247,-0.000000,9548.656652
535.769425,919.314598,-0.000000,9770.718434
535.769740,995.924147,296.082377,9770.718434
535.770056,919.314598,222.061783,9770.718434
535.770372,842.705048,370.102971,9992.780217
535.770687,689.485948,444.123565,9770.718434
535.771003,689.485948,296.082377,9548.656652
535.771319,612.876398,592.164754,9548.656652
535.771634,689.485948,296.082377,9326.594869
535.771950,612.876398,518.144159,9474.636058
535.772266,153.219100,-0.000000,9696.697840
535.772582,0.000000,-222.061783,9696.697840
535.772897,-306.438199,-592.164754,9992.780217
535.773213,-689.485948,-592.164754,10066.800811
535.773529,-842.705048,-814.226536,10732.986159
535.773844,-1532.190996,-740.205942,10436.903782
535.774160,-1762.019645,-740.205942,10510.924376
535.774476,-1685.410096,-666.185348,10362.883188
535.774791,-1455.581446,-814.226536,9918.759623
535.775107,-1532.190996,-222.061783,10066.800811
535.775423,-1378.971896,-370.102971,9548.656652
535.775738,-536.266849,-222.061783,9326.594869
535.776054,-536.266849,-444.123565,9474.636058
535.776370,-229.828649,-740.205942,9400.615463
535.776685,0.000000,-888.247130,9030.512492
535.777001,0.000000,-740.205942,9178.553681
535.777317,0.000000,-666.185348,9252.574275
535.777632,0.000000,-740.205942,9252.574275
535.777948,-229.828649,-814.226536,9474.636058
535.778264,306.438199,-1036.288319,9622.677246
535.778579,0.000000,-740.205942,9548.656652
535.778895,0.000000,-666.185348,9400.615463
535.779211,76.609550,-518.144159,9400.615463
535.779527,229.828649,-370.102971,9252.574275
535.779842,612.876398,-444.123565,9178.553681
535.780158,689.485948,-222.061783,8956.491898
535.780474,1072.533697,-222.061783,8586.388927
535.780789,1302.362347,-296.082377,8512.368333
535.781105,1532.190996,-148.041188,8586.388927
535.781421,2221.676944,-74.020594,8882.471304
535.781736,1608.800546,-296.082377,8956.491898
535.782052,1378.971896,-296.082377,8882.471304
535.782368,1455.581446,-222.061783,9178.553681
535.782683,1455.581446,-74.020594,9400.615463
535.782999,919.314598,-74.020594,9326.594869
535.783315,1072.533697,-0.000000,9326.594869
535.783630,1072.533697,444.123565,9474.636058
535.783946,1072.533697,296.082377,9252.574275
535.784262,1225.752797,296.082377,9400.615463
535.784577,1455.581446,148.041188,9326.594869
535.784893,1608.800546,592.164754,9326.594869
535.785209,1455.581446,444.123565,9252.574275
535.785524,1532.190996,444.123565,9252.574275
535.785840,1378.971896,222.061783,9474.636058
535.786156,1685.410096,-0.000000,9474.636058
535.786472,1149.143247,148.041188,9548.656652
535.786787,1149.143247,-0.000000,9622.677246
535.787103,919.314598,222.061783,9918.759623
535.787419,842.705048,370.102971,9770.718434
535.787734,689.485948,592.164754,9844.739029
535.788050,919.314598,814.226536,9770.718434
535.788366,689.485948,740.205942,9992.780217
535.788681,612.876398,740.205942,9992.780217
535.788997,995.924147,814.226536,9770.718434
535.789313,383.047749,814.226536,9400.615463
535.789628,459.657299,370.102971,9400.615463
535.789944,459.657299,-0.000000,9548.656652
535.790260,0.000000,-74.020594,9474.636058
535.790575,-612.876398,-592.164754,9844.739029
535.790891,-459.657299,-740.205942,10140.821405
535.791207,-842.705048,-592.164754,10362.883188
535.791522,-1302.362347,-666.185348,10584.944971
535.791838,-1685.410096,-518.144159,10510.924376
535.792154,-1608.800546,-962.267725,10658.965565
535.792469,-1608.800546,-592.164754,10214.842000
535.792785,-1302.362347,-444.123565,9992.780217
535.793101,-1149.143247,-518.144159,9622.677246
535.793417,-766.095498,-518.144159,9548.656652
535.793732,-306.438199,-592.164754,9252.574275
535.794048,0.000000,-444.123565,9104.533087
535.794364,-229.828649,-666.185348,8956.491898
535.794679,0.000000,-888.247130,9178.553681
535.794995,76.609550,-888.247130,9178.553681
535.795311,0.000000,-1184.329507,9474.636058
535.795626,0.000000,-962.267725,9178.553681
535.795942,0.000000,-962.267725,9400.615463
535.796258,0.000000,-888.247130,9474.636058
535.796573,383.047749,-814.226536,9474.636058
535.796889,-306.438199,-888.247130,9326.594869
535.797205,229.828649,-518.144159,9400.615463
535.797520,842.705048,-444.123565,8956.491898
535.797836,766.095498,-222.061783,8808.450710
535.798152,1072.533697,-222.061783,8734.430116
535.798467,1378.971896,-444.123565,8586.388927
535.798783,1378.971896,-444.123565,8438.347739
535.799099,1455.581446,-444.123565,8734.430116
535.799414,1532.190996,-518.144159,8734.430116
535.799730,1149.143247,-666.185348,9030.512492
535.800046,1378.971896,-740.205942,8956.491898
535.800362,995.924147,-444.123565,9548.656652
535.800677,919.314598,-0.000000,9474.636058
535.800993,842.705048,-148.041188,9474.636058
535.801309,995.924147,-0.000000,9474.636058
535.801624,995.924147,-0.000000,9252.574275
535.801940,1225.752797,-0.000000,9400.615463
535.802256,1302.362347,222.061783,9178.553681
535.802571,1532.190996,-0.000000,9104.533087
535.802887,1455.581446,222.061783,9104.533087
535.803203,1532.190996,148.041188,9104.533087
535.803518,1685.410096,370.102971,9474.636058
535.803834,1685.410096,-0.000000,9622.677246
535.804150,1072.533697,-0.000000,9622.677246
535.804465,1149.143247,-0.000000,9696.697840
535.804781,1302.362347,222.061783,9918.759623
535.805097,919.314598,296.082377,9992.780217
535.805412,995.924147,296.082377,9844.739029
535.805728,459.657299,518.144159,10066.800811
535.806044,612.876398,666.185348,9992.780217
535.806360,995.924147,592.164754,9622.677246
535.806675,766.095498,1036.288319,9474.636058
535.806991,459.657299,740.205942,9400.615463
535.807307,842.705048,370.102971,9474.636058
535.807622,383.047749,148.041188,9474.636058
535.807938,0.000000,-0.000000,9622.677246
535.808254,-306.438199,-148.041188,9844.739029
535.808569,-536.266849,-444.123565,10066.800811
535.808885,-842.705048,-666.185348,10362.883188
535.809201,-1072.533697,-370.102971,10658.965565
535.809516,-1225.752797,-444.123565,10362.883188
535.809832,-1378.971896,-222.061783,10510.924376
535.810148,-1532.190996,-222.061783,10288.862594
535.810463,-536.266849,-592.164754,10140.821405
535.810779,-842.705048,-148.041188,9622.677246
535.811095,-689.485948,-0.000000,9400.615463
535.811410,-306.438199,-0.000000,9252.574275
535.811726,0.000000,-444.123565,9326.594869
535.812042,0.000000,-148.041188,9252.574275
535.812357,153.219100,-222.061783,9474.636058
535.812673,153.219100,-444.123565,9326.594869
535.812989,0.000000,-666.185348,9252.574275
535.813305,0.000000,-444.123565,9474.636058
535.813620,0.000000,-814.226536,9548.656652
535.813936,76.609550,-666.185348,9548.656652
535.814252,153.219100,-740.205942,9474.636058
535.814567,306.438199,-592.164754,9474.636058
535.814883,-76.609550,-814.226536,9474.636058
535.815199,459.657299,-592.164754,9104.533087
535.815514,919.314598,-296.082377,9104.533087
535.815830,1149.143247,-370.102971,8586.388927
535.816146,1762.019645,-370.102971,8660.409521
535.816461,1685.410096,-296.082377,8660.409521
535.816777,1532.190996,-370.102971,8660.409521
535.817093,1838.629195,-518.144159,8734.430116
535.817408,1378.971896,-592.164754,8956.491898
535.817724,1608.800546,-1110.308913,9400.615463
535.818040,1072.533697,-296.082377,9400.615463
535.818355,919.314598,-444.123565,9548.656652
535.818671,766.095498,-222.061783,9474.636058
535.818987,1072.533697,-0.000000,9474.636058
535.819302,1302.362347,-74.020594,9400.615463
535.819618,689.485948,74.020594,9400.615463
535.819934,995.924147,-0.000000,9622.677246
535.820250,1455.581446,-0.000000,9178.553681
535.820565,1072.533697,148.041188,9252.574275
535.820881,1302.362347,-0.000000,9400.615463
535.821197,995.924147,-0.000000,9252.574275
535.821512,1302.362347,-0.000000,9548.656652
535.821828,1302.362347,-0.000000,9548.656652
535.822144,1149.143247,-222.061783,9770.718434
535.822459,1302.362347,-222.061783,9622.677246
535.822775,919.314598,74.020594,9622.677246
535.823091,995.924147,74.020594,9696.697840
535.823406,842.705048,296.082377,9622.677246
535.823722,766.095498,444.123565,9770.718434
535.824038,842.705048,444.123565,9770.718434
535.824353,459.657299,444.123565,9474.636058
535.824669,306.438199,370.102971,9400.615463
535.824985,153.219100,222.061783,9326.594869
535.825301,0.000000,-0.000000,9474.636058
535.825616,-306.438199,-370.102971,9844.739029
535.825932,0.000000,-518.144159,9770.718434
535.826248,-919.314598,-296.082377,10362.883188
535.826564,-1225.752797,-962.267725,10288.862594
535.826879,-1455.581446,-740.205942,10436.903782
535.827195,-1608.800546,-814.226536,10288.862594
535.827511,-1532.190996,-444.123565,10436.903782
535.827826,-1378.971896,-518.144159,10140.821405
535.828142,-1378.971896,-370.102971,10066.800811
535.828458,-1149.143247,-444.123565,9622.677246
535.828774,-919.314598,-444.123565,9622.677246
535.829089,-153.219100,-148.041188,9252.574275
535.829405,0.000000,-222.061783,9326.594869
535.829721,0.000000,-444.123565,9252.574275
535.830036,0.000000,-592.164754,9326.594869
535.830352,-383.047749,-518.144159,9622.677246
535.830668,76.609550,-962.267725,9326.594869
535.830984,0.000000,-888.247130,9548.656652
535.831299,0.000000,-888.247130,9474.636058
535.831615,0.000000,-888.247130,9770.718434
535.831931,689.485948,-740.205942,9030.512492
535.832246,76.609550,-592.164754,9252.574275
535.832562,229.828649,-518.144159,9400.615463
535.832878,536.266849,-370.102971,9104.533087
535.833194,995.924147,-222.061783,8956.491898
535.833509,1149.143247,-222.061783,8734.430116
535.833825,1532.190996,-222.061783,8512.368333
535.834141,1532.190996,-0.000000,8734.430116
535.834456,1915.238745,-370.102971,8882.471304
535.834772,1608.800546,-296.082377,8660.409521
535.835088,1532.190996,-518.144159,9178.553681
535.835404,1378.971896,-518.144159,9400.615463
535.835719,1149.143247,-74.020594,9326.594869
535.836035,842.705048,-0.000000,9474.636058
535.836351,995.924147,-0.000000,9474.636058
535.836666,995.924147,-0.000000,9030.512492
535.836982,919.314598,-0.000000,9326.594869
535.837298,995.924147,148.041188,9252.574275
535.837614,1072.533697,-0.000000,9252.574275
535.837929,1302.362347,296.082377,9178.553681
535.838245,1072.533697,-0.000000,9178.553681
535.838561,1378.971896,-0.000000,9252.574275
535.838877,1455.581446,-0.000000,9474.636058
535.839192,1302.362347,-0.000000,9400.615463
535.839508,1149.143247,-148.041188,9622.677246
535.839824,1072.533697,-0.000000,9696.697840
535.840139,842.705048,370.102971,9622.677246
535.840455,1072.533697,-0.000000,9696.697840
535.840771,1072.533697,444.123565,9770.718434
535.841087,995.924147,222.061783,9844.739029
535.841402,1072.533697,444.123565,9622.677246
535.841718,689.485948,518.144159,9770.718434
535.842034,689.485948,592.164754,9548.656652
535.842349,536.266849,518.144159,9474.636058
535.842665,1072.533697,518.144159,9400.615463
535.842981,229.828649,-0.000000,9474.636058
535.843297,0.000000,-592.164754,9696.697840
535.843612,-459.657299,-444.123565,9770.718434
535.843928,-612.876398,-666.185348,10140.821405
535.844244,-1225.752797,-1036.288319,10214.842000
535.844559,-1149.143247,-666.185348,10436.903782
535.844875,-1608.800546,-592.164754,10510.924376
535.845191,-1685.410096,-370.102971,10510.924376
535.845507,-1455.581446,-518.144159,10362.883188
535.845822,-1378.971896,-370.102971,10288.862594
535.846138,-842.705048,-296.082377,9548.656652
535.846454,-459.657299,-296.082377,9326.594869
535.846769,-383.047749,-518.144159,9326.594869
535.847085,153.219100,-444.123565,9030.512492
535.847401,306.438199,-740.205942,8956.491898
535.847717,306.438199,-740.205942,9030.512492
535.848032,0.000000,-888.247130,9326.594869
535.848348,153.219100,-814.226536,9252.574275
535.848664,153.219100,-814.226536,9548.656652
535.848979,153.219100,-962.267725,9696.697840
535.849295,229.828649,-740.205942,9548.656652
535.849611,0.000000,-592.164754,9548.656652
535.849927,306.438199,-740.205942,9474.636058
535.850242,306.438199,-666.185348,9326.594869
535.850558,1225.752797,-370.102971,9474.636058
535.850874,842.705048,-518.144159,8734.430116
535.851190,1072.533697,-370.102971,8882.471304
535.851505,1302.362347,-296.082377,8586.388927
535.851821,1762.019645,-444.123565,8586.388927
535.852137,1762.019645,-444.123565,8586.388927
535.852452,1685.410096,-370.102971,8956.491898
535.852768,1455.581446,-518.144159,8808.450710
535.853084,1225.752797,-444.123565,9178.553681
535.853400,919.314598,-222.061783,9474.636058
535.853715,1072.533697,-0.000000,9548.656652
535.854031,1072.533697,444.123565,9622.677246
535.854347,919.314598,222.061783,9326.594869
535.854662,842.705048,296.082377,9326.594869
535.854978,1149.143247,222.061783,9622.677246
535.855294,1302.362347,148.041188,9326.594869
535.855610,1302.362347,222.061783,9326.594869
535.855925,1225.752797,222.061783,9252.574275
535.856241,1378.971896,444.123565,9178.553681
535.856557,1225.752797,148.041188,9474.636058
535.856872,1455.581446,148.041188,9622.677246
535.857188,1225.752797,-0.000000,9474.636058
535.857504,1072.533697,-0.000000,9696.697840
535.857820,1149.143247,296.082377,9844.739029
535.858135,766.095498,222.061783,9918.759623
535.858451,766.095498,666.185348,9992.780217
535.858767,766.095498,666.185348,9918.759623
535.859082,612.876398,740.205942,9918.759623
535.859398,383.047749,518.144159,9992.780217
535.859714,919.314598,592.164754,9548.656652
535.860030,536.266849,814.226536,9548.656652
535.860345,229.828649,370.102971,9400.615463
535.860661,383.047749,370.102971,9696.697840
535.860977,0.000000,-0.000000,9622.677246
535.861292,0.000000,-222.061783,9918.759623
535.861608,-459.657299,-370.102971,10140.821405
535.861924,-842.705048,-518.144159,10436.903782
535.862240,-1225.752797,-666.185348,10510.924376
535.862555,-1378.971896,-666.185348,10955.047942
535.862871,-1915.238745,-518.144159,10214.842000
535.863187,-1608.800546,-148.041188,10584.944971
535.863503,-1302.362347,-370.102971,10140.821405
535.863818,-1072.533697,-370.102971,9844.739029
535.864134,-995.924147,-444.123565,9474.636058
535.864450,-612.876398,-518.144159,9474.636058
535.864765,-229.828649,-518.144159,9178.553681
535.865081,0.000000,-740.205942,9252.574275
535.865397,0.000000,-888.247130,9400.615463
535.865713,229.828649,-814.226536,9474.636058
535.866028,76.609550,-814.226536,9400.615463
535.866344,0.000000,-888.247130,9400.615463
535.866660,76.609550,-888.247130,9400.615463
535.866975,153.219100,-888.247130,9400.615463
535.867291,306.438199,-962.267725,9326.594869
535.867607,383.047749,-592.164754,9326.594869
535.867923,459.657299,-518.144159,9252.574275
535.868238,689.485948,-592.164754,9178.553681
535.868554,689.485948,-666.185348,9030.512492
535.868870,919.314598,-444.123565,8660.409521
535.869185,919.314598,-592.164754,8512.368333
535.869501,1149.143247,-666.185348,8438.347739
535.869817,1378.971896,-592.164754,8512.368333
535.870133,1532.190996,-740.205942,8734.430116
535.870448,1378.971896,-814.226536,8882.471304
535.870764,995.924147,-666.185348,9178.553681
535.871080,842.705048,-518.144159,9326.594869
535.871395,1149.143247,-148.041188,9400.615463
535.871711,689.485948,-74.020594,9474.636058
535.872027,766.095498,-74.020594,9252.574275
535.872343,689.485948,222.061783,9252.574275
535.872658,1072.533697,222.061783,9178.553681
535.872974,1072.533697,-0.000000,8956.491898
535.873290,1225.752797,222.061783,9030.512492
535.873606,1225.752797,148.041188,9178.553681
535.873921,1302.362347,222.061783,9400.615463
535.874237,1302.362347,-0.000000,9326.594869
535.874553,1149.143247,74.020594,9474.636058
535.874868,1149.143247,-0.000000,9474.636058
535.875184,1225.752797,148.041188,9770.718434
535.875500,1302.362347,222.061783,9844.739029
535.875816,995.924147,222.061783,9770.718434
535.876131,1149.143247,444.123565,10066.800811
535.876447,995.924147,592.164754,10214.842000
535.876763,536.266849,518.144159,9770.718434
535.877078,536.266849,518.144159,9696.697840
535.877394,536.266849,666.185348,9696.697840
535.877710,459.657299,814.226536,9622.677246
535.878026,459.657299,444.123565,9474.636058
535.878341,383.047749,370.102971,9548.656652
535.878657,0.000000,222.061783,9918.759623
535.878973,-229.828649,-222.061783,9992.780217
535.879288,-383.047749,-148.041188,10214.842000
535.879604,-919.314598,-444.123565,10510.924376
535.879920,-1072.533697,-370.102971,10510.924376
535.880236,-1302.362347,-222.061783,10584.944971
535.880551,-1225.752797,-222.061783,10436.903782
535.880867,-1532.190996,-74.020594,10584.944971
535.881183,-1302.362347,-148.041188,10214.842000
535.881498,-689.485948,-0.000000,9918.759623
535.881814,-383.047749,-0.000000,9474.636058
535.882130,-229.828649,-148.041188,9400.615463
535.882446,0.000000,-148.041188,8956.491898
535.882761,0.000000,-370.102971,9474.636058
535.883077,153.219100,-444.123565,9400.615463
535.883393,229.828649,-666.185348,9400.615463
535.883708,612.876398,-740.205942,9622.677246
535.884024,76.609550,-740.205942,9696.697840
535.884340,0.000000,-666.185348,9622.677246
535.884656,76.609550,-740.205942,9474.636058
535.884971,153.219100,-740.205942,9548.656652
535.885287,689.485948,-962.267725,9400.615463
535.885603,612.876398,-592.164754,9400.615463
535.885919,383.047749,-222.061783,9178.553681
535.886234,919.314598,-296.082377,8882.471304
535.886550,1225.752797,-296.082377,8808.450710
535.886866,1685.410096,-444.123565,8808.450710
535.887181,1378.971896,-370.102971,8660.409521
535.887497,1762.019645,-370.102971,8512.368333
535.887813,1608.800546,-666.185348,8734.430116
535.888129,1762.019645,-370.102971,9030.512492
535.888444,1991.848295,-740.205942,9104.533087
535.888760,842.705048,-222.061783,9104.533087
535.889076,1072.533697,-370.102971,9178.553681
535.889391,995.924147,-370.102971,9252.574275
535.889707,766.095498,-74.020594,9326.594869
535.890023,612.876398,-74.020594,9326.594869
535.890339,842.705048,-0.000000,9400.615463
535.890654,995.924147,-74.020594,9252.574275
535.890970,1378.971896,-0.000000,8956.491898
535.891286,1455.581446,-74.020594,9104.533087
535.891601,1532.190996,-0.000000,9104.533087
535.891917,1378.971896,-0.000000,9030.512492
535.892233,1455.581446,-0.000000,9178.553681
535.892549,1149.143247,-74.020594,9474.636058
535.892864,1608.800546,-0.000000,9770.718434
535.893180,995.924147,148.041188,9622.677246
535.893496,919.314598,296.082377,9770.718434
535.893811,766.095498,222.061783,9844.739029
535.894127,766.095498,666.185348,9918.759623
535.894443,306.438199,518.144159,9622.677246
535.894759,459.657299,518.144159,9548.656652
535.895074,153.219100,962.267725,9696.697840
535.895390,306.438199,518.144159,9326.594869
535.895706,229.828649,296.082377,9474.636058
535.896021,536.266849,-148.041188,9474.636058
535.896337,0.000000,-148.041188,9622.677246
535.896653,-383.047749,-444.123565,10066.800811
535.896969,-689.485948,-592.164754,10214.842000
535.897284,-1302.362347,-814.226536,10584.944971
535.897600,-1072.533697,-666.185348,10807.006753
535.897916,-1608.800546,-296.082377,10658.965565
535.898232,-1378.971896,-148.041188,10288.862594
535.898547,-1378.971896,-296.082377,10362.883188
535.898863,-1302.362347,-74.020594,10066.800811
535.899179,-919.314598,-148.041188,9992.780217
535.899494,-689.485948,-296.082377,9474.636058
535.899810,-383.047749,-444.123565,9252.574275
535.900126,76.609550,-444.123565,9400.615463
535.900442,76.609550,-592.164754,9696.697840
535.900757,0.000000,-592.164754,9178.553681
535.901073,153.219100,-370.102971,9474.636058
535.901389,153.219100,-666.185348,9326.594869
535.901704,153.219100,-740.205942,9474.636058
535.902020,459.657299,-666.185348,9696.697840
535.902336,229.828649,-888.247130,9548.656652
535.902652,383.047749,-666.185348,9474.636058
535.902967,306.438199,-444.123565,9400.615463
535.903283,536.266849,-370.102971,9400.615463
535.903599,919.314598,-296.082377,9326.594869
535.903914,766.095498,-296.082377,8808.450710
535.904230,1149.143247,-370.102971,8512.368333
535.904546,1455.581446,-222.061783,8808.450710
535.904862,1532.190996,-518.144159,8438.347739
535.905177,1685.410096,-370.102971,8290.306550
535.905493,1762.019645,-370.102971,8734.430116
535.905809,1455.581446,-444.123565,8808.450710
535.906124,1225.752797,-370.102971,9252.574275
535.906440,1302.362347,-370.102971,9474.636058
535.906756,766.095498,-444.123565,9400.615463
535.907072,766.095498,-222.061783,9326.594869
535.907387,995.924147,-74.020594,9326.594869
535.907703,1149.143247,-0.000000,9178.553681
535.908019,766.095498,-0.000000,9474.636058
535.908334,1302.362347,148.041188,9178.553681
535.908650,1225.752797,-74.020594,8882.471304
535.908966,1378.971896,-0.000000,9030.512492
535.909282,1532.190996,-0.000000,8956.491898
535.909597,1455.581446,222.061783,9104.533087
535.909913,1302.362347,-0.000000,9474.636058
535.910229,1072.533697,-0.000000,9474.636058
535.910545,995.924147,-0.000000,9696.697840
535.910860,919.314598,296.082377,9992.780217
535.911176,919.314598,-0.000000,9770.718434
535.911492,536.266849,148.041188,9622.677246
535.911807,459.657299,518.144159,9696.697840
535.912123,612.876398,296.082377,9622.677246
535.912439,-383.047749,592.164754,9696.697840
535.912755,459.657299,592.164754,9178.553681
535.913070,459.657299,518.144159,9400.615463
535.913386,153.219100,148.041188,9326.594869
535.913702,383.047749,-0.000000,9622.677246
535.914017,0.000000,-296.082377,9696.697840
535.914333,-536.266849,-296.082377,9992.780217
535.914649,-612.876398,-814.226536,9918.759623
535.914965,-1149.143247,-740.205942,10732.986159
535.915280,-1455.581446,-592.164754,10658.965565
535.915596,-1608.800546,-962.267725,10658.965565
535.915912,-1455.581446,-296.082377,10362.883188
535.916227,-1378.971896,-296.082377,10362.883188
535.916543,-1302.362347,-222.061783,9992.780217
535.916859,-689.485948,-222.061783,9622.677246
535.917175,-766.095498,-740.205942,9326.594869
535.917490,-383.047749,-518.144159,9400.615463
535.917806,-229.828649,-444.123565,9326.594869
535.918122,0.000000,-370.102971,9474.636058
535.918437,76.609550,-370.102971,9474.636058
535.918753,0.000000,-1110.308913,9474.636058
535.919069,229.828649,-592.164754,9696.697840
535.919385,0.000000,-962.267725,9548.656652
535.919700,0.000000,-740.205942,9696.697840
535.920016,153.219100,-740.205942,9696.697840
535.920332,459.657299,-666.185348,9696.697840
535.920648,229.828649,-666.185348,9474.636058
535.920963,459.657299,-518.144159,9326.594869
535.921279,842.705048,-222.061783,9252.574275
535.921595,1302.362347,-148.041188,9030.512492
535.921910,1302.362347,-296.082377,8808.450710
535.922226,1685.410096,-296.082377,8586.388927
535.922542,1838.629195,-296.082377,8364.327145
535.922858,1838.629195,-296.082377,8586.388927
535.923173,1378.971896,-370.102971,9104.533087
535.923489,1685.410096,-518.144159,9030.512492
535.923805,1455.581446,-148.041188,9030.512492
535.924120,1455.581446,-148.041188,9326.594869
535.924436,1149.143247,-222.061783,9474.636058
535.924752,1225.752797,-74.020594,9474.636058
535.925068,1072.533697,-222.061783,9474.636058
535.925383,995.924147,148.041188,9104.533087
535.925699,919.314598,148.041188,9104.533087
535.926015,1378.971896,74.020594,9252.574275
535.926330,1378.971896,-0.000000,9030.512492
535.926646,1762.019645,222.061783,9474.636058
535.926962,1608.800546,296.082377,9030.512492
535.927278,1302.362347,-0.000000,9178.553681
535.927593,1455.581446,-0.000000,9326.594869
535.927909,1225.752797,148.041188,9400.615463
535.928225,842.705048,148.041188,9474.636058
535.928541,766.095498,-0.000000,9696.697840
535.928856,919.314598,222.061783,9474.636058
535.929172,689.485948,370.102971,9696.697840
535.929488,536.266849,296.082377,9844.739029
535.929803,689.485948,518.144159,9918.759623
535.930119,536.266849,740.205942,9844.739029
535.930435,153.219100,370.102971,9474.636058
535.930751,76.609550,518.144159,9326.594869
535.931066,-153.219100,148.041188,9474.636058
535.931382,0.000000,-0.000000,9474.636058
535.931698,-229.828649,-148.041188,9548.656652
535.932014,-536.266849,-370.102971,9918.759623
535.932329,-612.876398,-370.102971,9992.780217
535.932645,-995.924147,-592.164754,10436.903782
535.932961,-1378.971896,-518.144159,10658.965565
535.933276,-1838.629195,-296.082377,10732.986159
535.933592,-1455.581446,-222.061783,10362.883188
535.933908,-1455.581446,-148.041188,10214.842000
535.934224,-2068.457845,-74.020594,9696.697840
535.934539,-1302.362347,-74.020594,9918.759623
535.934855,-766.095498,-370.102971,9474.636058
535.935171,-459.657299,-296.082377,9474.636058
535.935486,-229.828649,-296.082377,9548.656652
535.935802,-153.219100,-370.102971,9474.636058
535.936118,229.828649,-444.123565,9474.636058
535.936434,459.657299,-518.144159,9474.636058
535.936749,229.828649,-666.185348,9400.615463
535.937065,153.219100,-740.205942,9400.615463
535.937381,459.657299,-740.205942,9548.656652
535.937697,383.047749,-666.185348,9622.677246
535.938012,383.047749,-740.205942,9548.656652
535.938328,459.657299,-296.082377,9400.615463
535.938644,689.485948,-444.123565,9326.594869
535.938959,919.314598,-814.226536,9178.553681
535.939275,1149.143247,-148.041188,9030.512492
535.939591,1225.752797,-370.102971,8586.388927
535.939907,1608.800546,-444.123565,8586.388927
535.940222,1608.800546,-518.144159,8586.388927
535.940538,1762.019645,-740.205942,8586.388927
535.940854,1532.190996,-444.123565,9030.512492
535.941170,1532.190996,-518.144159,8956.491898
535.941485,1378.971896,-518.144159,9252.574275
535.941801,919.314598,-74.020594,9474.636058
535.942117,1685.410096,-74.020594,9474.636058
535.942432,919.314598,-296.082377,9326.594869
535.942748,766.095498,-222.061783,9252.574275
535.943064,1072.533697,-0.000000,9252.574275
535.943380,1149.143247,-0.000000,9104.533087
535.943695,1072.533697,148.041188,9030.512492
535.944011,1378.971896,-0.000000,9030.512492
535.944327,1378.971896,148.041188,9178.553681
535.944642,1455.581446,-0.000000,9178.553681
535.944958,1455.581446,-0.000000,8882.471304
535.945274,1302.362347,-148.041188,9104.533087
535.945590,1225.752797,-0.000000,9474.636058
535.945905,1072.533697,-74.020594,9474.636058
535.946221,842.705048,-0.000000,9696.697840
535.946537,1532.190996,-296.082377,9474.636058
535.946853,766.095498,296.082377,9696.697840
535.947168,536.266849,370.102971,9622.677246
535.947484,766.095498,518.144159,9770.718434
535.947800,459.657299,592.164754,9696.697840
535.948115,766.095498,370.102971,9622.677246
535.948431,229.828649,444.123565,9548.656652
535.948747,153.219100,222.061783,9474.636058
535.949063,153.219100,222.061783,9474.636058
535.949378,0.000000,-148.041188,9770.718434
535.949694,-306.438199,-740.205942,9918.759623
535.950010,-689.485948,-592.164754,10214.842000
535.950326,-1225.752797,-740.205942,10288.862594
535.950641,-1302.362347,-592.164754,10510.924376
535.950957,-1762.019645,-592.164754,10584.944971
535.951273,-1455.581446,-296.082377,10140.821405
535.951588,-1302.362347,-222.061783,9992.780217
535.951904,-1378.971896,-222.061783,9844.739029
535.952220,-1149.143247,-296.082377,9844.739029
535.952536,-842.705048,-222.061783,9400.615463
535.952851,-612.876398,-518.144159,9326.594869
535.953167,-153.219100,-444.123565,9474.636058
535.953483,-153.219100,-740.205942,9326.594869
535.953798,-153.219100,-518.144159,9474.636058
535.954114,0.000000,-740.205942,9918.759623
535.954430,153.219100,-740.205942,9474.636058
535.954746,0.000000,-740.205942,9474.636058
535.955061,0.000000,-888.247130,9548.656652
535.955377,0.000000,-666.185348,9622.677246
535.955693,306.438199,-666.185348,9548.656652
535.956009,76.609550,-592.164754,9474.636058
535.956324,306.438199,-444.123565,9252.574275
535.956640,459.657299,-296.082377,8956.491898
535.956956,919.314598,-370.102971,8734.430116
535.957271,995.924147,-518.144159,8586.388927
535.957587,1685.410096,-296.082377,8512.368333
535.957903,1532.190996,-222.061783,8660.409521
535.958219,1608.800546,-370.102971,8586.388927
535.958534,1455.581446,-370.102971,8660.409521
535.958850,1762.019645,-444.123565,8956.491898
535.959166,1378.971896,-296.082377,9178.553681
535.959482,1302.362347,-74.020594,9400.615463
535.959797,1072.533697,-74.020594,9178.553681
535.960113,1072.533697,-74.020594,9548.656652
535.960429,1072.533697,148.041188,9178.553681
535.960744,1455.581446,296.082377,9178.553681
535.961060,1072.533697,222.061783,9030.512492
535.961376,1378.971896,296.082377,9326.594869
535.961692,1225.752797,444.123565,9030.512492
535.962007,1685.410096,222.061783,9030.512492
535.962323,1762.019645,296.082377,9104.533087
535.962639,1685.410096,222.061783,9252.574275
535.962954,1455.581446,-0.000000,9400.615463
535.963270,1302.362347,-148.041188,9548.656652
535.963586,1225.752797,-0.000000,9992.780217
535.963902,919.314598,222.061783,9844.739029
535.964217,1149.143247,296.082377,9844.739029
535.964533,842.705048,-0.000000,9918.759623
535.964849,766.095498,518.144159,10066.800811
535.965165,612.876398,518.144159,9992.780217
535.965480,612.876398,592.164754,9696.697840
535.965796,383.047749,666.185348,9696.697840
535.966112,229.828649,444.123565,9696.697840
535.966427,229.828649,518.144159,9474.636058
535.966743,153.219100,-0.000000,9622.677246
535.967059,0.000000,-0.000000,9622.677246
535.967375,-383.047749,-296.082377,9622.677246
535.967690,-459.657299,-666.185348,10362.883188
535.968006,-1225.752797,-592.164754,10214.842000
535.968322,-1378.971896,-592.164754,10658.965565
535.968638,-1608.800546,-518.144159,10436.903782
535.968953,-1915.238745,-518.144159,10510.924376
535.969269,-1532.190996,-740.205942,10362.883188
535.969585,-1608.800546,-444.123565,9918.759623
535.969900,-1072.533697,-296.082377,9770.718434
535.970216,-995.924147,-222.061783,9622.677246
535.970532,-383.047749,-666.185348,9104.533087
535.970848,0.000000,-518.144159,9252.574275
535.971163,-229.828649,-740.205942,9400.615463
535.971479,-153.219100,-962.267725,9178.553681
535.971795,0.000000,-814.226536,9252.574275
535.972111,153.219100,-814.226536,9252.574275
535.972426,153.219100,-888.247130,9474.636058
535.972742,229.828649,-666.185348,9400.615463
535.973058,153.219100,-740.205942,9400.615463
535.973373,383.047749,-518.144159,9474.636058
535.973689,76.609550,-592.164754,9178.553681
535.974005,612.876398,-518.144159,8956.491898
535.974321,536.266849,-370.102971,9030.512492
535.974636,995.924147,-148.041188,8882.471304
535.974952,1072.533697,-370.102971,8364.327145
535.975268,1608.800546,-370.102971,8586.388927
535.975583,1532.190996,-518.144159,8512.368333
535.975899,1378.971896,-444.123565,8660.409521
535.976215,1302.362347,-370.102971,8808.450710
535.976531,1378.971896,-444.123565,8882.471304
535.976846,1455.581446,-592.164754,9178.553681
535.977162,919.314598,-370.102971,9252.574275
535.977478,842.705048,-0.000000,9474.636058
535.977794,919.314598,-222.061783,9474.636058
535.978109,842.705048,-0.000000,9474.636058
535.978425,1225.752797,-444.123565,9326.594869
535.978741,1302.362347,-0.000000,9326.594869
535.979056,1302.362347,222.061783,9252.574275
535.979372,1378.971896,296.082377,9104.533087
535.979688,1608.800546,-0.000000,9030.512492
535.980004,1838.629195,148.041188,9178.553681
535.980319,1378.971896,148.041188,9622.677246
535.980635,1378.971896,-0.000000,9474.636058
535.980951,1532.190996,-0.000000,9474.636058
535.981267,1302.362347,-0.000000,9844.739029
535.981582,1072.533697,-74.020594,9918.759623
535.981898,919.314598,370.102971,9992.780217
535.982214,766.095498,296.082377,9992.780217
535.982529,612.876398,370.102971,9992.780217
535.982845,612.876398,518.144159,10066.800811
535.983161,766.095498,-0.000000,9548.656652
535.983477,383.047749,444.123565,9696.697840
535.983792,383.047749,740.205942,9400.615463
535.984108,459.657299,592.164754,9474.636058
535.984424,536.266849,148.041188,9548.656652
535.984739,-383.047749,-444.123565,9770.718434
535.985055,0.000000,-296.082377,9844.739029
535.985371,-459.657299,-296.082377,10140.821405
535.985687,-919.314598,-518.144159,10362.883188
535.986002,-1302.362347,-518.144159,10510.924376
535.986318,-1149.143247,-518.144159,10214.842000
535.986634,-1532.190996,-370.102971,10214.842000
535.986950,-1302.362347,-296.082377,10214.842000
535.987265,-1149.143247,-74.020594,9918.759623
535.987581,-919.314598,-0.000000,9548.656652
535.987897,-766.095498,-444.123565,9400.615463
535.988212,-383.047749,-74.020594,9474.636058
535.988528,-306.438199,-518.144159,9326.594869
535.988844,0.000000,-666.185348,9326.594869
535.989160,0.000000,-1110.308913,9400.615463
535.989475,0.000000,-962.267725,9474.636058
535.989791,0.000000,-592.164754,9474.636058
535.990107,-229.828649,-666.185348,9474.636058
535.990423,0.000000,-592.164754,9474.636058
535.990738,0.000000,-814.226536,9474.636058
535.991054,0.000000,-740.205942,9548.656652
535.991370,229.828649,-592.164754,9252.574275
535.991685,536.266849,-518.144159,9252.574275
535.992001,536.266849,-370.102971,9030.512492
535.992317,842.705048,-296.082377,8882.471304
535.992633,995.924147,-444.123565,8660.409521
535.992948,1225.752797,-666.185348,8586.388927
535.993264,1378.971896,-444.123565,8660.409521
535.993580,1532.190996,-518.144159,8734.430116
535.993895,1838.629195,-444.123565,8956.491898
535.994211,1455.581446,-814.226536,8882.471304
535.994527,1302.362347,-444.123565,9252.574275
535.994843,842.705048,-444.123565,9326.594869
535.995158,919.314598,-222.061783,9326.594869
535.995474,919.314598,-222.061783,9548.656652
535.995790,1225.752797,-0.000000,9178.553681
535.996106,1072.533697,-0.000000,9474.636058
535.996421,1225.752797,148.041188,9326.594869
535.996737,1302.362347,222.061783,9178.553681
535.997053,1608.800546,-0.000000,8882.471304
535.997368,1532.190996,296.082377,9178.553681
535.997684,1762.019645,296.082377,9178.553681
535.998000,1302.362347,-0.000000,9326.594869
535.998316,1608.800546,-0.000000,9474.636058
535.998631,1608.800546,296.082377,9992.780217
535.998947,1378.971896,-0.000000,9622.677246
535.999263,995.924147,-0.000000,9696.697840
535.999579,1149.143247,370.102971,9844.739029
535.999894,1149.143247,296.082377,9844.739029
536.000210,689.485948,444.123565,9918.759623
536.000526,612.876398,370.102971,9696.697840
536.000841,689.485948,518.144159,9622.677246
536.001157,459.657299,518.144159,9548.656652
536.001473,306.438199,666.185348,9622.677246
536.001789,766.095498,222.061783,9326.594869
536.002104,383.047749,-0.000000,9474.636058
536.002420,0.000000,-148.041188,9696.697840
536.002736,-229.828649,-296.082377,9844.739029
536.003051,-459.657299,-592.164754,10214.842000
536.003367,-919.314598,-666.185348,10288.862594
536.003683,-1302.362347,-370.102971,10362.883188
536.003999,-1455.581446,-518.144159,10436.903782
536.004314,-1532.190996,-370.102971,10288.862594
536.004630,-1608.800546,-518.144159,10214.842000
536.004946,-1608.800546,-296.082377,9992.780217
536.005262,-766.095498,-148.041188,9696.697840
536.005577,-612.876398,-74.020594,9474.636058
536.005893,-153.219100,-518.144159,9474.636058
536.006209,-306.438199,-592.164754,9474.636058
536.006524,0.000000,-592.164754,9178.553681
536.006840,-153.219100,-592.164754,9474.636058
536.007156,153.219100,-740.205942,9474.636058
536.007472,229.828649,-740.205942,9474.636058
536.007787,153.219100,-518.144159,9474.636058
536.008103,0.000000,-518.144159,9400.615463
536.008419,76.609550,-296.082377,9474.636058
536.008735,383.047749,-222.061783,9474.636058
536.009050,459.657299,-296.082377,9326.594869
536.009366,383.047749,-222.061783,9104.533087
536.009682,689.485948,-222.061783,9252.574275
536.009997,766.095498,-74.020594,8956.491898
536.010313,1149.143247,-518.144159,8512.368333
536.010629,1608.800546,-296.082377,8438.347739
536.010945,1608.800546,-222.061783,8734.430116
536.011260,1455.581446,-370.102971,8734.430116
536.011576,1608.800546,-592.164754,8808.450710
536.011892,1072.533697,-518.144159,9104.533087
536.012208,1302.362347,-296.082377,9474.636058
536.012523,995.924147,-148.041188,9474.636058
536.012839,612.876398,-0.000000,9474.636058
536.013155,766.095498,-148.041188,9400.615463
536.013470,689.485948,222.061783,9252.574275
536.013786,919.314598,296.082377,9252.574275
536.014102,1072.533697,-0.000000,9252.574275
536.014418,1225.752797,148.041188,9178.553681
536.014733,1455.581446,-0.000000,9178.553681
536.015049,1608.800546,-0.000000,8956.491898
536.015365,1225.752797,-296.082377,9104.533087
536.015680,1608.800546,148.041188,9400.615463
536.015996,1378.971896,-0.000000,9400.615463
536.016312,995.924147,-0.000000,9696.697840
536.016628,842.705048,-0.000000,10214.842000
536.016943,919.314598,-0.000000,9918.759623
536.017259,842.705048,-0.000000,9696.697840
536.017575,612.876398,-0.000000,9844.739029
536.017891,383.047749,222.061783,9844.739029
536.018206,76.609550,-0.000000,9696.697840
536.018522,919.314598,296.082377,9548.656652
536.018838,459.657299,222.061783,9474.636058
536.019153,306.438199,370.102971,9548.656652
536.019469,383.047749,-0.000000,9474.636058
536.019785,0.000000,-148.041188,9622.677246
536.020101,0.000000,-0.000000,9622.677246
536.020416,-306.438199,-444.123565,9696.697840
536.020732,-383.047749,-666.185348,10066.800811
536.021048,-612.876398,-888.247130,10436.903782
536.021364,-842.705048,-1184.329507,10288.862594
536.021679,-1378.971896,-444.123565,10510.924376
536.021995,-1455.581446,-666.185348,10362.883188
536.022311,-1378.971896,-518.144159,10140.821405
536.022626,-1455.581446,-444.123565,9844.739029
536.022942,-1149.143247,-592.164754,9178.553681
536.023258,-612.876398,-444.123565,9474.636058
536.023573,-306.438199,-296.082377,9400.615463
536.023889,-229.828649,-592.164754,9104.533087
536.024205,383.047749,-666.185348,9030.512492
536.024520,153.219100,-666.185348,9622.677246
536.024836,0.000000,-592.164754,9400.615463
536.025152,153.219100,-740.205942,9252.574275
536.025467,0.000000,-666.185348,9474.636058
536.025783,153.219100,-814.226536,9326.594869
536.026099,383.047749,-666.185348,9474.636058
536.026414,153.219100,-666.185348,9400.615463
536.026730,229.828649,-592.164754,9252.574275
536.027046,1072.533697,-444.123565,9252.574275
536.027361,766.095498,-370.102971,8956.491898
536.027677,1149.143247,-148.041188,9030.512492
536.027993,1225.752797,-222.061783,8586.388927
536.028308,1455.581446,-518.144159,8512.368333
536.028624,1685.410096,-370.102971,8512.368333
536.028940,1608.800546,-444.123565,8586.388927
536.029255,1455.581446,-370.102971,8882.471304
536.029571,1455.581446,-370.102971,8808.450710
536.029887,1302.362347,-444.123565,9252.574275
536.030202,1072.533697,-148.041188,9326.594869
536.030518,1072.533697,-74.020594,9474.636058
536.030834,919.314598,148.041188,9548.656652
536.031149,766.095498,-148.041188,9400.615463
536.031465,689.485948,296.082377,9400.615463
536.031781,995.924147,296.082377,9252.574275
536.032096,1225.752797,222.061783,9104.533087
536.032412,1838.629195,-0.000000,9400.615463
536.032728,1455.581446,370.102971,9178.553681
536.033043,1532.190996,222.061783,9400.615463
536.033359,1455.581446,296.082377,9400.615463
536.033675,1225.752797,222.061783,9474.636058
536.033990,1302.362347,222.061783,9992.780217
536.034306,995.924147,-148.041188,9770.718434
536.034622,1149.143247,296.082377,9844.739029
536.034937,995.924147,444.123565,9844.739029
536.035253,995.924147,444.123565,9992.780217
536.035569,689.485948,444.123565,10140.821405
536.035884,383.047749,518.144159,9918.759623
536.036200,459.657299,444.123565,9696.697840
536.036516,459.657299,666.185348,9622.677246
536.036831,383.047749,518.144159,9622.677246
536.037147,766.095498,222.061783,9474.636058
536.037463,306.438199,148.041188,9770.718434
536.037778,229.828649,-0.000000,9474.636058
536.038094,-229.828649,-148.041188,9696.697840
536.038410,-766.095498,-592.164754,10140.821405
536.038725,-919.314598,-740.205942,10214.842000
536.039041,-1302.362347,-666.185348,10510.924376
536.039357,-1685.410096,-592.164754,10436.903782
536.039672,-1762.019645,-444.123565,10436.903782
536.039988,-1532.190996,-444.123565,10288.862594
536.040304,-1455.581446,-592.164754,10214.842000
536.040619,-1302.362347,-518.144159,9770.718434
536.040935,-995.924147,-370.102971,9770.718434
536.041251,-383.047749,-444.123565,9252.574275
536.041566,-306.438199,-740.205942,9400.615463
536.041882,153.219100,-740.205942,9252.574275
536.042198,0.000000,-518.144159,9400.615463
536.042513,0.000000,-666.185348,9252.574275
536.042829,153.219100,-592.164754,9326.594869
536.043145,229.828649,-814.226536,9400.615463
536.043460,306.438199,-962.267725,9622.677246
536.043776,0.000000,-518.144159,9548.656652
536.044092,383.047749,-592.164754,9252.574275
536.044407,229.828649,-592.164754,9252.574275
536.044723,536.266849,-518.144159,9178.553681
536.045039,612.876398,-370.102971,9030.512492
536.045354,689.485948,-666.185348,8808.450710
536.045670,1072.533697,-444.123565,8586.388927
536.045986,1455.581446,-666.185348,8586.388927
536.046301,1685.410096,-518.144159,8512.368333
536.046617,1455.581446,-740.205942,8660.409521
536.046933,1532.190996,-518.144159,9030.512492
536.047248,1455.581446,-592.164754,9030.512492
536.047564,1072.533697,-592.164754,9178.553681
536.047880,1149.143247,-370.102971,9326.594869
536.048195,995.924147,-148.041188,9474.636058
536.048511,1072.533697,-74.020594,9474.636058
536.048827,1072.533697,-74.020594,9178.553681
536.049142,1072.533697,222.061783,9178.553681
536.049458,1302.362347,-0.000000,9326.594869
536.049774,1915.238745,-0.000000,9104.533087
536.050089,1072.533697,222.061783,9178.553681
536.050405,1532.190996,296.082377,9178.553681
536.050721,1378.971896,148.041188,9178.553681
536.051036,1608.800546,-0.000000,9252.574275
536.051352,995.924147,-0.000000,9622.677246
536.051668,1225.752797,-0.000000,9548.656652
536.051983,919.314598,-0.000000,9696.697840
536.052299,919.314598,148.041188,9770.718434
536.052615,689.485948,518.144159,9844.739029
536.052930,842.705048,296.082377,9844.739029
536.053246,1072.533697,666.185348,9770.718434
536.053562,766.095498,518.144159,9844.739029
536.053877,766.095498,740.205942,9696.697840
536.054193,689.485948,814.226536,9548.656652
536.054509,536.266849,814.226536,9474.636058
536.054824,459.657299,592.164754,9474.636058
536.055140,153.219100,370.102971,9474.636058
536.055456,76.609550,148.041188,9770.718434
536.055772,0.000000,-148.041188,9918.759623
536.056087,-459.657299,-518.144159,10288.862594
536.056403,-766.095498,-592.164754,10436.903782
536.056719,-995.924147,-148.041188,10658.965565
536.057034,-1685.410096,-296.082377,10584.944971
536.057350,-1685.410096,-74.020594,10807.006753
536.057666,-1532.190996,-0.000000,10288.862594
536.057981,-1532.190996,-296.082377,9918.759623
536.058297,-1225.752797,-148.041188,9696.697840
536.058613,-919.314598,-74.020594,9548.656652
536.058928,-459.657299,-296.082377,9104.533087
536.059244,-229.828649,-222.061783,9326.594869
536.059560,0.000000,-296.082377,9326.594869
536.059875,0.000000,-666.185348,9400.615463
536.060191,0.000000,-592.164754,9400.615463
536.060507,76.609550,-888.247130,9400.615463
536.060822,76.609550,-740.205942,9474.636058
536.061138,153.219100,-444.123565,9400.615463
536.061454,0.000000,-666.185348,9548.656652
536.061769,383.047749,-518.144159,9622.677246
536.062085,612.876398,-740.205942,9326.594869
536.062401,766.095498,-370.102971,9104.533087
536.062716,766.095498,-222.061783,8956.491898
536.063032,1072.533697,-370.102971,8956.491898
536.063348,1302.362347,-444.123565,8660.409521
536.063663,1455.581446,-592.164754,8808.450710
536.063979,1532.190996,-592.164754,8512.368333
536.064295,1378.971896,-666.185348,8512.368333
536.064610,1532.190996,-592.164754,8734.430116
536.064926,1608.800546,-1036.288319,9178.553681
536.065242,1685.410096,-518.144159,9326.594869
536.065557,1149.143247,-518.144159,9178.553681
536.065873,919.314598,-444.123565,9548.656652
536.066189,1149.143247,-370.102971,9400.615463
536.066504,1225.752797,-148.041188,9326.594869
536.066820,1225.752797,-0.000000,9104.533087
536.067136,1302.362347,-0.000000,8956.491898
536.067451,1378.971896,222.061783,9030.512492
536.067767,1532.190996,-0.000000,8882.471304
536.068083,1455.581446,222.061783,8956.491898
536.068398,1532.190996,222.061783,8956.491898
536.068714,1378.971896,-0.000000,9474.636058
536.069030,1532.190996,148.041188,9474.636058
536.069345,1225.752797,-148.041188,9474.636058
536.069661,1225.752797,-0.000000,9770.718434
536.069977,1072.533697,-74.020594,9696.697840
536.070292,766.095498,148.041188,9918.759623
536.070608,689.485948,444.123565,9918.759623
536.070924,612.876398,444.123565,9622.677246
536.071239,459.657299,370.102971,9844.739029
536.071555,536.266849,518.144159,9548.656652
536.071871,689.485948,592.164754,9474.636058
536.072186,153.219100,592.164754,9400.615463
536.072502,153.219100,370.102971,9548.656652
536.072818,229.828649,222.061783,9548.656652
536.073133,0.000000,-148.041188,9770.718434
536.073449,-459.657299,-296.082377,9770.718434
536.073765,-689.485948,-518.144159,9992.780217
536.074080,-995.924147,-518.144159,10288.862594
536.074396,-1685.410096,-592.164754,10658.965565
536.074712,-1685.410096,-444.123565,10584.944971
536.075027,-1532.190996,-444.123565,10584.944971
536.075343,-1608.800546,-296.082377,10510.924376
536.075659,-1378.971896,-0.000000,10140.821405
536.075974,-1225.752797,-592.164754,9918.759623
536.076290,-842.705048,-296.082377,9622.677246
536.076606,-536.266849,-444.123565,9548.656652
536.076921,0.000000,-518.144159,9400.615463
536.077237,0.000000,-518.144159,9400.615463
536.077553,153.219100,-592.164754,9252.574275
536.077868,153.219100,-666.185348,9326.594869
536.078184,0.000000,-814.226536,9474.636058
536.078500,306.438199,-518.144159,9474.636058
536.078815,229.828649,-370.102971,9474.636058
536.079131,153.219100,-740.205942,9548.656652
536.079447,153.219100,-666.185348,9622.677246
536.079762,536.266849,-592.164754,9326.594869
536.080078,612.876398,-444.123565,9326.594869
536.080394,689.485948,-148.041188,9400.615463
536.080709,995.924147,-296.082377,8882.471304
536.081025,995.924147,-148.041188,8660.409521
536.081341,1532.190996,-370.102971,8290.306550
536.081656,1532.190996,-0.000000,8512.368333
536.081972,1685.410096,-370.102971,9178.553681
536.082288,1302.362347,-370.102971,8956.491898
536.082603,1302.362347,-370.102971,9104.533087
536.082919,1149.143247,-444.123565,9178.553681
536.083235,919.314598,-222.061783,9326.594869
536.083550,919.314598,-74.020594,9400.615463
536.083866,842.705048,-148.041188,9474.636058
536.084182,919.314598,-0.000000,9326.594869
536.084497,1225.752797,148.041188,9104.533087
536.084813,1225.752797,-0.000000,9178.553681
536.085129,1455.581446,-0.000000,8956.491898
536.085444,1455.581446,148.041188,9030.512492
536.085760,1455.581446,222.061783,8956.491898
536.086076,1532.190996,148.041188,9178.553681
536.086391,1915.238745,148.041188,9252.574275
536.086707,1455.581446,-0.000000,9474.636058
536.087023,1149.143247,-0.000000,9548.656652
536.087338,1225.752797,-148.041188,9548.656652
536.087654,1072.533697,-0.000000,9696.697840
536.087970,842.705048,-0.000000,9622.677246
536.088285,1072.533697,296.082377,9918.759623
536.088601,919.314598,370.102971,9622.677246
536.088917,536.266849,296.082377,9474.636058
536.089232,612.876398,370.102971,9696.697840
536.089548,383.047749,518.144159,9326.594869
536.089864,459.657299,666.185348,9252.574275
536.090179,689.485948,222.061783,9252.574275
536.090495,383.047749,296.082377,9548.656652
536.090811,229.828649,-370.102971,9918.759623
536.091126,-536.266849,-370.102971,9844.739029
536.091442,-612.876398,-444.123565,10066.800811
536.091758,-1225.752797,-592.164754,10436.903782
536.092073,-1455.581446,-592.164754,10658.965565
536.092389,-1455.581446,-444.123565,10732.986159
536.092705,-1532.190996,-518.144159,10436.903782
536.093020,-1378.971896,-666.185348,10288.862594
536.093336,-1455.581446,-296.082377,9918.759623
536.093652,-1302.362347,-518.144159,9696.697840
536.093967,-1225.752797,-296.082377,9474.636058
536.094283,-689.485948,-222.061783,9252.574275
536.094599,-153.219100,-370.102971,9400.615463
536.094914,-153.219100,-222.061783,9474.636058
536.095230,0.000000,-666.185348,9326.594869
536.095546,0.000000,-814.226536,9548.656652
536.095861,0.000000,-740.205942,9548.656652
536.096177,-229.828649,-814.226536,9548.656652
536.096493,76.609550,-814.226536,9548.656652
536.096808,0.000000,-518.144159,9548.656652
536.097124,0.000000,-518.144159,9844.739029
536.097440,76.609550,-814.226536,9400.615463
536.097755,306.438199,-222.061783,9326.594869
536.098071,459.657299,-444.123565,9030.512492
536.098387,766.095498,-444.123565,8956.491898
536.098702,1225.752797,-444.123565,8660.409521
536.099018,1302.362347,-444.123565,8438.347739
536.099334,1455.581446,-518.144159,8586.388927
536.099649,1608.800546,-444.123565,8734.430116
536.099965,1608.800546,-370.102971,8882.471304
536.100281,1532.190996,-666.185348,9178.553681
536.100596,1378.971896,-888.247130,9400.615463
536.100912,1149.143247,-148.041188,9474.636058
536.101228,919.314598,-222.061783,9178.553681
536.101543,612.876398,-296.082377,9252.574275
536.101859,1072.533697,-0.000000,9326.594869
536.102175,1149.143247,-0.000000,9178.553681
536.102490,1455.581446,148.041188,9104.533087
536.102806,1608.800546,-0.000000,8956.491898
536.103122,1762.019645,-0.000000,8808.450710
536.103437,1762.019645,370.102971,9030.512492
536.103753,1685.410096,148.041188,8882.471304
536.104069,1532.190996,296.082377,9252.574275
536.104384,1685.410096,148.041188,9252.574275
536.104700,1532.190996,222.061783,9844.739029
536.105016,1225.752797,148.041188,9548.656652
536.105331,995.924147,444.123565,9992.780217
536.105647,1072.533697,444.123565,9770.718434
536.105963,995.924147,592.164754,9844.739029
536.106278,1072.533697,222.061783,9844.739029
536.106594,459.657299,666.185348,10066.800811
536.106910,459.657299,740.205942,9696.697840
536.107225,536.266849,666.185348,9400.615463
536.107541,306.438199,814.226536,9548.656652
536.107857,306.438199,296.082377,9474.636058
536.108172,0.000000,222.061783,9474.636058
536.108488,76.609550,-0.000000,9696.697840
536.108804,-383.047749,-222.061783,9844.739029
536.109119,-842.705048,-666.185348,10288.862594
536.109435,-1149.143247,-222.061783,10584.944971
536.109751,-1378.971896,-296.082377,10881.027347
536.110066,-1532.190996,-444.123565,10510.924376
536.110382,-1532.190996,-222.061783,10510.924376
536.110698,-1608.800546,-518.144159,10362.883188
536.111013,-1608.800546,-370.102971,9918.759623
536.111329,-919.314598,-296.082377,9918.759623
536.111645,-919.314598,-370.102971,9770.718434
536.111960,-689.485948,-518.144159,9474.636058
536.112276,0.000000,-888.247130,9548.656652
536.112592,0.000000,-444.123565,9474.636058
536.112907,76.609550,-814.226536,9474.636058
536.113223,0.000000,-962.267725,9400.615463
536.113539,76.609550,-666.185348,9400.615463
536.113854,459.657299,-814.226536,9474.636058
536.114170,0.000000,-740.205942,9548.656652
536.114486,229.828649,-814.226536,9548.656652
536.114801,0.000000,-740.205942,9548.656652
536.115117,306.438199,-518.144159,9400.615463
536.115433,383.047749,-592.164754,9400.615463
536.115748,919.314598,-444.123565,9178.553681
536.116064,919.314598,-370.102971,8734.430116
536.116380,1149.143247,-296.082377,8734.430116
536.116695,1225.752797,-518.144159,8512.368333
536.117011,1838.629195,-962.267725,8734.430116
536.117327,1532.190996,-592.164754,8586.388927
536.117642,1455.581446,-518.144159,8808.450710
536.117958,1302.362347,-444.123565,9030.512492
536.118274,1378.971896,-592.164754,8956.491898
536.118589,919.314598,-222.061783,9400.615463
536.118905,1072.533697,-666.185348,9104.533087
536.119221,842.705048,-222.061783,9252.574275
536.119536,919.314598,-148.041188,9104.533087
536.119852,995.924147,-0.000000,9178.553681
536.120168,1302.362347,-74.020594,9178.553681
536.120483,1302.362347,-0.000000,8956.491898
536.120799,1455.581446,-74.020594,8956.491898
536.121115,1532.190996,-0.000000,9104.533087
536.121430,1532.190996,-74.020594,8956.491898
536.121746,1608.800546,-74.020594,9178.553681
536.122062,1302.362347,-74.020594,9252.574275
536.122377,1225.752797,-74.020594,9474.636058
536.122693,1225.752797,-0.000000,9474.636058
536.123009,1072.533697,-0.000000,9770.718434
536.123324,919.314598,-0.000000,9770.718434
536.123640,766.095498,370.102971,9844.739029
536.123956,919.314598,592.164754,9696.697840
536.124272,842.705048,666.185348,9696.697840
536.124587,842.705048,592.164754,9918.759623
536.124903,689.485948,518.144159,9400.615463
536.125219,306.438199,518.144159,9474.636058
536.125534,459.657299,222.061783,9548.656652
536.125850,306.438199,222.061783,9622.677246
536.126166,0.000000,-296.082377,9696.697840
536.126481,-306.438199,-222.061783,9844.739029
536.126797,-689.485948,-444.123565,10140.821405
536.127113,-766.095498,-444.123565,10362.883188
536.127428,-1072.533697,-444.123565,10584.944971
536.127744,-1378.971896,-370.102971,10732.986159
536.128060,-1455.581446,-74.020594,10510.924376
536.128375,-1302.362347,-0.000000,10288.862594
536.128691,-1532.190996,-148.041188,10140.821405
536.129007,-1149.143247,-0.000000,9992.780217
536.129322,-995.924147,-148.041188,9548.656652
536.129638,-459.657299,-0.000000,9400.615463
536.129954,-306.438199,-74.020594,9474.636058
536.130269,0.000000,-222.061783,9326.594869
536.130585,0.000000,-1036.288319,9474.636058
536.130901,229.828649,-444.123565,9474.636058
536.131216,0.000000,-518.144159,9474.636058
536.131532,0.000000,-814.226536,9548.656652
536.131848,0.000000,-666.185348,9474.636058
536.132163,229.828649,-740.205942,9770.718434
536.132479,153.219100,-370.102971,9622.677246
536.132795,153.219100,-370.102971,9474.636058
536.133111,612.876398,-296.082377,9326.594869
536.133426,612.876398,-148.041188,9252.574275
536.133742,766.095498,-222.061783,8808.450710
536.134058,1072.533697,-0.000000,8882.471304
536.134373,1225.752797,-444.123565,8586.388927
536.134689,1608.800546,-222.061783,8734.430116
536.135005,2221.676944,-740.205942,8512.368333
536.135320,1608.800546,-370.102971,8808.450710
536.135636,1608.800546,-370.102971,8882.471304
536.135952,1378.971896,-518.144159,9178.553681
536.136267,1225.752797,-222.061783,9400.615463
536.136583,766.095498,-222.061783,9474.636058
536.136899,1149.143247,-74.020594,9474.636058
536.137214,995.924147,-0.000000,9474.636058
536.137530,1072.533697,-0.000000,9252.574275
536.137846,1455.581446,-0.000000,9474.636058
536.138161,1225.752797,-74.020594,9400.615463
536.138477,1149.143247,-0.000000,9030.512492
536.138793,1378.971896,370.102971,9104.533087
536.139108,1532.190996,296.082377,9030.512492
536.139424,1532.190996,148.041188,9104.533087
536.139740,1532.190996,74.020594,9474.636058
536.140055,1302.362347,-148.041188,9474.636058
536.140371,1455.581446,-0.000000,9474.636058
536.140687,1302.362347,-0.000000,9622.677246
536.141003,919.314598,296.082377,9844.739029
536.141318,919.314598,740.205942,9696.697840
536.141634,1072.533697,444.123565,9696.697840
536.141950,766.095498,518.144159,9844.739029
536.142265,612.876398,592.164754,9548.656652
536.142581,383.047749,666.185348,9474.636058
536.142897,459.657299,666.185348,9548.656652
536.143212,536.266849,148.041188,9400.615463
536.143528,229.828649,-0.000000,9474.636058
536.143844,0.000000,-0.000000,9622.677246
536.144159,0.000000,-370.102971,9918.759623
536.144475,-995.924147,-444.123565,10288.862594
536.144791,-842.705048,-518.144159,10362.883188
536.145106,-1455.581446,-444.123565,10510.924376
536.145422,-1455.581446,-518.144159,10584.944971
536.145738,-1302.362347,-518.144159,10510.924376
536.146053,-1532.190996,-222.061783,10214.842000
536.146369,-1685.410096,-444.123565,9992.780217
536.146685,-1302.362347,-370.102971,9844.739029
536.147000,-689.485948,-444.123565,9474.636058
536.147316,-612.876398,-518.144159,9548.656652
536.147632,-383.047749,-370.102971,9400.615463
536.147947,-153.219100,-666.185348,9474.636058
536.148263,0.000000,-814.226536,9400.615463
536.148579,0.000000,-740.205942,9400.615463
536.148894,306.438199,-814.226536,9400.615463
536.149210,0.000000,-592.164754,9622.677246
536.149526,0.000000,-666.185348,9696.697840
536.149842,153.219100,-666.185348,9474.636058
536.150157,383.047749,-666.185348,9400.615463
536.150473,76.609550,-962.267725,9474.636058
536.150789,689.485948,-592.164754,9326.594869
536.151104,995.924147,-148.041188,9030.512492
536.151420,995.924147,-296.082377,9030.512492
536.151736,1149.143247,-222.061783,8734.430116
536.152051,1149.143247,-222.061783,9104.533087
536.152367,1532.190996,-370.102971,8512.368333
536.152683,1455.581446,-148.041188,8586.388927
536.152998,1455.581446,-296.082377,8882.471304
536.153314,1455.581446,-592.164754,9178.553681
536.153630,1378.971896,-518.144159,9252.574275
536.153945,1072.533697,-222.061783,9400.615463
536.154261,1072.533697,-444.123565,9474.636058
536.154577,995.924147,-0.000000,9474.636058
536.154892,766.095498,-0.000000,9252.574275
536.155208,766.095498,222.061783,9252.574275
536.155524,1149.143247,370.102971,9178.553681
536.155839,1149.143247,-0.000000,8956.491898
536.156155,1532.190996,222.061783,9104.533087
536.156471,1225.752797,222.061783,8956.491898
536.156786,1532.190996,222.061783,9030.512492
536.157102,1455.581446,-0.000000,9400.615463
536.157418,1608.800546,-0.000000,9474.636058
536.157734,1378.971896,74.020594,9622.677246
536.158049,1685.410096,148.041188,9992.780217
536.158365,842.705048,-0.000000,9696.697840
536.158681,1149.143247,222.061783,9696.697840
536.158996,842.705048,370.102971,9696.697840
536.159312,766.095498,370.102971,9696.697840
536.159628,612.876398,370.102971,9992.780217
536.159943,459.657299,296.082377,9696.697840
536.160259,536.266849,444.123565,9474.636058
536.160575,459.657299,296.082377,9400.615463
536.160890,383.047749,444.123565,9548.656652
536.161206,306.438199,-74.020594,9844.739029
536.161522,0.000000,-222.061783,9696.697840
536.161837,-306.438199,-444.123565,9918.759623
536.162153,-612.876398,-666.185348,10288.862594
536.162469,-842.705048,-740.205942,10510.924376
536.162784,-1455.581446,-592.164754,10362.883188
536.163100,-1608.800546,-444.123565,10510.924376
536.163416,-1532.190996,-444.123565,10214.842000
536.163731,-1532.190996,-222.061783,10436.903782
536.164047,-1072.533697,-222.061783,9992.780217
536.164363,-1225.752797,-370.102971,9622.677246
536.164678,-919.314598,-74.020594,9696.697840
536.164994,-689.485948,-296.082377,9326.594869
536.165310,-383.047749,-592.164754,9400.615463
536.165625,-383.047749,-444.123565,9252.574275
536.165941,0.000000,-666.185348,9104.533087
536.166257,-153.219100,-666.185348,9474.636058
536.166573,76.609550,-740.205942,9696.697840
536.166888,153.219100,-666.185348,9622.677246
536.167204,306.438199,-1258.350101,9918.759623
536.167520,0.000000,-740.205942,9474.636058
536.167835,229.828649,-518.144159,9548.656652
536.168151,306.438199,-444.123565,9474.636058
536.168467,306.438199,-148.041188,9400.615463
536.168782,766.095498,-518.144159,9030.512492
536.169098,612.876398,-222.061783,9104.533087
536.169414,1378.971896,-222.061783,8882.471304
536.169729,1455.581446,-518.144159,8660.409521
536.170045,1685.410096,-296.082377,8734.430116
536.170361,1608.800546,-518.144159,8660.409521
536.170676,1685.410096,-444.123565,8882.471304
536.170992,1302.362347,-592.164754,9104.533087
536.171308,1072.533697,-296.082377,9252.574275
536.171623,1378.971896,-444.123565,9326.594869
536.171939,919.314598,-370.102971,9326.594869
536.172255,766.095498,-444.123565,9400.615463
536.172570,842.705048,-0.000000,9400.615463
536.172886,1072.533697,222.061783,9178.553681
536.173202,842.705048,148.041188,9178.553681
536.173517,1378.971896,-0.000000,8956.491898
536.173833,1532.190996,148.041188,9104.533087
536.174149,1378.971896,222.061783,8956.491898
536.174465,1991.848295,148.041188,8882.471304
536.174780,1455.581446,370.102971,9104.533087
536.175096,1532.190996,148.041188,9326.594869
536.175412,1149.143247,-74.020594,9474.636058
536.175727,1455.581446,-74.020594,9548.656652
536.176043,1149.143247,148.041188,9992.780217
536.176359,1072.533697,444.123565,9918.759623
536.176674,766.095498,370.102971,9696.697840
536.176990,689.485948,666.185348,9770.718434
536.177306,536.266849,740.205942,9844.739029
536.177621,612.876398,666.185348,9622.677246
536.177937,306.438199,592.164754,9326.594869
536.178253,229.828649,666.185348,9326.594869
536.178568,153.219100,444.123565,9474.636058
536.178884,306.438199,148.041188,9474.636058
536.179200,459.657299,-222.061783,9844.739029
536.179515,-612.876398,-0.000000,9844.739029
536.179831,-689.485948,-296.082377,9844.739029
536.180147,-1072.533697,-518.144159,10362.883188
536.180462,-1378.971896,-444.123565,10510.924376
536.180778,-1532.190996,-444.123565,10288.862594
536.181094,-1685.410096,-296.082377,10436.903782
536.181409,-1455.581446,-0.000000,10362.883188
536.181725,-1302.362347,-74.020594,10214.842000
536.182041,-1072.533697,-74.020594,9844.739029
536.182356,-842.705048,-222.061783,9696.697840
536.182672,-612.876398,-518.144159,9474.636058
536.182988,-76.609550,-518.144159,9474.636058
536.183304,-229.828649,-814.226536,9474.636058
536.183619,0.000000,-518.144159,9474.636058
536.183935,76.609550,-666.185348,9400.615463
536.184251,0.000000,-962.267725,9622.677246
536.184566,0.000000,-740.205942,9474.636058
536.184882,0.000000,-814.226536,9474.636058
536.185198,0.000000,-666.185348,9474.636058
536.185513,536.266849,-370.102971,10214.842000
536.185829,766.095498,-444.123565,9252.574275
536.186145,612.876398,-444.123565,9178.553681
536.186460,766.095498,-444.123565,9178.553681
536.186776,842.705048,-296.082377,8956.491898
536.187092,995.924147,-444.123565,8808.450710
536.187407,1455.581446,-222.061783,8660.409521
536.187723,1685.410096,-444.123565,8512.368333
536.188039,1685.410096,-444.123565,8734.430116
536.188354,1302.362347,-592.164754,8956.491898
536.188670,1378.971896,-740.205942,8882.471304
536.188986,1378.971896,-370.102971,9030.512492
536.189301,842.705048,-518.144159,9400.615463
536.189617,919.314598,-148.041188,9400.615463
536.189933,842.705048,-0.000000,9474.636058
536.190248,842.705048,-0.000000,9400.615463
536.190564,1225.752797,-0.000000,9252.574275
536.190880,1225.752797,148.041188,8956.491898
536.191196,1302.362347,222.061783,9030.512492
536.191511,1455.581446,222.061783,9178.553681
536.191827,1685.410096,222.061783,9030.512492
536.192143,1378.971896,222.061783,9030.512492
536.192458,1455.581446,296.082377,9326.594869
536.192774,1302.362347,148.041188,9326.594869
536.193090,1378.971896,-0.000000,9400.615463
536.193405,1149.143247,-0.000000,9622.677246
536.193721,1149.143247,-0.000000,9696.697840
536.194037,919.314598,148.041188,9696.697840
536.194352,766.095498,296.082377,9844.739029
536.194668,842.705048,518.144159,9696.697840
536.194984,612.876398,444.123565,9548.656652
536.195299,612.876398,666.185348,9696.697840
536.195615,689.485948,444.123565,9548.656652
536.195931,689.485948,444.123565,9400.615463
536.196246,689.485948,296.082377,9474.636058
536.196562,306.438199,-0.000000,9400.615463
536.196878,0.000000,-74.020594,9770.718434
536.197193,-306.438199,-370.102971,9918.759623
536.197509,-459.657299,-518.144159,10436.903782
536.197825,-612.876398,-740.205942,10436.903782
536.198140,-995.924147,-518.144159,10584.944971
536.198456,-1302.362347,-222.061783,10510.924376
536.198772,-1838.629195,-370.102971,10510.924376
536.199087,-1608.800546,-222.061783,10362.883188
536.199403,-1455.581446,-74.020594,10214.842000
536.199719,-995.924147,-0.000000,9844.739029
536.200035,-842.705048,-296.082377,9474.636058
536.200350,-612.876398,-296.082377,9474.636058
536.200666,-383.047749,-148.041188,9548.656652
536.200982,0.000000,-444.123565,9474.636058
536.201297,0.000000,-444.123565,9400.615463
536.201613,0.000000,-518.144159,9474.636058
536.201929,0.000000,-888.247130,9474.636058
536.202244,0.000000,-518.144159,9474.636058
536.202560,153.219100,-1110.308913,9770.718434
536.202876,153.219100,-814.226536,9696.697840
536.203191,0.000000,-296.082377,9622.677246
536.203507,76.609550,-370.102971,9400.615463
536.203823,383.047749,-296.082377,9252.574275
536.204138,612.876398,-518.144159,9104.533087
536.204454,842.705048,-148.041188,8882.471304
536.204770,1378.971896,-296.082377,8512.368333
536.205085,1455.581446,-74.020594,8586.388927
536.205401,1608.800546,-444.123565,8512.368333
536.205717,1455.581446,-444.123565,8734.430116
536.206032,1532.190996,-518.144159,8734.430116
536.206348,1685.410096,-222.061783,8882.471304
536.206664,1455.581446,-444.123565,9178.553681
536.206979,919.314598,-0.000000,9474.636058
536.207295,1072.533697,-74.020594,9326.594869
536.207611,842.705048,-0.000000,9548.656652
536.207927,1149.143247,148.041188,9178.553681
536.208242,1149.143247,-0.000000,9252.574275
536.208558,1455.581446,-0.000000,9252.574275
536.208874,1149.143247,-0.000000,8882.471304
536.209189,1685.410096,-74.020594,8956.491898
536.209505,1608.800546,296.082377,9030.512492
536.209821,1455.581446,296.082377,9030.512492
536.210136,1532.190996,148.041188,9030.512492
536.210452,1608.800546,-0.000000,9178.553681
536.210768,1685.410096,-0.000000,9474.636058
536.211083,1149.143247,-0.000000,9622.677246
536.211399,1072.533697,-0.000000,9622.677246
536.211715,919.314598,-148.041188,9770.718434
536.212030,919.314598,296.082377,9770.718434
536.212346,536.266849,666.185348,9770.718434
536.212662,459.657299,444.123565,9696.697840
536.212977,536.266849,444.123565,9770.718434
536.213293,995.924147,518.144159,9696.697840
536.213609,459.657299,592.164754,9548.656652
536.213924,689.485948,296.082377,9474.636058
536.214240,229.828649,-0.000000,9548.656652
536.214556,-229.828649,-222.061783,9696.697840
536.214871,-459.657299,-592.164754,10214.842000
536.215187,-536.266849,-592.164754,10140.821405
536.215503,-842.705048,-592.164754,10584.944971
536.215818,-1378.971896,-592.164754,10584.944971
536.216134,-612.876398,-740.205942,10658.965565
