#time,accel_x,accel_y,accel_z
632.561469,2681.334243,962.267725,9252.574275
632.561785,2604.724693,1184.329507,9252.574275
632.562101,2374.896044,1480.411884,9252.574275
632.562416,2068.457845,1480.411884,9474.636058
632.562732,1991.848295,1258.350101,9178.553681
632.563048,1838.629195,1628.453072,9696.697840
632.563364,1225.752797,1184.329507,9474.636058
632.563679,919.314598,518.144159,9770.718434
632.563995,612.876398,148.041188,10066.800811
632.564311,229.828649,-74.020594,10066.800811
632.564627,229.828649,-222.061783,10436.903782
632.564943,0.000000,-296.082377,10288.862594
632.565258,0.000000,-370.102971,10584.944971
632.565574,383.047749,-0.000000,10066.800811
632.565890,612.876398,74.020594,10214.842000
632.566206,995.924147,518.144159,9696.697840
632.566522,1991.848295,962.267725,9548.656652
632.566837,2068.457845,962.267725,9474.636058
632.567153,2757.943793,962.267725,9400.615463
632.567469,3140.991542,1110.308913,9252.574275
632.567785,3524.039291,1406.391290,9104.533087
632.568101,4136.915689,1850.514855,9178.553681
632.568416,4060.306139,1998.556043,8586.388927
632.568732,4366.744339,2516.700203,8660.409521
632.569048,4290.134789,2442.679609,8586.388927
632.569364,4060.306139,2738.761985,8808.450710
632.569680,4519.963438,2368.659014,8808.450710
632.569995,3370.820191,2368.659014,9030.512492
632.570311,3294.210641,2516.700203,9030.512492
632.570627,2911.162892,2516.700203,9252.574275
632.570943,2834.553343,2368.659014,9104.533087
632.571259,2221.676944,2294.638420,9400.615463
632.571574,1915.238745,2294.638420,9548.656652
632.571890,1915.238745,2368.659014,9622.677246
632.572206,2145.067394,2442.679609,9548.656652
632.572522,2298.286494,2812.782580,9548.656652
632.572838,2757.943793,2886.803174,9770.718434
632.573153,2451.505594,3034.844362,9252.574275
632.573469,2528.115143,2664.741391,9400.615463
632.573785,2911.162892,2812.782580,9400.615463
632.574101,3064.381992,3034.844362,9252.574275
632.574417,3370.820191,2960.823768,9400.615463
632.574732,3677.258390,3182.885551,9696.697840
632.575048,3907.087040,3256.906145,9622.677246
632.575364,3983.696590,3701.029710,9696.697840
632.575680,3983.696590,3997.112087,9622.677246
632.575995,4443.353888,4367.215058,9474.636058
632.576311,4443.353888,4663.297435,9400.615463
632.576627,4366.744339,4663.297435,9400.615463
632.576943,4290.134789,4885.359217,9030.512492
632.577259,4443.353888,4219.173869,9400.615463
632.577574,3983.696590,4071.132681,9474.636058
632.577890,3447.429741,3701.029710,9474.636058
632.578206,3370.820191,2812.782580,10214.842000
632.578522,2911.162892,2516.700203,10510.924376
632.578838,2374.896044,2368.659014,10362.883188
632.579153,1838.629195,2220.617826,11251.130318
632.579469,1991.848295,2146.597232,10881.027347
632.579785,1225.752797,1628.453072,10732.986159
632.580101,1378.971896,1924.535449,10436.903782
632.580417,1455.581446,1776.494261,10362.883188
632.580732,1225.752797,1480.411884,10362.883188
632.581048,1225.752797,1184.329507,10140.821405
632.581364,1225.752797,666.185348,10288.862594
632.581680,1378.971896,370.102971,10881.027347
632.581996,1685.410096,-0.000000,10658.965565
632.582311,1608.800546,222.061783,10288.862594
632.582627,2451.505594,518.144159,9770.718434
632.582943,2451.505594,666.185348,9474.636058
632.583259,2987.772442,1110.308913,8808.450710
632.583575,3524.039291,1406.391290,8586.388927
632.583890,3140.991542,888.247130,8586.388927
632.584206,2604.724693,814.226536,8068.244768
632.584522,2221.676944,592.164754,8438.347739
632.584838,1225.752797,222.061783,8438.347739
632.585154,612.876398,-370.102971,9252.574275
632.585469,0.000000,-962.267725,9474.636058
632.585785,-1378.971896,-1850.514855,9326.594869
632.586101,-2145.067394,-2960.823768,10362.883188
632.586417,-2298.286494,-3997.112087,11103.089130
632.586732,-2681.334243,-4885.359217,11251.130318
632.587048,-2451.505594,-4219.173869,11473.192101
632.587364,-2221.676944,-3552.988522,11177.109724
632.587679,-1378.971896,-2664.741391,10510.924376
632.587995,-306.438199,-1554.432478,9474.636058
632.588311,1455.581446,-444.123565,8512.368333
632.588626,2834.553343,592.164754,6735.874072
632.588942,3524.039291,1406.391290,5477.523971
632.589257,4290.134789,1702.473667,4959.379811
632.589573,4749.792088,1628.453072,4737.318029
632.589889,4826.401637,666.185348,5477.523971
632.590204,3140.991542,-222.061783,6365.771101
632.590520,1991.848295,-1628.453072,7772.162391
632.590836,229.828649,-3256.906145,9252.574275
632.591151,-919.314598,-4441.235652,11399.171507
632.591467,-2374.896044,-5033.400406,12953.603985
632.591783,-3217.601092,-4811.338623,13693.809927
632.592098,-3294.210641,-3775.050304,12879.583391
632.592414,-2681.334243,-2294.638420,12065.356855
632.592730,-1532.190996,-592.164754,10732.986159
632.593045,153.219100,1184.329507,9104.533087
632.593361,1532.190996,2516.700203,7402.059420
632.593676,3294.210641,3034.844362,5847.626942
632.593992,4673.182538,3108.864956,5107.421000
632.594308,5132.839837,2738.761985,4589.276840
632.594623,4749.792088,2442.679609,5551.544565
632.594939,3983.696590,1480.411884,6365.771101
632.595255,2528.115143,-74.020594,8364.327145
632.595570,459.657299,-1924.535449,10288.862594
632.595886,-1378.971896,-2664.741391,12805.562797
632.596202,-2681.334243,-3108.864956,14063.912898
632.596517,-3907.087040,-2368.659014,14582.057057
632.596833,-3753.867940,-1110.308913,14211.954086
632.597148,-3064.381992,444.123565,12657.521608
632.597464,-1915.238745,2220.617826,11843.295072
632.597780,-689.485948,3627.009116,9918.759623
632.598095,229.828649,3997.112087,8290.306550
632.598411,1762.019645,3478.967927,7105.977043
632.598727,3064.381992,2960.823768,6735.874072
632.599042,4060.306139,2886.803174,6217.729913
632.599358,3370.820191,3182.885551,6291.750507
632.599674,2451.505594,1776.494261,7920.203579
632.599989,1302.362347,-0.000000,9918.759623
632.600305,0.000000,-1110.308913,11843.295072
632.600621,-1072.533697,-1110.308913,12879.583391
632.600936,-2834.553343,-888.247130,13989.892304
632.601252,-2834.553343,-0.000000,13767.830521
632.601567,-2451.505594,1258.350101,13249.686362
632.601883,-1608.800546,2960.823768,11917.315666
632.602199,-995.924147,4737.318029,10066.800811
632.602514,0.000000,5181.441594,8290.306550
632.602830,1608.800546,3182.885551,7624.121203
632.603146,3064.381992,1110.308913,7254.018232
632.603461,3600.648841,222.061783,7254.018232
632.603777,2681.334243,1036.288319,6661.853478
632.604093,2374.896044,518.144159,7254.018232
632.604408,1532.190996,-592.164754,9474.636058
632.604724,153.219100,-1924.535449,11251.130318
632.605039,-1532.190996,-1702.473667,12287.418637
632.605355,-2374.896044,-2072.576638,12509.480420
632.605671,-2145.067394,-1406.391290,11991.336260
632.605986,-1225.752797,-0.000000,11695.253884
632.606302,-229.828649,2516.700203,9622.677246
632.606618,383.047749,4737.318029,8290.306550
632.606933,919.314598,4515.256246,7105.977043
632.607249,2451.505594,1332.370696,7105.977043
632.607565,3294.210641,-1924.535449,7624.121203
632.607880,3064.381992,-2146.597232,7772.162391
632.608196,1915.238745,-1332.370696,6735.874072
632.608511,1455.581446,-1406.391290,7254.018232
632.608827,689.485948,-2738.761985,9474.636058
632.609143,-842.705048,-3182.885551,11177.109724
632.609458,-2298.286494,-3627.009116,11695.253884
632.609774,-3370.820191,-4293.194464,11473.192101
632.610090,-3217.601092,-3701.029710,11769.274478
632.610405,-2221.676944,-1258.350101,11325.150913
632.610721,-1302.362347,1776.494261,9548.656652
632.611037,0.000000,3923.091493,7920.203579
632.611352,842.705048,3330.926739,7105.977043
632.611668,2068.457845,-888.247130,7105.977043
632.611984,2681.334243,-4515.256246,7772.162391
632.612299,2757.943793,-4663.297435,7994.224174
632.612615,2221.676944,-2146.597232,6513.812290
632.612930,2604.724693,-1554.432478,7105.977043
632.613246,2068.457845,-2146.597232,9030.512492
632.613562,766.095498,-2516.700203,10732.986159
632.613877,-1302.362347,-3034.844362,10732.986159
632.614193,-1378.971896,-4515.256246,10510.924376
632.614509,-2145.067394,-3627.009116,11473.192101
632.614824,-1378.971896,-962.267725,11325.150913
632.615140,-153.219100,2590.720797,9548.656652
632.615456,153.219100,4367.215058,8364.327145
632.615771,1072.533697,3034.844362,7994.224174
632.616087,1455.581446,-1702.473667,8660.409521
632.616402,1991.848295,-4441.235652,9622.677246
632.616718,2145.067394,-3997.112087,8586.388927
632.617034,1072.533697,-2368.659014,7698.141797
632.617349,2068.457845,-1184.329507,8808.450710
632.617665,1532.190996,-740.205942,10066.800811
632.617981,766.095498,-814.226536,10732.986159
632.618296,153.219100,-1998.556043,10436.903782
632.618612,-536.266849,-2960.823768,10436.903782
632.618928,-1149.143247,-1554.432478,10955.047942
632.619243,-459.657299,888.247130,10584.944971
632.619559,76.609550,3701.029710,9104.533087
632.619875,919.314598,4737.318029,8142.265362
632.620190,766.095498,2516.700203,8882.471304
632.620506,612.876398,-1110.308913,9474.636058
632.620821,153.219100,-2442.679609,9770.718434
632.621137,229.828649,-2442.679609,9104.533087
632.621453,612.876398,-1702.473667,9474.636058
632.621768,306.438199,-1110.308913,10362.883188
632.622084,383.047749,444.123565,10510.924376
632.622400,383.047749,-0.000000,10510.924376
632.622715,153.219100,-1184.329507,10510.924376
632.623031,76.609550,-888.247130,9992.780217
632.623347,-306.438199,1702.473667,9770.718434
632.623662,1149.143247,3627.009116,8956.491898
632.623978,1915.238745,5403.503377,8068.244768
632.624293,1991.848295,4959.379811,7254.018232
632.624609,1532.190996,2072.576638,8216.285956
632.624925,1225.752797,-444.123565,8956.491898
632.625240,459.657299,-1036.288319,9474.636058
632.625556,153.219100,-1184.329507,9400.615463
632.625872,0.000000,-148.041188,10732.986159
632.626187,-153.219100,666.185348,11399.171507
632.626503,-229.828649,1036.288319,11103.089130
632.626819,-383.047749,740.205942,10584.944971
632.627134,-153.219100,518.144159,10584.944971
632.627450,-919.314598,1850.514855,9844.739029
632.627766,612.876398,3034.844362,8808.450710
632.628081,1532.190996,4663.297435,8068.244768
632.628397,2298.286494,4367.215058,7550.100608
632.628712,1762.019645,2886.803174,7920.203579
632.629028,1608.800546,370.102971,8882.471304
632.629344,1302.362347,-444.123565,9474.636058
632.629659,1378.971896,-740.205942,8734.430116
632.629975,919.314598,-814.226536,10214.842000
632.630291,612.876398,-0.000000,11029.068536
632.630606,689.485948,-296.082377,11103.089130
632.630922,536.266849,-0.000000,10658.965565
632.631238,842.705048,-0.000000,10436.903782
632.631553,536.266849,1036.288319,10288.862594
632.631869,995.924147,2368.659014,8956.491898
632.632184,1608.800546,2516.700203,8142.265362
632.632500,1915.238745,2146.597232,7846.182985
632.632816,1072.533697,740.205942,8216.285956
632.633131,536.266849,-592.164754,8956.491898
632.633447,-612.876398,-1998.556043,9622.677246
632.633763,-612.876398,-2886.803174,10066.800811
632.634078,-842.705048,-2886.803174,11103.089130
632.634394,-1149.143247,-1628.453072,11399.171507
632.634710,-1302.362347,-2146.597232,11843.295072
632.635025,-689.485948,-1554.432478,11547.212695
632.635341,0.000000,-1554.432478,10436.903782
632.635657,383.047749,-296.082377,9844.739029
632.635972,612.876398,962.267725,9104.533087
632.636288,1455.581446,1480.411884,7698.141797
632.636603,2451.505594,1036.288319,7402.059420
632.636919,1838.629195,-0.000000,7254.018232
632.637235,1378.971896,-1036.288319,8068.244768
632.637550,536.266849,-2220.617826,8882.471304
632.637866,0.000000,-2960.823768,9104.533087
632.638182,-229.828649,-3182.885551,10214.842000
632.638497,-919.314598,-3478.967927,11103.089130
632.638813,-1378.971896,-3404.947333,11843.295072
632.639129,-1072.533697,-3034.844362,11621.233289
632.639444,-919.314598,-2812.782580,10658.965565
632.639760,-536.266849,-1110.308913,9992.780217
632.640075,229.828649,-74.020594,9178.553681
632.640391,1225.752797,814.226536,7550.100608
632.640707,2221.676944,888.247130,7031.956449
632.641022,1838.629195,-148.041188,7105.977043
632.641338,2145.067394,-1480.411884,7179.997637
632.641654,1302.362347,-2220.617826,8142.265362
632.641969,842.705048,-2886.803174,8660.409521
632.642285,306.438199,-2590.720797,9474.636058
632.642601,-612.876398,-2442.679609,10584.944971
632.642916,-1378.971896,-2664.741391,11103.089130
632.643232,-842.705048,-2368.659014,11103.089130
632.643547,-1149.143247,-1554.432478,10584.944971
632.643863,-1149.143247,-518.144159,10214.842000
632.644179,-229.828649,888.247130,9474.636058
632.644494,536.266849,1480.411884,7846.182985
632.644810,1378.971896,1702.473667,7476.080014
632.645126,1532.190996,518.144159,7254.018232
632.645441,1378.971896,-1110.308913,7698.141797
632.645757,995.924147,-1332.370696,8438.347739
632.646073,766.095498,-1702.473667,8660.409521
632.646388,766.095498,-1480.411884,9548.656652
632.646704,76.609550,-1110.308913,10288.862594
632.647020,-229.828649,-592.164754,11251.130318
632.647335,0.000000,-740.205942,11251.130318
632.647651,-229.828649,222.061783,10584.944971
632.647966,0.000000,1628.453072,9474.636058
632.648282,536.266849,2590.720797,9326.594869
632.648598,1532.190996,3034.844362,8290.306550
632.648913,2068.457845,3627.009116,7402.059420
632.649229,1762.019645,2368.659014,7031.956449
632.649545,1991.848295,962.267725,7772.162391
632.649860,919.314598,-148.041188,8956.491898
632.650176,229.828649,-666.185348,9326.594869
632.650492,0.000000,-814.226536,10140.821405
632.650807,-689.485948,-370.102971,11621.233289
632.651123,-1532.190996,-444.123565,12139.377449
632.651438,-766.095498,-296.082377,12213.398043
632.651754,-1762.019645,444.123565,11843.295072
632.652070,-1302.362347,814.226536,11251.130318
632.652385,-383.047749,2146.597232,10436.903782
632.652701,919.314598,3256.906145,9104.533087
632.653017,1532.190996,4071.132681,8512.368333
632.653332,1838.629195,3108.864956,7846.182985
632.653648,2374.896044,1628.453072,7994.224174
632.653964,1762.019645,296.082377,8438.347739
632.654279,1302.362347,148.041188,9104.533087
632.654595,1225.752797,-296.082377,9474.636058
632.654911,1072.533697,-370.102971,10732.986159
632.655226,459.657299,-148.041188,11325.150913
632.655542,0.000000,-592.164754,12139.377449
632.655857,-306.438199,-444.123565,11473.192101
632.656173,-459.657299,-222.061783,11177.109724
632.656489,-459.657299,1036.288319,10732.986159
632.656804,229.828649,2368.659014,9252.574275
632.657120,612.876398,2960.823768,8364.327145
632.657436,1072.533697,2294.638420,7920.203579
632.657751,612.876398,296.082377,8068.244768
632.658067,1072.533697,-1258.350101,8290.306550
632.658383,0.000000,-1702.473667,8956.491898
632.658698,-153.219100,-2368.659014,9326.594869
632.659014,-153.219100,-1702.473667,10362.883188
632.659329,-842.705048,-2072.576638,10807.006753
632.659645,-995.924147,-1924.535449,11399.171507
632.659961,-689.485948,-1554.432478,10955.047942
632.660276,-766.095498,-1110.308913,10362.883188
632.660592,-306.438199,-0.000000,9844.739029
632.660908,383.047749,444.123565,8956.491898
632.661223,1072.533697,2072.576638,7328.038826
632.661539,1685.410096,1554.432478,7254.018232
632.661855,1532.190996,-74.020594,7402.059420
632.662170,1532.190996,-2072.576638,7772.162391
632.662486,842.705048,-2516.700203,8808.450710
632.662802,766.095498,-2812.782580,8586.388927
632.663117,383.047749,-2590.720797,9696.697840
632.663433,0.000000,-2368.659014,10140.821405
632.663748,-153.219100,-2590.720797,10288.862594
632.664064,-612.876398,-2294.638420,10658.965565
632.664380,-153.219100,-1628.453072,9696.697840
632.664695,0.000000,-444.123565,9326.594869
632.665011,842.705048,740.205942,9030.512492
632.665327,2068.457845,1036.288319,7476.080014
632.665642,1915.238745,1480.411884,7328.038826
632.665958,2298.286494,-148.041188,7328.038826
632.666274,2451.505594,-1554.432478,7920.203579
632.666589,995.924147,-2368.659014,8438.347739
632.666905,919.314598,-2442.679609,8956.491898
632.667220,306.438199,-2220.617826,9770.718434
632.667536,76.609550,-1480.411884,10436.903782
632.667852,-689.485948,-1554.432478,10881.027347
632.668167,-383.047749,-1776.494261,10881.027347
632.668483,-842.705048,-1776.494261,10881.027347
632.668799,-995.924147,-592.164754,10214.842000
632.669114,0.000000,814.226536,9548.656652
632.669430,689.485948,1554.432478,8586.388927
632.669746,842.705048,2368.659014,8142.265362
632.670061,1685.410096,1184.329507,7846.182985
632.670377,1685.410096,-296.082377,8512.368333
632.670692,919.314598,-1036.288319,8956.491898
632.671008,766.095498,-1110.308913,9178.553681
632.671324,536.266849,-962.267725,9918.759623
632.671639,306.438199,-814.226536,10955.047942
632.671955,0.000000,-444.123565,11325.150913
632.672271,383.047749,-444.123565,11251.130318
632.672586,0.000000,148.041188,10881.027347
632.672902,229.828649,814.226536,10214.842000
632.673218,306.438199,2368.659014,9770.718434
632.673533,995.924147,2886.803174,8512.368333
632.673849,1302.362347,3404.947333,8438.347739
632.674165,1072.533697,2220.617826,7846.182985
632.674480,1225.752797,814.226536,8586.388927
632.674796,383.047749,-814.226536,9400.615463
632.675111,-153.219100,-1036.288319,9770.718434
632.675427,-383.047749,-1036.288319,10140.821405
632.675743,-842.705048,-814.226536,11547.212695
632.676058,-1149.143247,-740.205942,11843.295072
632.676374,-842.705048,-296.082377,11843.295072
632.676690,-995.924147,-0.000000,10955.047942
632.677005,-689.485948,148.041188,10881.027347
632.677321,-153.219100,1702.473667,9918.759623
632.677637,995.924147,2738.761985,8586.388927
632.677952,1302.362347,3330.926739,7624.121203
632.678268,1915.238745,2294.638420,7698.141797
632.678583,2145.067394,814.226536,7698.141797
632.678899,1838.629195,-444.123565,7920.203579
632.679215,1072.533697,-1258.350101,9178.553681
632.679530,689.485948,-1332.370696,9474.636058
632.679846,766.095498,-814.226536,10362.883188
632.680162,0.000000,-962.267725,11103.089130
632.680477,0.000000,-1036.288319,11917.315666
632.680793,0.000000,-370.102971,11177.109724
632.681109,76.609550,-0.000000,10584.944971
632.681424,229.828649,1184.329507,9844.739029
632.681740,1302.362347,2442.679609,8512.368333
632.682056,1762.019645,2738.761985,7105.977043
632.682371,2068.457845,1850.514855,7254.018232
632.682687,2145.067394,148.041188,7328.038826
632.683002,1378.971896,-962.267725,7994.224174
632.683318,1149.143247,-2072.576638,8734.430116
632.683634,306.438199,-2516.700203,8882.471304
632.683949,0.000000,-2072.576638,10066.800811
632.684265,-383.047749,-2294.638420,10881.027347
632.684581,-612.876398,-2368.659014,11769.274478
632.684896,-1608.800546,-2146.597232,11103.089130
632.685212,-766.095498,-1406.391290,10807.006753
632.685528,-689.485948,-0.000000,9918.759623
632.685843,0.000000,1110.308913,8734.430116
632.686159,842.705048,2368.659014,7624.121203
632.686474,1762.019645,1702.473667,7698.141797
632.686790,1608.800546,-222.061783,7476.080014
632.687106,1685.410096,-2146.597232,7698.141797
632.687421,766.095498,-2442.679609,9104.533087
632.687737,919.314598,-2960.823768,9030.512492
632.688053,383.047749,-2368.659014,10066.800811
632.688368,229.828649,-2368.659014,10584.944971
632.688684,-383.047749,-1924.535449,10955.047942
632.689000,0.000000,-1776.494261,10807.006753
632.689315,0.000000,-962.267725,9992.780217
632.689631,-383.047749,-444.123565,9622.677246
632.689947,612.876398,1184.329507,9104.533087
632.690262,1225.752797,1702.473667,8068.244768
632.690578,1685.410096,1776.494261,7920.203579
632.690894,1685.410096,740.205942,7328.038826
632.691209,1149.143247,-1702.473667,8142.265362
632.691525,306.438199,-2368.659014,9178.553681
632.691841,76.609550,-2516.700203,9400.615463
632.692156,-306.438199,-2368.659014,10214.842000
632.692472,-689.485948,-1998.556043,11251.130318
632.692788,-1072.533697,-1924.535449,11843.295072
632.693103,-919.314598,-2146.597232,11695.253884
632.693419,-689.485948,-1036.288319,10807.006753
632.693735,-1149.143247,-666.185348,10436.903782
632.694050,-306.438199,1110.308913,9696.697840
632.694366,612.876398,1776.494261,8216.285956
632.694682,1302.362347,2294.638420,7772.162391
632.694998,1762.019645,1480.411884,7476.080014
632.695313,1915.238745,-0.000000,8068.244768
632.695629,1072.533697,-1110.308913,8882.471304
632.695945,1378.971896,-1702.473667,8956.491898
632.696260,383.047749,-1258.350101,9696.697840
632.696576,459.657299,-814.226536,10658.965565
632.696892,-306.438199,-592.164754,10955.047942
632.697207,0.000000,-666.185348,11325.150913
632.697523,-229.828649,-370.102971,11177.109724
632.697839,-612.876398,148.041188,10288.862594
632.698154,-383.047749,1998.556043,9844.739029
632.698470,459.657299,2738.761985,8290.306550
632.698786,995.924147,3182.885551,7550.100608
632.699101,1072.533697,2294.638420,7624.121203
632.699417,1378.971896,814.226536,7846.182985
632.699733,689.485948,-888.247130,8734.430116
632.700048,0.000000,-1110.308913,9400.615463
632.700364,0.000000,-1406.391290,9622.677246
632.700680,-229.828649,-814.226536,10510.924376
632.700995,-919.314598,-888.247130,11251.130318
632.701311,-842.705048,-888.247130,11621.233289
632.701627,-919.314598,-518.144159,10807.006753
632.701942,-459.657299,222.061783,10510.924376
632.702258,0.000000,1258.350101,9844.739029
632.702574,536.266849,2516.700203,8660.409521
632.702889,919.314598,3478.967927,7624.121203
632.703205,1532.190996,2590.720797,7402.059420
632.703521,1762.019645,962.267725,8142.265362
632.703836,1225.752797,-296.082377,8438.347739
632.704152,919.314598,-1110.308913,9326.594869
632.704468,689.485948,-1184.329507,9474.636058
632.704783,383.047749,-1480.411884,10807.006753
632.705099,0.000000,-666.185348,11251.130318
632.705415,306.438199,-888.247130,11399.171507
632.705730,0.000000,-666.185348,11325.150913
632.706046,153.219100,296.082377,10658.965565
632.706362,459.657299,1258.350101,10140.821405
632.706677,1149.143247,2220.617826,9178.553681
632.706993,1762.019645,3108.864956,7920.203579
632.707309,2221.676944,2590.720797,7550.100608
632.707624,1991.848295,962.267725,7550.100608
632.707940,2451.505594,-296.082377,8290.306550
632.708256,1455.581446,-1332.370696,9030.512492
632.708571,766.095498,-1850.514855,9252.574275
632.708887,306.438199,-1776.494261,9992.780217
632.709203,-383.047749,-1628.453072,11177.109724
632.709518,-842.705048,-1998.556043,11769.274478
632.709834,-995.924147,-1702.473667,11473.192101
632.710150,-612.876398,-1332.370696,10807.006753
632.710465,-842.705048,-740.205942,10288.862594
632.710781,-153.219100,1184.329507,9252.574275
632.711097,383.047749,1850.514855,8068.244768
632.711412,1225.752797,2072.576638,7920.203579
632.711728,1378.971896,888.247130,7846.182985
632.712044,1685.410096,-888.247130,7772.162391
632.712359,842.705048,-1850.514855,8364.327145
632.712675,995.924147,-2664.741391,9104.533087
632.712991,459.657299,-2146.597232,10288.862594
632.713306,76.609550,-1702.473667,10658.965565
632.713622,0.000000,-1554.432478,11251.130318
632.713938,153.219100,-1628.453072,10881.027347
632.714253,-229.828649,-962.267725,10584.944971
632.714569,-306.438199,-370.102971,10066.800811
632.714885,-229.828649,888.247130,9474.636058
632.715200,689.485948,2294.638420,7772.162391
632.715516,1072.533697,2220.617826,7550.100608
632.715832,1762.019645,1110.308913,7105.977043
632.716147,1455.581446,-962.267725,7920.203579
632.716463,766.095498,-1776.494261,8512.368333
632.716779,0.000000,-2368.659014,9548.656652
632.717094,-153.219100,-2590.720797,9992.780217
632.717410,-383.047749,-1702.473667,10510.924376
632.717726,-919.314598,-1480.411884,11103.089130
632.718041,-919.314598,-1628.453072,11103.089130
632.718357,-919.314598,-1850.514855,10584.944971
632.718673,-612.876398,-740.205942,10214.842000
632.718989,0.000000,370.102971,9474.636058
632.719304,459.657299,1110.308913,8290.306550
632.719620,1072.533697,1850.514855,7698.141797
632.719936,1378.971896,1258.350101,7254.018232
632.720251,1685.410096,-74.020594,8068.244768
632.720567,842.705048,-1110.308913,8586.388927
632.720883,995.924147,-1480.411884,8660.409521
632.721198,383.047749,-1850.514855,9030.512492
632.721514,306.438199,-1628.453072,10140.821405
632.721830,-612.876398,-888.247130,10510.924376
632.722145,153.219100,-1332.370696,11399.171507
632.722461,0.000000,-962.267725,11251.130318
632.722777,0.000000,-370.102971,10288.862594
632.723092,153.219100,1184.329507,9770.718434
632.723408,1455.581446,1702.473667,8734.430116
632.723724,1149.143247,2590.720797,7698.141797
632.724039,1838.629195,1924.535449,7402.059420
632.724355,1838.629195,444.123565,7920.203579
632.724671,1532.190996,-592.164754,8364.327145
632.724986,459.657299,-1258.350101,9326.594869
632.725302,229.828649,-1480.411884,9474.636058
632.725618,0.000000,-1036.288319,10436.903782
632.725933,-536.266849,-1258.350101,11177.109724
632.726249,-459.657299,-1480.411884,12065.356855
632.726565,-306.438199,-1036.288319,11251.130318
632.726880,-306.438199,-518.144159,10510.924376
632.727196,-306.438199,740.205942,9696.697840
632.727512,689.485948,2220.617826,8808.450710
632.727827,1149.143247,3404.947333,8068.244768
632.728143,1838.629195,2886.803174,7476.080014
632.728459,2068.457845,1258.350101,7772.162391
632.728774,1762.019645,-518.144159,7994.224174
632.729090,1225.752797,-1406.391290,9252.574275
632.729406,1149.143247,-1628.453072,9548.656652
632.729721,536.266849,-1332.370696,10362.883188
632.730037,229.828649,-1258.350101,11399.171507
632.730353,0.000000,-666.185348,11769.274478
632.730668,76.609550,-666.185348,11843.295072
632.730984,0.000000,-0.000000,10584.944971
632.731300,383.047749,1406.391290,9992.780217
632.731615,1225.752797,2368.659014,9030.512492
632.731931,1685.410096,2812.782580,7920.203579
632.732247,2298.286494,2590.720797,7550.100608
632.732562,2221.676944,1036.288319,7402.059420
632.732878,1915.238745,-666.185348,8216.285956
632.733194,1302.362347,-1332.370696,9178.553681
632.733509,459.657299,-1998.556043,9326.594869
632.733825,306.438199,-1480.411884,10732.986159
632.734141,-766.095498,-1628.453072,11177.109724
632.734456,-995.924147,-1776.494261,11769.274478
632.734772,-689.485948,-1702.473667,11177.109724
632.735088,-766.095498,-962.267725,10955.047942
632.735403,-1225.752797,-518.144159,10436.903782
632.735719,-612.876398,1184.329507,9400.615463
632.736035,153.219100,1628.453072,7846.182985
632.736350,766.095498,1702.473667,7772.162391
632.736666,766.095498,296.082377,7476.080014
632.736982,1072.533697,-740.205942,7920.203579
632.737297,612.876398,-1628.453072,8586.388927
632.737613,76.609550,-2220.617826,9030.512492
632.737929,0.000000,-1628.453072,10066.800811
632.738244,459.657299,-1406.391290,10436.903782
632.738560,-383.047749,-1184.329507,10955.047942
632.738876,-76.609550,-1258.350101,11103.089130
632.739191,-536.266849,-666.185348,10584.944971
632.739507,-689.485948,-74.020594,10140.821405
632.739823,-459.657299,1184.329507,9252.574275
632.740138,842.705048,1776.494261,8142.265362
632.740454,1149.143247,2368.659014,7476.080014
632.740770,1149.143247,1036.288319,7846.182985
632.741085,1072.533697,-296.082377,7994.224174
632.741401,306.438199,-2368.659014,8512.368333
632.741717,0.000000,-2368.659014,9622.677246
632.742033,-459.657299,-2146.597232,9992.780217
632.742348,-459.657299,-1998.556043,10955.047942
632.742664,-689.485948,-1998.556043,11177.109724
632.742980,-306.438199,-2072.576638,11473.192101
632.743295,-459.657299,-1332.370696,10658.965565
632.743611,-612.876398,-518.144159,9918.759623
632.743927,0.000000,740.205942,9622.677246
632.744242,689.485948,1554.432478,8290.306550
632.744558,995.924147,2146.597232,7772.162391
632.744874,2068.457845,1184.329507,7698.141797
632.745189,1762.019645,-148.041188,8068.244768
632.745505,1455.581446,-1628.453072,8290.306550
632.745821,1072.533697,-1998.556043,9326.594869
632.746136,689.485948,-1924.535449,9548.656652
632.746452,842.705048,-1628.453072,10510.924376
632.746768,0.000000,-518.144159,10955.047942
632.747083,0.000000,-1184.329507,11177.109724
632.747399,-153.219100,-666.185348,11177.109724
632.747715,0.000000,-148.041188,10658.965565
632.748030,0.000000,1406.391290,9474.636058
632.748346,842.705048,1998.556043,8512.368333
632.748662,1455.581446,2590.720797,7920.203579
632.748977,1762.019645,1776.494261,7402.059420
632.749293,1225.752797,740.205942,7920.203579
632.749609,1149.143247,-888.247130,8808.450710
632.749924,459.657299,-1702.473667,9400.615463
632.750240,229.828649,-1406.391290,9696.697840
632.750556,229.828649,-1036.288319,10288.862594
632.750871,-229.828649,-740.205942,11177.109724
632.751187,-459.657299,-1110.308913,11695.253884
632.751503,-229.828649,-74.020594,11029.068536
632.751818,0.000000,148.041188,10362.883188
632.752134,0.000000,1332.370696,10140.821405
632.752450,689.485948,2368.659014,8956.491898
632.752765,1072.533697,2886.803174,7920.203579
632.753081,2068.457845,2590.720797,7846.182985
632.753397,1608.800546,1036.288319,8068.244768
632.753712,1915.238745,-814.226536,8586.388927
632.754028,766.095498,-962.267725,9178.553681
632.754344,689.485948,-1332.370696,9474.636058
632.754659,383.047749,-962.267725,10510.924376
632.754975,-383.047749,-740.205942,11029.068536
632.755291,-689.485948,-1184.329507,11695.253884
632.755606,76.609550,-444.123565,11251.130318
632.755922,-306.438199,-370.102971,10066.800811
632.756238,-306.438199,962.267725,9548.656652
632.756553,383.047749,2294.638420,8956.491898
632.756869,1072.533697,2812.782580,7698.141797
632.757185,1455.581446,2368.659014,7550.100608
632.757500,1378.971896,1258.350101,7476.080014
632.757816,1149.143247,-444.123565,8290.306550
632.758132,689.485948,-1702.473667,9178.553681
632.758447,229.828649,-2220.617826,9474.636058
632.758763,0.000000,-1776.494261,10362.883188
632.759079,-919.314598,-1554.432478,11473.192101
632.759394,-919.314598,-1924.535449,11399.171507
632.759710,-612.876398,-1776.494261,11399.171507
632.760026,-1149.143247,-666.185348,10658.965565
632.760341,-1302.362347,-0.000000,10140.821405
632.760657,-229.828649,1258.350101,9770.718434
632.760973,383.047749,2072.576638,7994.224174
632.761288,842.705048,2368.659014,7846.182985
632.761604,1149.143247,518.144159,7846.182985
632.761920,1225.752797,-1110.308913,7920.203579
632.762235,536.266849,-1776.494261,8808.450710
632.762551,383.047749,-2220.617826,9474.636058
632.762867,76.609550,-2072.576638,10214.842000
632.763182,0.000000,-1628.453072,10807.006753
632.763498,-536.266849,-1702.473667,11251.130318
632.763814,-306.438199,-2220.617826,11177.109724
632.764129,-766.095498,-814.226536,10732.986159
632.764445,0.000000,-222.061783,10214.842000
632.764761,0.000000,1184.329507,9252.574275
632.765077,1685.410096,2072.576638,7550.100608
632.765392,1302.362347,1924.535449,7254.018232
632.765708,1838.629195,962.267725,7624.121203
632.766024,1915.238745,-666.185348,7772.162391
632.766339,1072.533697,-1702.473667,8216.285956
632.766655,919.314598,-2294.638420,9326.594869
632.766971,766.095498,-2368.659014,9844.739029
632.767286,76.609550,-1628.453072,10140.821405
632.767602,0.000000,-1924.535449,10881.027347
632.767918,0.000000,-1776.494261,11325.150913
632.768233,-536.266849,-1628.453072,10658.965565
632.768549,536.266849,-518.144159,10510.924376
632.768865,229.828649,666.185348,9400.615463
632.769180,842.705048,1406.391290,8438.347739
632.769496,1225.752797,2368.659014,7402.059420
632.769812,1991.848295,1628.453072,7402.059420
632.770127,1378.971896,-296.082377,8216.285956
632.770443,1225.752797,-1628.453072,8364.327145
632.770759,689.485948,-1628.453072,9178.553681
632.771074,306.438199,-1628.453072,9696.697840
632.771390,153.219100,-1110.308913,11103.089130
632.771706,-229.828649,-888.247130,11251.130318
632.772021,153.219100,-1258.350101,11769.274478
632.772337,-306.438199,-888.247130,10881.027347
632.772653,0.000000,296.082377,10288.862594
632.772968,153.219100,1332.370696,9844.739029
632.773284,842.705048,2220.617826,8882.471304
632.773600,1378.971896,2812.782580,7624.121203
632.773915,1991.848295,2516.700203,7328.038826
632.774231,1532.190996,518.144159,7550.100608
632.774547,1072.533697,-740.205942,8216.285956
632.774862,383.047749,-1480.411884,9474.636058
632.775178,76.609550,-1776.494261,9622.677246
632.775494,-459.657299,-1258.350101,10658.965565
632.775809,-1302.362347,-1406.391290,11325.150913
632.776125,-1302.362347,-1924.535449,12213.398043
632.776441,-995.924147,-666.185348,11843.295072
632.776756,-995.924147,-518.144159,10658.965565
632.777072,-1149.143247,888.247130,10066.800811
632.777388,153.219100,1998.556043,9178.553681
632.777703,766.095498,2812.782580,7994.224174
632.778019,1149.143247,2516.700203,7920.203579
632.778335,1532.190996,888.247130,7550.100608
632.778650,1685.410096,-518.144159,8290.306550
632.778966,1072.533697,-888.247130,9178.553681
632.779282,612.876398,-1554.432478,9252.574275
632.779597,459.657299,-814.226536,10436.903782
632.779913,76.609550,-1110.308913,10658.965565
632.780229,-229.828649,-814.226536,11325.150913
632.780544,0.000000,-592.164754,11103.089130
632.780860,0.000000,-592.164754,10066.800811
632.781176,0.000000,592.164754,9992.780217
632.781491,229.828649,2368.659014,9030.512492
632.781807,1378.971896,2738.761985,7772.162391
632.782123,1532.190996,2738.761985,7476.080014
632.782438,1149.143247,1110.308913,7698.141797
632.782754,1378.971896,-592.164754,8216.285956
632.783070,612.876398,-1702.473667,9104.533087
632.783385,153.219100,-1998.556043,9548.656652
632.783701,0.000000,-1258.350101,10436.903782
632.784017,-842.705048,-1554.432478,11103.089130
632.784332,-766.095498,-1332.370696,11251.130318
632.784648,-383.047749,-1850.514855,11547.212695
632.784964,-612.876398,-888.247130,10881.027347
632.785279,-536.266849,-148.041188,9992.780217
632.785595,689.485948,1480.411884,9474.636058
632.785911,1225.752797,1998.556043,7698.141797
632.786226,1532.190996,2294.638420,7476.080014
632.786542,1685.410096,1184.329507,7254.018232
632.786858,1915.238745,-296.082377,7772.162391
632.787173,919.314598,-1258.350101,9030.512492
632.787489,842.705048,-1850.514855,9178.553681
632.787805,383.047749,-2220.617826,9696.697840
632.788121,153.219100,-1480.411884,10807.006753
632.788436,0.000000,-1924.535449,11325.150913
632.788752,-153.219100,-1850.514855,11473.192101
632.789068,-536.266849,-666.185348,11251.130318
632.789383,-306.438199,-0.000000,10510.924376
632.789699,536.266849,1406.391290,9474.636058
632.790015,1149.143247,2220.617826,7994.224174
632.790330,1302.362347,2590.720797,7328.038826
632.790646,1915.238745,1776.494261,7328.038826
632.790962,2374.896044,296.082377,7476.080014
632.791277,1302.362347,-962.267725,8068.244768
632.791593,1225.752797,-1924.535449,9474.636058
632.791909,766.095498,-2146.597232,9696.697840
632.792224,76.609550,-1554.432478,10881.027347
632.792540,-612.876398,-1924.535449,11473.192101
632.792856,-306.438199,-1850.514855,11991.336260
632.793171,-689.485948,-1332.370696,11251.130318
632.793487,-766.095498,-74.020594,10510.924376
632.793803,-306.438199,1184.329507,9770.718434
632.794118,612.876398,1406.391290,8512.368333
632.794434,842.705048,2664.741391,7698.141797
632.794750,1685.410096,1480.411884,7624.121203
632.795065,1532.190996,-296.082377,8068.244768
632.795381,919.314598,-1628.453072,8512.368333
632.795697,536.266849,-1998.556043,9474.636058
632.796012,536.266849,-2072.576638,9770.718434
632.796328,153.219100,-1702.473667,9992.780217
632.796644,-459.657299,-1406.391290,10807.006753
632.796959,-459.657299,-1628.453072,11473.192101
632.797275,-306.438199,-1110.308913,10807.006753
632.797591,0.000000,-0.000000,10362.883188
632.797906,0.000000,962.267725,9474.636058
632.798222,536.266849,1776.494261,8660.409521
632.798538,1149.143247,2368.659014,7846.182985
632.798854,1532.190996,1998.556043,7476.080014
632.799169,1072.533697,222.061783,7698.141797
632.799485,689.485948,-1184.329507,8512.368333
632.799801,-229.828649,-1480.411884,9252.574275
632.800116,0.000000,-1776.494261,9400.615463
632.800432,-612.876398,-1480.411884,10510.924376
632.800748,-995.924147,-1480.411884,11177.109724
632.801063,-1378.971896,-1776.494261,11695.253884
632.801379,-842.705048,-1184.329507,11473.192101
632.801695,-919.314598,-0.000000,10658.965565
632.802010,-919.314598,666.185348,10214.842000
632.802326,76.609550,1776.494261,9104.533087
632.802642,919.314598,2516.700203,7698.141797
632.802957,1455.581446,2590.720797,7476.080014
632.803273,1608.800546,888.247130,7328.038826
632.803589,2145.067394,-0.000000,8586.388927
632.803904,995.924147,-962.267725,9030.512492
632.804220,842.705048,-1184.329507,9104.533087
632.804536,459.657299,-814.226536,10436.903782
632.804851,229.828649,-1480.411884,11103.089130
632.805167,0.000000,-1702.473667,11325.150913
632.805483,0.000000,-1480.411884,11695.253884
632.805798,0.000000,-888.247130,10881.027347
632.806114,-306.438199,-0.000000,9770.718434
632.806430,229.828649,1776.494261,9252.574275
632.806745,1532.190996,2294.638420,7698.141797
632.807061,1762.019645,2738.761985,7402.059420
632.807377,1915.238745,1628.453072,7179.997637
632.807692,1991.848295,-148.041188,7846.182985
632.808008,919.314598,-1628.453072,8660.409521
632.808324,842.705048,-2220.617826,9622.677246
632.808639,153.219100,-1776.494261,10140.821405
632.808955,-153.219100,-2072.576638,11029.068536
632.809271,-842.705048,-1850.514855,11547.212695
632.809587,0.000000,-1924.535449,11843.295072
632.809902,-995.924147,-962.267725,11251.130318
632.810218,-612.876398,370.102971,10066.800811
632.810534,76.609550,1036.288319,9104.533087
632.810849,842.705048,2146.597232,7846.182985
632.811165,1225.752797,2368.659014,7328.038826
632.811481,1685.410096,1184.329507,7179.997637
632.811796,1991.848295,-296.082377,7994.224174
632.812112,1072.533697,-1258.350101,8734.430116
632.812428,306.438199,-1406.391290,9178.553681
632.812743,536.266849,-1184.329507,9770.718434
632.813059,76.609550,-962.267725,11029.068536
632.813375,-383.047749,-1332.370696,11029.068536
632.813690,153.219100,-1776.494261,11769.274478
632.814006,-153.219100,-444.123565,11029.068536
632.814322,0.000000,-0.000000,10436.903782
632.814637,612.876398,1332.370696,9400.615463
632.814953,1302.362347,2368.659014,8142.265362
632.815269,1685.410096,2960.823768,7402.059420
632.815584,2374.896044,1702.473667,7402.059420
632.815900,1915.238745,370.102971,7920.203579
632.816216,919.314598,-1184.329507,8438.347739
632.816531,766.095498,-1480.411884,8956.491898
632.816847,383.047749,-1776.494261,9474.636058
632.817163,-306.438199,-1258.350101,10584.944971
632.817478,-919.314598,-1480.411884,11325.150913
632.817794,-842.705048,-2072.576638,12065.356855
632.818110,-1149.143247,-1702.473667,11251.130318
632.818425,-766.095498,-444.123565,10807.006753
632.818741,-459.657299,740.205942,9992.780217
632.819057,76.609550,1554.432478,9104.533087
632.819372,612.876398,2664.741391,7476.080014
632.819688,1608.800546,2072.576638,7550.100608
632.820004,1455.581446,370.102971,7624.121203
632.820320,1455.581446,-1258.350101,7994.224174
632.820635,306.438199,-1332.370696,9104.533087
632.820951,383.047749,-1554.432478,9474.636058
632.821267,383.047749,-1480.411884,10214.842000
632.821582,-459.657299,-740.205942,10955.047942
632.821898,-153.219100,-1924.535449,11769.274478
632.822214,-919.314598,-1480.411884,11621.233289
632.822529,-383.047749,-370.102971,10881.027347
632.822845,-612.876398,962.267725,9918.759623
632.823161,459.657299,1628.453072,9104.533087
632.823476,1455.581446,2590.720797,7846.182985
632.823792,1685.410096,2294.638420,7254.018232
632.824108,1302.362347,888.247130,7328.038826
632.824423,1302.362347,-666.185348,8142.265362
632.824739,612.876398,-1332.370696,9030.512492
632.825055,766.095498,-1850.514855,9178.553681
632.825370,76.609550,-1702.473667,10214.842000
632.825686,-612.876398,-1702.473667,11029.068536
632.826002,-1072.533697,-1628.453072,11473.192101
632.826317,-536.266849,-1702.473667,11399.171507
632.826633,-689.485948,-888.247130,11251.130318
632.826949,-842.705048,296.082377,10214.842000
632.827264,153.219100,1406.391290,9030.512492
632.827580,842.705048,1924.535449,7698.141797
632.827896,1302.362347,1850.514855,7772.162391
632.828211,1455.581446,962.267725,7624.121203
632.828527,1838.629195,-444.123565,7846.182985
632.828843,995.924147,-1258.350101,9030.512492
632.829158,1072.533697,-1628.453072,9104.533087
632.829474,536.266849,-1184.329507,10214.842000
632.829790,229.828649,-1406.391290,11177.109724
632.830105,-153.219100,-1480.411884,11547.212695
632.830421,153.219100,-1184.329507,11325.150913
632.830737,76.609550,-148.041188,10881.027347
632.831053,229.828649,518.144159,9696.697840
632.831368,1072.533697,2146.597232,8956.491898
632.831684,1608.800546,2516.700203,7772.162391
632.832000,1991.848295,2812.782580,7328.038826
632.832315,1991.848295,1924.535449,7031.956449
632.832631,2068.457845,-0.000000,8216.285956
632.832947,1378.971896,-1258.350101,8808.450710
632.833262,1072.533697,-1406.391290,9326.594869
632.833578,766.095498,-1184.329507,9918.759623
632.833894,153.219100,-1480.411884,10881.027347
632.834209,0.000000,-1554.432478,11399.171507
632.834525,-383.047749,-1776.494261,11621.233289
632.834841,-919.314598,-1258.350101,10881.027347
632.835156,-766.095498,296.082377,10214.842000
632.835472,76.609550,1258.350101,9474.636058
632.835788,459.657299,2220.617826,8142.265362
632.836103,995.924147,2516.700203,7328.038826
632.836419,1378.971896,1554.432478,7698.141797
632.836735,1608.800546,-148.041188,8068.244768
632.837050,1072.533697,-1702.473667,8586.388927
632.837366,842.705048,-1702.473667,9474.636058
632.837682,229.828649,-1332.370696,9770.718434
632.837997,153.219100,-1110.308913,10584.944971
632.838313,-383.047749,-222.061783,10732.986159
632.838629,-153.219100,-1036.288319,11325.150913
632.838944,-459.657299,-370.102971,10881.027347
632.839260,-612.876398,740.205942,10436.903782
632.839576,-229.828649,1554.432478,9622.677246
632.839891,612.876398,1776.494261,8660.409521
632.840207,919.314598,2664.741391,7698.141797
632.840523,1225.752797,1480.411884,7846.182985
632.840838,919.314598,-592.164754,8216.285956
632.841154,766.095498,-888.247130,8956.491898
632.841470,0.000000,-1554.432478,9104.533087
632.841786,229.828649,-1776.494261,10066.800811
632.842101,-459.657299,-1184.329507,10732.986159
632.842417,-1072.533697,-962.267725,11177.109724
632.842733,-919.314598,-1776.494261,12139.377449
632.843048,-1072.533697,-1110.308913,11029.068536
632.843364,-689.485948,-592.164754,10955.047942
632.843680,-766.095498,-0.000000,9992.780217
632.843995,0.000000,1480.411884,9104.533087
632.844311,766.095498,2146.597232,7920.203579
632.844627,1378.971896,1554.432478,7624.121203
632.844942,1608.800546,148.041188,7846.182985
632.845258,1532.190996,-1406.391290,8364.327145
632.845574,919.314598,-1480.411884,8882.471304
632.845889,919.314598,-1628.453072,9326.594869
632.846205,229.828649,-1628.453072,10584.944971
632.846521,0.000000,-1924.535449,10510.924376
632.846836,-766.095498,-1998.556043,11547.212695
632.847152,-766.095498,-1332.370696,11177.109724
632.847468,-459.657299,-1702.473667,10362.883188
632.847783,-612.876398,-370.102971,9992.780217
632.848099,229.828649,1184.329507,9252.574275
632.848415,919.314598,1776.494261,7772.162391
632.848730,1302.362347,2072.576638,7550.100608
632.849046,1225.752797,74.020594,7476.080014
632.849362,1455.581446,-740.205942,8290.306550
632.849677,919.314598,-1554.432478,8882.471304
632.849993,459.657299,-2072.576638,8882.471304
632.850309,536.266849,-1702.473667,9918.759623
632.850624,153.219100,-1776.494261,10881.027347
632.850940,-306.438199,-1850.514855,11103.089130
632.851256,0.000000,-1850.514855,11029.068536
632.851571,-229.828649,-666.185348,10214.842000
632.851887,-689.485948,370.102971,9548.656652
632.852203,306.438199,1702.473667,9104.533087
632.852519,766.095498,2294.638420,7920.203579
632.852834,1225.752797,2146.597232,7772.162391
632.853150,1302.362347,740.205942,7698.141797
632.853466,1762.019645,-814.226536,8512.368333
632.853781,842.705048,-1776.494261,9474.636058
632.854097,1149.143247,-1924.535449,9696.697840
632.854413,306.438199,-1628.453072,10362.883188
632.854728,383.047749,-1332.370696,10955.047942
632.855044,0.000000,-1406.391290,11325.150913
632.855360,306.438199,-962.267725,11251.130318
632.855675,0.000000,-0.000000,10955.047942
632.855991,0.000000,740.205942,9770.718434
632.856307,842.705048,1924.535449,8734.430116
632.856622,1532.190996,2812.782580,7846.182985
632.856938,1838.629195,2664.741391,7328.038826
632.857254,1915.238745,1480.411884,7105.977043
632.857569,2298.286494,-0.000000,7920.203579
632.857885,1149.143247,-1036.288319,9104.533087
632.858201,995.924147,-1406.391290,9696.697840
632.858516,459.657299,-1258.350101,9992.780217
632.858832,0.000000,-370.102971,10807.006753
632.859148,-919.314598,-888.247130,11399.171507
632.859463,-306.438199,-1184.329507,11843.295072
632.859779,-995.924147,-592.164754,11325.150913
632.860095,-689.485948,-0.000000,10732.986159
632.860410,-459.657299,1184.329507,9400.615463
632.860726,612.876398,2368.659014,8586.388927
632.861042,612.876398,2886.803174,7624.121203
632.861357,995.924147,1628.453072,8068.244768
632.861673,1225.752797,-0.000000,8438.347739
632.861989,536.266849,-1110.308913,8882.471304
632.862304,536.266849,-1110.308913,9474.636058
632.862620,459.657299,-1184.329507,9622.677246
632.862936,383.047749,-814.226536,10807.006753
632.863252,-229.828649,-444.123565,11325.150913
632.863567,-306.438199,-666.185348,11695.253884
632.863883,-536.266849,-444.123565,11177.109724
632.864199,-306.438199,518.144159,10807.006753
632.864514,0.000000,1258.350101,9770.718434
632.864830,536.266849,2072.576638,8660.409521
632.865146,995.924147,2664.741391,7920.203579
632.865461,1762.019645,1924.535449,7920.203579
632.865777,2221.676944,222.061783,7846.182985
632.866093,1455.581446,-1258.350101,8660.409521
632.866408,689.485948,-1850.514855,9252.574275
632.866724,306.438199,-1924.535449,9400.615463
632.867040,0.000000,-1258.350101,10362.883188
632.867355,-689.485948,-962.267725,10881.027347
632.867671,-459.657299,-1924.535449,11547.212695
632.867987,-612.876398,-962.267725,11103.089130
632.868302,-536.266849,-740.205942,10436.903782
632.868618,-383.047749,296.082377,9696.697840
632.868934,459.657299,1480.411884,8882.471304
632.869249,919.314598,1998.556043,8216.285956
632.869565,1685.410096,1554.432478,7994.224174
632.869881,1378.971896,-0.000000,7550.100608
632.870196,1762.019645,-1184.329507,7920.203579
632.870512,1149.143247,-1628.453072,9030.512492
632.870828,995.924147,-1998.556043,8956.491898
632.871143,383.047749,-1036.288319,10214.842000
632.871459,0.000000,-1702.473667,10510.924376
632.871775,0.000000,-1702.473667,11251.130318
632.872090,76.609550,-1406.391290,10584.944971
632.872406,0.000000,-1406.391290,9918.759623
632.872722,-536.266849,-296.082377,9548.656652
632.873037,995.924147,1406.391290,8808.450710
632.873353,1685.410096,1924.535449,7698.141797
632.873669,995.924147,1924.535449,7698.141797
632.873985,1225.752797,666.185348,7402.059420
632.874300,1991.848295,-1184.329507,8216.285956
632.874616,842.705048,-1406.391290,8882.471304
632.874932,153.219100,-1924.535449,9326.594869
632.875247,229.828649,-1554.432478,10436.903782
632.875563,-306.438199,-1924.535449,10807.006753
632.875879,-842.705048,-1776.494261,11399.171507
632.876194,-229.828649,-1702.473667,11473.192101
632.876510,-842.705048,-962.267725,10436.903782
632.876826,-689.485948,-0.000000,9770.718434
632.877141,306.438199,1406.391290,9178.553681
632.877457,995.924147,2294.638420,7846.182985
632.877773,1532.190996,2368.659014,7698.141797
632.878088,1838.629195,888.247130,7698.141797
632.878404,1685.410096,-444.123565,8438.347739
632.878720,919.314598,-1554.432478,9326.594869
632.879035,612.876398,-1480.411884,9548.656652
632.879351,153.219100,-1258.350101,9992.780217
632.879667,306.438199,-1258.350101,11029.068536
632.879982,-153.219100,-1480.411884,11473.192101
632.880298,0.000000,-962.267725,11325.150913
632.880614,-459.657299,-518.144159,10510.924376
632.880929,0.000000,518.144159,10140.821405
632.881245,306.438199,1406.391290,9252.574275
632.881561,766.095498,2368.659014,8142.265362
632.881876,1302.362347,2812.782580,7550.100608
632.882192,1225.752797,1332.370696,8142.265362
632.882508,1532.190996,-74.020594,8808.450710
632.882823,383.047749,-1406.391290,8956.491898
632.883139,306.438199,-1628.453072,9548.656652
632.883455,0.000000,-1776.494261,10140.821405
632.883770,-459.657299,-666.185348,10510.924376
632.884086,-306.438199,-1036.288319,11325.150913
632.884402,-306.438199,-1110.308913,11769.274478
632.884718,-689.485948,-148.041188,10510.924376
632.885033,-306.438199,370.102971,10658.965565
632.885349,-306.438199,1332.370696,9548.656652
632.885665,383.047749,1628.453072,8512.368333
632.885980,919.314598,2812.782580,7772.162391
632.886296,1378.971896,1480.411884,7772.162391
632.886612,1225.752797,-148.041188,8438.347739
632.886927,842.705048,-1258.350101,8586.388927
632.887243,459.657299,-1406.391290,9104.533087
632.887559,459.657299,-1480.411884,9474.636058
632.887874,0.000000,-1480.411884,10510.924376
632.888190,-383.047749,-888.247130,10881.027347
632.888505,-153.219100,-1184.329507,11843.295072
632.888821,-612.876398,-962.267725,10510.924376
632.889137,0.000000,-0.000000,10140.821405
632.889452,306.438199,740.205942,9696.697840
632.889768,1149.143247,1628.453072,8512.368333
632.890084,1608.800546,2664.741391,8142.265362
632.890399,1991.848295,1776.494261,7328.038826
632.890715,1532.190996,-222.061783,7624.121203
632.891031,1455.581446,-1110.308913,8438.347739
632.891346,689.485948,-1776.494261,8734.430116
632.891662,383.047749,-2220.617826,9400.615463
632.891978,-153.219100,-1628.453072,10288.862594
632.892293,-229.828649,-1480.411884,10881.027347
632.892609,-842.705048,-2146.597232,11547.212695
632.892925,-766.095498,-1702.473667,11177.109724
632.893240,-459.657299,-1110.308913,10584.944971
632.893556,-689.485948,222.061783,9844.739029
632.893872,612.876398,1776.494261,8956.491898
632.894187,1455.581446,2368.659014,7476.080014
632.894503,2068.457845,1998.556043,7476.080014
632.894819,1532.190996,518.144159,7772.162391
632.895134,1915.238745,-666.185348,7994.224174
632.895450,1149.143247,-1332.370696,9104.533087
632.895766,1149.143247,-2368.659014,9400.615463
632.896081,459.657299,-1406.391290,10584.944971
632.896397,76.609550,-1628.453072,10807.006753
632.896713,0.000000,-1332.370696,11029.068536
632.897028,306.438199,-1036.288319,11029.068536
632.897344,0.000000,-148.041188,10214.842000
632.897659,0.000000,666.185348,9548.656652
632.897975,1072.533697,1480.411884,8660.409521
632.898291,1302.362347,2516.700203,7994.224174
632.898606,1608.800546,2368.659014,7698.141797
632.898922,1378.971896,666.185348,7624.121203
632.899238,1455.581446,-740.205942,8290.306550
632.899553,153.219100,-1332.370696,8956.491898
632.899869,76.609550,-2220.617826,9474.636058
632.900185,-306.438199,-1628.453072,10732.986159
632.900500,-919.314598,-1924.535449,11473.192101
632.900816,-1532.190996,-1776.494261,11843.295072
632.901132,-995.924147,-1480.411884,11547.212695
632.901447,-1225.752797,-962.267725,10955.047942
632.901763,-766.095498,592.164754,9622.677246
632.902079,76.609550,1776.494261,8882.471304
632.902394,1225.752797,2368.659014,7920.203579
632.902710,1302.362347,2220.617826,7624.121203
632.903026,1378.971896,1258.350101,7476.080014
632.903341,1608.800546,-592.164754,8512.368333
632.903657,689.485948,-1554.432478,8956.491898
632.903973,229.828649,-1406.391290,9770.718434
632.904288,0.000000,-1332.370696,10362.883188
632.904604,-229.828649,-888.247130,11029.068536
632.904920,-766.095498,-1406.391290,11251.130318
632.905235,-306.438199,-1406.391290,11621.233289
632.905551,-689.485948,-740.205942,10732.986159
632.905866,-383.047749,444.123565,10214.842000
632.906182,306.438199,1258.350101,9178.553681
632.906498,995.924147,2146.597232,7846.182985
632.906813,1455.581446,2516.700203,7328.038826
632.907129,2298.286494,1406.391290,7550.100608
632.907445,1838.629195,-74.020594,7624.121203
632.907760,1149.143247,-1258.350101,8734.430116
632.908076,536.266849,-1850.514855,8956.491898
632.908392,306.438199,-1702.473667,9548.656652
632.908707,-153.219100,-1258.350101,10881.027347
632.909023,-766.095498,-1776.494261,11251.130318
632.909339,-689.485948,-1924.535449,11769.274478
632.909654,-1225.752797,-1036.288319,10658.965565
632.909970,-689.485948,-666.185348,10658.965565
632.910286,-229.828649,1036.288319,9548.656652
632.910601,766.095498,1924.535449,8438.347739
632.910917,1072.533697,2442.679609,7624.121203
632.911233,1762.019645,1850.514855,7328.038826
632.911548,1532.190996,-222.061783,7772.162391
632.911864,1455.581446,-1480.411884,8364.327145
632.912180,689.485948,-1110.308913,9030.512492
632.912495,995.924147,-1480.411884,9400.615463
632.912811,383.047749,-962.267725,10436.903782
632.913127,0.000000,-1110.308913,11103.089130
632.913442,153.219100,-1332.370696,11399.171507
632.913758,0.000000,-666.185348,10584.944971
632.914073,459.657299,-370.102971,10140.821405
632.914389,383.047749,888.247130,9770.718434
632.914705,1685.410096,1924.535449,8882.471304
632.915020,1838.629195,2960.823768,7772.162391
632.915336,2068.457845,2590.720797,7920.203579
632.915652,1608.800546,814.226536,7846.182985
632.915967,1991.848295,-518.144159,8734.430116
632.916283,995.924147,-1036.288319,9178.553681
632.916599,689.485948,-1702.473667,9400.615463
632.916914,0.000000,-1924.535449,10288.862594
632.917230,-459.657299,-1480.411884,11251.130318
632.917546,-229.828649,-2072.576638,11621.233289
632.917861,-459.657299,-1258.350101,11695.253884
632.918177,-459.657299,-370.102971,10658.965565
632.918493,-766.095498,518.144159,9918.759623
632.918808,612.876398,1850.514855,9178.553681
632.919124,1225.752797,2146.597232,8068.244768
632.919440,1991.848295,1924.535449,7624.121203
632.919755,1455.581446,444.123565,7402.059420
632.920071,1685.410096,-666.185348,8512.368333
632.920387,1072.533697,-1406.391290,8956.491898
632.920702,612.876398,-1702.473667,9030.512492
632.921018,383.047749,-1406.391290,10362.883188
632.921334,76.609550,-1036.288319,11251.130318
632.921649,-383.047749,-1480.411884,11325.150913
632.921965,0.000000,-1332.370696,11029.068536
632.922281,-689.485948,-666.185348,10732.986159
632.922596,-536.266849,296.082377,9844.739029
632.922912,153.219100,1776.494261,8808.450710
632.923227,1225.752797,2146.597232,7772.162391
632.923543,766.095498,2220.617826,7402.059420
632.923859,1072.533697,1184.329507,7550.100608
632.924174,1532.190996,-518.144159,8142.265362
632.924490,229.828649,-1628.453072,9104.533087
632.924806,0.000000,-1702.473667,9474.636058
632.925121,-536.266849,-1998.556043,9992.780217
632.925437,-459.657299,-1702.473667,11029.068536
632.925753,-1225.752797,-1924.535449,11399.171507
632.926068,-1302.362347,-1850.514855,11547.212695
632.926384,-1378.971896,-1406.391290,10288.862594
632.926700,-383.047749,-74.020594,10214.842000
632.927015,-383.047749,888.247130,9104.533087
632.927331,689.485948,1924.535449,8068.244768
632.927647,919.314598,2294.638420,7402.059420
632.927962,1072.533697,1258.350101,7476.080014
632.928278,1378.971896,-148.041188,8586.388927
632.928594,536.266849,-1628.453072,8808.450710
632.928909,919.314598,-1332.370696,9252.574275
632.929225,689.485948,-1258.350101,9474.636058
632.929541,459.657299,-1258.350101,10214.842000
632.929856,-229.828649,-740.205942,11251.130318
632.930172,0.000000,-1258.350101,11621.233289
632.930488,-229.828649,-518.144159,10658.965565
632.930803,229.828649,666.185348,10362.883188
632.931119,689.485948,1702.473667,9622.677246
632.931434,1302.362347,2368.659014,8512.368333
632.931750,1302.362347,2738.761985,7550.100608
632.932066,1762.019645,1480.411884,7624.121203
632.932381,1915.238745,-370.102971,8216.285956
632.932697,1149.143247,-1702.473667,8734.430116
632.933013,612.876398,-1554.432478,9400.615463
632.933328,383.047749,-1702.473667,9918.759623
632.933644,0.000000,-1480.411884,10584.944971
632.933960,-689.485948,-1554.432478,11251.130318
632.934275,-383.047749,-2220.617826,11843.295072
632.934591,-536.266849,-962.267725,11103.089130
632.934907,0.000000,-518.144159,10732.986159
632.935222,-306.438199,814.226536,9770.718434
632.935538,612.876398,1850.514855,8660.409521
632.935854,1608.800546,2368.659014,7772.162391
632.936169,1838.629195,1702.473667,7772.162391
632.936485,1915.238745,-0.000000,7920.203579
632.936801,1915.238745,-1480.411884,8512.368333
632.937116,842.705048,-1554.432478,9252.574275
632.937432,995.924147,-1776.494261,9400.615463
632.937748,1072.533697,-962.267725,10658.965565
632.938063,0.000000,-1258.350101,10881.027347
632.938379,0.000000,-1554.432478,11177.109724
632.938695,-229.828649,-666.185348,10658.965565
632.939010,0.000000,-518.144159,9844.739029
632.939326,0.000000,222.061783,9844.739029
632.939642,612.876398,1924.535449,8808.450710
632.939957,1149.143247,2220.617826,7994.224174
632.940273,995.924147,1924.535449,7994.224174
632.940588,919.314598,518.144159,8068.244768
632.940904,919.314598,-1110.308913,8956.491898
632.941220,383.047749,-1110.308913,9178.553681
632.941535,0.000000,-1776.494261,9474.636058
632.941851,-306.438199,-1628.453072,9622.677246
632.942167,-689.485948,-1554.432478,11029.068536
632.942482,-612.876398,-1554.432478,10955.047942
632.942798,-459.657299,-1554.432478,11103.089130
632.943114,-919.314598,-592.164754,9844.739029
632.943429,-689.485948,-0.000000,9622.677246
632.943745,229.828649,1702.473667,8882.471304
632.944061,995.924147,2368.659014,7846.182985
632.944376,1225.752797,1998.556043,7624.121203
632.944692,1225.752797,740.205942,7772.162391
632.945008,1149.143247,-518.144159,8290.306550
632.945323,536.266849,-1554.432478,9104.533087
632.945639,383.047749,-1850.514855,9252.574275
632.945955,76.609550,-1406.391290,10066.800811
632.946270,-229.828649,-1110.308913,11029.068536
632.946586,-689.485948,-1628.453072,11695.253884
632.946902,-383.047749,-1332.370696,11103.089130
632.947217,-919.314598,-74.020594,10510.924376
632.947533,-459.657299,518.144159,9992.780217
632.947849,0.000000,1776.494261,8660.409521
632.948164,1455.581446,2368.659014,7624.121203
632.948480,1072.533697,2442.679609,7550.100608
632.948795,1149.143247,814.226536,7624.121203
632.949111,1302.362347,-370.102971,8290.306550
632.949427,76.609550,-1850.514855,8808.450710
632.949742,229.828649,-2072.576638,9474.636058
632.950058,0.000000,-1776.494261,9918.759623
632.950374,-383.047749,-1258.350101,10881.027347
632.950689,-689.485948,-1036.288319,11325.150913
632.951005,-536.266849,-1480.411884,11621.233289
632.951321,-1225.752797,-1036.288319,10584.944971
632.951636,-689.485948,-0.000000,10288.862594
632.951952,0.000000,962.267725,9400.615463
632.952268,842.705048,1554.432478,8586.388927
632.952583,1149.143247,2368.659014,7994.224174
632.952899,1608.800546,1036.288319,7624.121203
632.953215,1838.629195,-518.144159,8216.285956
632.953530,995.924147,-1406.391290,8956.491898
632.953846,1455.581446,-1406.391290,9326.594869
632.954162,1532.190996,-1110.308913,9844.739029
632.954477,689.485948,-1036.288319,10807.006753
632.954793,153.219100,-444.123565,11251.130318
632.955109,383.047749,-1110.308913,11399.171507
632.955424,306.438199,-592.164754,10658.965565
632.955740,459.657299,-0.000000,10658.965565
632.956056,766.095498,1776.494261,9548.656652
632.956371,1685.410096,2516.700203,8512.368333
632.956687,2068.457845,2812.782580,7772.162391
632.957002,2451.505594,1702.473667,7920.203579
632.957318,2298.286494,-74.020594,7846.182985
632.957634,1685.410096,-1110.308913,8586.388927
632.957949,842.705048,-1628.453072,8956.491898
632.958265,383.047749,-1702.473667,9770.718434
632.958581,689.485948,-1406.391290,10362.883188
632.958896,-306.438199,-1406.391290,11177.109724
632.959212,-766.095498,-1924.535449,11695.253884
632.959528,-383.047749,-740.205942,10881.027347
632.959843,-229.828649,-0.000000,10658.965565
632.960159,-383.047749,1036.288319,9918.759623
632.960475,689.485948,1924.535449,8660.409521
632.960790,1072.533697,2368.659014,7624.121203
632.961106,1608.800546,2294.638420,7920.203579
632.961422,1378.971896,222.061783,7772.162391
632.961737,1378.971896,-1036.288319,8438.347739
632.962053,842.705048,-1258.350101,9030.512492
632.962369,536.266849,-1924.535449,9474.636058
632.962684,0.000000,-1184.329507,10658.965565
632.963000,0.000000,-1998.556043,10881.027347
632.963316,-153.219100,-1406.391290,10881.027347
632.963631,-229.828649,-888.247130,10732.986159
632.963947,0.000000,-74.020594,9770.718434
632.964263,-459.657299,592.164754,9474.636058
632.964578,842.705048,2072.576638,8586.388927
632.964894,1302.362347,2516.700203,7624.121203
632.965210,1455.581446,2072.576638,7476.080014
632.965525,842.705048,370.102971,7476.080014
632.965841,1302.362347,-1110.308913,8512.368333
632.966156,383.047749,-1628.453072,9252.574275
632.966472,153.219100,-2294.638420,9622.677246
632.966788,-689.485948,-1776.494261,10288.862594
632.967103,-842.705048,-1628.453072,11251.130318
632.967419,-995.924147,-1776.494261,11399.171507
632.967735,-766.095498,-1554.432478,11103.089130
632.968050,-689.485948,-740.205942,10510.924376
632.968366,-995.924147,592.164754,9770.718434
632.968682,153.219100,1554.432478,9104.533087
632.968997,1149.143247,2220.617826,8068.244768
632.969313,1302.362347,1702.473667,7624.121203
632.969629,1225.752797,370.102971,7994.224174
632.969944,1532.190996,-1036.288319,8808.450710
632.970260,842.705048,-1628.453072,9178.553681
632.970576,536.266849,-1406.391290,9474.636058
632.970891,459.657299,-962.267725,9992.780217
632.971207,306.438199,-518.144159,10658.965565
632.971523,0.000000,-518.144159,11177.109724
632.971838,229.828649,-888.247130,11547.212695
632.972154,-153.219100,-518.144159,10510.924376
632.972470,0.000000,518.144159,10214.842000
632.972785,766.095498,1480.411884,9104.533087
632.973101,1302.362347,2294.638420,8290.306550
632.973417,1378.971896,2516.700203,7550.100608
632.973732,1685.410096,1036.288319,7772.162391
632.974048,2068.457845,-444.123565,8142.265362
632.974363,689.485948,-1850.514855,9104.533087
632.974679,612.876398,-2072.576638,9474.636058
632.974995,0.000000,-1924.535449,10214.842000
632.975310,-153.219100,-1406.391290,11103.089130
632.975626,-689.485948,-1998.556043,11251.130318
632.975942,0.000000,-1480.411884,11695.253884
632.976257,-919.314598,-814.226536,10584.944971
632.976573,0.000000,-296.082377,10214.842000
632.976889,153.219100,1036.288319,8882.471304
632.977204,1455.581446,1998.556043,7920.203579
632.977520,1532.190996,2516.700203,7328.038826
632.977836,2068.457845,1332.370696,7179.997637
632.978151,2221.676944,-888.247130,8290.306550
632.978467,1532.190996,-1702.473667,8734.430116
632.978783,536.266849,-1406.391290,9252.574275
632.979098,612.876398,-1406.391290,9622.677246
632.979414,612.876398,-1554.432478,10584.944971
632.979730,0.000000,-1258.350101,10955.047942
632.980045,0.000000,-1406.391290,11473.192101
632.980361,0.000000,-592.164754,10510.924376
632.980677,383.047749,-222.061783,10362.883188
632.980992,383.047749,1406.391290,9400.615463
632.981308,1532.190996,2368.659014,8438.347739
632.981624,1532.190996,2886.803174,7772.162391
632.981939,1838.629195,2220.617826,7698.141797
632.982255,1608.800546,-148.041188,7476.080014
632.982570,1915.238745,-1258.350101,8438.347739
632.982886,536.266849,-1850.514855,9622.677246
632.983202,153.219100,-2294.638420,9474.636058
632.983517,-612.876398,-1998.556043,10436.903782
632.983833,-1072.533697,-1628.453072,11325.150913
632.984149,-995.924147,-2146.597232,11547.212695
632.984464,-1072.533697,-814.226536,11177.109724
632.984780,-919.314598,-74.020594,10584.944971
632.985096,-1149.143247,666.185348,9770.718434
632.985411,153.219100,1776.494261,9104.533087
632.985727,689.485948,2294.638420,8216.285956
632.986043,995.924147,1850.514855,8068.244768
632.986358,842.705048,222.061783,7624.121203
632.986674,1225.752797,-1332.370696,8586.388927
632.986990,306.438199,-1406.391290,9400.615463
632.987305,459.657299,-2072.576638,9474.636058
632.987621,-153.219100,-1406.391290,10658.965565
632.987937,-612.876398,-1628.453072,11251.130318
632.988252,-612.876398,-1776.494261,11547.212695
632.988568,0.000000,-1184.329507,11103.089130
632.988884,-229.828649,222.061783,10362.883188
632.989199,-153.219100,814.226536,8956.491898
632.989515,612.876398,1850.514855,7846.182985
632.989831,1378.971896,2590.720797,7402.059420
632.990146,1608.800546,2072.576638,7550.100608
632.990462,1072.533697,518.144159,7920.203579
632.990778,1072.533697,-1258.350101,8586.388927
632.991093,153.219100,-1998.556043,9474.636058
632.991409,0.000000,-2368.659014,10066.800811
632.991725,-153.219100,-1702.473667,10807.006753
632.992040,-766.095498,-1554.432478,11251.130318
632.992356,-1072.533697,-2220.617826,11251.130318
632.992672,-459.657299,-2146.597232,11177.109724
632.992987,-842.705048,-1406.391290,10214.842000
632.993303,-612.876398,148.041188,9844.739029
632.993619,689.485948,1406.391290,8808.450710
632.993934,1455.581446,2516.700203,7624.121203
632.994250,1838.629195,2664.741391,7254.018232
632.994566,1915.238745,1036.288319,7550.100608
632.994881,2681.334243,-370.102971,8216.285956
632.995197,1302.362347,-1332.370696,8808.450710
632.995513,919.314598,-1480.411884,9400.615463
632.995828,689.485948,-2072.576638,10362.883188
632.996144,229.828649,-1480.411884,11029.068536
632.996460,-919.314598,-1776.494261,11547.212695
632.996775,76.609550,-1258.350101,11251.130318
632.997091,-153.219100,-74.020594,10362.883188
632.997407,0.000000,962.267725,9992.780217
632.997722,383.047749,2368.659014,8586.388927
632.998038,1762.019645,2516.700203,7698.141797
632.998354,1532.190996,2886.803174,7179.997637
632.998670,1685.410096,1480.411884,7031.956449
632.998985,2145.067394,-444.123565,7920.203579
632.999301,842.705048,-1628.453072,8586.388927
632.999617,383.047749,-1628.453072,9474.636058
632.999932,229.828649,-962.267725,9992.780217
633.000248,0.000000,-1110.308913,10584.944971
633.000564,-766.095498,-1110.308913,11325.150913
633.000879,-306.438199,-1110.308913,11769.274478
633.001195,-842.705048,-0.000000,10510.924376
633.001511,-306.438199,1036.288319,10214.842000
633.001826,0.000000,2072.576638,8956.491898
633.002142,919.314598,3108.864956,8290.306550
633.002458,1532.190996,3627.009116,8068.244768
633.002773,1991.848295,2368.659014,7846.182985
633.003089,1378.971896,444.123565,7994.224174
633.003405,1225.752797,-592.164754,9178.553681
633.003720,229.828649,-592.164754,9918.759623
633.004036,459.657299,-1036.288319,10066.800811
633.004352,0.000000,-666.185348,11029.068536
633.004667,-306.438199,-444.123565,11473.192101
633.004983,76.609550,-888.247130,11473.192101
633.005299,0.000000,-0.000000,11103.089130
633.005614,383.047749,-0.000000,10510.924376
633.005930,306.438199,1628.453072,9548.656652
633.006246,995.924147,2368.659014,8586.388927
633.006561,1455.581446,2664.741391,8142.265362
633.006877,1685.410096,1406.391290,8290.306550
633.007193,1225.752797,-74.020594,8216.285956
633.007508,1302.362347,-1554.432478,9104.533087
633.007824,383.047749,-2220.617826,9622.677246
633.008140,-306.438199,-2146.597232,9696.697840
633.008455,-919.314598,-1554.432478,10658.965565
633.008771,-689.485948,-1702.473667,11621.233289
633.009087,-995.924147,-2072.576638,11399.171507
633.009402,-995.924147,-2072.576638,11177.109724
633.009718,-842.705048,-1480.411884,10584.944971
633.010034,-1072.533697,-666.185348,9844.739029
633.010349,153.219100,1332.370696,9252.574275
633.010665,842.705048,1924.535449,7846.182985
633.010981,1302.362347,1184.329507,7698.141797
633.011296,1455.581446,-0.000000,7846.182985
633.011612,1608.800546,-1776.494261,8290.306550
633.011928,76.609550,-2146.597232,8660.409521
633.012243,766.095498,-2220.617826,9326.594869
633.012559,306.438199,-1480.411884,9770.718434
633.012875,229.828649,-1406.391290,10436.903782
633.013190,0.000000,-1776.494261,10955.047942
633.013506,0.000000,-1776.494261,10214.842000
633.013822,0.000000,-296.082377,10140.821405
633.014137,0.000000,296.082377,9696.697840
633.014453,459.657299,1332.370696,8734.430116
633.014769,1225.752797,2294.638420,7476.080014
633.015084,1378.971896,1998.556043,7179.997637
633.015400,1762.019645,592.164754,7550.100608
633.015716,1608.800546,-740.205942,8068.244768
633.016031,766.095498,-2294.638420,8882.471304
633.016347,306.438199,-2368.659014,9400.615463
633.016663,0.000000,-2368.659014,10140.821405
633.016979,-536.266849,-1850.514855,10436.903782
633.017294,-459.657299,-1776.494261,11251.130318
633.017610,-459.657299,-1554.432478,11177.109724
633.017926,-1072.533697,-962.267725,10362.883188
633.018241,-459.657299,-148.041188,9844.739029
633.018557,689.485948,814.226536,8734.430116
633.018873,1225.752797,1924.535449,7698.141797
633.019188,2145.067394,2368.659014,7254.018232
633.019504,1915.238745,814.226536,7105.977043
633.019820,2221.676944,-666.185348,8068.244768
633.020135,1149.143247,-1332.370696,9104.533087
633.020451,842.705048,-1554.432478,9252.574275
633.020767,995.924147,-1554.432478,9844.739029
633.021082,153.219100,-1850.514855,10584.944971
633.021398,-766.095498,-888.247130,11325.150913
633.021714,-153.219100,-1628.453072,11473.192101
633.022029,-536.266849,-444.123565,10732.986159
633.022345,0.000000,962.267725,10955.047942
633.022661,-229.828649,2072.576638,9474.636058
633.022976,919.314598,2886.803174,8734.430116
633.023292,1149.143247,3034.844362,7846.182985
633.023608,1455.581446,1924.535449,8068.244768
633.023923,1149.143247,-444.123565,8438.347739
633.024239,919.314598,-740.205942,9252.574275
633.024555,612.876398,-592.164754,9104.533087
633.024870,459.657299,-740.205942,9918.759623
633.025186,-229.828649,-518.144159,11177.109724
633.025502,-612.876398,-1036.288319,11695.253884
633.025817,-612.876398,-666.185348,11843.295072
633.026133,-612.876398,592.164754,10955.047942
633.026449,-459.657299,888.247130,10584.944971
633.026764,-306.438199,2072.576638,9474.636058
633.027080,1225.752797,2960.823768,8734.430116
633.027396,766.095498,3478.967927,8142.265362
633.027711,1685.410096,2368.659014,8290.306550
633.028027,919.314598,296.082377,8290.306550
633.028343,842.705048,-1258.350101,9326.594869
633.028658,153.219100,-1184.329507,9770.718434
633.028974,229.828649,-1332.370696,9918.759623
633.029290,0.000000,-518.144159,10658.965565
633.029605,-229.828649,-1184.329507,11325.150913
633.029921,153.219100,-1628.453072,11399.171507
633.030237,153.219100,-666.185348,10732.986159
633.030552,0.000000,-592.164754,10362.883188
633.030868,306.438199,1036.288319,9474.636058
633.031184,1149.143247,2220.617826,8364.327145
633.031499,1915.238745,2812.782580,7254.018232
633.031815,2068.457845,2072.576638,7328.038826
633.032131,1762.019645,296.082377,7772.162391
633.032446,1532.190996,-1406.391290,8290.306550
633.032762,612.876398,-1776.494261,8956.491898
633.033078,1072.533697,-2664.741391,9548.656652
633.033393,-153.219100,-2442.679609,10881.027347
633.033709,-689.485948,-2294.638420,11103.089130
633.034025,-612.876398,-2368.659014,11547.212695
633.034340,-766.095498,-2294.638420,10955.047942
633.034656,-919.314598,-962.267725,10140.821405
633.034972,-766.095498,-222.061783,9474.636058
633.035287,459.657299,888.247130,8808.450710
633.035603,1225.752797,1406.391290,7402.059420
633.035919,1685.410096,962.267725,7179.997637
633.036235,1302.362347,-666.185348,7550.100608
633.036550,1685.410096,-2146.597232,8586.388927
633.036866,689.485948,-2368.659014,9030.512492
633.037182,689.485948,-2294.638420,9104.533087
633.037497,459.657299,-1924.535449,9770.718434
633.037813,153.219100,-1332.370696,10584.944971
633.038129,-153.219100,-1702.473667,11177.109724
633.038444,153.219100,-1702.473667,11029.068536
633.038760,0.000000,-666.185348,9844.739029
633.039076,229.828649,222.061783,9548.656652
633.039391,995.924147,1776.494261,8290.306550
633.039707,1532.190996,2220.617826,7550.100608
633.040023,1608.800546,2368.659014,7328.038826
633.040338,1225.752797,888.247130,7328.038826
633.040654,1455.581446,-1036.288319,8512.368333
633.040970,383.047749,-1776.494261,9400.615463
633.041285,306.438199,-1998.556043,9696.697840
633.041601,153.219100,-1702.473667,10214.842000
633.041917,0.000000,-1258.350101,11177.109724
633.042232,-995.924147,-1554.432478,11547.212695
633.042548,-536.266849,-1036.288319,11843.295072
633.042864,-919.314598,-296.082377,10140.821405
633.043179,-383.047749,666.185348,9918.759623
633.043495,153.219100,1554.432478,9030.512492
633.043811,1225.752797,2072.576638,7994.224174
633.044126,1302.362347,2812.782580,7624.121203
633.044442,1455.581446,1110.308913,7698.141797
633.044758,1455.581446,-666.185348,8512.368333
633.045073,306.438199,-1702.473667,9400.615463
633.045389,536.266849,-1110.308913,9326.594869
633.045705,153.219100,-740.205942,10066.800811
633.046020,-306.438199,-1110.308913,10881.027347
633.046336,-536.266849,-814.226536,11399.171507
633.046652,-612.876398,-1480.411884,11843.295072
633.046967,-689.485948,-0.000000,11029.068536
633.047283,-459.657299,518.144159,10584.944971
633.047599,-306.438199,2294.638420,9474.636058
633.047914,612.876398,2812.782580,8438.347739
633.048230,919.314598,3256.906145,7624.121203
633.048546,1685.410096,1998.556043,8216.285956
633.048861,1072.533697,-0.000000,8290.306550
633.049177,306.438199,-1184.329507,9104.533087
633.049493,459.657299,-1628.453072,9770.718434
633.049808,0.000000,-1924.535449,10140.821405
633.050124,-459.657299,-1258.350101,11103.089130
633.050440,-766.095498,-666.185348,11399.171507
633.050755,-383.047749,-1110.308913,11547.212695
633.051071,-689.485948,-0.000000,10955.047942
633.051387,-76.609550,518.144159,10436.903782
633.051702,-306.438199,2146.597232,9252.574275
633.052018,842.705048,2516.700203,8068.244768
633.052334,1532.190996,2664.741391,7994.224174
633.052649,1762.019645,1702.473667,8068.244768
633.052965,1225.752797,-296.082377,8142.265362
633.053281,1532.190996,-1332.370696,9104.533087
633.053596,689.485948,-1554.432478,9400.615463
633.053912,689.485948,-1776.494261,9622.677246
633.054228,536.266849,-1110.308913,10584.944971
633.054543,153.219100,-1110.308913,11029.068536
633.054859,229.828649,-1554.432478,11251.130318
633.055175,229.828649,-962.267725,10362.883188
633.055491,229.828649,-296.082377,9992.780217
633.055806,766.095498,666.185348,9326.594869
633.056122,1302.362347,1998.556043,8142.265362
633.056438,2145.067394,2072.576638,7031.956449
633.056753,2298.286494,1332.370696,7402.059420
633.057069,1685.410096,-0.000000,7328.038826
633.057385,1532.190996,-1924.535449,8586.388927
633.057700,612.876398,-2220.617826,8956.491898
633.058016,383.047749,-2738.761985,9844.739029
633.058332,0.000000,-1850.514855,10807.006753
633.058647,-612.876398,-2516.700203,10955.047942
633.058963,-1072.533697,-2664.741391,11621.233289
633.059279,-612.876398,-2072.576638,10807.006753
633.059594,-1072.533697,-1110.308913,10066.800811
633.059910,-689.485948,-0.000000,9474.636058
633.060226,306.438199,1184.329507,8660.409521
633.060541,1072.533697,1702.473667,7624.121203
633.060857,1455.581446,1554.432478,7328.038826
633.061173,1455.581446,-0.000000,7402.059420
633.061488,1838.629195,-1332.370696,8290.306550
633.061804,1532.190996,-1776.494261,8956.491898
633.062120,842.705048,-2072.576638,9770.718434
633.062435,459.657299,-1998.556043,10066.800811
633.062751,76.609550,-1184.329507,10881.027347
633.063067,-229.828649,-1554.432478,11103.089130
633.063382,459.657299,-1406.391290,11325.150913
633.063698,-383.047749,-518.144159,10510.924376
633.064014,0.000000,962.267725,9992.780217
633.064329,306.438199,2146.597232,8438.347739
633.064645,995.924147,2516.700203,8142.265362
633.064961,1149.143247,1850.514855,7698.141797
633.065276,1225.752797,592.164754,7772.162391
633.065592,1149.143247,-666.185348,8734.430116
633.065908,0.000000,-2590.720797,9326.594869
633.066223,0.000000,-2368.659014,9992.780217
633.066539,-383.047749,-2146.597232,10732.986159
633.066855,-689.485948,-1184.329507,11029.068536
633.067170,-1149.143247,-1406.391290,11547.212695
633.067486,-536.266849,-1258.350101,11917.315666
633.067802,-1149.143247,-0.000000,10288.862594
633.068117,-536.266849,-222.061783,9992.780217
633.068433,0.000000,1184.329507,8808.450710
633.068749,612.876398,1628.453072,8216.285956
633.069064,1149.143247,1924.535449,7624.121203
633.069380,1455.581446,888.247130,7772.162391
633.069696,1149.143247,-888.247130,7994.224174
633.070011,689.485948,-1776.494261,9252.574275
633.070327,383.047749,-1628.453072,9252.574275
633.070643,229.828649,-1110.308913,9770.718434
633.070958,0.000000,-1258.350101,10436.903782
633.071274,-306.438199,-1332.370696,11177.109724
633.071590,-459.657299,-1998.556043,11843.295072
633.071905,-766.095498,-518.144159,10732.986159
633.072221,0.000000,-0.000000,10140.821405
633.072537,0.000000,1258.350101,9104.533087
633.072852,842.705048,2664.741391,8216.285956
633.073168,1455.581446,2812.782580,7698.141797
633.073484,1991.848295,2072.576638,7624.121203
633.073800,1532.190996,-148.041188,7920.203579
633.074115,1455.581446,-1554.432478,9030.512492
633.074431,536.266849,-1628.453072,9474.636058
633.074747,459.657299,-1924.535449,9696.697840
633.075062,-383.047749,-1628.453072,10955.047942
633.075378,-536.266849,-1480.411884,11029.068536
633.075694,306.438199,-1702.473667,11547.212695
633.076009,-153.219100,-740.205942,10510.924376
633.076325,229.828649,-74.020594,10362.883188
633.076641,153.219100,1184.329507,9104.533087
633.076956,1225.752797,2590.720797,8290.306550
633.077272,1838.629195,2442.679609,7328.038826
633.077588,2145.067394,2146.597232,7698.141797
633.077903,1915.238745,444.123565,7550.100608
633.078219,1685.410096,-1258.350101,8438.347739
633.078535,919.314598,-1628.453072,9030.512492
633.078850,842.705048,-1776.494261,9770.718434
633.079166,229.828649,-1554.432478,10955.047942
633.079482,0.000000,-1998.556043,11325.150913
633.079797,0.000000,-1924.535449,11547.212695
633.080113,76.609550,-1184.329507,10584.944971
633.080429,-229.828649,74.020594,9696.697840
633.080744,306.438199,1998.556043,9030.512492
633.081060,1302.362347,3330.926739,7624.121203
633.081376,1991.848295,3552.988522,7031.956449
633.081691,2298.286494,2960.823768,7105.977043
633.082007,1762.019645,1110.308913,7402.059420
633.082323,1762.019645,-592.164754,8586.388927
633.082638,459.657299,-1628.453072,9326.594869
633.082954,229.828649,-1850.514855,9918.759623
633.083270,-229.828649,-888.247130,10584.944971
633.083585,-766.095498,-444.123565,11251.130318
633.083901,-1149.143247,-222.061783,11621.233289
633.084217,-919.314598,148.041188,11325.150913
633.084532,-1532.190996,888.247130,10362.883188
633.084848,-995.924147,1924.535449,10510.924376
633.085164,0.000000,2886.803174,8956.491898
633.085479,1072.533697,3404.947333,7846.182985
633.085795,1072.533697,3478.967927,7772.162391
633.086111,1455.581446,1554.432478,7994.224174
633.086426,1608.800546,-0.000000,9178.553681
633.086742,383.047749,-666.185348,9474.636058
633.087058,76.609550,-962.267725,9770.718434
633.087373,306.438199,-666.185348,10510.924376
633.087689,306.438199,-370.102971,11325.150913
633.088005,-459.657299,-148.041188,11547.212695
633.088320,0.000000,-370.102971,11695.253884
633.088636,-459.657299,296.082377,10362.883188
633.088952,229.828649,1036.288319,10214.842000
633.089268,-76.609550,2664.741391,9474.636058
633.089583,1149.143247,2960.823768,7846.182985
633.089899,1455.581446,3034.844362,7254.018232
633.090215,1455.581446,1628.453072,8068.244768
633.090530,1685.410096,-888.247130,8956.491898
633.090846,766.095498,-1924.535449,9622.677246
633.091162,383.047749,-2294.638420,9844.739029
633.091477,0.000000,-2516.700203,10584.944971
633.091793,-383.047749,-2368.659014,11177.109724
633.092109,-766.095498,-1924.535449,11843.295072
633.092425,-536.266849,-2664.741391,11917.315666
633.092740,-919.314598,-740.205942,10807.006753
633.093056,-229.828649,-222.061783,10362.883188
633.093372,0.000000,1110.308913,9400.615463
633.093687,1072.533697,1998.556043,8512.368333
633.094003,1225.752797,1776.494261,7698.141797
633.094319,1991.848295,814.226536,7772.162391
633.094634,1378.971896,-1628.453072,7772.162391
633.094950,919.314598,-2590.720797,8808.450710
633.095266,459.657299,-2664.741391,8956.491898
633.095582,459.657299,-3108.864956,9474.636058
633.095897,-229.828649,-2368.659014,10214.842000
633.096213,-612.876398,-2886.803174,10955.047942
633.096529,-459.657299,-3034.844362,10955.047942
633.096844,-306.438199,-1628.453072,10214.842000
633.097160,-306.438199,-1110.308913,9548.656652
633.097476,-229.828649,296.082377,8660.409521
633.097792,1072.533697,1406.391290,7624.121203
633.098107,1685.410096,1258.350101,6883.915261
633.098423,1685.410096,592.164754,7179.997637
633.098739,1378.971896,-1332.370696,7698.141797
633.099054,1225.752797,-2960.823768,8586.388927
633.099370,229.828649,-2812.782580,8586.388927
633.099686,76.609550,-2960.823768,9696.697840
633.100001,-306.438199,-2072.576638,10732.986159
633.100317,-612.876398,-2368.659014,10436.903782
633.100633,-689.485948,-1998.556043,10955.047942
633.100949,-536.266849,-1776.494261,9918.759623
633.101264,-689.485948,-888.247130,9770.718434
633.101580,-536.266849,518.144159,8956.491898
633.101896,766.095498,1850.514855,8290.306550
633.102211,1532.190996,1850.514855,7328.038826
633.102527,1762.019645,1628.453072,7624.121203
633.102843,1685.410096,370.102971,8142.265362
633.103158,1762.019645,-1554.432478,9178.553681
633.103474,766.095498,-1110.308913,9030.512492
633.103790,766.095498,-1702.473667,9770.718434
633.104106,536.266849,-666.185348,10510.924376
633.104421,306.438199,-814.226536,11103.089130
633.104737,0.000000,-666.185348,11251.130318
633.105053,536.266849,-296.082377,10881.027347
633.105368,76.609550,444.123565,10066.800811
633.105684,76.609550,2072.576638,9400.615463
633.106000,1302.362347,3034.844362,8586.388927
633.106316,1762.019645,3478.967927,7772.162391
633.106631,1532.190996,3182.885551,7920.203579
633.106947,1302.362347,1406.391290,8290.306550
633.107263,1302.362347,-148.041188,9474.636058
633.107578,0.000000,-1110.308913,10140.821405
633.107894,0.000000,-1480.411884,10584.944971
633.108210,-536.266849,-814.226536,11325.150913
633.108525,-766.095498,-74.020594,11843.295072
633.108841,-995.924147,-518.144159,11843.295072
633.109157,-229.828649,296.082377,11695.253884
633.109473,-1302.362347,666.185348,10584.944971
633.109788,-383.047749,1998.556043,10436.903782
633.110104,76.609550,2960.823768,8734.430116
633.110420,1225.752797,3404.947333,8438.347739
633.110735,1149.143247,2886.803174,7772.162391
633.111051,1838.629195,2072.576638,7994.224174
633.111367,1838.629195,370.102971,8882.471304
633.111682,919.314598,-444.123565,9252.574275
633.111998,766.095498,-0.000000,9326.594869
633.112314,919.314598,-370.102971,10658.965565
633.112630,306.438199,-0.000000,10955.047942
633.112945,-383.047749,-518.144159,11325.150913
633.113261,0.000000,-444.123565,11621.233289
633.113577,0.000000,-0.000000,10362.883188
633.113892,459.657299,1036.288319,10362.883188
633.114208,229.828649,2368.659014,9326.594869
633.114524,1072.533697,2812.782580,7920.203579
633.114840,1838.629195,2960.823768,7772.162391
633.115155,1685.410096,1850.514855,7772.162391
633.115471,1608.800546,-148.041188,8142.265362
633.115787,1378.971896,-1110.308913,8660.409521
633.116102,459.657299,-1406.391290,9252.574275
633.116418,229.828649,-1702.473667,9844.739029
633.116734,0.000000,-1850.514855,10732.986159
633.117049,-919.314598,-1628.453072,11325.150913
633.117365,-459.657299,-2590.720797,11621.233289
633.117681,-919.314598,-1036.288319,10584.944971
633.117997,-306.438199,-1110.308913,10288.862594
633.118312,153.219100,370.102971,9622.677246
633.118628,919.314598,1184.329507,8660.409521
633.118944,1225.752797,1776.494261,7402.059420
633.119259,1685.410096,148.041188,7846.182985
633.119575,1378.971896,-1406.391290,7920.203579
633.119891,689.485948,-2442.679609,8216.285956
633.120206,766.095498,-2960.823768,8956.491898
633.120522,612.876398,-3330.926739,9474.636058
633.120838,76.609550,-2516.700203,10436.903782
633.121154,-383.047749,-3108.864956,11029.068536
633.121469,0.000000,-3256.906145,11251.130318
633.121785,-229.828649,-2294.638420,9992.780217
633.122101,153.219100,-888.247130,9696.697840
633.122416,-153.219100,148.041188,8882.471304
633.122732,1378.971896,1036.288319,8290.306550
633.123048,1532.190996,1258.350101,7179.997637
633.123364,1762.019645,296.082377,7402.059420
633.123679,1225.752797,-1554.432478,7698.141797
633.123995,1072.533697,-2886.803174,8734.430116
633.124311,229.828649,-3108.864956,9252.574275
633.124626,76.609550,-3256.906145,9918.759623
633.124942,-536.266849,-2072.576638,10807.006753
633.125258,-919.314598,-2220.617826,10658.965565
633.125573,-995.924147,-1776.494261,11399.171507
633.125889,-919.314598,-1776.494261,9918.759623
633.126205,-689.485948,-592.164754,9844.739029
633.126521,-919.314598,222.061783,9548.656652
633.126836,306.438199,1628.453072,8364.327145
633.127152,1302.362347,2294.638420,7772.162391
633.127468,1532.190996,1702.473667,7254.018232
633.127783,1225.752797,222.061783,7994.224174
633.128099,1608.800546,-1258.350101,8956.491898
633.128415,536.266849,-1036.288319,9178.553681
633.128730,153.219100,-1110.308913,9844.739029
633.129046,459.657299,-740.205942,10584.944971
633.129362,0.000000,-370.102971,10732.986159
633.129678,0.000000,-592.164754,11399.171507
633.129993,306.438199,-222.061783,10881.027347
633.130309,-536.266849,296.082377,10140.821405
633.130625,0.000000,2072.576638,9696.697840
633.130940,995.924147,2738.761985,8660.409521
633.131256,1072.533697,3404.947333,7624.121203
633.131572,842.705048,3034.844362,7994.224174
633.131887,1149.143247,592.164754,8364.327145
633.132203,1225.752797,-370.102971,9178.553681
633.132519,0.000000,-888.247130,9770.718434
633.132835,306.438199,-1036.288319,10066.800811
633.133150,-229.828649,-888.247130,10732.986159
633.133466,-612.876398,-222.061783,11325.150913
633.133782,-766.095498,-592.164754,11547.212695
633.134097,0.000000,-222.061783,11399.171507
633.134413,-229.828649,-0.000000,10510.924376
633.134729,-689.485948,1406.391290,10288.862594
633.135045,76.609550,2368.659014,9104.533087
633.135360,1225.752797,3330.926739,8586.388927
633.135676,1225.752797,3330.926739,7624.121203
633.135992,1762.019645,2220.617826,7920.203579
633.136307,1991.848295,370.102971,8512.368333
633.136623,842.705048,-740.205942,8808.450710
633.136939,1149.143247,-814.226536,9474.636058
633.137254,842.705048,-962.267725,9918.759623
633.137570,383.047749,-666.185348,11251.130318
633.137886,-229.828649,-888.247130,11843.295072
633.138202,76.609550,-888.247130,11473.192101
633.138517,-229.828649,592.164754,10362.883188
633.138833,0.000000,1480.411884,10436.903782
633.139149,689.485948,2590.720797,9252.574275
633.139464,1302.362347,2664.741391,8290.306550
633.139780,1532.190996,3034.844362,7698.141797
633.140096,2068.457845,1406.391290,7846.182985
633.140411,1532.190996,-740.205942,8068.244768
633.140727,919.314598,-1554.432478,9474.636058
633.141043,766.095498,-1924.535449,9400.615463
633.141359,459.657299,-2146.597232,9918.759623
633.141674,0.000000,-1628.453072,10140.821405
633.141990,-919.314598,-1554.432478,11177.109724
633.142306,-459.657299,-2738.761985,11177.109724
633.142621,-383.047749,-814.226536,10436.903782
633.142937,0.000000,-666.185348,10214.842000
633.143253,0.000000,592.164754,9474.636058
633.143569,842.705048,1480.411884,8290.306550
633.143884,1532.190996,1628.453072,7476.080014
633.144200,1762.019645,814.226536,8142.265362
633.144516,1378.971896,-1332.370696,8068.244768
633.144831,1149.143247,-2516.700203,8660.409521
633.145147,459.657299,-2590.720797,8808.450710
633.145463,536.266849,-3108.864956,9622.677246
633.145778,76.609550,-1998.556043,10436.903782
633.146094,-383.047749,-2294.638420,10510.924376
633.146410,76.609550,-2368.659014,11251.130318
633.146726,0.000000,-1776.494261,10214.842000
633.147041,153.219100,-1184.329507,9918.759623
633.147357,-536.266849,-0.000000,9030.512492
633.147673,919.314598,1258.350101,7920.203579
633.147988,1378.971896,1406.391290,7624.121203
633.148304,1532.190996,1110.308913,7624.121203
633.148620,919.314598,-888.247130,7698.141797
633.148935,1072.533697,-2368.659014,8660.409521
633.149251,0.000000,-2442.679609,9030.512492
633.149567,0.000000,-2812.782580,9696.697840
633.149883,-229.828649,-1998.556043,10881.027347
633.150198,-1072.533697,-2590.720797,11029.068536
633.150514,-1149.143247,-2590.720797,11621.233289
633.150830,-919.314598,-2220.617826,11177.109724
633.151145,-1225.752797,-1036.288319,10140.821405
633.151461,-766.095498,148.041188,9770.718434
633.151777,76.609550,1110.308913,8734.430116
633.152093,995.924147,2072.576638,7402.059420
633.152408,995.924147,1850.514855,7476.080014
633.152724,1302.362347,222.061783,7476.080014
633.153040,1685.410096,-1110.308913,8734.430116
633.153355,612.876398,-1184.329507,9178.553681
633.153671,842.705048,-1406.391290,9548.656652
633.153987,612.876398,-1332.370696,9918.759623
633.154302,229.828649,-1110.308913,10658.965565
633.154618,153.219100,-1554.432478,11325.150913
633.154934,76.609550,-740.205942,11325.150913
633.155250,-459.657299,222.061783,9844.739029
633.155565,0.000000,1998.556043,9622.677246
633.155881,766.095498,2516.700203,8438.347739
633.156197,1532.190996,3330.926739,7698.141797
633.156512,1302.362347,2738.761985,7550.100608
633.156828,995.924147,1184.329507,7772.162391
633.157144,1302.362347,-370.102971,8882.471304
633.157459,153.219100,-1480.411884,9474.636058
633.157775,383.047749,-1406.391290,10140.821405
633.158091,-229.828649,-962.267725,10807.006753
633.158407,-612.876398,-592.164754,11325.150913
633.158722,-766.095498,-666.185348,11547.212695
633.159038,-536.266849,-518.144159,11843.295072
633.159354,-919.314598,518.144159,10362.883188
633.159669,0.000000,1480.411884,10288.862594
633.159985,459.657299,2442.679609,9030.512492
633.160301,1302.362347,2960.823768,8216.285956
633.160617,1991.848295,3330.926739,7772.162391
633.160932,1991.848295,1850.514855,7772.162391
633.161248,1991.848295,-222.061783,8734.430116
633.161564,1072.533697,-1110.308913,9548.656652
633.161879,1149.143247,-814.226536,9696.697840
633.162195,919.314598,-814.226536,9992.780217
633.162511,383.047749,-962.267725,11103.089130
633.162826,0.000000,-962.267725,11695.253884
633.163142,229.828649,-1850.514855,11991.336260
633.163458,76.609550,-148.041188,10881.027347
633.163774,689.485948,-0.000000,10584.944971
633.164089,842.705048,1998.556043,8956.491898
633.164405,1838.629195,2368.659014,8068.244768
633.164721,2145.067394,2516.700203,7624.121203
633.165036,2451.505594,1332.370696,7550.100608
633.165352,1838.629195,-1036.288319,7624.121203
633.165668,1455.581446,-1850.514855,8956.491898
633.165983,612.876398,-1850.514855,9178.553681
633.166299,459.657299,-2516.700203,9770.718434
633.166615,0.000000,-1924.535449,10658.965565
633.166931,-689.485948,-2368.659014,11473.192101
633.167246,-536.266849,-2664.741391,10955.047942
633.167562,-459.657299,-1554.432478,10140.821405
633.167878,-383.047749,-814.226536,10140.821405
633.168193,-612.876398,444.123565,9326.594869
633.168509,842.705048,1850.514855,7920.203579
633.168825,995.924147,2072.576638,7031.956449
633.169140,1838.629195,1480.411884,7254.018232
633.169456,1532.190996,-296.082377,7476.080014
633.169772,1149.143247,-1702.473667,8068.244768
633.170088,459.657299,-1554.432478,8660.409521
633.170403,536.266849,-2590.720797,9474.636058
633.170719,-153.219100,-1924.535449,10436.903782
633.171035,-612.876398,-2146.597232,10881.027347
633.171350,-919.314598,-1554.432478,11029.068536
633.171666,-612.876398,-962.267725,10436.903782
633.171982,-612.876398,444.123565,9548.656652
633.172298,-536.266849,1628.453072,8956.491898
633.172613,536.266849,2812.782580,7994.224174
633.172929,995.924147,2960.823768,7031.956449
633.173245,1608.800546,2368.659014,7328.038826
633.173560,1302.362347,518.144159,7698.141797
633.173876,1455.581446,-1184.329507,8734.430116
633.174192,383.047749,-1332.370696,8956.491898
633.174507,0.000000,-1776.494261,9770.718434
633.174823,0.000000,-1480.411884,10362.883188
633.175139,-536.266849,-814.226536,11251.130318
633.175455,-766.095498,-1036.288319,11399.171507
633.175770,-1302.362347,-814.226536,11177.109724
633.176086,-1378.971896,-148.041188,10288.862594
633.176402,-919.314598,1332.370696,9696.697840
633.176717,76.609550,2220.617826,8956.491898
633.177033,766.095498,2442.679609,8512.368333
633.177349,1072.533697,2072.576638,8216.285956
633.177664,995.924147,666.185348,8216.285956
633.177980,1532.190996,-888.247130,9400.615463
633.178296,766.095498,-1554.432478,9770.718434
633.178612,459.657299,-1850.514855,9770.718434
633.178927,766.095498,-666.185348,10214.842000
633.179243,459.657299,148.041188,10881.027347
633.179559,0.000000,-370.102971,11399.171507
633.179874,306.438199,-222.061783,11473.192101
633.180190,-229.828649,222.061783,10658.965565
633.180506,536.266849,1110.308913,10140.821405
633.180822,1072.533697,2072.576638,9252.574275
633.181137,1532.190996,2442.679609,8586.388927
633.181453,1455.581446,2738.761985,7994.224174
633.181769,1991.848295,1110.308913,8142.265362
633.182084,1685.410096,-592.164754,9104.533087
633.182400,919.314598,-1332.370696,9918.759623
633.182716,459.657299,-1332.370696,9548.656652
633.183031,459.657299,-1110.308913,9918.759623
633.183347,-229.828649,-962.267725,10955.047942
633.183663,-536.266849,-1776.494261,11621.233289
633.183979,-306.438199,-2072.576638,11769.274478
633.184294,-995.924147,-666.185348,10436.903782
633.184610,0.000000,-592.164754,10362.883188
633.184926,229.828649,888.247130,9104.533087
633.185241,1072.533697,2072.576638,8142.265362
633.185557,1225.752797,2368.659014,7846.182985
633.185873,1608.800546,1258.350101,7846.182985
633.186188,1455.581446,-666.185348,8068.244768
633.186504,1608.800546,-1406.391290,8586.388927
633.186820,1072.533697,-1480.411884,8660.409521
633.187136,1378.971896,-1702.473667,9474.636058
633.187451,459.657299,-1332.370696,9918.759623
633.187767,153.219100,-1258.350101,10584.944971
633.188083,153.219100,-2294.638420,11177.109724
633.188398,0.000000,-814.226536,10288.862594
633.188714,0.000000,-518.144159,9992.780217
633.189030,-229.828649,1110.308913,9104.533087
633.189346,766.095498,2146.597232,8142.265362
633.189661,1302.362347,2146.597232,7624.121203
633.189977,1608.800546,1258.350101,7476.080014
633.190293,919.314598,-740.205942,7846.182985
633.190608,919.314598,-2072.576638,8734.430116
633.190924,153.219100,-2294.638420,9030.512492
633.191240,76.609550,-2886.803174,9252.574275
633.191556,-459.657299,-2072.576638,9918.759623
633.191871,-1072.533697,-2146.597232,10584.944971
633.192187,-995.924147,-2294.638420,10881.027347
633.192503,-383.047749,-1036.288319,10288.862594
633.192818,-995.924147,-0.000000,9918.759623
633.193134,-919.314598,740.205942,9326.594869
633.193450,383.047749,1628.453072,8512.368333
633.193766,689.485948,2146.597232,7698.141797
633.194081,1072.533697,814.226536,7920.203579
633.194397,459.657299,-666.185348,8216.285956
633.194713,612.876398,-1776.494261,9104.533087
633.195028,0.000000,-1776.494261,9400.615463
633.195344,229.828649,-1850.514855,9770.718434
633.195660,229.828649,-962.267725,10584.944971
633.195976,-306.438199,-444.123565,10955.047942
633.196291,-306.438199,-592.164754,11029.068536
633.196607,229.828649,148.041188,10510.924376
633.196923,229.828649,740.205942,9992.780217
633.197238,459.657299,1406.391290,9252.574275
633.197554,1378.971896,2886.803174,8142.265362
633.197870,1838.629195,2960.823768,7476.080014
633.198186,1838.629195,2294.638420,7994.224174
633.198501,1225.752797,1110.308913,8216.285956
633.198817,1532.190996,-444.123565,9252.574275
633.199133,76.609550,-1036.288319,9770.718434
633.199448,-153.219100,-1110.308913,10436.903782
633.199764,0.000000,-1036.288319,11103.089130
633.200080,-612.876398,-962.267725,11843.295072
633.200396,-229.828649,-1406.391290,11917.315666
633.200711,-229.828649,-1184.329507,11547.212695
633.201027,-459.657299,-370.102971,10288.862594
633.201343,-612.876398,888.247130,10362.883188
633.201658,306.438199,2146.597232,9400.615463
633.201974,1378.971896,2368.659014,7994.224174
633.202290,1685.410096,2368.659014,8068.244768
633.202606,2068.457845,592.164754,8142.265362
633.202921,2451.505594,-592.164754,8512.368333
633.203237,1302.362347,-1110.308913,9030.512492
633.203553,1302.362347,-1480.411884,9474.636058
633.203868,1302.362347,-1258.350101,10066.800811
633.204184,536.266849,-1184.329507,10658.965565
633.204500,76.609550,-1406.391290,11177.109724
633.204816,229.828649,-1332.370696,11399.171507
633.205131,153.219100,-296.082377,10510.924376
633.205447,536.266849,444.123565,10140.821405
633.205763,612.876398,1998.556043,8734.430116
633.206078,1762.019645,1998.556043,8142.265362
633.206394,1455.581446,1924.535449,7179.997637
633.206710,1608.800546,296.082377,7402.059420
633.207026,1455.581446,-962.267725,8142.265362
633.207341,612.876398,-2220.617826,9030.512492
633.207657,383.047749,-2738.761985,9030.512492
633.207973,0.000000,-1998.556043,9992.780217
633.208288,-383.047749,-1924.535449,10510.924376
633.208604,-1072.533697,-1776.494261,10732.986159
633.208920,-766.095498,-1776.494261,11103.089130
633.209236,-1072.533697,-814.226536,9770.718434
633.209551,-689.485948,-0.000000,9696.697840
633.209867,-383.047749,1258.350101,8808.450710
633.210183,689.485948,1924.535449,7772.162391
633.210498,1225.752797,2220.617826,7328.038826
633.210814,1455.581446,962.267725,7550.100608
633.211130,1225.752797,-1110.308913,7920.203579
633.211446,689.485948,-1702.473667,8734.430116
633.211761,229.828649,-1406.391290,9104.533087
633.212077,306.438199,-1554.432478,9622.677246
633.212393,0.000000,-1110.308913,10140.821405
633.212708,-536.266849,-740.205942,10881.027347
633.213024,-229.828649,-1406.391290,11029.068536
633.213340,-612.876398,-444.123565,10436.903782
633.213656,0.000000,222.061783,10140.821405
633.213971,0.000000,1554.432478,9104.533087
633.214287,612.876398,2368.659014,8586.388927
633.214603,1149.143247,1998.556043,7550.100608
633.214918,1378.971896,1480.411884,8068.244768
633.215234,1149.143247,-370.102971,8364.327145
633.215550,612.876398,-1480.411884,9252.574275
633.215866,0.000000,-1702.473667,9104.533087
633.216181,-229.828649,-1850.514855,9992.780217
633.216497,-689.485948,-1480.411884,10732.986159
633.216813,-842.705048,-1998.556043,11029.068536
633.217129,-1149.143247,-2368.659014,11991.336260
633.217444,-536.266849,-1036.288319,10881.027347
633.217760,-612.876398,-222.061783,10584.944971
633.218076,-689.485948,666.185348,9992.780217
633.218391,306.438199,1924.535449,9400.615463
633.218707,766.095498,2368.659014,8216.285956
633.219023,1378.971896,1998.556043,8216.285956
633.219339,995.924147,666.185348,8142.265362
633.219654,1762.019645,-1332.370696,8586.388927
633.219970,919.314598,-1036.288319,9252.574275
633.220286,689.485948,-1554.432478,9844.739029
633.220601,689.485948,-888.247130,10807.006753
633.220917,229.828649,-1258.350101,11473.192101
633.221233,76.609550,-1924.535449,11325.150913
633.221549,76.609550,-888.247130,11251.130318
633.221864,-306.438199,148.041188,10510.924376
633.222180,-229.828649,1332.370696,9326.594869
633.222496,919.314598,2664.741391,8586.388927
633.222811,1378.971896,2664.741391,7846.182985
633.223127,2068.457845,2368.659014,7476.080014
633.223443,2145.067394,962.267725,7920.203579
633.223759,2068.457845,-888.247130,8660.409521
633.224074,1225.752797,-1628.453072,9252.574275
633.224390,1072.533697,-1924.535449,9696.697840
633.224706,536.266849,-1702.473667,9844.739029
633.225021,-229.828649,-1036.288319,10807.006753
633.225337,-153.219100,-1776.494261,11325.150913
633.225653,153.219100,-1406.391290,11177.109724
633.225969,-306.438199,-814.226536,10140.821405
633.226284,-536.266849,740.205942,9770.718434
633.226600,766.095498,1480.411884,8660.409521
633.226916,1378.971896,2220.617826,7328.038826
633.227231,1149.143247,2072.576638,7476.080014
633.227547,1378.971896,222.061783,7476.080014
633.227863,1608.800546,-1110.308913,8438.347739
633.228179,612.876398,-1554.432478,8660.409521
633.228494,612.876398,-2220.617826,9178.553681
633.228810,536.266849,-1554.432478,9918.759623
633.229126,229.828649,-1332.370696,10362.883188
633.229441,-153.219100,-1184.329507,11251.130318
633.229757,306.438199,-1258.350101,11029.068536
633.230073,-306.438199,-74.020594,9770.718434
633.230389,459.657299,740.205942,9844.739029
633.230704,229.828649,1702.473667,8586.388927
633.231020,1302.362347,2146.597232,7624.121203
633.231336,1455.581446,2368.659014,7179.997637
633.231651,1532.190996,1110.308913,7476.080014
633.231967,1378.971896,-666.185348,8512.368333
633.232283,459.657299,-1628.453072,9104.533087
633.232599,-153.219100,-1628.453072,9104.533087
633.232914,0.000000,-1258.350101,10214.842000
633.233230,-383.047749,-1110.308913,10658.965565
633.233546,-842.705048,-1332.370696,11251.130318
633.233861,-766.095498,-1850.514855,12139.377449
633.234177,-1302.362347,-814.226536,11029.068536
633.234493,-842.705048,296.082377,10362.883188
633.234809,-612.876398,1332.370696,9400.615463
633.235124,153.219100,2072.576638,8882.471304
633.235440,612.876398,2516.700203,8216.285956
633.235756,919.314598,1628.453072,8142.265362
633.236071,995.924147,-296.082377,8512.368333
633.236387,689.485948,-1702.473667,9326.594869
633.236703,766.095498,-1702.473667,9548.656652
633.237019,766.095498,-1702.473667,10140.821405
633.237334,229.828649,-1332.370696,10881.027347
633.237650,0.000000,-1258.350101,11177.109724
633.237966,-153.219100,-1850.514855,11473.192101
633.238281,-383.047749,-592.164754,10658.965565
633.238597,0.000000,-0.000000,10066.800811
633.238913,0.000000,1110.308913,9178.553681
633.239229,689.485948,1776.494261,8734.430116
633.239544,766.095498,1554.432478,8290.306550
633.239860,1532.190996,1258.350101,8068.244768
633.240176,1149.143247,-592.164754,8068.244768
633.240491,919.314598,-2072.576638,9178.553681
633.240807,229.828649,-2294.638420,9474.636058
633.241123,383.047749,-2368.659014,9548.656652
633.241439,-536.266849,-2368.659014,10807.006753
633.241754,-842.705048,-2368.659014,11547.212695
633.242070,-919.314598,-2738.761985,11621.233289
633.242386,-459.657299,-2072.576638,10658.965565
633.242701,-536.266849,-814.226536,10214.842000
633.243017,-612.876398,296.082377,9474.636058
633.243333,766.095498,1480.411884,8438.347739
633.243649,1302.362347,1850.514855,7105.977043
633.243964,2145.067394,1554.432478,7698.141797
633.244280,1685.410096,148.041188,7550.100608
633.244596,2221.676944,-1554.432478,8290.306550
633.244911,1378.971896,-1628.453072,8882.471304
633.245227,919.314598,-1554.432478,9326.594869
633.245543,1225.752797,-1184.329507,10140.821405
633.245859,383.047749,-888.247130,10807.006753
633.246174,153.219100,-1480.411884,10732.986159
633.246490,383.047749,-1036.288319,10732.986159
633.246806,153.219100,-74.020594,9696.697840
633.247121,0.000000,444.123565,9622.677246
633.247437,995.924147,1924.535449,8068.244768
633.247753,1532.190996,2590.720797,7328.038826
633.248069,1838.629195,2516.700203,7105.977043
633.248384,1608.800546,1480.411884,7179.997637
633.248700,1915.238745,-74.020594,8364.327145
633.249016,766.095498,-1258.350101,8734.430116
633.249332,383.047749,-962.267725,9622.677246
633.249647,459.657299,-1332.370696,10066.800811
633.249963,229.828649,-1406.391290,10732.986159
633.250279,-842.705048,-1554.432478,11103.089130
633.250594,-383.047749,-814.226536,10881.027347
633.250910,-689.485948,-0.000000,10140.821405
633.251226,-459.657299,1406.391290,9696.697840
633.251542,459.657299,1850.514855,8438.347739
633.251857,766.095498,2886.803174,8438.347739
633.252173,919.314598,3108.864956,7476.080014
633.252489,919.314598,1924.535449,7550.100608
633.252804,1378.971896,444.123565,8734.430116
633.253120,689.485948,-592.164754,9474.636058
633.253436,459.657299,-444.123565,9770.718434
633.253752,536.266849,-0.000000,10362.883188
633.254067,0.000000,-0.000000,10881.027347
633.254383,-689.485948,296.082377,11251.130318
633.254699,0.000000,-148.041188,11843.295072
633.255014,-612.876398,888.247130,11177.109724
633.255330,0.000000,1628.453072,10732.986159
633.255646,0.000000,3108.864956,9770.718434
633.255962,766.095498,3627.009116,8734.430116
633.256277,1149.143247,3552.988522,8364.327145
633.256593,1378.971896,2442.679609,8512.368333
633.256909,1225.752797,-0.000000,8882.471304
633.257224,766.095498,-1110.308913,9696.697840
633.257540,459.657299,-888.247130,9992.780217
633.257856,229.828649,-1184.329507,10584.944971
633.258172,-76.609550,-1110.308913,11177.109724
633.258487,-766.095498,-1554.432478,11473.192101
633.258803,-766.095498,-1628.453072,11843.295072
633.259119,-306.438199,-962.267725,11103.089130
633.259434,-612.876398,-444.123565,10362.883188
633.259750,-689.485948,444.123565,9622.677246
633.260066,612.876398,1406.391290,8660.409521
633.260382,1225.752797,1776.494261,7846.182985
633.260697,1685.410096,1702.473667,8068.244768
633.261013,1378.971896,-666.185348,8068.244768
633.261329,1378.971896,-2146.597232,8808.450710
633.261644,919.314598,-2294.638420,9252.574275
633.261960,919.314598,-2886.803174,9326.594869
633.262276,919.314598,-2442.679609,10436.903782
633.262592,0.000000,-2812.782580,10584.944971
633.262907,153.219100,-2812.782580,10807.006753
633.263223,0.000000,-1850.514855,9918.759623
633.263539,0.000000,-814.226536,9474.636058
633.263854,0.000000,296.082377,8068.244768
633.264170,842.705048,1554.432478,7772.162391
633.264486,1532.190996,1628.453072,7105.977043
633.264802,1608.800546,518.144159,7920.203579
633.265117,1302.362347,-1036.288319,7550.100608
633.265433,1378.971896,-3182.885551,8586.388927
633.265749,229.828649,-3034.844362,8734.430116
633.266064,153.219100,-2886.803174,9104.533087
633.266380,0.000000,-2220.617826,9622.677246
633.266696,-459.657299,-2072.576638,10510.924376
633.267012,-919.314598,-2516.700203,10510.924376
633.267327,-459.657299,-2072.576638,9992.780217
633.267643,-842.705048,-1110.308913,9474.636058
633.267959,-383.047749,296.082377,9178.553681
633.268274,842.705048,962.267725,8512.368333
633.268590,1149.143247,2072.576638,7179.997637
633.268906,1302.362347,1258.350101,7476.080014
633.269222,1685.410096,-74.020594,7920.203579
633.269537,1915.238745,-1110.308913,8660.409521
633.269853,995.924147,-1702.473667,8660.409521
633.270169,1149.143247,-1554.432478,9474.636058
633.270484,995.924147,-962.267725,9770.718434
633.270800,536.266849,-518.144159,10658.965565
633.271116,76.609550,-666.185348,10881.027347
633.271432,919.314598,-740.205942,10658.965565
633.271747,0.000000,518.144159,9770.718434
633.272063,229.828649,1258.350101,9844.739029
633.272379,459.657299,1850.514855,8808.450710
633.272694,1072.533697,2368.659014,8512.368333
633.273010,1072.533697,1998.556043,8438.347739
633.273326,995.924147,888.247130,8660.409521
633.273642,919.314598,-296.082377,9400.615463
633.273957,536.266849,-1036.288319,9548.656652
633.274273,153.219100,-666.185348,10214.842000
633.274589,-229.828649,-740.205942,10510.924376
633.274904,-383.047749,-370.102971,11399.171507
633.275220,-689.485948,-666.185348,11547.212695
633.275536,-842.705048,-666.185348,12139.377449
633.275852,-689.485948,296.082377,11547.212695
633.276167,-766.095498,1184.329507,10510.924376
633.276483,153.219100,2516.700203,9548.656652
633.276799,612.876398,3108.864956,8512.368333
633.277114,995.924147,3108.864956,8290.306550
633.277430,1532.190996,1850.514855,8512.368333
633.277746,1302.362347,370.102971,9104.533087
633.278062,766.095498,-740.205942,9548.656652
633.278377,689.485948,-888.247130,9844.739029
633.278693,459.657299,-888.247130,10362.883188
633.279009,76.609550,-592.164754,11103.089130
633.279325,-766.095498,-74.020594,11547.212695
633.279640,0.000000,-666.185348,11843.295072
633.279956,-459.657299,296.082377,10658.965565
633.280272,-229.828649,1110.308913,10510.924376
633.280587,459.657299,2294.638420,9696.697840
633.280903,1149.143247,2516.700203,8216.285956
633.281219,1302.362347,2442.679609,7550.100608
633.281535,1608.800546,1480.411884,7698.141797
633.281850,1685.410096,-444.123565,7624.121203
633.282166,1149.143247,-1332.370696,8586.388927
633.282482,229.828649,-1702.473667,9474.636058
633.282797,306.438199,-1702.473667,9548.656652
633.283113,0.000000,-1332.370696,10288.862594
633.283429,-689.485948,-1998.556043,10881.027347
633.283745,-383.047749,-2368.659014,11029.068536
633.284060,-459.657299,-1110.308913,10214.842000
633.284376,0.000000,-296.082377,9696.697840
633.284692,-153.219100,148.041188,8660.409521
633.285007,995.924147,1036.288319,8068.244768
633.285323,1685.410096,1332.370696,7179.997637
633.285639,1838.629195,518.144159,7476.080014
633.285955,1532.190996,-1332.370696,7624.121203
633.286270,1225.752797,-2590.720797,8068.244768
633.286586,995.924147,-2368.659014,8808.450710
633.286902,919.314598,-2516.700203,9326.594869
633.287217,612.876398,-2220.617826,9918.759623
633.287533,306.438199,-2516.700203,10362.883188
633.287849,153.219100,-2960.823768,10881.027347
633.288165,459.657299,-1480.411884,10140.821405
633.288480,153.219100,-888.247130,9474.636058
633.288796,0.000000,-0.000000,8734.430116
633.289112,1302.362347,1110.308913,8142.265362
633.289427,1838.629195,1406.391290,7550.100608
633.289743,2068.457845,1184.329507,7328.038826
633.290059,1378.971896,-74.020594,7698.141797
633.290375,1378.971896,-2146.597232,8882.471304
633.290690,536.266849,-1998.556043,8808.450710
633.291005,153.219100,-2368.659014,9696.697840
633.291321,-229.828649,-1924.535449,10510.924376
633.291637,-612.876398,-1998.556043,11177.109724
633.291953,-919.314598,-1998.556043,11547.212695
633.292268,-689.485948,-1480.411884,11177.109724
633.292584,-919.314598,-222.061783,10436.903782
633.292900,-536.266849,888.247130,9770.718434
633.293216,536.266849,2220.617826,8660.409521
633.293531,1072.533697,2516.700203,7846.182985
633.293847,1455.581446,1850.514855,8512.368333
633.294163,1072.533697,592.164754,8364.327145
633.294479,1455.581446,-814.226536,9104.533087
633.294794,689.485948,-1258.350101,9326.594869
633.295110,689.485948,-1258.350101,9992.780217
633.295426,153.219100,-1258.350101,10732.986159
633.295742,-306.438199,-1332.370696,11473.192101
633.296057,-229.828649,-1184.329507,11695.253884
633.296373,-536.266849,-370.102971,11399.171507
633.296689,-459.657299,888.247130,10140.821405
633.297005,-383.047749,1332.370696,9992.780217
633.297320,459.657299,2738.761985,8512.368333
633.297636,1149.143247,2812.782580,7772.162391
633.297952,919.314598,2368.659014,7920.203579
633.298268,766.095498,1332.370696,7994.224174
633.298583,995.924147,-518.144159,9178.553681
633.298899,0.000000,-1554.432478,9696.697840
633.299215,0.000000,-1702.473667,10140.821405
633.299531,-306.438199,-1332.370696,10584.944971
633.299846,-612.876398,-1110.308913,11251.130318
633.300162,-1225.752797,-1184.329507,11769.274478
633.300478,-919.314598,-1036.288319,11103.089130
633.300794,-1072.533697,-148.041188,10140.821405
633.301109,-612.876398,1036.288319,9844.739029
633.301425,153.219100,2294.638420,8512.368333
633.301741,1378.971896,2812.782580,7772.162391
633.302057,1378.971896,2516.700203,7328.038826
633.302372,1532.190996,1184.329507,7476.080014
633.302688,1762.019645,-296.082377,8216.285956
633.303004,766.095498,-1554.432478,9104.533087
633.303320,995.924147,-1702.473667,9474.636058
633.303635,612.876398,-1406.391290,9844.739029
633.303951,153.219100,-1184.329507,10362.883188
633.304267,-536.266849,-666.185348,11029.068536
633.304583,153.219100,-1110.308913,11251.130318
633.304898,0.000000,148.041188,10066.800811
633.305214,383.047749,962.267725,10066.800811
633.305530,766.095498,2220.617826,8956.491898
633.305846,1915.238745,2294.638420,8142.265362
633.306161,2221.676944,2220.617826,7328.038826
633.306477,2528.115143,1036.288319,7476.080014
633.306793,2068.457845,-888.247130,7994.224174
633.307109,1455.581446,-1628.453072,9030.512492
633.307424,766.095498,-1258.350101,9326.594869
633.307740,842.705048,-1406.391290,9770.718434
633.308056,0.000000,-1406.391290,10732.986159
633.308372,-383.047749,-2220.617826,11251.130318
633.308687,-153.219100,-2516.700203,11843.295072
633.309003,-383.047749,-962.267725,10658.965565
633.309319,0.000000,-370.102971,9918.759623
633.309635,0.000000,814.226536,9252.574275
633.309950,995.924147,1924.535449,8438.347739
633.310266,1608.800546,2368.659014,8068.244768
633.310582,1991.848295,888.247130,7994.224174
633.310898,1685.410096,-1258.350101,7772.162391
633.311213,1915.238745,-2072.576638,9104.533087
633.311529,612.876398,-2368.659014,9252.574275
633.311845,842.705048,-2146.597232,9992.780217
633.312161,383.047749,-1850.514855,10362.883188
633.312476,0.000000,-2220.617826,10658.965565
633.312792,-306.438199,-2220.617826,11399.171507
633.313108,-459.657299,-1184.329507,10436.903782
633.313424,-229.828649,-888.247130,10140.821405
633.313739,-306.438199,444.123565,9326.594869
633.314055,689.485948,1258.350101,8808.450710
633.314371,1302.362347,2368.659014,7994.224174
633.314687,1072.533697,1258.350101,7994.224174
633.315002,459.657299,-296.082377,7920.203579
633.315318,383.047749,-1924.535449,8882.471304
633.315634,-229.828649,-2294.638420,9474.636058
633.315950,-306.438199,-2442.679609,9918.759623
633.316265,-612.876398,-1628.453072,11103.089130
633.316581,-1225.752797,-1702.473667,11621.233289
633.316897,-995.924147,-1998.556043,11399.171507
633.317213,-459.657299,-1036.288319,10732.986159
633.317528,-689.485948,-0.000000,9770.718434
633.317844,-842.705048,1554.432478,9104.533087
633.318160,612.876398,2442.679609,8290.306550
633.318476,1532.190996,2442.679609,7328.038826
633.318791,1378.971896,1998.556043,7698.141797
633.319107,1072.533697,-0.000000,7624.121203
633.319423,1378.971896,-1184.329507,8882.471304
633.319739,306.438199,-1776.494261,9400.615463
633.320054,76.609550,-1850.514855,9844.739029
633.320370,-229.828649,-1258.350101,10214.842000
633.320686,-459.657299,-814.226536,11103.089130
633.321002,-842.705048,-1184.329507,11325.150913
633.321317,-459.657299,-1036.288319,11325.150913
633.321633,-842.705048,-74.020594,10288.862594
633.321949,-76.609550,666.185348,9918.759623
633.322265,842.705048,1776.494261,8216.285956
633.322580,1302.362347,2516.700203,7624.121203
633.322896,1608.800546,2220.617826,7476.080014
633.323212,1762.019645,666.185348,7328.038826
633.323528,1685.410096,-740.205942,8142.265362
633.323843,612.876398,-1258.350101,8956.491898
633.324159,689.485948,-1702.473667,9400.615463
633.324475,383.047749,-1554.432478,9696.697840
633.324791,0.000000,-962.267725,10881.027347
633.325106,-842.705048,-1554.432478,11547.212695
633.325422,-383.047749,-1480.411884,11769.274478
633.325738,-766.095498,-370.102971,10510.924376
633.326054,-536.266849,1036.288319,10288.862594
633.326369,153.219100,2072.576638,9400.615463
633.326685,995.924147,2664.741391,8438.347739
633.327001,1225.752797,2886.803174,7698.141797
633.327317,1991.848295,1332.370696,7920.203579
633.327632,1838.629195,-444.123565,8290.306550
633.327948,1532.190996,-1480.411884,9400.615463
633.328264,1149.143247,-1110.308913,9474.636058
633.328580,1608.800546,-666.185348,9918.759623
633.328895,842.705048,-814.226536,10436.903782
633.329211,459.657299,-888.247130,11251.130318
633.329527,919.314598,-962.267725,11547.212695
633.329843,842.705048,148.041188,10214.842000
633.330158,995.924147,962.267725,9844.739029
633.330474,1378.971896,2072.576638,9474.636058
633.330790,1915.238745,2960.823768,8068.244768
633.331106,1991.848295,3034.844362,7550.100608
633.331421,2374.896044,1776.494261,7994.224174
633.331737,1915.238745,-518.144159,8438.347739
633.332053,1225.752797,-1554.432478,9252.574275
633.332369,689.485948,-1850.514855,9474.636058
633.332684,306.438199,-2146.597232,10362.883188
633.333000,0.000000,-1998.556043,10807.006753
633.333316,-689.485948,-2220.617826,11621.233289
633.333632,-842.705048,-2294.638420,11991.336260
633.333947,-612.876398,-1554.432478,10732.986159
633.334263,-536.266849,-666.185348,10436.903782
633.334579,-689.485948,-0.000000,9252.574275
633.334895,229.828649,1776.494261,8290.306550
633.335210,766.095498,1924.535449,7402.059420
633.335526,1225.752797,1258.350101,8364.327145
633.335842,842.705048,-444.123565,7920.203579
633.336158,1072.533697,-1776.494261,8586.388927
633.336473,229.828649,-2294.638420,9252.574275
633.336789,76.609550,-2664.741391,9696.697840
633.337105,0.000000,-1776.494261,10510.924376
633.337421,-612.876398,-1998.556043,10584.944971
633.337736,-842.705048,-1776.494261,11251.130318
633.338052,-383.047749,-1628.453072,10584.944971
633.338368,-1149.143247,-222.061783,9696.697840
633.338684,-1149.143247,740.205942,9178.553681
633.338999,153.219100,1702.473667,8216.285956
633.339315,536.266849,2368.659014,7105.977043
633.339631,919.314598,1702.473667,7624.121203
633.339947,383.047749,-74.020594,7624.121203
633.340262,383.047749,-1036.288319,8882.471304
633.340578,-153.219100,-1776.494261,8956.491898
633.340894,-229.828649,-1776.494261,9474.636058
633.341210,0.000000,-1110.308913,10066.800811
633.341525,-612.876398,-1036.288319,10584.944971
633.341841,-995.924147,-1184.329507,11251.130318
633.342157,-459.657299,-814.226536,10881.027347
633.342473,-383.047749,-148.041188,9622.677246
633.342788,0.000000,962.267725,9252.574275
633.343104,229.828649,2146.597232,8216.285956
633.343420,919.314598,2738.761985,7476.080014
633.343736,1225.752797,2664.741391,7402.059420
633.344051,1532.190996,888.247130,7476.080014
633.344367,1532.190996,-740.205942,8956.491898
633.344683,919.314598,-1776.494261,9326.594869
633.344999,1378.971896,-1628.453072,9622.677246
633.345314,995.924147,-962.267725,9918.759623
633.345630,383.047749,-1184.329507,10510.924376
633.345946,0.000000,-1036.288319,11177.109724
633.346262,459.657299,-1184.329507,11325.150913
633.346577,0.000000,74.020594,10140.821405
633.346893,612.876398,592.164754,10140.821405
633.347209,919.314598,1924.535449,9178.553681
633.347525,1225.752797,2368.659014,8438.347739
633.347840,1532.190996,2294.638420,7994.224174
633.348156,1991.848295,888.247130,8734.430116
633.348472,1532.190996,-1036.288319,8734.430116
633.348788,842.705048,-1850.514855,9548.656652
633.349103,1072.533697,-1554.432478,9696.697840
633.349419,919.314598,-1628.453072,10066.800811
633.349735,229.828649,-1184.329507,10510.924376
633.350051,-459.657299,-1036.288319,11399.171507
633.350366,153.219100,-1776.494261,11399.171507
633.350682,0.000000,-74.020594,10584.944971
633.350998,76.609550,518.144159,10214.842000
633.351314,229.828649,1850.514855,9474.636058
633.351629,1608.800546,2590.720797,8660.409521
633.351945,1838.629195,2442.679609,7772.162391
633.352261,2068.457845,1776.494261,8290.306550
633.352577,1532.190996,-296.082377,8216.285956
633.352892,1685.410096,-1332.370696,9252.574275
633.353208,919.314598,-1036.288319,9474.636058
633.353524,995.924147,-1110.308913,9696.697840
633.353840,459.657299,-0.000000,10362.883188
633.354155,153.219100,-444.123565,10732.986159
633.354471,229.828649,-592.164754,10881.027347
633.354787,0.000000,-518.144159,10362.883188
633.355103,0.000000,-0.000000,9696.697840
633.355418,-459.657299,740.205942,9030.512492
633.355734,306.438199,2072.576638,8142.265362
633.356050,995.924147,2146.597232,7698.141797
633.356366,1378.971896,1702.473667,7920.203579
633.356681,766.095498,-0.000000,7846.182985
633.356997,842.705048,-1628.453072,8808.450710
633.357313,383.047749,-1628.453072,9178.553681
633.357629,76.609550,-1924.535449,9474.636058
633.357944,-383.047749,-1332.370696,10658.965565
633.358260,-995.924147,-1998.556043,10881.027347
633.358576,-766.095498,-1998.556043,11103.089130
633.358892,-689.485948,-2146.597232,10510.924376
633.359207,-1149.143247,-740.205942,9844.739029
633.359523,-1608.800546,222.061783,9326.594869
633.359839,0.000000,1036.288319,8586.388927
633.360155,383.047749,1332.370696,7328.038826
633.360470,689.485948,666.185348,7846.182985
633.360786,459.657299,-518.144159,8068.244768
633.361102,919.314598,-1924.535449,8882.471304
633.361418,0.000000,-2368.659014,9326.594869
633.361733,76.609550,-2220.617826,9696.697840
633.362049,0.000000,-1776.494261,9992.780217
633.362365,306.438199,-1554.432478,10362.883188
633.362681,-383.047749,-1258.350101,11103.089130
633.362996,0.000000,-740.205942,10807.006753
633.363312,-383.047749,-74.020594,9992.780217
633.363628,229.828649,962.267725,9326.594869
633.363944,459.657299,1554.432478,8586.388927
633.364259,1302.362347,2368.659014,7402.059420
633.364575,1378.971896,1776.494261,7550.100608
633.364891,1302.362347,370.102971,7994.224174
633.365207,1608.800546,-666.185348,9104.533087
633.365522,383.047749,-1702.473667,9400.615463
633.365838,383.047749,-1554.432478,10140.821405
633.366154,0.000000,-1628.453072,10140.821405
