#time,accel_x,accel_y,accel_z
592.687210,2987.772442,1184.329507,9326.594869
592.687525,2757.943793,1110.308913,9696.697840
592.687841,2298.286494,1036.288319,9474.636058
592.688157,1838.629195,1184.329507,9844.739029
592.688473,1532.190996,962.267725,10066.800811
592.688789,1532.190996,666.185348,9918.759623
592.689105,919.314598,518.144159,10066.800811
592.689420,842.705048,666.185348,9992.780217
592.689736,536.266849,370.102971,9844.739029
592.690052,76.609550,370.102971,9918.759623
592.690368,689.485948,592.164754,9770.718434
592.690684,689.485948,1110.308913,9548.656652
592.690999,689.485948,740.205942,9400.615463
592.691315,842.705048,814.226536,9696.697840
592.691631,842.705048,518.144159,9696.697840
592.691947,1455.581446,148.041188,9918.759623
592.692263,1455.581446,518.144159,9770.718434
592.692579,1685.410096,740.205942,9918.759623
592.692894,1991.848295,814.226536,9548.656652
592.693210,2528.115143,1332.370696,9400.615463
592.693526,2681.334243,1480.411884,9178.553681
592.693842,2911.162892,1850.514855,9030.512492
592.694158,2911.162892,1850.514855,9030.512492
592.694474,3064.381992,1924.535449,8956.491898
592.694789,2987.772442,1628.453072,9104.533087
592.695105,3217.601092,1480.411884,9178.553681
592.695421,2911.162892,1480.411884,9326.594869
592.695737,2757.943793,1258.350101,9400.615463
592.696053,2757.943793,1480.411884,9548.656652
592.696368,2757.943793,1554.432478,9474.636058
592.696684,2757.943793,2294.638420,9474.636058
592.697000,2757.943793,1998.556043,9474.636058
592.697316,2911.162892,2294.638420,9474.636058
592.697632,3447.429741,2294.638420,9104.533087
592.697948,3677.258390,2146.597232,9104.533087
592.698263,3677.258390,2516.700203,9104.533087
592.698579,3524.039291,2368.659014,8882.471304
592.698895,3600.648841,2516.700203,8956.491898
592.699211,3447.429741,2220.617826,9104.533087
592.699527,3140.991542,2294.638420,9474.636058
592.699843,2834.553343,1998.556043,9844.739029
592.700158,2221.676944,1406.391290,9844.739029
592.700474,2451.505594,1332.370696,10066.800811
592.700790,2221.676944,1554.432478,10362.883188
592.701106,2374.896044,1776.494261,10658.965565
592.701422,2298.286494,1702.473667,10510.924376
592.701737,2451.505594,2146.597232,10066.800811
592.702053,2987.772442,2220.617826,9844.739029
592.702369,3217.601092,2516.700203,9622.677246
592.702685,3447.429741,2738.761985,9474.636058
592.703001,3907.087040,2664.741391,9400.615463
592.703317,3830.477490,2664.741391,9030.512492
592.703632,3983.696590,2812.782580,8956.491898
592.703948,3830.477490,2960.823768,8882.471304
592.704264,3370.820191,2442.679609,9030.512492
592.704580,2987.772442,2294.638420,9252.574275
592.704896,2451.505594,1628.453072,9696.697840
592.705212,1762.019645,1110.308913,9770.718434
592.705527,995.924147,666.185348,10066.800811
592.705843,0.000000,-0.000000,9844.739029
592.706159,0.000000,-0.000000,10362.883188
592.706475,-459.657299,-0.000000,10362.883188
592.706791,-1072.533697,-0.000000,10807.006753
592.707106,-919.314598,296.082377,10436.903782
592.707422,-1072.533697,74.020594,9992.780217
592.707738,-995.924147,444.123565,9474.636058
592.708054,-766.095498,222.061783,9104.533087
592.708370,-612.876398,-0.000000,9030.512492
592.708686,-766.095498,-444.123565,9252.574275
592.709001,-536.266849,-962.267725,9326.594869
592.709317,-459.657299,-1110.308913,9474.636058
592.709633,-766.095498,-1480.411884,10066.800811
592.709949,-459.657299,-1776.494261,10066.800811
592.710265,-383.047749,-1924.535449,9844.739029
592.710581,-689.485948,-1406.391290,10214.842000
592.710896,-383.047749,-1036.288319,9918.759623
592.711212,-153.219100,-444.123565,9400.615463
592.711528,153.219100,-74.020594,9178.553681
592.711844,536.266849,-222.061783,9178.553681
592.712160,459.657299,-0.000000,8142.265362
592.712475,766.095498,-0.000000,8216.285956
592.712791,919.314598,-296.082377,7994.224174
592.713107,689.485948,-888.247130,8290.306550
592.713423,0.000000,-1406.391290,8808.450710
592.713739,-306.438199,-1702.473667,8808.450710
592.714054,-766.095498,-1850.514855,9474.636058
592.714370,-1455.581446,-1850.514855,9548.656652
592.714686,-1455.581446,-2072.576638,9770.718434
592.715001,-2221.676944,-2146.597232,9696.697840
592.715317,-2451.505594,-2294.638420,10288.862594
592.715633,-2298.286494,-2590.720797,10510.924376
592.715948,-1762.019645,-2368.659014,10214.842000
592.716264,-919.314598,-2442.679609,10362.883188
592.716580,-536.266849,-2516.700203,10140.821405
592.716895,229.828649,-1924.535449,9770.718434
592.717211,1302.362347,-1480.411884,9400.615463
592.717527,2068.457845,-296.082377,8512.368333
592.717842,3524.039291,518.144159,7550.100608
592.718158,3830.477490,1702.473667,7179.997637
592.718473,4443.353888,1924.535449,7031.956449
592.718789,4673.182538,2146.597232,6957.935855
592.719105,4213.525239,1924.535449,7254.018232
592.719420,3983.696590,1628.453072,8216.285956
592.719736,2757.943793,592.164754,8734.430116
592.720052,1991.848295,-0.000000,9474.636058
592.720367,919.314598,-444.123565,10140.821405
592.720683,0.000000,-814.226536,10584.944971
592.720999,-766.095498,-962.267725,11029.068536
592.721314,-1149.143247,-962.267725,11103.089130
592.721630,-1302.362347,-888.247130,11177.109724
592.721946,-1532.190996,-740.205942,10955.047942
592.722261,-1455.581446,-740.205942,10658.965565
592.722577,-1302.362347,-740.205942,10807.006753
592.722893,-536.266849,-592.164754,10658.965565
592.723208,0.000000,-222.061783,10362.883188
592.723524,689.485948,296.082377,10214.842000
592.723840,1302.362347,1110.308913,9992.780217
592.724155,2298.286494,1554.432478,9252.574275
592.724471,3064.381992,2442.679609,8438.347739
592.724787,3524.039291,3182.885551,8216.285956
592.725102,3983.696590,3256.906145,7994.224174
592.725418,3907.087040,3330.926739,7920.203579
592.725734,3447.429741,2664.741391,7920.203579
592.726049,2681.334243,1924.535449,8512.368333
592.726365,1455.581446,1184.329507,9548.656652
592.726681,306.438199,296.082377,10214.842000
592.726996,-1149.143247,-74.020594,11103.089130
592.727312,-2145.067394,-444.123565,11251.130318
592.727628,-3140.991542,-444.123565,11547.212695
592.727943,-3447.429741,-518.144159,11695.253884
592.728259,-3753.867940,-962.267725,11325.150913
592.728575,-4136.915689,-370.102971,11177.109724
592.728890,-3677.258390,-592.164754,10881.027347
592.729206,-3064.381992,-666.185348,10658.965565
592.729522,-2221.676944,-592.164754,10288.862594
592.729837,-1225.752797,-666.185348,9992.780217
592.730153,-459.657299,-222.061783,9474.636058
592.730469,842.705048,518.144159,8882.471304
592.730784,1991.848295,1332.370696,8290.306550
592.731100,3217.601092,1998.556043,7550.100608
592.731416,3753.867940,2072.576638,7105.977043
592.731731,3600.648841,2220.617826,7031.956449
592.732047,3524.039291,2146.597232,6809.894666
592.732363,2834.553343,1406.391290,7328.038826
592.732678,1915.238745,370.102971,8142.265362
592.732994,689.485948,-370.102971,9030.512492
592.733310,-689.485948,-888.247130,9770.718434
592.733625,-2221.676944,-1406.391290,10362.883188
592.733941,-2911.162892,-1998.556043,11029.068536
592.734256,-3677.258390,-2146.597232,11177.109724
592.734572,-4060.306139,-2590.720797,11251.130318
592.734888,-3830.477490,-2590.720797,11103.089130
592.735203,-3447.429741,-2664.741391,10955.047942
592.735519,-2834.553343,-2664.741391,10584.944971
592.735835,-1915.238745,-3182.885551,10658.965565
592.736150,-919.314598,-2294.638420,10436.903782
592.736466,383.047749,-1702.473667,9696.697840
592.736782,1608.800546,-740.205942,8808.450710
592.737097,3217.601092,370.102971,8142.265362
592.737413,5056.230287,1184.329507,7624.121203
592.737729,5439.278036,1924.535449,6661.853478
592.738044,6052.154434,2294.638420,6365.771101
592.738360,5592.497135,1998.556043,6217.729913
592.738676,5132.839837,1036.288319,7031.956449
592.738991,4060.306139,-0.000000,8068.244768
592.739307,2221.676944,-962.267725,8956.491898
592.739623,689.485948,-2072.576638,9918.759623
592.739938,-1072.533697,-2664.741391,10807.006753
592.740254,-2145.067394,-2886.803174,11843.295072
592.740570,-2987.772442,-2960.823768,11843.295072
592.740885,-3370.820191,-3034.844362,11843.295072
592.741201,-3294.210641,-2886.803174,11843.295072
592.741517,-3294.210641,-2442.679609,11473.192101
592.741832,-2528.115143,-2590.720797,11103.089130
592.742148,-1608.800546,-2368.659014,10584.944971
592.742464,-229.828649,-1924.535449,10214.842000
592.742779,995.924147,-1628.453072,9918.759623
592.743095,2298.286494,-814.226536,9104.533087
592.743411,3294.210641,444.123565,8216.285956
592.743726,4903.011187,1554.432478,7624.121203
592.744042,5975.544884,2368.659014,7105.977043
592.744358,6052.154434,3182.885551,6365.771101
592.744673,5745.716235,3552.988522,6291.750507
592.744989,5515.887586,3108.864956,6291.750507
592.745305,3907.087040,2294.638420,7402.059420
592.745620,2604.724693,1406.391290,8660.409521
592.745936,459.657299,222.061783,9696.697840
592.746252,-1225.752797,-666.185348,10510.924376
592.746567,-2834.553343,-1628.453072,11399.171507
592.746883,-3600.648841,-1924.535449,11917.315666
592.747199,-4673.182538,-2072.576638,11917.315666
592.747514,-4596.572988,-1850.514855,11991.336260
592.747830,-4673.182538,-1850.514855,11843.295072
592.748146,-4596.572988,-1850.514855,11325.150913
592.748461,-3294.210641,-1702.473667,11177.109724
592.748777,-1915.238745,-1036.288319,10658.965565
592.749093,-995.924147,-444.123565,9918.759623
592.749408,459.657299,-0.000000,9400.615463
592.749724,1915.238745,1184.329507,8660.409521
592.750040,3600.648841,2294.638420,7772.162391
592.750355,4826.401637,3330.926739,7105.977043
592.750671,5439.278036,4071.132681,6365.771101
592.750986,5439.278036,4071.132681,6069.688724
592.751302,4979.620737,3923.091493,6587.832884
592.751618,3983.696590,3108.864956,7179.997637
592.751933,2757.943793,1702.473667,8512.368333
592.752249,1072.533697,592.164754,9770.718434
592.752565,-842.705048,-444.123565,10732.986159
592.752880,-2681.334243,-1110.308913,11769.274478
592.753196,-3447.429741,-1702.473667,12139.377449
592.753512,-4443.353888,-1702.473667,12213.398043
592.753827,-4673.182538,-1702.473667,12435.459826
592.754143,-4290.134789,-1110.308913,11991.336260
592.754459,-3677.258390,-1184.329507,11251.130318
592.754774,-2834.553343,-1184.329507,10732.986159
592.755090,-1225.752797,-1110.308913,10362.883188
592.755406,0.000000,-1036.288319,10140.821405
592.755721,1838.629195,-814.226536,9548.656652
592.756037,2681.334243,370.102971,8808.450710
592.756353,4213.525239,1036.288319,8290.306550
592.756668,5286.058936,2146.597232,7476.080014
592.756984,5975.544884,2738.761985,6957.935855
592.757300,6435.202183,3330.926739,6587.832884
592.757615,6128.763984,3330.926739,6735.874072
592.757931,5132.839837,2664.741391,7105.977043
592.758247,4290.134789,1480.411884,8068.244768
592.758562,2221.676944,444.123565,8808.450710
592.758878,689.485948,-888.247130,9844.739029
592.759194,-1072.533697,-1702.473667,10807.006753
592.759509,-2604.724693,-2368.659014,11769.274478
592.759825,-3524.039291,-3034.844362,12287.418637
592.760141,-3830.477490,-2960.823768,12213.398043
592.760456,-4443.353888,-3182.885551,11991.336260
592.760772,-3983.696590,-3108.864956,12065.356855
592.761088,-3447.429741,-2960.823768,11325.150913
592.761403,-2604.724693,-2590.720797,11399.171507
592.761719,-842.705048,-2072.576638,10510.924376
592.762035,229.828649,-1480.411884,9770.718434
592.762350,1685.410096,-666.185348,8808.450710
592.762666,2911.162892,370.102971,8142.265362
592.762982,4443.353888,740.205942,7031.956449
592.763297,5898.935335,2146.597232,6513.812290
592.763613,6435.202183,2664.741391,5847.626942
592.763929,5975.544884,2590.720797,5625.565159
592.764244,4903.011187,2072.576638,6217.729913
592.764560,4060.306139,814.226536,7254.018232
592.764876,2298.286494,-296.082377,8216.285956
592.765191,383.047749,-1628.453072,9400.615463
592.765507,-1378.971896,-2442.679609,10510.924376
592.765823,-3064.381992,-3256.906145,11547.212695
592.766138,-4213.525239,-4071.132681,11917.315666
592.766454,-5286.058936,-3552.988522,12065.356855
592.766770,-5132.839837,-3182.885551,11843.295072
592.767085,-5362.668486,-2960.823768,11325.150913
592.767401,-4673.182538,-2812.782580,10807.006753
592.767716,-3294.210641,-2516.700203,10362.883188
592.768032,-1838.629195,-2368.659014,9992.780217
592.768348,-612.876398,-1702.473667,9844.739029
592.768663,766.095498,-962.267725,8882.471304
592.768979,2298.286494,-0.000000,8068.244768
592.769295,3830.477490,1110.308913,7624.121203
592.769610,4749.792088,2442.679609,6735.874072
592.769926,5362.668486,3330.926739,6291.750507
592.770242,5592.497135,3701.029710,6069.688724
592.770557,5209.449386,3404.947333,6513.812290
592.770873,3907.087040,2664.741391,7105.977043
592.771189,2604.724693,1554.432478,8068.244768
592.771504,995.924147,296.082377,9326.594869
592.771820,-766.095498,-518.144159,10288.862594
592.772136,-2298.286494,-1406.391290,11177.109724
592.772451,-3677.258390,-2072.576638,11917.315666
592.772767,-4366.744339,-2294.638420,11991.336260
592.773083,-4903.011187,-2294.638420,12361.439231
592.773398,-4903.011187,-2220.617826,12139.377449
592.773714,-4673.182538,-2516.700203,11843.295072
592.774030,-3830.477490,-1850.514855,11547.212695
592.774345,-2298.286494,-1628.453072,11251.130318
592.774661,-689.485948,-888.247130,10584.944971
592.774977,383.047749,-0.000000,9770.718434
592.775292,1532.190996,1110.308913,9548.656652
592.775608,3140.991542,1702.473667,8438.347739
592.775924,4979.620737,2664.741391,7550.100608
592.776239,5745.716235,3849.070898,6809.894666
592.776555,6281.983084,4145.153275,6513.812290
592.776871,6052.154434,3701.029710,6365.771101
592.777186,5209.449386,3627.009116,6809.894666
592.777502,4136.915689,2368.659014,8142.265362
592.777818,2221.676944,1110.308913,9030.512492
592.778133,306.438199,-666.185348,10510.924376
592.778449,-1762.019645,-1258.350101,11769.274478
592.778765,-2604.724693,-1924.535449,12213.398043
592.779080,-3600.648841,-2072.576638,12361.439231
592.779396,-4519.963438,-2072.576638,12583.501014
592.779712,-4443.353888,-2146.597232,12509.480420
592.780027,-4673.182538,-1924.535449,11843.295072
592.780343,-3830.477490,-1480.411884,11103.089130
592.780659,-2298.286494,-1850.514855,10881.027347
592.780974,-536.266849,-1850.514855,10436.903782
592.781290,536.266849,-1110.308913,9548.656652
592.781606,1991.848295,-296.082377,8882.471304
592.781921,3600.648841,518.144159,8438.347739
592.782237,4826.401637,1554.432478,7402.059420
592.782553,5898.935335,2664.741391,6587.832884
592.782868,5898.935335,3256.906145,6365.771101
592.783184,6128.763984,2960.823768,6069.688724
592.783499,5286.058936,2812.782580,6587.832884
592.783815,4290.134789,1850.514855,7254.018232
592.784131,2987.772442,666.185348,8290.306550
592.784446,842.705048,-740.205942,9252.574275
592.784762,-1225.752797,-1406.391290,9992.780217
592.785078,-3064.381992,-2368.659014,11103.089130
592.785393,-3907.087040,-2886.803174,11843.295072
592.785709,-4749.792088,-2960.823768,11843.295072
592.786025,-4979.620737,-3182.885551,11917.315666
592.786340,-4903.011187,-3034.844362,11473.192101
592.786656,-4596.572988,-2886.803174,11251.130318
592.786972,-3294.210641,-2664.741391,10881.027347
592.787287,-2145.067394,-2738.761985,10436.903782
592.787603,-689.485948,-2072.576638,10066.800811
592.787919,612.876398,-740.205942,8882.471304
592.788234,1838.629195,148.041188,7994.224174
592.788550,3524.039291,666.185348,7476.080014
592.788866,4749.792088,1998.556043,7105.977043
592.789181,5132.839837,2664.741391,5995.668130
592.789497,5439.278036,3108.864956,6069.688724
592.789813,5056.230287,2812.782580,6143.709319
592.790128,3983.696590,1850.514855,6809.894666
592.790444,3064.381992,666.185348,7698.141797
592.790760,1225.752797,-518.144159,9104.533087
592.791075,-919.314598,-1850.514855,10362.883188
592.791391,-2068.457845,-2368.659014,11251.130318
592.791707,-3677.258390,-2812.782580,11991.336260
592.792022,-4519.963438,-3108.864956,12139.377449
592.792338,-4903.011187,-2664.741391,12361.439231
592.792654,-4749.792088,-2368.659014,11843.295072
592.792969,-4213.525239,-2294.638420,11843.295072
592.793285,-3294.210641,-2072.576638,11251.130318
592.793601,-1532.190996,-1628.453072,10955.047942
592.793916,0.000000,-1480.411884,10436.903782
592.794232,919.314598,-962.267725,9474.636058
592.794548,2451.505594,-0.000000,8808.450710
592.794863,3907.087040,1480.411884,7994.224174
592.795179,4979.620737,2368.659014,7328.038826
592.795495,6052.154434,3034.844362,6735.874072
592.795810,6435.202183,3552.988522,6365.771101
592.796126,6052.154434,3627.009116,6365.771101
592.796442,5132.839837,3182.885551,7179.997637
592.796757,4136.915689,1850.514855,8216.285956
592.797073,2298.286494,740.205942,9030.512492
592.797389,459.657299,-74.020594,10288.862594
592.797704,-1302.362347,-1258.350101,10881.027347
592.798020,-2604.724693,-1628.453072,11917.315666
592.798336,-3600.648841,-2146.597232,12287.418637
592.798651,-4136.915689,-2146.597232,12435.459826
592.798967,-4443.353888,-1924.535449,12139.377449
592.799283,-3983.696590,-1702.473667,11843.295072
592.799598,-3370.820191,-1628.453072,11103.089130
592.799914,-2374.896044,-1554.432478,10955.047942
592.800229,-1225.752797,-1036.288319,10436.903782
592.800545,306.438199,-296.082377,9696.697840
592.800861,1685.410096,444.123565,9178.553681
592.801176,2834.553343,1480.411884,8290.306550
592.801492,4366.744339,2442.679609,7846.182985
592.801808,5209.449386,3034.844362,6883.915261
592.802123,5745.716235,3923.091493,6513.812290
592.802439,5745.716235,4219.173869,5847.626942
592.802755,5132.839837,3404.947333,6365.771101
592.803070,4060.306139,2146.597232,7476.080014
592.803386,2451.505594,740.205942,8586.388927
592.803702,842.705048,-370.102971,9326.594869
592.804017,-1149.143247,-1480.411884,10584.944971
592.804333,-2604.724693,-2294.638420,11917.315666
592.804649,-3753.867940,-2516.700203,12139.377449
592.804964,-4519.963438,-2442.679609,12065.356855
592.805280,-4443.353888,-2294.638420,12287.418637
592.805596,-4366.744339,-2294.638420,11769.274478
592.805911,-3907.087040,-2368.659014,11177.109724
592.806227,-2834.553343,-2072.576638,10732.986159
592.806543,-1302.362347,-1850.514855,10288.862594
592.806858,-383.047749,-1258.350101,10140.821405
592.807174,1455.581446,-814.226536,8882.471304
592.807490,2451.505594,370.102971,7994.224174
592.807805,4060.306139,1406.391290,7772.162391
592.808121,5056.230287,1850.514855,7105.977043
592.808437,5745.716235,3182.885551,6735.874072
592.808752,5669.106685,3034.844362,6291.750507
592.809068,5515.887586,2738.761985,6439.791695
592.809384,4366.744339,2294.638420,7179.997637
592.809699,3753.867940,1110.308913,8216.285956
592.810015,2145.067394,222.061783,9770.718434
592.810331,-612.876398,-1258.350101,10436.903782
592.810646,-2145.067394,-1776.494261,11029.068536
592.810962,-3217.601092,-2442.679609,11695.253884
592.811278,-4136.915689,-2738.761985,12065.356855
592.811593,-4290.134789,-2590.720797,12139.377449
592.811909,-4519.963438,-2812.782580,11621.233289
592.812225,-4213.525239,-2516.700203,11473.192101
592.812540,-3677.258390,-2442.679609,11103.089130
592.812856,-2604.724693,-2590.720797,11029.068536
592.813172,-306.438199,-2368.659014,10288.862594
592.813487,766.095498,-962.267725,9474.636058
592.813803,1838.629195,-0.000000,8734.430116
592.814119,3217.601092,888.247130,8142.265362
592.814434,4443.353888,1776.494261,7254.018232
592.814750,5362.668486,2516.700203,6883.915261
592.815065,5515.887586,2960.823768,6365.771101
592.815381,5286.058936,2812.782580,6365.771101
592.815696,4596.572988,2368.659014,7031.956449
592.816012,3294.210641,888.247130,8068.244768
592.816328,1915.238745,-444.123565,8882.471304
592.816643,0.000000,-1480.411884,10436.903782
592.816959,-1915.238745,-2368.659014,11325.150913
592.817274,-3140.991542,-2812.782580,11769.274478
592.817590,-4060.306139,-3034.844362,11991.336260
592.817905,-4213.525239,-2516.700203,12287.418637
592.818221,-4366.744339,-2294.638420,11843.295072
592.818536,-4060.306139,-2146.597232,11399.171507
592.818852,-3370.820191,-1998.556043,10807.006753
592.819167,-1915.238745,-2146.597232,10140.821405
592.819483,-459.657299,-1480.411884,9918.759623
592.819799,612.876398,-1110.308913,9696.697840
592.820114,2145.067394,-296.082377,8512.368333
592.820430,3217.601092,666.185348,8068.244768
592.820745,4366.744339,1702.473667,7254.018232
592.821061,5286.058936,2368.659014,7105.977043
592.821376,5439.278036,3182.885551,6513.812290
592.821692,5209.449386,3404.947333,6291.750507
592.822007,4443.353888,2960.823768,6587.832884
592.822323,3677.258390,1702.473667,7624.121203
592.822639,2068.457845,888.247130,8586.388927
592.822954,459.657299,-0.000000,9326.594869
592.823270,-1302.362347,-962.267725,10510.924376
592.823585,-2451.505594,-1702.473667,11399.171507
592.823901,-3830.477490,-1850.514855,11917.315666
592.824216,-4366.744339,-2072.576638,12065.356855
592.824532,-4290.134789,-2146.597232,11843.295072
592.824847,-4366.744339,-1702.473667,11399.171507
592.825163,-4136.915689,-1406.391290,11251.130318
592.825478,-2987.772442,-1406.391290,10732.986159
592.825794,-1608.800546,-1332.370696,10584.944971
592.826110,-306.438199,-592.164754,9992.780217
592.826425,919.314598,-0.000000,9326.594869
592.826741,1149.143247,148.041188,9178.553681
592.827056,3064.381992,1776.494261,8290.306550
592.827372,4136.915689,2442.679609,7402.059420
592.827687,4903.011187,3256.906145,7254.018232
592.828003,4826.401637,3404.947333,6883.915261
592.828318,4443.353888,3256.906145,6735.874072
592.828634,3907.087040,2368.659014,7254.018232
592.828950,2757.943793,1110.308913,8364.327145
592.829265,1149.143247,-148.041188,9474.636058
592.829581,-306.438199,-1332.370696,10436.903782
592.829896,-2298.286494,-2220.617826,11473.192101
592.830212,-3370.820191,-2368.659014,12139.377449
592.830527,-4136.915689,-2516.700203,12435.459826
592.830843,-4596.572988,-2442.679609,12065.356855
592.831158,-4213.525239,-1998.556043,11917.315666
592.831474,-3524.039291,-1850.514855,11177.109724
592.831790,-2911.162892,-1554.432478,10807.006753
592.832105,-1302.362347,-1554.432478,10288.862594
592.832421,0.000000,-1332.370696,9918.759623
592.832736,1378.971896,-740.205942,9474.636058
592.833052,2221.676944,-0.000000,8734.430116
592.833367,3524.039291,962.267725,8068.244768
592.833683,4596.572988,2146.597232,7624.121203
592.833998,5056.230287,2368.659014,7624.121203
592.834314,5515.887586,2812.782580,6735.874072
592.834629,4903.011187,3034.844362,6513.812290
592.834945,4519.963438,2368.659014,7254.018232
592.835261,3370.820191,814.226536,8068.244768
592.835576,1915.238745,296.082377,9030.512492
592.835892,306.438199,-518.144159,9770.718434
592.836207,-1455.581446,-1554.432478,10881.027347
592.836523,-2834.553343,-2516.700203,11251.130318
592.836838,-3830.477490,-2590.720797,11843.295072
592.837154,-4290.134789,-2738.761985,11843.295072
592.837469,-4290.134789,-2368.659014,11547.212695
592.837785,-3907.087040,-2146.597232,11399.171507
592.838101,-3140.991542,-2368.659014,10584.944971
592.838416,-2298.286494,-1998.556043,10807.006753
592.838732,-383.047749,-1998.556043,10066.800811
592.839047,689.485948,-1110.308913,9548.656652
592.839363,1685.410096,-518.144159,8808.450710
592.839678,2681.334243,296.082377,8216.285956
592.839994,3983.696590,1332.370696,7476.080014
592.840309,4749.792088,2220.617826,7179.997637
592.840625,5056.230287,2590.720797,6513.812290
592.840941,5056.230287,2516.700203,6439.791695
592.841256,4366.744339,2442.679609,7031.956449
592.841572,3217.601092,1332.370696,7254.018232
592.841887,2298.286494,-74.020594,8512.368333
592.842203,689.485948,-888.247130,9696.697840
592.842518,-1072.533697,-1998.556043,10362.883188
592.842834,-2451.505594,-2368.659014,11547.212695
592.843149,-3370.820191,-2516.700203,12287.418637
592.843465,-4366.744339,-2516.700203,11917.315666
592.843780,-4060.306139,-2146.597232,11621.233289
592.844096,-3983.696590,-1702.473667,11473.192101
592.844412,-3140.991542,-1628.453072,11029.068536
592.844727,-2068.457845,-1554.432478,10436.903782
592.845043,-459.657299,-1258.350101,9844.739029
592.845358,612.876398,-962.267725,9696.697840
592.845674,1915.238745,-74.020594,8956.491898
592.845989,3140.991542,666.185348,8586.388927
592.846305,3447.429741,962.267725,8512.368333
592.846620,4596.572988,2072.576638,7624.121203
592.846936,4979.620737,2812.782580,6957.935855
592.847252,5132.839837,3108.864956,7105.977043
592.847567,4596.572988,3256.906145,7105.977043
592.847883,3983.696590,2664.741391,7846.182985
592.848198,2834.553343,1628.453072,8586.388927
592.848514,1455.581446,444.123565,9030.512492
592.848829,-153.219100,-370.102971,10288.862594
592.849145,-1608.800546,-1258.350101,10807.006753
592.849460,-2911.162892,-1924.535449,11473.192101
592.849776,-3677.258390,-2220.617826,11991.336260
592.850092,-3983.696590,-1850.514855,11991.336260
592.850407,-3830.477490,-1776.494261,11695.253884
592.850723,-3830.477490,-1924.535449,11621.233289
592.851038,-3064.381992,-1776.494261,10881.027347
592.851354,-1685.410096,-1332.370696,10362.883188
592.851669,-612.876398,-1258.350101,10436.903782
592.851985,536.266849,-666.185348,9696.697840
592.852300,2451.505594,296.082377,8956.491898
592.852616,2681.334243,1036.288319,8512.368333
592.852931,3830.477490,1776.494261,8068.244768
592.853247,4519.963438,2442.679609,7402.059420
592.853563,4979.620737,3182.885551,6957.935855
592.853878,4979.620737,3256.906145,6661.853478
592.854194,4060.306139,2516.700203,7254.018232
592.854509,3217.601092,1554.432478,7550.100608
592.854825,2145.067394,666.185348,8660.409521
592.855140,612.876398,-666.185348,9622.677246
592.855456,-919.314598,-1480.411884,10658.965565
592.855771,-2374.896044,-2072.576638,11251.130318
592.856087,-3140.991542,-2368.659014,11917.315666
592.856403,-3830.477490,-2294.638420,12065.356855
592.856718,-3830.477490,-2368.659014,11547.212695
592.857034,-3830.477490,-2220.617826,11399.171507
592.857349,-3370.820191,-2072.576638,11177.109724
592.857665,-2374.896044,-1776.494261,10658.965565
592.857980,-919.314598,-1776.494261,10140.821405
592.858296,76.609550,-1480.411884,9770.718434
592.858611,1685.410096,-814.226536,8956.491898
592.858927,2681.334243,-74.020594,8660.409521
592.859242,3524.039291,814.226536,7994.224174
592.859558,4290.134789,1628.453072,7402.059420
592.859874,5132.839837,2146.597232,7254.018232
592.860189,5209.449386,2664.741391,6661.853478
592.860505,4903.011187,2516.700203,6439.791695
592.860820,4060.306139,1554.432478,7328.038826
592.861136,3140.991542,666.185348,7994.224174
592.861451,1685.410096,-0.000000,9030.512492
592.861767,0.000000,-1258.350101,9696.697840
592.862082,-1378.971896,-1850.514855,10288.862594
592.862398,-2528.115143,-2368.659014,10955.047942
592.862714,-3370.820191,-2590.720797,11547.212695
592.863029,-4213.525239,-2516.700203,11695.253884
592.863345,-4443.353888,-2664.741391,11547.212695
592.863660,-4366.744339,-2442.679609,11399.171507
592.863976,-3600.648841,-2590.720797,10955.047942
592.864291,-2374.896044,-2516.700203,11029.068536
592.864607,-1455.581446,-1924.535449,10584.944971
592.864922,-153.219100,-1258.350101,9844.739029
592.865238,1149.143247,-370.102971,9104.533087
592.865554,2221.676944,592.164754,8364.327145
592.865869,3524.039291,1628.453072,7846.182985
592.866185,4673.182538,2664.741391,7105.977043
592.866500,5439.278036,3182.885551,6365.771101
592.866816,5362.668486,3256.906145,6513.812290
592.867131,4366.744339,2886.803174,6439.791695
592.867447,3983.696590,1702.473667,7698.141797
592.867762,2987.772442,518.144159,8956.491898
592.868078,1072.533697,-666.185348,9622.677246
592.868393,-536.266849,-1258.350101,10510.924376
592.868709,-2145.067394,-1776.494261,11621.233289
592.869025,-3217.601092,-1924.535449,11991.336260
592.869340,-3830.477490,-1998.556043,11843.295072
592.869656,-4366.744339,-1776.494261,11843.295072
592.869971,-4596.572988,-2146.597232,12065.356855
592.870287,-3753.867940,-2146.597232,11695.253884
592.870602,-2911.162892,-2072.576638,11399.171507
592.870918,-1608.800546,-1702.473667,10807.006753
592.871233,-306.438199,-1332.370696,10288.862594
592.871549,995.924147,-370.102971,9548.656652
592.871865,2528.115143,444.123565,9030.512492
592.872180,3907.087040,1480.411884,8290.306550
592.872496,5286.058936,2886.803174,7105.977043
592.872811,5745.716235,3478.967927,6587.832884
592.873127,5975.544884,3775.050304,6069.688724
592.873442,5439.278036,3923.091493,6439.791695
592.873758,4903.011187,2738.761985,6883.915261
592.874073,3677.258390,1480.411884,7772.162391
592.874389,2068.457845,518.144159,8956.491898
592.874705,612.876398,-370.102971,9548.656652
592.875020,-1532.190996,-1036.288319,10510.924376
592.875336,-2911.162892,-1554.432478,11547.212695
592.875651,-3907.087040,-1924.535449,11917.315666
592.875967,-4749.792088,-2146.597232,11843.295072
592.876282,-4826.401637,-2294.638420,11917.315666
592.876598,-4826.401637,-2146.597232,11843.295072
592.876913,-3753.867940,-1998.556043,11399.171507
592.877229,-3064.381992,-2146.597232,11251.130318
592.877544,-1762.019645,-1628.453072,10658.965565
592.877860,-383.047749,-1258.350101,10140.821405
592.878176,1149.143247,-222.061783,9030.512492
592.878491,2528.115143,888.247130,8216.285956
592.878807,3907.087040,2516.700203,7698.141797
592.879122,5209.449386,3108.864956,6513.812290
592.879438,5898.935335,3775.050304,6291.750507
592.879753,5822.325785,4071.132681,5773.606348
592.880069,5745.716235,3108.864956,5995.668130
592.880384,4443.353888,1850.514855,7105.977043
592.880700,2757.943793,370.102971,8438.347739
592.881016,995.924147,-814.226536,9548.656652
592.881331,-766.095498,-1628.453072,10584.944971
592.881647,-2451.505594,-1998.556043,11325.150913
592.881962,-3753.867940,-2368.659014,12065.356855
592.882278,-4443.353888,-2590.720797,12287.418637
592.882593,-5056.230287,-2886.803174,12139.377449
592.882909,-4979.620737,-2590.720797,11843.295072
592.883224,-4903.011187,-2368.659014,11769.274478
592.883540,-3294.210641,-2442.679609,11177.109724
592.883856,-2068.457845,-2368.659014,10807.006753
592.884171,-229.828649,-2072.576638,10288.862594
592.884487,536.266849,-888.247130,9474.636058
592.884802,2757.943793,-222.061783,8438.347739
592.885118,3983.696590,1258.350101,7772.162391
592.885433,4979.620737,2220.617826,6957.935855
592.885749,5745.716235,2516.700203,5921.647536
592.886064,6588.421283,4145.153275,5773.606348
592.886380,6052.154434,3478.967927,5995.668130
592.886695,5286.058936,2368.659014,6809.894666
592.887011,3830.477490,1184.329507,7846.182985
592.887327,1685.410096,-0.000000,8956.491898
592.887642,153.219100,-1036.288319,9992.780217
592.887958,-1838.629195,-1554.432478,11103.089130
592.888273,-3294.210641,-2590.720797,11843.295072
592.888589,-4443.353888,-2960.823768,12287.418637
592.888904,-4979.620737,-3182.885551,12065.356855
592.889220,-5822.325785,-3256.906145,12139.377449
592.889535,-5209.449386,-2886.803174,11843.295072
592.889851,-4213.525239,-2812.782580,11769.274478
592.890167,-2221.676944,-2590.720797,11473.192101
592.890482,-1685.410096,-2072.576638,10732.986159
592.890798,306.438199,-1110.308913,9918.759623
592.891113,1762.019645,-370.102971,8660.409521
592.891429,3370.820191,1258.350101,7772.162391
592.891744,4903.011187,2294.638420,7402.059420
592.892060,5822.325785,3108.864956,6291.750507
592.892375,6511.811733,3701.029710,5773.606348
592.892691,6358.592633,3849.070898,5625.565159
592.893006,5745.716235,2738.761985,6365.771101
592.893322,4366.744339,1406.391290,7179.997637
592.893638,2528.115143,370.102971,8734.430116
592.893953,459.657299,-1036.288319,9548.656652
592.894269,-1149.143247,-1480.411884,10881.027347
592.894584,-2987.772442,-2590.720797,11769.274478
592.894900,-4519.963438,-2442.679609,12065.356855
592.895215,-4673.182538,-2960.823768,12361.439231
592.895531,-5286.058936,-2812.782580,12213.398043
592.895846,-5056.230287,-2590.720797,12065.356855
592.896162,-4136.915689,-2516.700203,11621.233289
592.896478,-2987.772442,-2442.679609,11251.130318
592.896793,-1072.533697,-2072.576638,10658.965565
592.897109,76.609550,-1036.288319,9622.677246
592.897424,1608.800546,-518.144159,8808.450710
592.897740,2911.162892,888.247130,8438.347739
592.898055,4673.182538,2220.617826,7550.100608
592.898371,6052.154434,3256.906145,6365.771101
592.898686,6281.983084,3923.091493,6069.688724
592.899002,6588.421283,4071.132681,5773.606348
592.899318,5898.935335,3701.029710,6143.709319
592.899633,4979.620737,2442.679609,6957.935855
592.899949,3140.991542,1406.391290,8438.347739
592.900264,1455.581446,-0.000000,9548.656652
592.900580,-383.047749,-1110.308913,10510.924376
592.900895,-2757.943793,-1554.432478,11473.192101
592.901211,-3753.867940,-2146.597232,12139.377449
592.901526,-4749.792088,-2590.720797,12213.398043
592.901842,-5209.449386,-2516.700203,12287.418637
592.902157,-5209.449386,-2442.679609,12213.398043
592.902473,-5132.839837,-2886.803174,11843.295072
592.902789,-3830.477490,-2738.761985,11769.274478
592.903104,-2451.505594,-2294.638420,11325.150913
592.903420,-842.705048,-1628.453072,10807.006753
592.903735,766.095498,-296.082377,9696.697840
592.904051,2451.505594,962.267725,8586.388927
592.904366,3983.696590,1998.556043,7624.121203
592.904682,5515.887586,3330.926739,6587.832884
592.904997,5975.544884,3849.070898,6291.750507
592.905313,6665.030833,4293.194464,5699.585753
592.905629,6588.421283,3775.050304,5551.544565
592.905944,5439.278036,2886.803174,6661.853478
592.906260,3753.867940,1554.432478,7994.224174
592.906575,1991.848295,-0.000000,9252.574275
592.906891,-153.219100,-962.267725,10362.883188
592.907206,-1991.848295,-1628.453072,11695.253884
592.907522,-3524.039291,-2368.659014,12361.439231
592.907837,-4596.572988,-2664.741391,12731.542202
592.908153,-5515.887586,-2442.679609,13101.645173
592.908469,-4979.620737,-2812.782580,12361.439231
592.908784,-5056.230287,-2738.761985,11991.336260
592.909100,-3983.696590,-2960.823768,11621.233289
592.909415,-2374.896044,-2294.638420,11103.089130
592.909731,-1072.533697,-2146.597232,10436.903782
592.910046,459.657299,-1258.350101,9474.636058
592.910362,2374.896044,-0.000000,8586.388927
592.910677,3983.696590,1184.329507,7772.162391
592.910993,5592.497135,2368.659014,7031.956449
592.911308,6435.202183,3108.864956,5921.647536
592.911624,6741.640382,3775.050304,5551.544565
592.911940,6511.811733,3849.070898,5773.606348
592.912255,5669.106685,2886.803174,6217.729913
592.912571,4903.011187,1702.473667,7550.100608
592.912886,2451.505594,444.123565,8512.368333
592.913202,459.657299,-814.226536,9548.656652
592.913517,-1532.190996,-1554.432478,10807.006753
592.913833,-2911.162892,-2368.659014,11473.192101
592.914148,-3907.087040,-2886.803174,12287.418637
592.914464,-5209.449386,-3404.947333,12509.480420
592.914780,-5515.887586,-3108.864956,12361.439231
592.915095,-5515.887586,-2960.823768,11991.336260
592.915411,-4826.401637,-3034.844362,11843.295072
592.915726,-3370.820191,-2886.803174,11399.171507
592.916042,-2068.457845,-2220.617826,10807.006753
592.916358,-459.657299,-1036.288319,9918.759623
592.916673,1302.362347,-518.144159,9178.553681
592.916989,2834.553343,814.226536,8142.265362
592.917305,4596.572988,2368.659014,7254.018232
592.917620,5745.716235,2738.761985,6365.771101
592.917936,6052.154434,4071.132681,5921.647536
592.918252,6358.592633,3923.091493,5477.523971
592.918567,6052.154434,3034.844362,5773.606348
592.918883,4519.963438,1702.473667,6513.812290
592.919199,2834.553343,518.144159,8438.347739
592.919514,1149.143247,-962.267725,9326.594869
592.919830,-995.924147,-1554.432478,10362.883188
592.920146,-2681.334243,-2368.659014,11769.274478
592.920461,-4213.525239,-2812.782580,12509.480420
592.920777,-4979.620737,-2812.782580,12583.501014
592.921093,-5439.278036,-3108.864956,12583.501014
592.921408,-5362.668486,-2664.741391,11991.336260
592.921724,-4596.572988,-2738.761985,11843.295072
592.922040,-3753.867940,-2886.803174,11251.130318
592.922356,-2451.505594,-2220.617826,10436.903782
592.922671,-383.047749,-1702.473667,10214.842000
592.922987,1149.143247,-666.185348,9326.594869
592.923303,2451.505594,666.185348,8290.306550
592.923618,4443.353888,1776.494261,7476.080014
592.923934,5362.668486,2960.823768,7105.977043
592.924250,6205.373534,3849.070898,5773.606348
592.924565,6435.202183,4441.235652,5773.606348
592.924881,6128.763984,3552.988522,5847.626942
592.925197,4979.620737,2516.700203,6809.894666
592.925512,3370.820191,1776.494261,8068.244768
592.925828,1838.629195,296.082377,9104.533087
592.926144,-153.219100,-666.185348,10214.842000
592.926459,-1685.410096,-1406.391290,11251.130318
592.926775,-3447.429741,-1702.473667,11843.295072
592.927091,-4596.572988,-2146.597232,12435.459826
592.927406,-5056.230287,-2590.720797,12731.542202
592.927722,-5132.839837,-2442.679609,12361.439231
592.928038,-4903.011187,-2368.659014,12065.356855
592.928353,-4136.915689,-2442.679609,11473.192101
592.928669,-2604.724693,-2072.576638,11399.171507
592.928985,-995.924147,-1554.432478,10584.944971
592.929300,229.828649,-666.185348,9770.718434
592.929616,1532.190996,148.041188,8660.409521
592.929932,3600.648841,1776.494261,8068.244768
592.930247,4979.620737,2812.782580,6809.894666
592.930563,6128.763984,3849.070898,6291.750507
592.930879,6281.983084,3849.070898,5921.647536
592.931194,6358.592633,3923.091493,5551.544565
592.931510,5822.325785,2886.803174,6143.709319
592.931826,4596.572988,1702.473667,7476.080014
592.932141,2604.724693,296.082377,8734.430116
592.932457,919.314598,-1110.308913,9844.739029
592.932773,-1072.533697,-1480.411884,10732.986159
592.933088,-2911.162892,-2294.638420,12065.356855
592.933404,-4213.525239,-2812.782580,12805.562797
592.933720,-4903.011187,-2886.803174,12509.480420
592.934036,-5056.230287,-2886.803174,12509.480420
592.934351,-5056.230287,-2664.741391,12065.356855
592.934667,-4213.525239,-2442.679609,11547.212695
592.934983,-2834.553343,-2294.638420,11029.068536
592.935298,-842.705048,-2220.617826,10658.965565
592.935614,229.828649,-1850.514855,9992.780217
592.935930,1838.629195,-148.041188,8660.409521
592.936245,3294.210641,1110.308913,7698.141797
592.936561,4979.620737,1924.535449,7328.038826
592.936877,6052.154434,3330.926739,6661.853478
592.937192,6358.592633,3849.070898,5699.585753
592.937508,6511.811733,3775.050304,5773.606348
592.937824,5822.325785,3108.864956,6365.771101
592.938139,4673.182538,2146.597232,6957.935855
592.938455,3217.601092,814.226536,8216.285956
592.938771,1149.143247,-370.102971,9474.636058
592.939086,-995.924147,-1036.288319,10140.821405
592.939402,-2681.334243,-2072.576638,11473.192101
592.939718,-3753.867940,-2664.741391,12213.398043
592.940033,-4979.620737,-3182.885551,12435.459826
592.940349,-5132.839837,-2886.803174,12139.377449
592.940665,-5362.668486,-3034.844362,11843.295072
592.940980,-4826.401637,-3034.844362,11769.274478
592.941296,-3600.648841,-2812.782580,11473.192101
592.941612,-2221.676944,-2442.679609,10881.027347
592.941927,-612.876398,-1554.432478,10436.903782
592.942243,766.095498,-444.123565,9178.553681
592.942559,2451.505594,888.247130,8216.285956
592.942874,4060.306139,1332.370696,7624.121203
592.943190,5515.887586,2886.803174,6439.791695
592.943506,6052.154434,3775.050304,5699.585753
592.943821,6281.983084,3923.091493,5699.585753
592.944137,5745.716235,3552.988522,5921.647536
592.944453,5286.058936,2738.761985,6661.853478
592.944768,3907.087040,1110.308913,7994.224174
592.945084,1915.238745,-222.061783,9474.636058
592.945400,0.000000,-1332.370696,10362.883188
592.945716,-1915.238745,-1850.514855,11399.171507
592.946031,-3370.820191,-2664.741391,12361.439231
592.946347,-4673.182538,-2590.720797,12879.583391
592.946663,-4903.011187,-2442.679609,12361.439231
592.946978,-5132.839837,-2368.659014,12213.398043
592.947294,-4826.401637,-2146.597232,12213.398043
592.947610,-3753.867940,-2442.679609,11251.130318
592.947925,-2221.676944,-2146.597232,10658.965565
592.948241,-689.485948,-1554.432478,10362.883188
592.948557,842.705048,-1110.308913,9548.656652
592.948872,2298.286494,-148.041188,8438.347739
592.949188,3907.087040,1258.350101,7550.100608
592.949504,5132.839837,2368.659014,7254.018232
592.949819,6205.373534,3182.885551,6735.874072
592.950135,6358.592633,3849.070898,6217.729913
592.950451,5669.106685,4071.132681,6217.729913
592.950766,5515.887586,2960.823768,6661.853478
592.951082,4366.744339,2220.617826,7476.080014
592.951398,2374.896044,592.164754,8660.409521
592.951713,766.095498,-592.164754,9770.718434
592.952029,-1532.190996,-1776.494261,10584.944971
592.952345,-2987.772442,-2072.576638,11547.212695
592.952660,-3830.477490,-2294.638420,12065.356855
592.952976,-4673.182538,-2516.700203,12435.459826
592.953292,-4979.620737,-2516.700203,12065.356855
592.953607,-4979.620737,-2516.700203,11991.336260
592.953923,-4443.353888,-2664.741391,11621.233289
592.954239,-3140.991542,-2590.720797,11473.192101
592.954554,-1685.410096,-2072.576638,10807.006753
592.954870,76.609550,-1406.391290,9844.739029
592.955186,1838.629195,-0.000000,9178.553681
592.955501,2911.162892,962.267725,8068.244768
592.955817,4366.744339,1924.535449,7402.059420
592.956133,5286.058936,3108.864956,6143.709319
592.956448,6205.373534,3404.947333,5847.626942
592.956764,5975.544884,3923.091493,6217.729913
592.957080,5515.887586,3330.926739,6291.750507
592.957395,4519.963438,1850.514855,6809.894666
592.957711,2834.553343,370.102971,8290.306550
592.958027,1378.971896,-888.247130,9474.636058
592.958343,-919.314598,-1924.535449,10584.944971
592.958658,-2911.162892,-2072.576638,11473.192101
592.958974,-4136.915689,-2664.741391,12287.418637
592.959290,-4903.011187,-2590.720797,12583.501014
592.959605,-4979.620737,-2738.761985,12287.418637
592.959921,-5286.058936,-2516.700203,11843.295072
592.960237,-4673.182538,-2516.700203,11547.212695
592.960552,-3294.210641,-2368.659014,10955.047942
592.960868,-1608.800546,-2368.659014,10584.944971
592.961184,-229.828649,-1776.494261,10362.883188
592.961499,919.314598,-666.185348,9252.574275
592.961815,2681.334243,-0.000000,8364.327145
592.962131,3677.258390,1258.350101,7772.162391
592.962446,5669.106685,2368.659014,7031.956449
592.962762,6205.373534,3182.885551,6069.688724
592.963078,6052.154434,3775.050304,5995.668130
592.963393,5592.497135,3701.029710,6143.709319
592.963709,4903.011187,2738.761985,6809.894666
592.964025,3294.210641,1480.411884,7550.100608
592.964340,1302.362347,-0.000000,8956.491898
592.964656,0.000000,-888.247130,10066.800811
592.964972,-1991.848295,-2220.617826,11251.130318
592.965287,-3830.477490,-2516.700203,11917.315666
592.965603,-4903.011187,-3256.906145,12435.459826
592.965919,-5132.839837,-2960.823768,12435.459826
592.966234,-5209.449386,-2812.782580,12213.398043
592.966550,-5056.230287,-2738.761985,11991.336260
592.966866,-4060.306139,-2664.741391,11399.171507
592.967181,-2451.505594,-2368.659014,11103.089130
592.967497,-1225.752797,-1480.411884,10436.903782
592.967813,459.657299,-666.185348,9622.677246
592.968128,2145.067394,370.102971,8882.471304
592.968444,3370.820191,1480.411884,7846.182985
592.968760,4979.620737,2442.679609,7179.997637
592.969075,5898.935335,3404.947333,6365.771101
592.969391,6511.811733,3775.050304,5699.585753
592.969707,6052.154434,3775.050304,6069.688724
592.970023,5592.497135,2886.803174,6513.812290
592.970338,4366.744339,1850.514855,7698.141797
592.970654,2298.286494,444.123565,8882.471304
592.970970,229.828649,-962.267725,10436.903782
592.971285,-1378.971896,-2220.617826,11325.150913
592.971601,-3370.820191,-2368.659014,12361.439231
592.971917,-4673.182538,-2886.803174,12731.542202
592.972232,-5132.839837,-2738.761985,12731.542202
592.972548,-4979.620737,-2516.700203,12435.459826
592.972864,-5132.839837,-2516.700203,11917.315666
592.973179,-3753.867940,-2146.597232,11399.171507
592.973495,-2451.505594,-2072.576638,10732.986159
592.973811,-612.876398,-1702.473667,10214.842000
592.974126,689.485948,-1332.370696,9326.594869
592.974442,2604.724693,-0.000000,8290.306550
592.974758,3753.867940,814.226536,7994.224174
592.975073,4903.011187,2072.576638,7105.977043
592.975389,5745.716235,3256.906145,6587.832884
592.975705,6205.373534,3404.947333,6069.688724
592.976020,5745.716235,3849.070898,6365.771101
592.976336,4903.011187,3034.844362,6661.853478
592.976652,4136.915689,1924.535449,7328.038826
592.976967,2298.286494,740.205942,8586.388927
592.977283,153.219100,-518.144159,9622.677246
592.977599,-1685.410096,-1554.432478,10955.047942
592.977914,-3447.429741,-2368.659014,11621.233289
592.978230,-4519.963438,-2664.741391,12287.418637
592.978546,-4903.011187,-2664.741391,12361.439231
592.978861,-5056.230287,-2442.679609,11917.315666
592.979177,-4903.011187,-2368.659014,11769.274478
592.979493,-4060.306139,-2146.597232,11547.212695
592.979808,-2987.772442,-1924.535449,10955.047942
592.980124,-1302.362347,-1480.411884,10436.903782
592.980440,0.000000,-518.144159,9770.718434
592.980755,1762.019645,-0.000000,9104.533087
592.981071,3064.381992,1184.329507,8216.285956
592.981387,4366.744339,2072.576638,7254.018232
592.981703,5209.449386,3108.864956,6957.935855
592.982018,5975.544884,2886.803174,6661.853478
592.982334,5669.106685,3478.967927,6069.688724
592.982650,4903.011187,3256.906145,6365.771101
592.982965,4290.134789,1924.535449,7254.018232
592.983281,2451.505594,666.185348,8290.306550
592.983597,612.876398,-962.267725,9400.615463
592.983912,-995.924147,-1924.535449,11029.068536
592.984228,-2834.553343,-2664.741391,11473.192101
592.984544,-4290.134789,-3034.844362,12361.439231
592.984859,-4749.792088,-2812.782580,12583.501014
592.985175,-4596.572988,-2664.741391,12583.501014
592.985491,-4826.401637,-2442.679609,11843.295072
592.985806,-3983.696590,-2146.597232,11473.192101
592.986122,-2681.334243,-1998.556043,10658.965565
592.986438,-1455.581446,-1850.514855,10362.883188
592.986753,536.266849,-1184.329507,9696.697840
592.987069,1685.410096,-962.267725,8882.471304
592.987385,2681.334243,296.082377,8438.347739
592.987700,4366.744339,1406.391290,7624.121203
592.988016,5362.668486,1924.535449,7254.018232
592.988332,5515.887586,2664.741391,6957.935855
592.988647,5592.497135,3034.844362,6439.791695
592.988963,5286.058936,2960.823768,6809.894666
592.989279,4290.134789,2516.700203,7402.059420
592.989594,2604.724693,740.205942,8364.327145
592.989910,1915.238745,-0.000000,9474.636058
592.990226,-459.657299,-1036.288319,10140.821405
592.990541,-1991.848295,-1998.556043,11103.089130
592.990857,-2911.162892,-2590.720797,11695.253884
592.991173,-3830.477490,-3108.864956,11547.212695
592.991488,-4213.525239,-2590.720797,12139.377449
592.991804,-3983.696590,-2442.679609,11621.233289
592.992120,-3907.087040,-2220.617826,11103.089130
592.992435,-2911.162892,-2072.576638,10732.986159
592.992751,-1608.800546,-1702.473667,10214.842000
592.993067,-383.047749,-1480.411884,9992.780217
592.993383,1302.362347,-370.102971,9178.553681
592.993698,2221.676944,296.082377,8290.306550
592.994014,3370.820191,1184.329507,7698.141797
592.994330,5132.839837,1850.514855,7105.977043
592.994645,5132.839837,2516.700203,6809.894666
592.994961,5132.839837,3404.947333,6587.832884
592.995277,5056.230287,2664.741391,6513.812290
592.995592,4366.744339,2146.597232,7105.977043
592.995908,2987.772442,1258.350101,7476.080014
592.996224,1378.971896,-0.000000,9104.533087
592.996539,0.000000,-1184.329507,10288.862594
592.996855,-1762.019645,-1702.473667,10955.047942
592.997171,-2911.162892,-2220.617826,11843.295072
592.997486,-4060.306139,-2368.659014,12065.356855
592.997802,-4290.134789,-2220.617826,11917.315666
592.998118,-4213.525239,-1924.535449,11695.253884
592.998433,-3983.696590,-1702.473667,11399.171507
592.998749,-3140.991542,-1406.391290,10881.027347
592.999065,-2221.676944,-1332.370696,10436.903782
592.999380,-536.266849,-1184.329507,10140.821405
592.999696,919.314598,-518.144159,9548.656652
593.000012,1991.848295,-148.041188,8808.450710
593.000327,2987.772442,740.205942,8660.409521
593.000643,4060.306139,1776.494261,7624.121203
593.000959,5132.839837,2294.638420,7550.100608
593.001274,5592.497135,2886.803174,7105.977043
593.001590,4979.620737,3552.988522,6957.935855
593.001906,3907.087040,2664.741391,7031.956449
593.002221,3370.820191,2146.597232,8216.285956
593.002537,2374.896044,1184.329507,8808.450710
593.002853,842.705048,-74.020594,9400.615463
593.003168,-536.266849,-1110.308913,10362.883188
593.003484,-2221.676944,-1850.514855,11325.150913
593.003800,-3294.210641,-2220.617826,11769.274478
593.004115,-3830.477490,-1924.535449,11991.336260
593.004431,-3983.696590,-1998.556043,11769.274478
593.004747,-3447.429741,-2072.576638,11473.192101
593.005063,-3677.258390,-2072.576638,11251.130318
593.005378,-2681.334243,-1850.514855,10881.027347
593.005694,-1685.410096,-1554.432478,10584.944971
593.006010,-383.047749,-814.226536,9992.780217
593.006325,995.924147,-222.061783,9474.636058
593.006641,2221.676944,296.082377,8734.430116
593.006957,3447.429741,1036.288319,8364.327145
593.007272,4290.134789,2294.638420,7550.100608
593.007588,5056.230287,2664.741391,6883.915261
593.007904,5209.449386,3182.885551,6883.915261
593.008219,4826.401637,3108.864956,6587.832884
593.008535,3983.696590,2220.617826,7105.977043
593.008851,3294.210641,888.247130,8142.265362
593.009166,1378.971896,-592.164754,9326.594869
593.009482,153.219100,-1406.391290,9992.780217
593.009798,-1915.238745,-2072.576638,10881.027347
593.010113,-2911.162892,-2368.659014,11621.233289
593.010429,-3677.258390,-2294.638420,11991.336260
593.010745,-4060.306139,-2442.679609,11769.274478
593.011060,-4213.525239,-2220.617826,11621.233289
593.011376,-3753.867940,-1998.556043,11029.068536
593.011692,-2911.162892,-1776.494261,10436.903782
593.012007,-2068.457845,-1702.473667,10362.883188
593.012323,-612.876398,-1850.514855,10066.800811
593.012639,842.705048,-1332.370696,9474.636058
593.012954,1838.629195,-296.082377,9030.512492
593.013270,3140.991542,518.144159,8216.285956
593.013586,4060.306139,1776.494261,7698.141797
593.013901,4596.572988,2442.679609,7328.038826
593.014217,5209.449386,2738.761985,6957.935855
593.014533,4749.792088,2886.803174,6587.832884
593.014848,4366.744339,2590.720797,7105.977043
593.015164,3524.039291,1480.411884,7772.162391
593.015480,2145.067394,518.144159,8882.471304
593.015795,536.266849,-444.123565,9548.656652
593.016111,-995.924147,-1258.350101,10214.842000
593.016427,-2451.505594,-1924.535449,10881.027347
593.016743,-2834.553343,-2368.659014,11843.295072
593.017058,-3983.696590,-2590.720797,11769.274478
593.017374,-4213.525239,-2442.679609,11547.212695
593.017690,-4290.134789,-2220.617826,11473.192101
593.018006,-4060.306139,-2220.617826,11029.068536
593.018321,-3064.381992,-1998.556043,10807.006753
593.018637,-1455.581446,-1554.432478,10658.965565
593.018953,-536.266849,-1480.411884,9918.759623
593.019269,766.095498,-518.144159,9474.636058
593.019585,1762.019645,-0.000000,8956.491898
593.019900,3140.991542,1036.288319,8438.347739
593.020216,4290.134789,2294.638420,7402.059420
593.020532,4903.011187,3034.844362,6735.874072
593.020848,5209.449386,3478.967927,6365.771101
593.021163,5056.230287,2960.823768,6439.791695
593.021479,4443.353888,2072.576638,7105.977043
593.021795,3140.991542,1036.288319,8290.306550
593.022111,1378.971896,-0.000000,9326.594869
593.022427,0.000000,-1184.329507,10288.862594
593.022742,-1608.800546,-1850.514855,11399.171507
593.023058,-2911.162892,-2516.700203,11843.295072
593.023374,-3983.696590,-2294.638420,12287.418637
593.023690,-4290.134789,-2368.659014,11843.295072
593.024005,-4213.525239,-2072.576638,11695.253884
593.024321,-3830.477490,-1924.535449,11325.150913
593.024637,-2757.943793,-2072.576638,11103.089130
593.024953,-1685.410096,-1480.411884,10584.944971
593.025269,-612.876398,-1628.453072,10288.862594
593.025584,612.876398,-1184.329507,9622.677246
593.025900,1991.848295,-222.061783,9030.512492
593.026216,3370.820191,444.123565,8438.347739
593.026532,4443.353888,1776.494261,7624.121203
593.026847,4903.011187,2812.782580,7105.977043
593.027163,5669.106685,3330.926739,6661.853478
593.027479,5745.716235,3330.926739,6291.750507
593.027795,5056.230287,2516.700203,7031.956449
593.028111,3983.696590,1998.556043,7254.018232
593.028426,2451.505594,740.205942,8438.347739
593.028742,766.095498,-296.082377,9474.636058
593.029058,-536.266849,-1258.350101,10362.883188
593.029374,-2528.115143,-2146.597232,11177.109724
593.029689,-3524.039291,-2220.617826,11843.295072
593.030005,-4213.525239,-2368.659014,11917.315666
593.030321,-4366.744339,-2220.617826,11769.274478
593.030637,-4596.572988,-2146.597232,11473.192101
593.030953,-3830.477490,-2072.576638,11177.109724
593.031268,-2987.772442,-2072.576638,10955.047942
593.031584,-1608.800546,-1850.514855,10807.006753
593.031900,-689.485948,-1184.329507,10214.842000
593.032216,0.000000,-1036.288319,9918.759623
593.032531,2145.067394,444.123565,8808.450710
593.032847,3294.210641,1628.453072,7772.162391
593.033163,4903.011187,2812.782580,7031.956449
593.033479,5592.497135,3256.906145,6735.874072
593.033795,5745.716235,3404.947333,6439.791695
593.034110,5132.839837,3330.926739,6217.729913
593.034426,4443.353888,2146.597232,7105.977043
593.034742,3064.381992,814.226536,8068.244768
593.035058,1532.190996,-296.082377,9178.553681
593.035373,-383.047749,-1480.411884,10288.862594
593.035689,-1915.238745,-1924.535449,11325.150913
593.036005,-3217.601092,-2368.659014,11843.295072
593.036321,-4060.306139,-2368.659014,11917.315666
593.036637,-4136.915689,-2516.700203,11769.274478
593.036952,-4596.572988,-2368.659014,11991.336260
593.037268,-4136.915689,-2294.638420,11325.150913
593.037584,-3370.820191,-2294.638420,11177.109724
593.037900,-2145.067394,-2146.597232,10881.027347
593.038215,-536.266849,-2146.597232,10288.862594
593.038531,459.657299,-1036.288319,9844.739029
593.038847,2221.676944,-0.000000,8882.471304
593.039163,3677.258390,888.247130,8068.244768
593.039479,4903.011187,2368.659014,7550.100608
593.039794,5592.497135,2738.761985,6661.853478
593.040110,6205.373534,3627.009116,6513.812290
593.040426,5745.716235,3775.050304,6365.771101
593.040742,5209.449386,3034.844362,6661.853478
593.041057,4290.134789,1850.514855,7698.141797
593.041373,2451.505594,666.185348,8438.347739
593.041689,612.876398,-518.144159,9474.636058
593.042005,-1149.143247,-1628.453072,10510.924376
593.042321,-2987.772442,-2294.638420,11473.192101
593.042636,-3677.258390,-2368.659014,12213.398043
593.042952,-3983.696590,-2516.700203,12065.356855
593.043268,-4903.011187,-2590.720797,11843.295072
593.043584,-5056.230287,-2516.700203,12139.377449
593.043899,-4443.353888,-2220.617826,11399.171507
593.044215,-2834.553343,-2442.679609,11251.130318
593.044531,-1685.410096,-2072.576638,10881.027347
593.044847,-383.047749,-1480.411884,10214.842000
593.045163,995.924147,-592.164754,9326.594869
593.045478,2604.724693,740.205942,8512.368333
593.045794,4213.525239,1554.432478,7772.162391
593.046110,5132.839837,2812.782580,6587.832884
593.046426,5975.544884,3552.988522,6143.709319
593.046741,6128.763984,3552.988522,5625.565159
593.047057,5745.716235,3108.864956,5921.647536
593.047373,4826.401637,1998.556043,6661.853478
593.047689,3217.601092,592.164754,8364.327145
593.048004,1455.581446,-592.164754,9474.636058
593.048320,-536.266849,-1628.453072,10362.883188
593.048636,-2374.896044,-2072.576638,11695.253884
593.048952,-3753.867940,-2368.659014,11991.336260
593.049268,-4366.744339,-2738.761985,12139.377449
593.049583,-4673.182538,-2442.679609,12065.356855
593.049899,-4903.011187,-2590.720797,11917.315666
593.050215,-5056.230287,-2590.720797,11473.192101
593.050531,-3524.039291,-2220.617826,11103.089130
593.050846,-1991.848295,-1924.535449,10732.986159
593.051162,-459.657299,-1628.453072,10288.862594
593.051478,612.876398,-740.205942,9400.615463
593.051794,2221.676944,666.185348,8882.471304
593.052110,3677.258390,1554.432478,7772.162391
593.052425,5209.449386,2664.741391,7105.977043
593.052741,5745.716235,3552.988522,6587.832884
593.053057,6205.373534,3849.070898,6069.688724
593.053373,6128.763984,3775.050304,6143.709319
593.053688,5056.230287,3108.864956,6587.832884
593.054004,3677.258390,1924.535449,7846.182985
593.054320,1838.629195,666.185348,8956.491898
593.054636,76.609550,-444.123565,10362.883188
593.054952,-2068.457845,-1702.473667,11103.089130
593.055267,-3370.820191,-2368.659014,11843.295072
593.055583,-4673.182538,-2886.803174,12361.439231
593.055899,-5056.230287,-2738.761985,12065.356855
593.056215,-5209.449386,-2664.741391,12361.439231
593.056530,-5286.058936,-2442.679609,12139.377449
593.056846,-4366.744339,-2442.679609,11251.130318
593.057162,-3140.991542,-2220.617826,11325.150913
593.057478,-1762.019645,-1924.535449,10658.965565
593.057794,-383.047749,-1554.432478,10214.842000
593.058109,1378.971896,-0.000000,9030.512492
593.058425,2987.772442,1332.370696,7994.224174
593.058741,4903.011187,2146.597232,7254.018232
593.059057,5898.935335,3330.926739,6291.750507
593.059372,6894.859482,4367.215058,5551.544565
593.059688,5975.544884,3478.967927,5847.626942
593.060004,5822.325785,3404.947333,6365.771101
593.060320,4213.525239,1924.535449,7402.059420
593.060636,2757.943793,296.082377,8882.471304
593.060951,766.095498,-740.205942,9844.739029
593.061267,-1532.190996,-1628.453072,10807.006753
593.061583,-2681.334243,-2220.617826,11843.295072
593.061899,-4060.306139,-2442.679609,12361.439231
593.062214,-4596.572988,-2664.741391,12361.439231
593.062530,-5362.668486,-2590.720797,12287.418637
593.062846,-5132.839837,-2590.720797,12065.356855
593.063162,-4213.525239,-2368.659014,11621.233289
593.063478,-2834.553343,-2220.617826,11029.068536
593.063793,-1302.362347,-2072.576638,10732.986159
593.064109,76.609550,-1332.370696,9992.780217
593.064425,1762.019645,-148.041188,9030.512492
593.064741,3140.991542,666.185348,8216.285956
593.065056,4903.011187,2072.576638,7476.080014
593.065372,6052.154434,3108.864956,6439.791695
593.065688,6818.249932,4071.132681,6143.709319
593.066004,6894.859482,3997.112087,5921.647536
593.066320,5745.716235,3627.009116,5921.647536
593.066635,4903.011187,2516.700203,6883.915261
593.066951,3447.429741,666.185348,8438.347739
593.067267,1225.752797,-74.020594,9474.636058
593.067583,-919.314598,-1110.308913,10362.883188
593.067898,-2681.334243,-1998.556043,11251.130318
593.068214,-3830.477490,-2738.761985,12065.356855
593.068530,-4826.401637,-2664.741391,12731.542202
593.068846,-4979.620737,-2590.720797,11917.315666
593.069162,-5439.278036,-2812.782580,11991.336260
593.069477,-4673.182538,-2516.700203,11843.295072
593.069793,-3830.477490,-2368.659014,11103.089130
593.070109,-2221.676944,-2294.638420,10881.027347
593.070425,-842.705048,-1406.391290,10436.903782
593.070740,689.485948,-740.205942,9474.636058
593.071056,2374.896044,518.144159,8512.368333
593.071372,4136.915689,1628.453072,7772.162391
593.071688,5362.668486,2516.700203,6661.853478
593.072004,6205.373534,3478.967927,6143.709319
593.072319,6358.592633,3701.029710,6143.709319
593.072635,5975.544884,3775.050304,5847.626942
593.072951,5056.230287,2516.700203,6513.812290
593.073267,3830.477490,1184.329507,7994.224174
593.073582,1608.800546,-0.000000,9326.594869
593.073898,-306.438199,-1258.350101,10362.883188
593.074214,-2221.676944,-2294.638420,11325.150913
593.074530,-3983.696590,-2738.761985,11991.336260
593.074846,-4673.182538,-3182.885551,12657.521608
593.075161,-4903.011187,-2812.782580,12731.542202
593.075477,-5362.668486,-2516.700203,12065.356855
593.075793,-4903.011187,-2442.679609,11843.295072
593.076109,-3907.087040,-2442.679609,11621.233289
593.076424,-2451.505594,-2220.617826,10807.006753
593.076740,-1378.971896,-1628.453072,10510.924376
593.077056,459.657299,-1110.308913,9622.677246
593.077372,2221.676944,-444.123565,9178.553681
593.077688,3370.820191,962.267725,8216.285956
593.078003,4903.011187,2368.659014,7254.018232
593.078319,5975.544884,3330.926739,6513.812290
593.078635,6281.983084,3627.009116,5995.668130
593.078951,6205.373534,3552.988522,6217.729913
593.079266,5362.668486,3256.906145,6365.771101
593.079582,3907.087040,1850.514855,7402.059420
593.079898,2145.067394,592.164754,8364.327145
593.080214,383.047749,-592.164754,9548.656652
593.080529,-1225.752797,-1628.453072,10881.027347
593.080845,-2911.162892,-2368.659014,11325.150913
593.081161,-4060.306139,-2516.700203,12287.418637
593.081477,-4596.572988,-2812.782580,12361.439231
593.081793,-4903.011187,-2590.720797,11991.336260
593.082108,-4979.620737,-2664.741391,12065.356855
593.082424,-4519.963438,-2442.679609,11547.212695
593.082740,-3140.991542,-2368.659014,11251.130318
593.083056,-1455.581446,-1924.535449,10881.027347
593.083371,-153.219100,-888.247130,9844.739029
593.083687,1225.752797,-148.041188,9400.615463
593.084003,2834.553343,666.185348,8438.347739
593.084319,4290.134789,1924.535449,7550.100608
593.084635,5132.839837,2738.761985,6661.853478
593.084950,6894.859482,3701.029710,6809.894666
593.085266,6128.763984,3849.070898,6143.709319
593.085582,5745.716235,3404.947333,6365.771101
593.085898,4903.011187,2368.659014,7105.977043
593.086213,3370.820191,1036.288319,8216.285956
593.086529,1149.143247,-148.041188,9548.656652
593.086845,-306.438199,-1554.432478,10362.883188
593.087161,-2604.724693,-2220.617826,11473.192101
593.087477,-3677.258390,-2590.720797,12361.439231
593.087792,-4519.963438,-2886.803174,12435.459826
593.088108,-4519.963438,-2738.761985,12213.398043
593.088424,-4826.401637,-2664.741391,12139.377449
593.088740,-4136.915689,-2590.720797,11473.192101
593.089055,-3140.991542,-2294.638420,11029.068536
593.089371,-2221.676944,-2220.617826,11177.109724
593.089687,-229.828649,-1406.391290,10066.800811
593.090003,1149.143247,-814.226536,9474.636058
593.090319,2451.505594,-0.000000,8364.327145
593.090634,4136.915689,1406.391290,7846.182985
593.090950,5056.230287,2516.700203,7105.977043
593.091266,5975.544884,3330.926739,6143.709319
593.091582,5822.325785,3552.988522,5995.668130
593.091897,5745.716235,3701.029710,5921.647536
593.092213,4596.572988,2738.761985,6513.812290
593.092529,3753.867940,1554.432478,7772.162391
593.092845,1532.190996,370.102971,8956.491898
593.093161,0.000000,-740.205942,9918.759623
593.093476,-1838.629195,-1702.473667,11251.130318
593.093792,-3064.381992,-2368.659014,11843.295072
593.094108,-4136.915689,-2442.679609,12361.439231
593.094424,-5056.230287,-2664.741391,12435.459826
593.094739,-4979.620737,-2442.679609,11843.295072
593.095055,-4903.011187,-2368.659014,11991.336260
593.095371,-3830.477490,-2294.638420,11251.130318
593.095687,-2834.553343,-2072.576638,10955.047942
593.096003,-1608.800546,-1702.473667,10584.944971
593.096318,-229.828649,-1110.308913,9844.739029
593.096634,1608.800546,74.020594,9178.553681
593.096950,3370.820191,1480.411884,8290.306550
593.097266,4749.792088,1998.556043,7105.977043
593.097581,5362.668486,3256.906145,6661.853478
593.097897,5975.544884,3552.988522,5995.668130
593.098213,5898.935335,3478.967927,6069.688724
593.098529,5209.449386,2738.761985,6809.894666
593.098845,4136.915689,2146.597232,7254.018232
593.099160,2757.943793,666.185348,8734.430116
593.099476,689.485948,-592.164754,9844.739029
593.099792,-919.314598,-1628.453072,11399.171507
593.100108,-2681.334243,-1998.556043,11991.336260
593.100423,-3600.648841,-2368.659014,12287.418637
593.100739,-4673.182538,-2516.700203,12657.521608
593.101055,-4596.572988,-2516.700203,12583.501014
593.101371,-4673.182538,-2368.659014,11843.295072
593.101687,-3753.867940,-2146.597232,11621.233289
593.102002,-2681.334243,-2072.576638,11103.089130
593.102318,-1149.143247,-1850.514855,10510.924376
593.102634,153.219100,-1110.308913,9992.780217
593.102950,2298.286494,-666.185348,9104.533087
593.103265,2987.772442,740.205942,8290.306550
593.103581,4673.182538,1776.494261,7550.100608
593.103897,5515.887586,2516.700203,7031.956449
593.104213,6052.154434,3478.967927,6513.812290
593.104529,6128.763984,3552.988522,6069.688724
593.104844,5592.497135,3478.967927,6291.750507
593.105160,4673.182538,2516.700203,7179.997637
593.105476,3294.210641,1110.308913,7994.224174
593.105792,1455.581446,-148.041188,9030.512492
593.106107,-306.438199,-1406.391290,10288.862594
593.106423,-2221.676944,-2368.659014,11473.192101
593.106739,-3600.648841,-2516.700203,11843.295072
593.107055,-4213.525239,-2590.720797,12139.377449
593.107371,-4519.963438,-2590.720797,12139.377449
593.107686,-4903.011187,-2368.659014,11843.295072
593.108002,-4366.744339,-2368.659014,11473.192101
593.108318,-3677.258390,-2220.617826,10881.027347
593.108634,-2298.286494,-1702.473667,10658.965565
593.108949,-459.657299,-1628.453072,10288.862594
593.109265,383.047749,-962.267725,9474.636058
593.109581,1838.629195,296.082377,8734.430116
593.109897,3524.039291,1480.411884,8142.265362
593.110212,4673.182538,2368.659014,7179.997637
593.110528,5439.278036,2960.823768,6809.894666
593.110844,5515.887586,3404.947333,6291.750507
593.111160,5515.887586,3478.967927,6291.750507
593.111476,4903.011187,2368.659014,6587.832884
593.111791,3524.039291,1554.432478,7920.203579
593.112107,1762.019645,-0.000000,9030.512492
593.112423,-229.828649,-1332.370696,10140.821405
593.112739,-2145.067394,-2220.617826,11325.150913
593.113054,-3447.429741,-2442.679609,11991.336260
593.113370,-4826.401637,-2664.741391,12287.418637
593.113686,-4903.011187,-2664.741391,12583.501014
593.114002,-4903.011187,-2590.720797,12065.356855
593.114318,-4673.182538,-2516.700203,11843.295072
593.114633,-3753.867940,-2590.720797,11177.109724
593.114949,-2451.505594,-1998.556043,10658.965565
593.115265,-1149.143247,-1776.494261,10288.862594
593.115581,689.485948,-1110.308913,9548.656652
593.115896,2068.457845,-0.000000,8808.450710
593.116212,3140.991542,1110.308913,7920.203579
593.116528,4826.401637,1850.514855,7328.038826
593.116844,5515.887586,3182.885551,6735.874072
593.117160,5822.325785,3404.947333,6069.688724
593.117475,5669.106685,3552.988522,6069.688724
593.117791,5056.230287,3108.864956,6439.791695
593.118107,3907.087040,2072.576638,7772.162391
593.118422,2221.676944,518.144159,8586.388927
593.118738,536.266849,-296.082377,9844.739029
593.119054,-1149.143247,-1184.329507,10584.944971
593.119369,-3064.381992,-1998.556043,11399.171507
593.119685,-3983.696590,-2294.638420,12139.377449
593.120000,-4673.182538,-2294.638420,12361.439231
593.120316,-4443.353888,-2220.617826,12065.356855
593.120632,-4519.963438,-2072.576638,11843.295072
593.120947,-4290.134789,-2368.659014,11473.192101
593.121263,-2987.772442,-2146.597232,11029.068536
593.121579,-1378.971896,-1554.432478,10955.047942
593.121894,-229.828649,-1036.288319,9992.780217
593.122210,1302.362347,-0.000000,9178.553681
593.122526,2757.943793,1036.288319,8290.306550
593.122841,4519.963438,2146.597232,7550.100608
593.123157,5745.716235,2886.803174,7031.956449
593.123472,5898.935335,3330.926739,6291.750507
593.123788,6052.154434,3627.009116,6069.688724
593.124104,5669.106685,3404.947333,6513.812290
593.124419,4366.744339,2072.576638,7105.977043
593.124735,3064.381992,814.226536,8512.368333
593.125051,1149.143247,-592.164754,9696.697840
593.125366,-766.095498,-1702.473667,10732.986159
593.125682,-3140.991542,-2812.782580,11621.233289
593.125998,-3983.696590,-3034.844362,12361.439231
593.126313,-4519.963438,-2812.782580,12657.521608
593.126629,-4903.011187,-2738.761985,12139.377449
593.126944,-4290.134789,-2368.659014,11843.295072
593.127260,-3907.087040,-2294.638420,11399.171507
593.127576,-2911.162892,-2072.576638,10584.944971
593.127891,-1302.362347,-1702.473667,10362.883188
593.128207,0.000000,-1184.329507,9770.718434
593.128523,1762.019645,-592.164754,9178.553681
593.128838,3294.210641,518.144159,8216.285956
593.129154,4443.353888,1702.473667,7402.059420
593.129470,5362.668486,2590.720797,6957.935855
593.129785,5822.325785,3256.906145,6439.791695
593.130101,6128.763984,3404.947333,6291.750507
593.130416,5132.839837,3108.864956,6513.812290
593.130732,3907.087040,2516.700203,7179.997637
593.131048,2911.162892,1110.308913,8290.306550
593.131363,1149.143247,-296.082377,9400.615463
593.131679,-919.314598,-1036.288319,10436.903782
593.131995,-2681.334243,-2146.597232,10881.027347
593.132310,-3600.648841,-2294.638420,11621.233289
593.132626,-4290.134789,-2368.659014,11991.336260
593.132942,-4673.182538,-2368.659014,11917.315666
593.133257,-4596.572988,-2220.617826,11843.295072
593.133573,-4213.525239,-2368.659014,11177.109724
593.133888,-3140.991542,-2072.576638,10807.006753
593.134204,-1991.848295,-1776.494261,10362.883188
593.134520,-383.047749,-1406.391290,9992.780217
593.134835,612.876398,-740.205942,9400.615463
593.135151,2221.676944,518.144159,8586.388927
593.135467,3294.210641,1110.308913,7994.224174
593.135782,4519.963438,2146.597232,7402.059420
593.136098,5209.449386,3034.844362,6883.915261
593.136414,5515.887586,2960.823768,6513.812290
593.136729,5209.449386,3404.947333,6661.853478
593.137045,4366.744339,2590.720797,6883.915261
593.137360,3294.210641,1258.350101,8068.244768
593.137676,2451.505594,296.082377,9400.615463
593.137992,0.000000,-1258.350101,10436.903782
593.138307,-1608.800546,-2146.597232,11325.150913
593.138623,-2987.772442,-2368.659014,12065.356855
593.138939,-3983.696590,-2516.700203,12287.418637
593.139254,-3830.477490,-2072.576638,12435.459826
593.139570,-4366.744339,-2294.638420,11843.295072
593.139886,-3907.087040,-1998.556043,11473.192101
593.140201,-3370.820191,-1924.535449,10881.027347
593.140517,-2068.457845,-1554.432478,10288.862594
593.140832,-536.266849,-1332.370696,10214.842000
593.141148,842.705048,-1110.308913,9474.636058
593.141464,2528.115143,-0.000000,8956.491898
593.141779,3370.820191,814.226536,8142.265362
593.142095,4673.182538,1702.473667,7328.038826
593.142411,5132.839837,2368.659014,7179.997637
593.142726,5822.325785,3034.844362,6661.853478
593.143042,5362.668486,3034.844362,6513.812290
593.143358,4596.572988,2738.761985,6735.874072
593.143673,3524.039291,1184.329507,7920.203579
593.143989,2068.457845,370.102971,8660.409521
593.144304,0.000000,-444.123565,9918.759623
593.144620,-1532.190996,-1628.453072,10584.944971
593.144936,-2834.553343,-2368.659014,11473.192101
593.145251,-3830.477490,-2368.659014,11843.295072
593.145567,-4213.525239,-2516.700203,11991.336260
593.145883,-4366.744339,-2220.617826,11917.315666
593.146198,-3983.696590,-2220.617826,11473.192101
593.146514,-3524.039291,-1924.535449,10732.986159
593.146830,-2451.505594,-1776.494261,10362.883188
593.147145,-766.095498,-1480.411884,10140.821405
593.147461,-229.828649,-814.226536,9622.677246
593.147776,1302.362347,-296.082377,8734.430116
593.148092,2757.943793,222.061783,8438.347739
593.148408,3907.087040,1110.308913,7772.162391
593.148723,4443.353888,2516.700203,7254.018232
593.149039,5362.668486,2590.720797,7031.956449
593.149355,5132.839837,3108.864956,6661.853478
593.149670,4213.525239,2812.782580,6513.812290
593.149986,3600.648841,2072.576638,7328.038826
593.150302,2681.334243,518.144159,8216.285956
593.150617,842.705048,-592.164754,9326.594869
593.150933,-536.266849,-1480.411884,9992.780217
593.151248,-2298.286494,-2442.679609,10955.047942
593.151564,-3753.867940,-2886.803174,11917.315666
593.151880,-4060.306139,-2812.782580,12287.418637
593.152195,-4290.134789,-2368.659014,11843.295072
593.152511,-4213.525239,-1998.556043,11695.253884
593.152827,-3753.867940,-1924.535449,11399.171507
593.153142,-2681.334243,-1554.432478,10510.924376
593.153458,-1455.581446,-1332.370696,10140.821405
593.153774,0.000000,-888.247130,9696.697840
593.154089,1455.581446,-148.041188,9400.615463
593.154405,2451.505594,148.041188,8808.450710
593.154720,3677.258390,1332.370696,8068.244768
593.155036,4749.792088,1628.453072,7476.080014
593.155352,5056.230287,2368.659014,7105.977043
593.155667,4979.620737,3182.885551,7031.956449
593.155983,4673.182538,2738.761985,7105.977043
593.156299,3983.696590,2442.679609,7698.141797
593.156614,2834.553343,1406.391290,7994.224174
593.156930,1225.752797,370.102971,9252.574275
593.157246,0.000000,-370.102971,10658.965565
593.157561,-1915.238745,-1924.535449,10807.006753
593.157877,-2681.334243,-2072.576638,11473.192101
593.158192,-3753.867940,-2294.638420,11769.274478
593.158508,-3830.477490,-2146.597232,11843.295072
593.158824,-3600.648841,-1850.514855,11843.295072
593.159139,-3753.867940,-1628.453072,11177.109724
593.159455,-3140.991542,-1554.432478,11029.068536
593.159771,-2145.067394,-1480.411884,10510.924376
593.160086,-919.314598,-1480.411884,10140.821405
593.160402,0.000000,-740.205942,9844.739029
593.160718,1302.362347,-518.144159,9326.594869
593.161033,2374.896044,592.164754,9104.533087
593.161349,3447.429741,1776.494261,8142.265362
593.161664,4673.182538,2442.679609,7402.059420
593.161980,5286.058936,2960.823768,6883.915261
593.162296,4903.011187,2886.803174,6809.894666
593.162611,4596.572988,2812.782580,6883.915261
593.162927,3677.258390,1776.494261,7550.100608
593.163243,2528.115143,370.102971,8068.244768
593.163558,1225.752797,-296.082377,9474.636058
593.163874,-689.485948,-1776.494261,10510.924376
593.164190,-1915.238745,-2368.659014,11325.150913
593.164505,-3294.210641,-2442.679609,11843.295072
593.164821,-3983.696590,-2664.741391,11917.315666
593.165136,-3983.696590,-2368.659014,11843.295072
593.165452,-4290.134789,-1998.556043,11325.150913
593.165768,-3524.039291,-1998.556043,11251.130318
593.166083,-2911.162892,-1554.432478,10436.903782
593.166399,-1302.362347,-1258.350101,10288.862594
593.166715,0.000000,-1036.288319,10140.821405
593.167030,1225.752797,-740.205942,9178.553681
593.167346,2145.067394,296.082377,8660.409521
593.167662,3447.429741,888.247130,8068.244768
593.167977,4519.963438,1776.494261,7624.121203
593.168293,4826.401637,2442.679609,7476.080014
593.168608,5209.449386,2812.782580,6883.915261
593.168924,4826.401637,3108.864956,6883.915261
593.169240,4596.572988,2442.679609,7328.038826
593.169555,3217.601092,1406.391290,7772.162391
593.169871,1608.800546,518.144159,8956.491898
593.170187,76.609550,-444.123565,10066.800811
593.170502,-1378.971896,-1554.432478,10658.965565
593.170818,-2604.724693,-2220.617826,11399.171507
593.171133,-3524.039291,-2368.659014,11843.295072
593.171449,-3983.696590,-2294.638420,11547.212695
593.171765,-4213.525239,-1998.556043,11399.171507
593.172080,-3983.696590,-2072.576638,11325.150913
593.172396,-3600.648841,-1924.535449,11399.171507
593.172712,-2604.724693,-1776.494261,10807.006753
593.173027,-1149.143247,-1628.453072,10436.903782
593.173343,76.609550,-1110.308913,9918.759623
593.173659,1225.752797,-444.123565,9474.636058
593.173974,2757.943793,296.082377,8734.430116
593.174290,3830.477490,1480.411884,7846.182985
593.174605,4749.792088,2368.659014,7402.059420
593.174921,5132.839837,3034.844362,6809.894666
593.175237,4979.620737,3330.926739,6513.812290
593.175552,4443.353888,2812.782580,6957.935855
593.175868,3983.696590,1850.514855,7328.038826
593.176184,2911.162892,814.226536,8438.347739
593.176499,1225.752797,-370.102971,9474.636058
593.176815,-612.876398,-1406.391290,10732.986159
593.177131,-2145.067394,-1998.556043,11621.233289
593.177446,-3217.601092,-2368.659014,12065.356855
593.177762,-4060.306139,-2368.659014,12139.377449
593.178077,-4366.744339,-2368.659014,11843.295072
593.178393,-4290.134789,-2146.597232,11917.315666
593.178709,-3524.039291,-1850.514855,11843.295072
593.179024,-2911.162892,-1776.494261,11029.068536
593.179340,-1378.971896,-1258.350101,10288.862594
593.179656,0.000000,-962.267725,10140.821405
593.179971,842.705048,-296.082377,9474.636058
593.180287,2451.505594,370.102971,8290.306550
593.180603,3830.477490,1332.370696,7920.203579
593.180918,5056.230287,1998.556043,7105.977043
593.181234,5592.497135,2738.761985,7105.977043
593.181549,5745.716235,3108.864956,6809.894666
593.181865,5132.839837,3182.885551,6365.771101
593.182181,4443.353888,2590.720797,6809.894666
593.182496,3217.601092,1332.370696,7846.182985
593.182812,1608.800546,148.041188,9030.512492
593.183128,0.000000,-1036.288319,10140.821405
593.183443,-1838.629195,-1776.494261,10881.027347
593.183759,-3064.381992,-2146.597232,11621.233289
593.184075,-3907.087040,-2442.679609,11917.315666
593.184390,-4366.744339,-2294.638420,11695.253884
593.184706,-4596.572988,-2146.597232,11399.171507
593.185021,-4136.915689,-1998.556043,11547.212695
593.185337,-3600.648841,-1702.473667,10807.006753
593.185653,-2451.505594,-1776.494261,10584.944971
593.185968,-1149.143247,-1776.494261,10362.883188
593.186284,76.609550,-740.205942,9474.636058
593.186600,1838.629195,-74.020594,8882.471304
593.186915,3140.991542,962.267725,8142.265362
593.187231,4366.744339,2146.597232,7624.121203
593.187547,5669.106685,2664.741391,7105.977043
593.187862,5822.325785,3330.926739,6513.812290
593.188178,5362.668486,3256.906145,6217.729913
593.188493,4903.011187,2812.782580,6587.832884
593.188809,3830.477490,1998.556043,7624.121203
593.189125,2528.115143,296.082377,8586.388927
593.189440,536.266849,-888.247130,9622.677246
593.189756,-995.924147,-1628.453072,10732.986159
593.190072,-2604.724693,-2368.659014,11695.253884
593.190387,-3524.039291,-2590.720797,12065.356855
593.190703,-4136.915689,-2368.659014,12065.356855
593.191019,-4443.353888,-2294.638420,12065.356855
593.191334,-4519.963438,-2220.617826,11917.315666
593.191650,-3600.648841,-2146.597232,11547.212695
593.191965,-2987.772442,-1998.556043,11103.089130
593.192281,-1608.800546,-1480.411884,10288.862594
593.192597,-229.828649,-888.247130,10288.862594
593.192912,1685.410096,-592.164754,9326.594869
593.193228,2834.553343,740.205942,8216.285956
593.193544,4366.744339,1406.391290,7624.121203
593.193859,5592.497135,2220.617826,7105.977043
593.194175,6205.373534,3256.906145,6513.812290
593.194491,5975.544884,3552.988522,6439.791695
593.194806,5362.668486,3182.885551,6513.812290
593.195122,4749.792088,2220.617826,7105.977043
593.195437,2834.553343,1110.308913,8290.306550
593.195753,995.924147,-0.000000,9400.615463
593.196069,-766.095498,-888.247130,10214.842000
593.196384,-2221.676944,-1480.411884,11251.130318
593.196700,-3370.820191,-2368.659014,11917.315666
593.197016,-4136.915689,-2590.720797,12065.356855
593.197331,-4519.963438,-2590.720797,11843.295072
593.197647,-4673.182538,-2664.741391,11473.192101
593.197963,-3524.039291,-2294.638420,11547.212695
593.198278,-3600.648841,-2146.597232,11177.109724
593.198594,-1915.238745,-1998.556043,10732.986159
593.198909,-459.657299,-1406.391290,10584.944971
593.199225,536.266849,-518.144159,9696.697840
593.199541,2221.676944,444.123565,8438.347739
593.199856,3677.258390,962.267725,7846.182985
593.200172,4903.011187,2220.617826,7550.100608
593.200488,5669.106685,3256.906145,6661.853478
593.200803,6205.373534,3849.070898,6291.750507
593.201119,5975.544884,3404.947333,5847.626942
593.201435,4903.011187,2738.761985,6587.832884
593.201750,4136.915689,1850.514855,7772.162391
593.202066,2068.457845,296.082377,8734.430116
593.202381,0.000000,-814.226536,10140.821405
593.202697,-1532.190996,-2146.597232,11103.089130
593.203013,-3217.601092,-2664.741391,11843.295072
593.203328,-4136.915689,-2664.741391,12435.459826
593.203644,-4826.401637,-2886.803174,12213.398043
593.203960,-4826.401637,-2442.679609,11917.315666
593.204275,-4443.353888,-2220.617826,11843.295072
593.204591,-4060.306139,-2146.597232,11547.212695
593.204907,-2604.724693,-1850.514855,11029.068536
593.205222,-1532.190996,-1702.473667,10510.924376
593.205538,76.609550,-1036.288319,9696.697840
593.205853,1838.629195,-222.061783,9104.533087
593.206169,3294.210641,962.267725,7920.203579
593.206485,4596.572988,2072.576638,7105.977043
593.206800,5592.497135,2516.700203,6661.853478
593.207116,6281.983084,2812.782580,5995.668130
593.207432,5898.935335,2886.803174,6143.709319
593.207747,5362.668486,2960.823768,6661.853478
593.208063,3983.696590,1850.514855,7698.141797
593.208379,2374.896044,666.185348,8512.368333
593.208694,842.705048,-148.041188,9548.656652
593.209010,-1378.971896,-1184.329507,10510.924376
593.209325,-2757.943793,-1998.556043,11399.171507
593.209641,-3907.087040,-2442.679609,11843.295072
593.209957,-4826.401637,-2516.700203,11917.315666
593.210272,-4673.182538,-2738.761985,12139.377449
593.210588,-4826.401637,-2368.659014,11695.253884
593.210904,-4060.306139,-2294.638420,11547.212695
593.211219,-3370.820191,-2368.659014,11251.130318
593.211535,-2221.676944,-2146.597232,10955.047942
593.211851,-383.047749,-1480.411884,10362.883188
593.212166,919.314598,-444.123565,9474.636058
593.212482,2451.505594,814.226536,8586.388927
593.212797,3830.477490,1776.494261,7624.121203
593.213113,5132.839837,2368.659014,7105.977043
593.213429,5975.544884,3627.009116,6439.791695
593.213744,5669.106685,3478.967927,6069.688724
593.214060,5362.668486,3182.885551,6217.729913
593.214376,4596.572988,2442.679609,6883.915261
593.214691,3217.601092,1258.350101,8216.285956
593.215007,1378.971896,-296.082377,9474.636058
593.215323,-766.095498,-1480.411884,10362.883188
593.215638,-2221.676944,-2220.617826,11621.233289
593.215954,-3524.039291,-2812.782580,11917.315666
593.216269,-4366.744339,-3034.844362,12879.583391
593.216585,-4826.401637,-2516.700203,12287.418637
593.216901,-4903.011187,-2590.720797,11769.274478
593.217216,-4290.134789,-2220.617826,11769.274478
593.217532,-3217.601092,-2294.638420,11399.171507
593.217848,-2145.067394,-1924.535449,10584.944971
593.218163,-689.485948,-1480.411884,10362.883188
593.218479,919.314598,-962.267725,9474.636058
593.218793,2528.115143,296.082377,8438.347739
593.219109,4136.915689,1036.288319,7772.162391
593.219425,5286.058936,2146.597232,7179.997637
593.219740,5822.325785,2960.823768,6291.750507
593.220056,5898.935335,3330.926739,6143.709319
593.220372,5822.325785,3256.906145,6439.791695
593.220687,4826.401637,2368.659014,6661.853478
593.221003,3524.039291,1332.370696,7920.203579
593.221319,1838.629195,296.082377,8882.471304
593.221635,76.609550,-888.247130,10066.800811
593.221950,-1685.410096,-1702.473667,10807.006753
593.222266,-2987.772442,-2294.638420,11399.171507
593.222582,-4136.915689,-2664.741391,11843.295072
593.222897,-4519.963438,-2664.741391,12139.377449
593.223213,-4673.182538,-2516.700203,11843.295072
593.223529,-4673.182538,-2516.700203,11695.253884
593.223844,-4519.963438,-2664.741391,10881.027347
593.224160,-2911.162892,-2146.597232,11029.068536
593.224476,-1532.190996,-1776.494261,10658.965565
593.224792,153.219100,-666.185348,9622.677246
593.225107,1685.410096,-0.000000,9104.533087
593.225423,3140.991542,1184.329507,8512.368333
593.225739,4519.963438,2146.597232,7328.038826
593.226054,5592.497135,2664.741391,6735.874072
593.226370,6205.373534,3256.906145,6365.771101
593.226686,5975.544884,3997.112087,5847.626942
593.227002,5669.106685,3404.947333,6291.750507
593.227317,4213.525239,2220.617826,7254.018232
593.227633,2604.724693,1184.329507,8512.368333
593.227949,842.705048,-74.020594,9548.656652
593.228264,-1072.533697,-1628.453072,10732.986159
593.228580,-2834.553343,-2442.679609,11843.295072
593.228896,-4136.915689,-2960.823768,12435.459826
593.229211,-4596.572988,-3108.864956,12583.501014
593.229527,-4673.182538,-2664.741391,12509.480420
593.229843,-4673.182538,-2368.659014,11991.336260
593.230159,-4366.744339,-2368.659014,11251.130318
593.230474,-3064.381992,-2220.617826,10881.027347
593.230790,-1378.971896,-1554.432478,10584.944971
593.231106,0.000000,-962.267725,9696.697840
593.231421,1302.362347,-444.123565,9326.594869
593.231737,2987.772442,-0.000000,8364.327145
593.232053,4443.353888,1258.350101,7698.141797
593.232369,5362.668486,2146.597232,7031.956449
593.232684,6358.592633,3034.844362,6587.832884
593.233000,5975.544884,3404.947333,6143.709319
593.233316,5362.668486,3404.947333,6143.709319
593.233631,4519.963438,2664.741391,7105.977043
593.233947,3064.381992,1628.453072,8290.306550
593.234263,1149.143247,-0.000000,9326.594869
593.234578,-536.266849,-1110.308913,10288.862594
593.234894,-2221.676944,-1702.473667,11399.171507
593.235210,-3753.867940,-2368.659014,11917.315666
593.235526,-4290.134789,-2664.741391,11991.336260
593.235841,-4749.792088,-2516.700203,12213.398043
593.236157,-4903.011187,-2368.659014,11843.295072
593.236473,-4136.915689,-2146.597232,11473.192101
593.236788,-3524.039291,-2294.638420,11251.130318
593.237104,-2451.505594,-2146.597232,10955.047942
593.237420,-1072.533697,-1480.411884,10658.965565
593.237735,459.657299,-740.205942,9770.718434
593.238051,1991.848295,222.061783,8808.450710
593.238367,3600.648841,888.247130,7994.224174
593.238683,4749.792088,2368.659014,7105.977043
593.238998,5669.106685,3034.844362,6365.771101
593.239314,6358.592633,3478.967927,6365.771101
593.239630,5669.106685,3552.988522,5921.647536
593.239945,4903.011187,2590.720797,6365.771101
593.240261,3677.258390,1332.370696,7550.100608
593.240577,1991.848295,-148.041188,8660.409521
593.240893,0.000000,-1036.288319,9844.739029
593.241208,-1685.410096,-2072.576638,10955.047942
593.241524,-3447.429741,-2812.782580,11547.212695
593.241840,-3370.820191,-2812.782580,12509.480420
593.242155,-4366.744339,-2738.761985,12657.521608
593.242471,-4443.353888,-2738.761985,12065.356855
593.242787,-4596.572988,-2442.679609,11843.295072
593.243102,-4213.525239,-2294.638420,11251.130318
593.243418,-2681.334243,-1998.556043,10807.006753
593.243734,-1302.362347,-1628.453072,10288.862594
593.244050,0.000000,-962.267725,9474.636058
593.244365,1608.800546,-296.082377,8808.450710
593.244681,2987.772442,888.247130,8068.244768
593.244997,4826.401637,1850.514855,7550.100608
593.245312,5822.325785,2812.782580,7031.956449
593.245628,6358.592633,3404.947333,6365.771101
593.245944,5975.544884,3478.967927,6069.688724
593.246260,5132.839837,3182.885551,6439.791695
593.246575,4673.182538,2220.617826,7179.997637
593.246891,2604.724693,814.226536,8734.430116
593.247207,689.485948,-0.000000,9548.656652
593.247522,-995.924147,-1110.308913,10436.903782
593.247838,-2757.943793,-1776.494261,11103.089130
593.248154,-3524.039291,-2590.720797,11917.315666
593.248469,-4519.963438,-2886.803174,12139.377449
593.248785,-4596.572988,-2442.679609,12065.356855
593.249101,-4826.401637,-2294.638420,11621.233289
593.249417,-4366.744339,-2368.659014,11547.212695
593.249732,-3370.820191,-2072.576638,11399.171507
593.250048,-2374.896044,-1850.514855,10807.006753
593.250364,-612.876398,-1332.370696,10362.883188
593.250679,1072.533697,-296.082377,9696.697840
593.250995,2298.286494,740.205942,8512.368333
593.251311,3983.696590,1850.514855,7920.203579
593.251626,5362.668486,2812.782580,7105.977043
593.251942,6128.763984,3552.988522,6439.791695
593.252258,6894.859482,3923.091493,5773.606348
593.252574,5745.716235,3997.112087,5773.606348
593.252889,4749.792088,2812.782580,6735.874072
593.253205,3677.258390,1036.288319,8142.265362
593.253521,1532.190996,-0.000000,9178.553681
593.253836,-383.047749,-1110.308913,10732.986159
593.254152,-1991.848295,-2368.659014,11547.212695
593.254468,-3677.258390,-2886.803174,12287.418637
593.254784,-4519.963438,-2886.803174,12583.501014
593.255099,-4903.011187,-2590.720797,12361.439231
593.255415,-4979.620737,-1998.556043,12805.562797
593.255731,-4290.134789,-2146.597232,11991.336260
593.256046,-3830.477490,-2220.617826,11029.068536
593.256362,-2374.896044,-1776.494261,10732.986159
593.256678,-919.314598,-1184.329507,10288.862594
593.256993,995.924147,-888.247130,9622.677246
593.257309,2528.115143,-74.020594,8364.327145
593.257625,3907.087040,1258.350101,7772.162391
593.257941,4979.620737,2516.700203,7105.977043
593.258256,6281.983084,2960.823768,6291.750507
593.258572,6665.030833,3849.070898,6439.791695
593.258888,5669.106685,3701.029710,5995.668130
593.259203,5209.449386,3108.864956,6439.791695
593.259519,4136.915689,1850.514855,7772.162391
593.259835,1838.629195,592.164754,8734.430116
593.260151,0.000000,-518.144159,10140.821405
593.260466,-1685.410096,-1184.329507,10881.027347
593.260782,-3217.601092,-2146.597232,11473.192101
593.261098,-4213.525239,-2664.741391,12213.398043
593.261413,-4443.353888,-2738.761985,12139.377449
593.261729,-4673.182538,-2442.679609,12065.356855
593.262045,-4903.011187,-2294.638420,11547.212695
593.262360,-3907.087040,-2738.761985,11399.171507
593.262676,-2834.553343,-2294.638420,10955.047942
593.262992,-1991.848295,-2220.617826,10436.903782
593.263308,0.000000,-1110.308913,10066.800811
593.263623,1455.581446,-296.082377,9104.533087
593.263939,2757.943793,1184.329507,7994.224174
593.264255,4290.134789,1850.514855,7476.080014
593.264570,5286.058936,2516.700203,6957.935855
593.264886,6052.154434,3627.009116,5921.647536
593.265202,6435.202183,3849.070898,5773.606348
593.265518,5362.668486,3404.947333,6069.688724
593.265833,4749.792088,2072.576638,6957.935855
593.266149,2757.943793,814.226536,8586.388927
593.266465,842.705048,-592.164754,9696.697840
593.266780,-1072.533697,-2072.576638,11251.130318
593.267096,-2757.943793,-2812.782580,11769.274478
593.267412,-4213.525239,-3182.885551,12287.418637
593.267727,-4443.353888,-3182.885551,13027.624579
593.268043,-4903.011187,-2590.720797,12435.459826
593.268359,-4826.401637,-2368.659014,11991.336260
593.268675,-4366.744339,-1924.535449,11695.253884
593.268990,-2911.162892,-2072.576638,10732.986159
593.269306,-1838.629195,-1776.494261,10510.924376
593.269622,-383.047749,-1110.308913,9918.759623
593.269937,1378.971896,-962.267725,9178.553681
593.270253,2834.553343,-0.000000,8512.368333
593.270569,3983.696590,1332.370696,7920.203579
593.270884,4826.401637,1776.494261,7105.977043
593.271200,6128.763984,3034.844362,7031.956449
593.271516,6358.592633,3552.988522,6069.688724
593.271832,5822.325785,3701.029710,6143.709319
593.272147,4903.011187,2442.679609,7179.997637
593.272463,3447.429741,1554.432478,8216.285956
593.272779,1378.971896,296.082377,9104.533087
593.273094,-306.438199,-666.185348,10288.862594
593.273410,-2145.067394,-1702.473667,11103.089130
593.273726,-3370.820191,-2220.617826,11843.295072
593.274042,-4290.134789,-2442.679609,12435.459826
593.274357,-4443.353888,-2516.700203,11917.315666
593.274673,-4749.792088,-2368.659014,11843.295072
593.274989,-4366.744339,-2442.679609,11547.212695
593.275304,-3753.867940,-2812.782580,11399.171507
593.275620,-2528.115143,-2146.597232,10881.027347
593.275936,-1685.410096,-1702.473667,10436.903782
593.276251,229.828649,-518.144159,9548.656652
593.276567,1838.629195,-0.000000,9030.512492
593.276883,3447.429741,1110.308913,8142.265362
593.277199,4443.353888,2368.659014,7179.997637
593.277514,5669.106685,2738.761985,6439.791695
593.277830,6052.154434,3552.988522,6217.729913
593.278146,6205.373534,3775.050304,5995.668130
593.278461,4979.620737,2738.761985,6143.709319
593.278777,3983.696590,1850.514855,7328.038826
593.279093,2451.505594,666.185348,8808.450710
593.279409,459.657299,-888.247130,10066.800811
593.279724,-1532.190996,-2368.659014,10881.027347
593.280040,-2834.553343,-2812.782580,11917.315666
593.280356,-4366.744339,-3108.864956,12805.562797
593.280671,-4826.401637,-3108.864956,12805.562797
593.280987,-4903.011187,-2516.700203,12287.418637
593.281303,-4290.134789,-2294.638420,11843.295072
593.281618,-3753.867940,-2220.617826,11325.150913
593.281934,-2757.943793,-1702.473667,10807.006753
593.282250,-995.924147,-1480.411884,10288.862594
593.282566,76.609550,-1110.308913,9844.739029
593.282881,1838.629195,-370.102971,8586.388927
593.283197,3217.601092,518.144159,7994.224174
593.283513,4519.963438,1554.432478,7550.100608
593.283828,5209.449386,2368.659014,7105.977043
593.284144,6052.154434,3108.864956,6439.791695
593.284460,6128.763984,3182.885551,6661.853478
593.284775,5362.668486,3108.864956,6661.853478
593.285091,4290.134789,2146.597232,7179.997637
593.285407,2451.505594,814.226536,8290.306550
593.285723,766.095498,-148.041188,9548.656652
593.286038,-919.314598,-1332.370696,10510.924376
593.286354,-2604.724693,-1924.535449,11325.150913
593.286670,-3983.696590,-2590.720797,11843.295072
593.286985,-4596.572988,-2664.741391,12065.356855
593.287301,-4903.011187,-2664.741391,11991.336260
593.287617,-4673.182538,-2516.700203,11843.295072
593.287933,-4290.134789,-2516.700203,11621.233289
593.288248,-3140.991542,-2368.659014,11103.089130
593.288564,-2298.286494,-2220.617826,10658.965565
593.288880,-689.485948,-962.267725,10214.842000
593.289195,689.485948,-296.082377,9326.594869
593.289511,2528.115143,444.123565,8438.347739
593.289827,3830.477490,1332.370696,7698.141797
593.290142,5056.230287,2368.659014,7105.977043
593.290458,5822.325785,2960.823768,6291.750507
593.290774,6128.763984,3478.967927,5921.647536
593.291090,5132.839837,3182.885551,6291.750507
593.291405,4673.182538,2294.638420,6957.935855
593.291721,3217.601092,1036.288319,8068.244768
593.292037,1838.629195,-370.102971,9104.533087
593.292352,-306.438199,-1332.370696,10362.883188
593.292668,-1915.238745,-2368.659014,11325.150913
593.292984,-3753.867940,-2960.823768,12065.356855
593.293300,-4136.915689,-2886.803174,12879.583391
593.293615,-4596.572988,-2664.741391,12287.418637
593.293931,-4443.353888,-2368.659014,11991.336260
593.294247,-3907.087040,-1850.514855,11695.253884
593.294562,-3064.381992,-1850.514855,10510.924376
593.294878,-1991.848295,-1480.411884,10584.944971
593.295194,-383.047749,-962.267725,9918.759623
593.295509,1378.971896,-666.185348,9252.574275
593.295825,2528.115143,148.041188,8660.409521
593.296141,3907.087040,1258.350101,8068.244768
593.296457,4903.011187,1702.473667,7328.038826
593.296772,5592.497135,2368.659014,7105.977043
593.297088,5898.935335,3182.885551,6439.791695
593.297404,5592.497135,3404.947333,6735.874072
593.297719,4673.182538,2886.803174,7179.997637
593.298035,3064.381992,1924.535449,8142.265362
593.298351,1685.410096,740.205942,9104.533087
593.298667,0.000000,-370.102971,9992.780217
593.298982,-1762.019645,-1406.391290,10881.027347
593.299298,-3064.381992,-2220.617826,11843.295072
593.299614,-4366.744339,-2664.741391,11843.295072
593.299929,-4903.011187,-2664.741391,12213.398043
593.300245,-4519.963438,-2072.576638,12139.377449
593.300561,-4136.915689,-2072.576638,11473.192101
593.300876,-3370.820191,-1702.473667,11177.109724
593.301192,-2681.334243,-1554.432478,10436.903782
593.301508,-1225.752797,-1258.350101,10140.821405
593.301824,0.000000,-444.123565,9696.697840
593.302139,1685.410096,-0.000000,9104.533087
593.302455,2987.772442,740.205942,8438.347739
593.302771,3830.477490,1924.535449,7624.121203
593.303086,5132.839837,2442.679609,7328.038826
593.303402,5592.497135,3182.885551,6735.874072
593.303718,5132.839837,3627.009116,6365.771101
593.304033,4290.134789,2886.803174,6735.874072
593.304349,3447.429741,2072.576638,7624.121203
593.304665,2298.286494,666.185348,8586.388927
593.304981,536.266849,-666.185348,9696.697840
593.305296,-1225.752797,-1406.391290,10807.006753
593.305612,-2604.724693,-2294.638420,11769.274478
593.305928,-3600.648841,-2516.700203,12139.377449
593.306243,-4060.306139,-2368.659014,12435.459826
593.306559,-4366.744339,-2146.597232,11917.315666
593.306875,-4213.525239,-1850.514855,11695.253884
593.307191,-3524.039291,-1998.556043,11177.109724
593.307506,-2451.505594,-1776.494261,10510.924376
593.307822,-1378.971896,-1332.370696,10066.800811
593.308138,76.609550,-1036.288319,9622.677246
593.308453,1455.581446,-592.164754,9252.574275
593.308769,2451.505594,-370.102971,8364.327145
593.309085,3753.867940,962.267725,7698.141797
593.309400,4596.572988,1924.535449,7254.018232
593.309716,5209.449386,2368.659014,7031.956449
593.310032,5209.449386,2590.720797,7031.956449
593.310348,4673.182538,2516.700203,6735.874072
593.310663,3753.867940,2220.617826,7254.018232
593.310979,2451.505594,1110.308913,8216.285956
593.311295,1225.752797,-0.000000,9400.615463
593.311610,0.000000,-814.226536,10066.800811
593.311926,-1608.800546,-1702.473667,10658.965565
593.312242,-2757.943793,-2146.597232,11251.130318
593.312558,-3600.648841,-2516.700203,11695.253884
593.312873,-4136.915689,-2590.720797,11547.212695
593.313189,-3753.867940,-2590.720797,11251.130318
593.313505,-3753.867940,-2294.638420,11103.089130
593.313820,-3140.991542,-1924.535449,10732.986159
593.314136,-2298.286494,-1998.556043,10436.903782
593.314452,-995.924147,-1332.370696,10140.821405
593.314767,-229.828649,-962.267725,9844.739029
593.315083,1608.800546,-148.041188,9252.574275
593.315399,2911.162892,814.226536,8364.327145
593.315715,3983.696590,1924.535449,7624.121203
593.316030,4903.011187,2368.659014,6957.935855
593.316346,5515.887586,2960.823768,6809.894666
593.316662,5056.230287,3256.906145,6291.750507
593.316977,4749.792088,2442.679609,6661.853478
593.317293,3753.867940,1702.473667,7476.080014
593.317609,2145.067394,518.144159,8882.471304
593.317924,689.485948,-1036.288319,9770.718434
593.318240,-1072.533697,-1924.535449,10807.006753
593.318556,-2681.334243,-2294.638420,11769.274478
593.318872,-3524.039291,-2442.679609,12213.398043
593.319187,-3907.087040,-2590.720797,12139.377449
593.319503,-4136.915689,-2146.597232,11843.295072
593.319819,-4060.306139,-1776.494261,11695.253884
593.320134,-3524.039291,-1776.494261,11325.150913
593.320450,-2451.505594,-1554.432478,10658.965565
593.320766,-1072.533697,-1110.308913,10214.842000
593.321081,0.000000,-962.267725,10140.821405
593.321397,1378.971896,-296.082377,9326.594869
593.321713,2757.943793,518.144159,8438.347739
593.322028,4290.134789,1480.411884,7920.203579
593.322344,5209.449386,2146.597232,7624.121203
593.322660,5362.668486,2886.803174,6957.935855
593.322975,5362.668486,3108.864956,6735.874072
593.323291,4903.011187,2886.803174,6809.894666
593.323607,4060.306139,2442.679609,7402.059420
593.323922,2834.553343,1406.391290,8290.306550
593.324238,1532.190996,518.144159,9178.553681
593.324554,-536.266849,-814.226536,9918.759623
593.324869,-1838.629195,-1628.453072,10732.986159
593.325185,-2757.943793,-2146.597232,11473.192101
593.325501,-3907.087040,-2442.679609,11843.295072
593.325816,-4213.525239,-2294.638420,11769.274478
593.326132,-4213.525239,-2220.617826,11621.233289
593.326448,-4060.306139,-1998.556043,11473.192101
593.326763,-3600.648841,-2072.576638,11325.150913
593.327079,-2298.286494,-1702.473667,10807.006753
593.327395,-766.095498,-1554.432478,10214.842000
593.327710,383.047749,-888.247130,9844.739029
593.328026,1915.238745,222.061783,9326.594869
593.328342,2987.772442,1258.350101,8290.306550
593.328657,4443.353888,2368.659014,7402.059420
593.328973,5209.449386,3256.906145,6735.874072
593.329289,5745.716235,3701.029710,6291.750507
593.329604,5669.106685,3701.029710,6291.750507
593.329920,4749.792088,2738.761985,6735.874072
593.330236,3677.258390,1406.391290,7476.080014
593.330551,2298.286494,296.082377,8808.450710
593.330867,459.657299,-1036.288319,9918.759623
593.331183,-1455.581446,-1850.514855,10955.047942
593.331498,-2757.943793,-2368.659014,11695.253884
593.331814,-3983.696590,-2516.700203,12435.459826
593.332130,-4060.306139,-2368.659014,11991.336260
593.332445,-4673.182538,-2442.679609,11695.253884
593.332761,-4443.353888,-2220.617826,11843.295072
593.333077,-3600.648841,-2072.576638,11325.150913
593.333392,-2528.115143,-2072.576638,10807.006753
593.333708,-1532.190996,-1924.535449,10658.965565
593.334024,-153.219100,-1480.411884,9992.780217
593.334339,1225.752797,-888.247130,9030.512492
593.334655,2528.115143,222.061783,8216.285956
593.334971,4213.525239,1406.391290,7624.121203
593.335286,5056.230287,2368.659014,7328.038826
593.335602,5592.497135,2664.741391,6439.791695
593.335918,5439.278036,3256.906145,6439.791695
593.336233,4826.401637,2886.803174,6661.853478
593.336549,4136.915689,2146.597232,7328.038826
593.336865,2834.553343,1036.288319,8364.327145
593.337180,1149.143247,-0.000000,9104.533087
593.337496,-689.485948,-1184.329507,10140.821405
593.337812,-1915.238745,-1850.514855,10732.986159
593.338127,-3370.820191,-2294.638420,11473.192101
593.338443,-4136.915689,-2516.700203,11769.274478
593.338759,-4290.134789,-2590.720797,12287.418637
593.339074,-4519.963438,-2590.720797,11843.295072
593.339390,-4213.525239,-2664.741391,11547.212695
593.339706,-3370.820191,-2368.659014,11399.171507
593.340021,-2451.505594,-2368.659014,11029.068536
593.340337,-766.095498,-1776.494261,10510.924376
593.340653,306.438199,-1184.329507,9992.780217
593.340968,1762.019645,-0.000000,9030.512492
593.341284,3064.381992,1702.473667,8142.265362
593.341600,4903.011187,2220.617826,7179.997637
593.341915,5669.106685,2886.803174,6883.915261
593.342231,5669.106685,3478.967927,6069.688724
593.342547,5515.887586,3330.926739,5921.647536
593.342862,4903.011187,2368.659014,6587.832884
593.343178,3830.477490,1332.370696,7698.141797
593.343494,2145.067394,222.061783,9178.553681
593.343809,383.047749,-962.267725,9992.780217
593.344125,-1838.629195,-2072.576638,11177.109724
593.344441,-3294.210641,-2516.700203,11843.295072
593.344756,-3983.696590,-2590.720797,12213.398043
593.345072,-4673.182538,-2368.659014,12435.459826
593.345388,-4826.401637,-2146.597232,12065.356855
593.345703,-4519.963438,-2220.617826,11695.253884
593.346019,-3830.477490,-2072.576638,10955.047942
593.346335,-2681.334243,-1776.494261,11029.068536
593.346650,-1149.143247,-1850.514855,10436.903782
593.346966,153.219100,-1184.329507,10066.800811
593.347282,1532.190996,-296.082377,8808.450710
593.347597,3217.601092,814.226536,8068.244768
593.347913,5209.449386,1850.514855,7772.162391
593.348229,5669.106685,2664.741391,6957.935855
593.348544,5822.325785,3330.926739,6513.812290
593.348860,5745.716235,3552.988522,6217.729913
593.349176,5056.230287,3256.906145,6513.812290
593.349491,4366.744339,2146.597232,7550.100608
593.349807,2604.724693,888.247130,8586.388927
593.350123,689.485948,-0.000000,9326.594869
593.350438,-1072.533697,-1036.288319,10288.862594
593.350754,-2451.505594,-1850.514855,11251.130318
593.351070,-3677.258390,-2368.659014,11769.274478
593.351385,-4443.353888,-2294.638420,11917.315666
593.351701,-4749.792088,-2294.638420,11843.295072
593.352017,-4826.401637,-2590.720797,11843.295072
593.352332,-4443.353888,-2590.720797,11695.253884
593.352648,-3294.210641,-2516.700203,11547.212695
593.352964,-2528.115143,-2146.597232,11473.192101
593.353279,-1072.533697,-1258.350101,10732.986159
593.353595,689.485948,-518.144159,9844.739029
593.353911,2068.457845,962.267725,9030.512492
593.354226,3217.601092,2146.597232,7772.162391
593.354542,5056.230287,2738.761985,6957.935855
593.354858,6052.154434,3256.906145,6217.729913
593.355173,5975.544884,3775.050304,5699.585753
593.355489,5592.497135,3182.885551,6217.729913
593.355805,5132.839837,2368.659014,6735.874072
593.356120,3600.648841,1110.308913,7994.224174
593.356436,1685.410096,-0.000000,9178.553681
593.356752,0.000000,-1332.370696,10140.821405
593.357067,-2221.676944,-2368.659014,11769.274478
593.357383,-3447.429741,-2516.700203,12065.356855
593.357699,-4213.525239,-2812.782580,12213.398043
593.358014,-4673.182538,-2516.700203,12509.480420
593.358330,-4903.011187,-2442.679609,11991.336260
593.358646,-4596.572988,-2664.741391,11843.295072
593.358961,-3524.039291,-2368.659014,11177.109724
593.359277,-2528.115143,-2294.638420,10955.047942
593.359593,-995.924147,-1776.494261,10436.903782
593.359908,842.705048,-1258.350101,9548.656652
593.360224,2298.286494,-296.082377,8882.471304
593.360540,3830.477490,888.247130,7846.182985
593.360855,5209.449386,1924.535449,7179.997637
593.361171,6358.592633,2886.803174,6439.791695
593.361487,6128.763984,3478.967927,5921.647536
593.361802,6358.592633,3330.926739,5773.606348
593.362118,5592.497135,2812.782580,6365.771101
593.362434,4060.306139,2146.597232,7179.997637
593.362749,2604.724693,518.144159,8808.450710
593.363065,306.438199,-888.247130,9622.677246
593.363381,-1455.581446,-1702.473667,10510.924376
593.363696,-3370.820191,-2368.659014,11547.212695
593.364012,-4443.353888,-2664.741391,11991.336260
593.364328,-4903.011187,-2812.782580,12435.459826
593.364643,-4903.011187,-2664.741391,12065.356855
593.364959,-4903.011187,-2886.803174,11843.295072
593.365275,-4673.182538,-2812.782580,11769.274478
593.365590,-2911.162892,-2516.700203,11473.192101
593.365906,-1608.800546,-2442.679609,11029.068536
593.366222,-995.924147,-1332.370696,10140.821405
593.366537,919.314598,-0.000000,9326.594869
593.366853,2604.724693,1258.350101,8142.265362
593.367169,4136.915689,2368.659014,7624.121203
593.367484,5209.449386,3108.864956,6735.874072
593.367800,6205.373534,3775.050304,5847.626942
593.368116,6281.983084,3701.029710,5847.626942
593.368431,5515.887586,3478.967927,6069.688724
593.368747,4596.572988,2146.597232,7179.997637
593.369063,3064.381992,1110.308913,8586.388927
593.369378,766.095498,-666.185348,9622.677246
593.369694,-842.705048,-1480.411884,11029.068536
593.370010,-2604.724693,-2442.679609,11843.295072
593.370325,-4136.915689,-2664.741391,12361.439231
593.370641,-4749.792088,-2886.803174,12435.459826
593.370957,-4979.620737,-2590.720797,12139.377449
593.371272,-5056.230287,-2368.659014,11843.295072
593.371588,-4749.792088,-2368.659014,11473.192101
593.371904,-3600.648841,-2368.659014,10732.986159
593.372219,-1915.238745,-2442.679609,10955.047942
593.372535,-306.438199,-1924.535449,9992.780217
593.372851,842.705048,-740.205942,9400.615463
593.373166,2604.724693,-0.000000,8512.368333
593.373482,4290.134789,1110.308913,7624.121203
593.373798,5439.278036,2590.720797,7105.977043
593.374113,6128.763984,3478.967927,6069.688724
593.374429,6281.983084,4071.132681,5699.585753
593.374745,6128.763984,3701.029710,5995.668130
593.375060,5056.230287,2812.782580,6661.853478
593.375376,3677.258390,1406.391290,7846.182985
593.375692,1838.629195,296.082377,8734.430116
593.376007,0.000000,-740.205942,9992.780217
593.376323,-2221.676944,-1702.473667,10881.027347
593.376639,-3294.210641,-2516.700203,11695.253884
593.376954,-4366.744339,-2664.741391,12065.356855
593.377270,-4749.792088,-2368.659014,12287.418637
593.377586,-4979.620737,-2368.659014,12065.356855
593.377901,-4903.011187,-2516.700203,11843.295072
593.378217,-4213.525239,-2590.720797,11621.233289
593.378533,-3064.381992,-2442.679609,11547.212695
593.378848,-1532.190996,-1850.514855,11103.089130
593.379164,0.000000,-888.247130,10140.821405
593.379480,1608.800546,296.082377,9178.553681
593.379795,3217.601092,1258.350101,8068.244768
593.380111,4903.011187,2738.761985,7179.997637
593.380427,6128.763984,3552.988522,6439.791695
593.380742,6818.249932,4145.153275,5995.668130
593.381058,6511.811733,4071.132681,5551.544565
593.381374,6128.763984,2886.803174,5995.668130
593.381689,4443.353888,1998.556043,7476.080014
593.382005,2681.334243,222.061783,8808.450710
593.382321,766.095498,-962.267725,9844.739029
593.382636,-1378.971896,-2146.597232,11029.068536
593.382952,-3064.381992,-2442.679609,12139.377449
593.383268,-4366.744339,-2812.782580,12805.562797
593.383583,-5056.230287,-3108.864956,12657.521608
593.383899,-5056.230287,-2590.720797,12361.439231
593.384215,-5056.230287,-2516.700203,11991.336260
593.384530,-4213.525239,-2220.617826,11473.192101
593.384846,-3064.381992,-2442.679609,10955.047942
593.385162,-1455.581446,-2146.597232,10584.944971
593.385477,-306.438199,-1554.432478,10140.821405
593.385793,2068.457845,-740.205942,9252.574275
593.386109,3140.991542,444.123565,8364.327145
593.386424,4673.182538,1628.453072,7550.100608
593.386740,5745.716235,2886.803174,6587.832884
593.387056,6665.030833,3404.947333,6291.750507
593.387371,6435.202183,4071.132681,5995.668130
593.387687,5669.106685,3923.091493,5921.647536
593.388003,4903.011187,2664.741391,6661.853478
593.388318,3447.429741,1406.391290,8142.265362
593.388634,1378.971896,-0.000000,9326.594869
593.388950,-766.095498,-1036.288319,9918.759623
593.389265,-2451.505594,-1924.535449,11177.109724
593.389581,-3983.696590,-2664.741391,11917.315666
593.389897,-4749.792088,-2812.782580,12361.439231
593.390212,-4519.963438,-3108.864956,12213.398043
593.390528,-5132.839837,-2738.761985,11843.295072
593.390844,-4749.792088,-2368.659014,11843.295072
593.391159,-3677.258390,-2442.679609,11325.150913
593.391475,-2528.115143,-2294.638420,11029.068536
593.391791,-612.876398,-1702.473667,10881.027347
593.392106,306.438199,-814.226536,9548.656652
593.392422,2145.067394,222.061783,8586.388927
593.392738,3370.820191,1480.411884,7846.182985
593.393053,5132.839837,2738.761985,6809.894666
593.393369,6281.983084,3478.967927,6217.729913
593.393685,6358.592633,4071.132681,5995.668130
593.394000,6052.154434,3849.070898,5773.606348
593.394316,5362.668486,2886.803174,6291.750507
593.394632,4366.744339,1628.453072,7476.080014
593.394947,2451.505594,222.061783,9178.553681
593.395263,459.657299,-1184.329507,10288.862594
593.395579,-1838.629195,-2146.597232,11029.068536
593.395894,-3524.039291,-2664.741391,12065.356855
593.396210,-4673.182538,-3108.864956,12509.480420
593.396526,-5056.230287,-2960.823768,12731.542202
593.396841,-5286.058936,-2368.659014,12361.439231
593.397157,-4903.011187,-2368.659014,11917.315666
593.397473,-4060.306139,-2368.659014,11473.192101
593.397788,-2757.943793,-2220.617826,11103.089130
593.398104,-1302.362347,-1850.514855,10807.006753
593.398420,229.828649,-1406.391290,9696.697840
593.398735,2068.457845,-518.144159,8956.491898
593.399051,3600.648841,592.164754,8364.327145
593.399367,4903.011187,2368.659014,7402.059420
593.399682,6205.373534,3256.906145,6513.812290
593.399998,6511.811733,4219.173869,5921.647536
593.400314,6358.592633,3923.091493,5699.585753
593.400629,5898.935335,3627.009116,6365.771101
593.400945,4443.353888,2072.576638,7328.038826
593.401261,2604.724693,740.205942,8512.368333
593.401576,766.095498,-370.102971,9918.759623
593.401892,-1302.362347,-1702.473667,10955.047942
593.402208,-2834.553343,-2146.597232,11621.233289
593.402523,-4213.525239,-2664.741391,12139.377449
593.402839,-4749.792088,-2812.782580,12435.459826
593.403155,-5132.839837,-2664.741391,12213.398043
593.403470,-4903.011187,-2738.761985,12065.356855
593.403786,-4596.572988,-2368.659014,11917.315666
593.404102,-3600.648841,-2072.576638,11399.171507
593.404417,-2451.505594,-2072.576638,11029.068536
593.404733,-766.095498,-1332.370696,10510.924376
593.405049,612.876398,-666.185348,9548.656652
593.405364,2374.896044,888.247130,8512.368333
593.405680,4136.915689,1998.556043,7550.100608
593.405996,5669.106685,3034.844362,6809.894666
593.406311,6205.373534,3775.050304,5847.626942
593.406627,6435.202183,3627.009116,5255.462188
593.406943,6205.373534,3627.009116,5625.565159
593.407258,4903.011187,2368.659014,6587.832884
593.407574,3294.210641,1036.288319,7920.203579
593.407890,1149.143247,-592.164754,9326.594869
593.408205,-536.266849,-1702.473667,10732.986159
593.408521,-2757.943793,-2368.659014,11695.253884
593.408837,-4290.134789,-2886.803174,12583.501014
593.409152,-4903.011187,-3108.864956,12731.542202
593.409468,-4979.620737,-2886.803174,12583.501014
593.409784,-5056.230287,-2812.782580,12287.418637
593.410099,-4673.182538,-2368.659014,11473.192101
593.410415,-3447.429741,-2368.659014,11177.109724
593.410731,-2374.896044,-2146.597232,10807.006753
593.411046,-842.705048,-2146.597232,10658.965565
593.411362,995.924147,-1184.329507,9178.553681
593.411678,2451.505594,-0.000000,8290.306550
593.411993,3983.696590,1332.370696,7772.162391
593.412309,5515.887586,2516.700203,7105.977043
593.412625,6511.811733,2886.803174,6439.791695
593.412940,6435.202183,3997.112087,6217.729913
593.413256,6281.983084,3627.009116,5847.626942
593.413572,4979.620737,2812.782580,6513.812290
593.413887,3830.477490,1850.514855,7698.141797
593.414203,1762.019645,518.144159,9252.574275
593.414519,76.609550,-518.144159,9992.780217
593.414834,-1838.629195,-1480.411884,10732.986159
593.415150,-3447.429741,-2368.659014,11843.295072
593.415466,-4519.963438,-2960.823768,12361.439231
593.415781,-4596.572988,-2960.823768,12287.418637
593.416097,-4596.572988,-2442.679609,11843.295072
593.416413,-4519.963438,-2590.720797,11843.295072
593.416728,-3907.087040,-2442.679609,11695.253884
593.417044,-3370.820191,-2516.700203,11103.089130
593.417360,-1532.190996,-1628.453072,10881.027347
593.417675,-153.219100,-666.185348,10066.800811
593.417991,1608.800546,-0.000000,9030.512492
593.418307,2987.772442,1258.350101,8364.327145
593.418622,4596.572988,2368.659014,7476.080014
593.418938,5669.106685,2738.761985,6217.729913
593.419254,6358.592633,3627.009116,5773.606348
593.419569,6281.983084,3775.050304,5921.647536
593.419885,5439.278036,3404.947333,6291.750507
593.420201,4290.134789,1924.535449,7254.018232
593.420516,2757.943793,592.164754,8512.368333
593.420832,689.485948,-666.185348,9844.739029
593.421148,-1072.533697,-1850.514855,11103.089130
593.421463,-2604.724693,-2664.741391,11695.253884
593.421779,-4060.306139,-3034.844362,12435.459826
593.422095,-4366.744339,-2812.782580,12657.521608
593.422410,-4519.963438,-2516.700203,12287.418637
593.422726,-4903.011187,-2294.638420,11695.253884
593.423042,-4366.744339,-2368.659014,11695.253884
593.423357,-2834.553343,-2442.679609,11103.089130
593.423673,-1608.800546,-1924.535449,10658.965565
593.423989,-229.828649,-1332.370696,10214.842000
593.424305,1455.581446,-444.123565,9326.594869
593.424620,3294.210641,518.144159,7920.203579
593.424936,4519.963438,1702.473667,7920.203579
593.425252,5669.106685,2368.659014,7031.956449
593.425567,6281.983084,3256.906145,6217.729913
593.425883,6281.983084,3849.070898,5921.647536
593.426199,5669.106685,3404.947333,6291.750507
593.426514,4673.182538,2516.700203,7105.977043
593.426830,3064.381992,1332.370696,7920.203579
593.427146,1302.362347,-0.000000,9178.553681
593.427461,0.000000,-740.205942,10140.821405
593.427777,-2068.457845,-1850.514855,10955.047942
593.428093,-3524.039291,-2368.659014,11621.233289
593.428408,-4290.134789,-2738.761985,12213.398043
593.428724,-4903.011187,-2738.761985,12287.418637
593.429040,-4673.182538,-2442.679609,11991.336260
593.429355,-4519.963438,-2442.679609,11621.233289
593.429671,-3600.648841,-2368.659014,11251.130318
593.429987,-2451.505594,-2294.638420,11029.068536
593.430302,-1302.362347,-1554.432478,10732.986159
593.430618,229.828649,-1258.350101,9918.759623
593.430934,1838.629195,222.061783,8808.450710
593.431249,3600.648841,1628.453072,8068.244768
593.431565,4979.620737,2442.679609,7105.977043
593.431881,5592.497135,3404.947333,6069.688724
593.432197,6128.763984,3552.988522,5921.647536
593.432512,5898.935335,3256.906145,5773.606348
593.432828,5056.230287,2738.761985,6661.853478
593.433144,3753.867940,1332.370696,7550.100608
593.433459,1991.848295,-148.041188,8808.450710
593.433775,76.609550,-1406.391290,10214.842000
593.434091,-1685.410096,-2146.597232,10881.027347
593.434406,-3447.429741,-2516.700203,12139.377449
593.434722,-4136.915689,-2738.761985,12583.501014
593.435038,-4443.353888,-2664.741391,12509.480420
593.435353,-4596.572988,-2812.782580,11991.336260
593.435669,-4519.963438,-2368.659014,11695.253884
593.435985,-3983.696590,-2442.679609,11177.109724
593.436300,-2604.724693,-2368.659014,11029.068536
593.436616,-1225.752797,-1628.453072,10584.944971
593.436932,0.000000,-1332.370696,10288.862594
593.437247,1838.629195,-148.041188,9030.512492
593.437563,3294.210641,814.226536,8142.265362
593.437879,4903.011187,2072.576638,7476.080014
593.438194,6128.763984,3182.885551,6883.915261
593.438510,6358.592633,3552.988522,6291.750507
593.438826,6511.811733,4071.132681,5699.585753
593.439141,5515.887586,3478.967927,6365.771101
593.439457,4519.963438,2368.659014,7105.977043
593.439773,2681.334243,888.247130,8364.327145
593.440088,612.876398,-74.020594,9474.636058
593.440404,-919.314598,-1184.329507,10510.924376
593.440720,-2757.943793,-1776.494261,11103.089130
593.441036,-3983.696590,-2516.700203,11843.295072
593.441351,-4673.182538,-2664.741391,12287.418637
593.441667,-4903.011187,-2812.782580,12065.356855
593.441983,-4903.011187,-2368.659014,11917.315666
593.442298,-4519.963438,-2516.700203,11621.233289
593.442614,-3677.258390,-2738.761985,11177.109724
593.442930,-2298.286494,-1998.556043,10955.047942
593.443245,-1072.533697,-1554.432478,10436.903782
593.443561,306.438199,-666.185348,9696.697840
593.443877,1991.848295,444.123565,8734.430116
593.444192,3753.867940,1998.556043,7698.141797
593.444508,5822.325785,2590.720797,6735.874072
593.444824,6281.983084,3627.009116,5995.668130
593.445139,6052.154434,3849.070898,5551.544565
593.445455,5898.935335,3552.988522,5699.585753
593.445771,5132.839837,2664.741391,6661.853478
593.446086,3524.039291,1110.308913,7698.141797
593.446402,1915.238745,-0.000000,9104.533087
593.446718,-306.438199,-1184.329507,10288.862594
593.447033,-2221.676944,-1850.514855,11325.150913
593.447349,-3524.039291,-2368.659014,12287.418637
593.447665,-4136.915689,-2886.803174,12139.377449
593.447980,-4903.011187,-2886.803174,12657.521608
593.448296,-4903.011187,-2368.659014,12435.459826
593.448612,-4443.353888,-2590.720797,11621.233289
593.448928,-3370.820191,-2146.597232,11251.130318
593.449243,-2451.505594,-2220.617826,11325.150913
593.449559,-1302.362347,-1850.514855,10510.924376
593.449875,76.609550,-1184.329507,10066.800811
593.450190,1991.848295,-222.061783,8882.471304
593.450506,3524.039291,814.226536,7846.182985
593.450822,4903.011187,2368.659014,7328.038826
593.451137,6128.763984,2812.782580,6291.750507
593.451453,6665.030833,3849.070898,5995.668130
593.451769,6435.202183,3849.070898,5773.606348
593.452084,5745.716235,2812.782580,6439.791695
593.452400,4443.353888,1998.556043,7402.059420
593.452716,2451.505594,814.226536,8586.388927
593.453031,612.876398,-148.041188,9696.697840
593.453347,-1455.581446,-1110.308913,10436.903782
593.453663,-2451.505594,-1998.556043,11473.192101
593.453978,-4060.306139,-2664.741391,12065.356855
593.454294,-4519.963438,-2960.823768,12139.377449
593.454610,-4903.011187,-2664.741391,11843.295072
593.454925,-4903.011187,-2664.741391,11843.295072
593.455241,-4519.963438,-2664.741391,11399.171507
593.455557,-3217.601092,-2590.720797,11177.109724
593.455872,-2298.286494,-2368.659014,10955.047942
593.456188,-842.705048,-1480.411884,10288.862594
593.456504,766.095498,-222.061783,9696.697840
593.456819,2221.676944,888.247130,8512.368333
593.457135,4060.306139,2220.617826,7550.100608
593.457451,5286.058936,3034.844362,6809.894666
593.457767,6205.373534,3552.988522,5995.668130
593.458082,6435.202183,3849.070898,5773.606348
593.458398,5898.935335,3552.988522,5921.647536
593.458714,5056.230287,2368.659014,6587.832884
593.459029,3140.991542,1110.308913,8068.244768
593.459345,1302.362347,-222.061783,9400.615463
593.459661,-536.266849,-1258.350101,10510.924376
593.459976,-2451.505594,-1850.514855,11325.150913
593.460292,-3753.867940,-2442.679609,11917.315666
593.460608,-4443.353888,-2664.741391,12139.377449
593.460923,-4903.011187,-2590.720797,12435.459826
593.461239,-4903.011187,-2368.659014,11843.295072
593.461555,-4673.182538,-2294.638420,11769.274478
593.461870,-3677.258390,-2220.617826,11547.212695
593.462186,-2604.724693,-2072.576638,10955.047942
593.462502,-1225.752797,-1998.556043,10288.862594
593.462817,0.000000,-962.267725,10066.800811
593.463133,1915.238745,-74.020594,9030.512492
593.463449,3447.429741,1480.411884,8142.265362
593.463764,4979.620737,2590.720797,7254.018232
593.464080,6205.373534,3182.885551,6439.791695
593.464396,6435.202183,4071.132681,5995.668130
593.464711,6435.202183,3997.112087,5625.565159
593.465027,5592.497135,3182.885551,6217.729913
593.465343,4673.182538,1480.411884,7550.100608
593.465659,2298.286494,592.164754,8734.430116
593.465974,612.876398,-370.102971,9696.697840
593.466290,-1225.752797,-1332.370696,10584.944971
593.466606,-2911.162892,-2072.576638,11621.233289
593.466921,-4136.915689,-2960.823768,12213.398043
593.467237,-4596.572988,-2812.782580,12139.377449
593.467553,-4903.011187,-2960.823768,11991.336260
593.467868,-4903.011187,-3034.844362,12139.377449
593.468184,-4443.353888,-2960.823768,11843.295072
593.468500,-3524.039291,-2812.782580,11473.192101
593.468815,-2298.286494,-2072.576638,11251.130318
593.469131,-383.047749,-1332.370696,10214.842000
593.469447,995.924147,-370.102971,9326.594869
593.469762,2604.724693,666.185348,8438.347739
593.470078,4060.306139,2146.597232,7105.977043
593.470394,5822.325785,2960.823768,6439.791695
593.470709,6435.202183,3552.988522,5847.626942
593.471025,6588.421283,3775.050304,5551.544565
593.471341,5822.325785,3108.864956,5921.647536
593.471656,4979.620737,1850.514855,6809.894666
593.471972,3064.381992,444.123565,8290.306550
593.472288,1302.362347,-518.144159,9474.636058
593.472603,-766.095498,-1554.432478,10362.883188
593.472919,-2298.286494,-2220.617826,11473.192101
593.473235,-4060.306139,-3034.844362,11769.274478
593.473550,-4903.011187,-3108.864956,12287.418637
593.473866,-5056.230287,-2960.823768,12583.501014
593.474182,-5132.839837,-3034.844362,12139.377449
593.474498,-5209.449386,-2960.823768,11547.212695
