#time,accel_x,accel_y,accel_z
986.069238,229.828649,-0.000000,9696.697840
986.069554,612.876398,-0.000000,9770.718434
986.069870,766.095498,592.164754,9474.636058
986.070186,689.485948,1036.288319,9622.677246
986.070501,842.705048,1258.350101,9178.553681
986.070817,383.047749,1480.411884,8956.491898
986.071133,536.266849,1406.391290,8882.471304
986.071449,1149.143247,1554.432478,8660.409521
986.071765,995.924147,1406.391290,8808.450710
986.072081,766.095498,888.247130,8956.491898
986.072397,536.266849,518.144159,9548.656652
986.072713,153.219100,444.123565,9918.759623
986.073029,229.828649,444.123565,10140.821405
986.073345,153.219100,666.185348,10362.883188
986.073661,306.438199,666.185348,10510.924376
986.073977,306.438199,814.226536,10140.821405
986.074293,76.609550,888.247130,9992.780217
986.074609,766.095498,1332.370696,9622.677246
986.074925,1072.533697,1480.411884,9474.636058
986.075241,1225.752797,1554.432478,9104.533087
986.075557,1455.581446,1258.350101,9252.574275
986.075873,1455.581446,1036.288319,8956.491898
986.076189,1302.362347,1110.308913,8956.491898
986.076505,995.924147,1036.288319,8882.471304
986.076821,689.485948,740.205942,9178.553681
986.077137,612.876398,814.226536,9400.615463
986.077453,0.000000,740.205942,9918.759623
986.077769,-612.876398,370.102971,9918.759623
986.078085,-612.876398,-0.000000,10362.883188
986.078401,-1072.533697,-370.102971,10362.883188
986.078717,-1378.971896,-666.185348,10288.862594
986.079033,-1302.362347,-814.226536,10214.842000
986.079349,-1455.581446,-1036.288319,10362.883188
986.079665,-842.705048,-814.226536,10140.821405
986.079981,-689.485948,-1184.329507,9918.759623
986.080297,0.000000,-444.123565,9992.780217
986.080613,153.219100,-370.102971,9400.615463
986.080929,766.095498,-148.041188,9030.512492
986.081245,919.314598,-74.020594,9030.512492
986.081561,1072.533697,-592.164754,8956.491898
986.081877,1072.533697,-222.061783,9104.533087
986.082193,1302.362347,-370.102971,8956.491898
986.082509,1072.533697,-592.164754,9178.553681
986.082825,76.609550,-888.247130,9178.553681
986.083141,306.438199,-518.144159,9178.553681
986.083457,229.828649,-296.082377,9104.533087
986.083773,0.000000,-296.082377,9178.553681
986.084089,-383.047749,-296.082377,9252.574275
986.084405,-306.438199,-222.061783,9696.697840
986.084721,-306.438199,-740.205942,9400.615463
986.085037,0.000000,-666.185348,9548.656652
986.085353,0.000000,-444.123565,9252.574275
986.085668,0.000000,-222.061783,9104.533087
986.085984,229.828649,-148.041188,9178.553681
986.086300,153.219100,-74.020594,9104.533087
986.086616,76.609550,-0.000000,9252.574275
986.086932,0.000000,148.041188,9178.553681
986.087248,0.000000,-296.082377,8808.450710
986.087564,0.000000,222.061783,9030.512492
986.087880,153.219100,-0.000000,9030.512492
986.088196,153.219100,-444.123565,8956.491898
986.088512,0.000000,-370.102971,9104.533087
986.088828,0.000000,-518.144159,9030.512492
986.089144,0.000000,-666.185348,9474.636058
986.089460,0.000000,-296.082377,9770.718434
986.089776,153.219100,-740.205942,9844.739029
986.090092,459.657299,-888.247130,9548.656652
986.090408,229.828649,-1036.288319,9844.739029
986.090724,842.705048,-592.164754,9918.759623
986.091040,842.705048,-740.205942,9474.636058
986.091356,1455.581446,-444.123565,9770.718434
986.091672,1302.362347,-0.000000,9400.615463
986.091988,1378.971896,222.061783,9326.594869
986.092304,1532.190996,296.082377,9326.594869
986.092620,1378.971896,-0.000000,9400.615463
986.092936,1149.143247,-0.000000,9548.656652
986.093252,1072.533697,-0.000000,9548.656652
986.093568,1072.533697,-74.020594,9844.739029
986.093884,842.705048,-296.082377,10140.821405
986.094200,766.095498,-444.123565,9696.697840
986.094516,76.609550,-222.061783,9992.780217
986.094832,229.828649,-296.082377,10140.821405
986.095148,383.047749,-0.000000,10140.821405
986.095464,459.657299,148.041188,9770.718434
986.095780,229.828649,148.041188,9548.656652
986.096096,229.828649,296.082377,9696.697840
986.096412,306.438199,222.061783,9474.636058
986.096728,459.657299,444.123565,9326.594869
986.097044,383.047749,370.102971,9474.636058
986.097360,153.219100,222.061783,9326.594869
986.097676,459.657299,222.061783,9474.636058
986.097992,459.657299,296.082377,9326.594869
986.098308,612.876398,222.061783,9400.615463
986.098624,306.438199,-222.061783,9400.615463
986.098940,459.657299,-0.000000,9474.636058
986.099256,153.219100,296.082377,9548.656652
986.099572,153.219100,-0.000000,9474.636058
986.099888,459.657299,-0.000000,9622.677246
986.100204,153.219100,-296.082377,9474.636058
986.100519,306.438199,-222.061783,9770.718434
986.100835,306.438199,-148.041188,9622.677246
986.101151,383.047749,-444.123565,9474.636058
986.101467,383.047749,-370.102971,9474.636058
986.101783,76.609550,-518.144159,9548.656652
986.102099,306.438199,-296.082377,9474.636058
986.102415,689.485948,-370.102971,9474.636058
986.102730,612.876398,-592.164754,9326.594869
986.103046,383.047749,-222.061783,9252.574275
986.103362,842.705048,-370.102971,9474.636058
986.103678,612.876398,-962.267725,9400.615463
986.103994,536.266849,-962.267725,9474.636058
986.104309,459.657299,-666.185348,9474.636058
986.104625,766.095498,-814.226536,9400.615463
986.104941,383.047749,-1036.288319,9474.636058
986.105257,689.485948,-740.205942,9400.615463
986.105573,383.047749,-518.144159,9548.656652
986.105888,536.266849,-518.144159,9474.636058
986.106204,919.314598,-666.185348,9548.656652
986.106520,536.266849,-592.164754,9696.697840
986.106836,536.266849,-666.185348,9400.615463
986.107152,842.705048,-370.102971,9326.594869
986.107467,1149.143247,-148.041188,9326.594869
986.107783,995.924147,-74.020594,9178.553681
986.108099,1455.581446,-0.000000,9104.533087
986.108415,766.095498,-0.000000,9252.574275
986.108730,919.314598,222.061783,9178.553681
986.109046,612.876398,222.061783,9178.553681
986.109362,689.485948,-0.000000,9474.636058
986.109678,689.485948,-74.020594,9622.677246
986.109994,76.609550,-148.041188,9474.636058
986.110309,153.219100,74.020594,9696.697840
986.110625,536.266849,-0.000000,9474.636058
986.110941,229.828649,-0.000000,9548.656652
986.111257,306.438199,-148.041188,9400.615463
986.111573,459.657299,296.082377,9474.636058
986.111888,383.047749,148.041188,9400.615463
986.112204,383.047749,222.061783,9400.615463
986.112520,459.657299,222.061783,9474.636058
986.112836,76.609550,-0.000000,9252.574275
986.113152,229.828649,-0.000000,9696.697840
986.113467,153.219100,-0.000000,9474.636058
986.113783,306.438199,-74.020594,9548.656652
986.114099,306.438199,-0.000000,9622.677246
986.114415,153.219100,-148.041188,9622.677246
986.114731,536.266849,-0.000000,9918.759623
986.115046,536.266849,-296.082377,9622.677246
986.115362,153.219100,-0.000000,9696.697840
986.115678,229.828649,-0.000000,9770.718434
986.115994,306.438199,-0.000000,9918.759623
986.116309,153.219100,-222.061783,9844.739029
986.116625,306.438199,-74.020594,9844.739029
986.116941,229.828649,-148.041188,9770.718434
986.117257,383.047749,-592.164754,9992.780217
986.117573,383.047749,-296.082377,9696.697840
986.117888,383.047749,-0.000000,9696.697840
986.118204,383.047749,-74.020594,9696.697840
986.118520,459.657299,-74.020594,9548.656652
986.118836,153.219100,148.041188,9770.718434
986.119152,612.876398,-0.000000,9548.656652
986.119467,383.047749,-0.000000,9548.656652
986.119783,536.266849,-0.000000,9622.677246
986.120099,459.657299,-0.000000,9548.656652
986.120415,536.266849,-148.041188,9770.718434
986.120731,612.876398,-0.000000,9474.636058
986.121046,383.047749,-148.041188,9474.636058
986.121362,689.485948,-148.041188,9474.636058
986.121678,766.095498,-148.041188,9400.615463
986.121994,689.485948,-370.102971,9030.512492
986.122310,689.485948,-148.041188,9252.574275
986.122625,536.266849,-74.020594,9326.594869
986.122941,536.266849,-74.020594,9548.656652
986.123257,383.047749,-296.082377,9252.574275
986.123573,383.047749,-370.102971,9030.512492
986.123888,536.266849,-370.102971,9326.594869
986.124204,536.266849,-296.082377,9104.533087
986.124520,229.828649,-222.061783,9326.594869
986.124836,229.828649,-296.082377,9326.594869
986.125152,229.828649,-518.144159,9326.594869
986.125467,0.000000,-296.082377,9326.594869
986.125783,0.000000,-444.123565,9474.636058
986.126099,229.828649,-518.144159,9252.574275
986.126415,0.000000,-592.164754,9252.574275
986.126731,76.609550,-740.205942,9548.656652
986.127046,76.609550,-296.082377,9474.636058
986.127362,229.828649,-370.102971,9400.615463
986.127678,76.609550,-296.082377,9400.615463
986.127994,229.828649,-518.144159,9326.594869
986.128310,153.219100,-222.061783,9844.739029
986.128625,153.219100,-296.082377,9474.636058
986.128941,306.438199,-296.082377,9548.656652
986.129257,383.047749,-370.102971,9474.636058
986.129573,229.828649,-296.082377,9474.636058
986.129889,153.219100,-444.123565,9474.636058
986.130204,459.657299,-148.041188,9696.697840
986.130520,229.828649,-296.082377,9548.656652
986.130836,153.219100,-74.020594,9474.636058
986.131152,229.828649,-222.061783,9770.718434
986.131467,306.438199,-148.041188,9474.636058
986.131783,306.438199,-148.041188,9622.677246
986.132099,229.828649,-0.000000,9696.697840
986.132415,383.047749,-0.000000,9474.636058
986.132731,766.095498,-222.061783,9548.656652
986.133046,229.828649,-74.020594,9844.739029
986.133362,383.047749,-148.041188,9622.677246
986.133678,459.657299,-0.000000,9622.677246
986.133994,306.438199,-0.000000,9622.677246
986.134310,383.047749,-0.000000,9548.656652
986.134625,689.485948,-444.123565,9474.636058
986.134941,153.219100,-0.000000,9474.636058
986.135257,229.828649,-0.000000,9770.718434
986.135573,383.047749,-0.000000,9622.677246
986.135889,536.266849,444.123565,9548.656652
986.136204,153.219100,-0.000000,9622.677246
986.136520,153.219100,-0.000000,9548.656652
986.136836,459.657299,-148.041188,9844.739029
986.137152,383.047749,-0.000000,9548.656652
986.137468,689.485948,-222.061783,9696.697840
986.137783,766.095498,-0.000000,9474.636058
986.138099,459.657299,-0.000000,9474.636058
986.138415,689.485948,-0.000000,9696.697840
986.138731,459.657299,-74.020594,9548.656652
986.139046,612.876398,-222.061783,9326.594869
986.139362,689.485948,-0.000000,9474.636058
986.139678,689.485948,-222.061783,9326.594869
986.139994,459.657299,-148.041188,9252.574275
986.140310,766.095498,-222.061783,9474.636058
986.140625,76.609550,-74.020594,9326.594869
986.140941,383.047749,-0.000000,9474.636058
986.141257,766.095498,-0.000000,9252.574275
986.141573,459.657299,-0.000000,9400.615463
986.141889,689.485948,-74.020594,9474.636058
986.142204,689.485948,-370.102971,9326.594869
986.142520,689.485948,-222.061783,9252.574275
986.142836,306.438199,-296.082377,9474.636058
986.143152,689.485948,-222.061783,9326.594869
986.143468,459.657299,-518.144159,9474.636058
986.143783,229.828649,-296.082377,9326.594869
986.144099,766.095498,-222.061783,9030.512492
986.144415,612.876398,-296.082377,9178.553681
986.144731,689.485948,-370.102971,9178.553681
986.145047,689.485948,-222.061783,9622.677246
986.145362,459.657299,-74.020594,9178.553681
986.145678,459.657299,-444.123565,9326.594869
986.145994,306.438199,-370.102971,9326.594869
986.146310,306.438199,-296.082377,9474.636058
986.146625,459.657299,-666.185348,9178.553681
986.146941,153.219100,-0.000000,9474.636058
986.147257,229.828649,-0.000000,9474.636058
986.147573,229.828649,-370.102971,9326.594869
986.147889,383.047749,-222.061783,9400.615463
986.148204,842.705048,-296.082377,9400.615463
986.148520,536.266849,-444.123565,9474.636058
986.148836,536.266849,-370.102971,9474.636058
986.149152,383.047749,-148.041188,9474.636058
986.149468,766.095498,-370.102971,9770.718434
986.149783,459.657299,-444.123565,9474.636058
986.150099,536.266849,-296.082377,9622.677246
986.150415,842.705048,-74.020594,9474.636058
986.150731,153.219100,-222.061783,9474.636058
986.151047,842.705048,-370.102971,9178.553681
986.151362,383.047749,-0.000000,9548.656652
986.151678,459.657299,-0.000000,9548.656652
986.151994,689.485948,-0.000000,9548.656652
986.152310,612.876398,-0.000000,9844.739029
986.152626,153.219100,-0.000000,9548.656652
986.152941,459.657299,296.082377,9696.697840
986.153257,612.876398,-0.000000,9474.636058
986.153573,536.266849,-74.020594,9696.697840
986.153889,1072.533697,-148.041188,9696.697840
986.154204,612.876398,-0.000000,9474.636058
986.154520,536.266849,-0.000000,9474.636058
986.154836,612.876398,-0.000000,9548.656652
986.155152,612.876398,-0.000000,9474.636058
986.155468,766.095498,-74.020594,9548.656652
986.155783,689.485948,-0.000000,9548.656652
986.156099,612.876398,-74.020594,9548.656652
986.156415,612.876398,-148.041188,9400.615463
986.156731,689.485948,-0.000000,9696.697840
986.157047,689.485948,-518.144159,9770.718434
986.157362,459.657299,-0.000000,9548.656652
986.157678,383.047749,-148.041188,9696.697840
986.157994,459.657299,-148.041188,9474.636058
986.158310,383.047749,-0.000000,9622.677246
986.158626,306.438199,-222.061783,9696.697840
986.158941,536.266849,-296.082377,9548.656652
986.159257,383.047749,-370.102971,9326.594869
986.159573,306.438199,-148.041188,9474.636058
986.159889,306.438199,-444.123565,9474.636058
986.160205,383.047749,-296.082377,9400.615463
986.160520,842.705048,-222.061783,9326.594869
986.160836,459.657299,-444.123565,9252.574275
986.161152,536.266849,-296.082377,9400.615463
986.161468,76.609550,-222.061783,9474.636058
986.161783,612.876398,-148.041188,9770.718434
986.162099,459.657299,-296.082377,9326.594869
986.162415,229.828649,-444.123565,9326.594869
986.162731,76.609550,-222.061783,9474.636058
986.163047,383.047749,-370.102971,9474.636058
986.163362,229.828649,-370.102971,9548.656652
986.163678,153.219100,-296.082377,9400.615463
986.163994,0.000000,-148.041188,9474.636058
986.164310,383.047749,-222.061783,9474.636058
986.164626,229.828649,-222.061783,9400.615463
986.164941,383.047749,-592.164754,9400.615463
986.165257,383.047749,-74.020594,9178.553681
986.165573,459.657299,-296.082377,9400.615463
986.165889,153.219100,-222.061783,9178.553681
986.166205,383.047749,-222.061783,9326.594869
986.166520,459.657299,-74.020594,9696.697840
986.166836,153.219100,-296.082377,9474.636058
986.167152,229.828649,-370.102971,9474.636058
986.167468,536.266849,-148.041188,9474.636058
986.167784,306.438199,-148.041188,9400.615463
986.168099,306.438199,-666.185348,9474.636058
986.168415,383.047749,-222.061783,9548.656652
986.168731,459.657299,-74.020594,9622.677246
986.169047,306.438199,-296.082377,9548.656652
986.169362,536.266849,-148.041188,9548.656652
986.169678,689.485948,-74.020594,9474.636058
986.169994,536.266849,-0.000000,9622.677246
986.170310,612.876398,-74.020594,9474.636058
986.170626,383.047749,-148.041188,9474.636058
986.170941,766.095498,-0.000000,9844.739029
986.171257,306.438199,-74.020594,9548.656652
986.171573,383.047749,-0.000000,9622.677246
986.171889,153.219100,-74.020594,9474.636058
986.172205,306.438199,-148.041188,9548.656652
986.172520,229.828649,-444.123565,9696.697840
986.172836,383.047749,-0.000000,9474.636058
986.173152,306.438199,-74.020594,9548.656652
986.173468,383.047749,-148.041188,9548.656652
986.173784,459.657299,-74.020594,9548.656652
986.174099,689.485948,-74.020594,9622.677246
986.174415,306.438199,-0.000000,9622.677246
986.174731,229.828649,-0.000000,9474.636058
986.175047,459.657299,-0.000000,9622.677246
986.175363,306.438199,-74.020594,9548.656652
986.175678,306.438199,-0.000000,9252.574275
986.175994,536.266849,-0.000000,9474.636058
986.176310,459.657299,-0.000000,9474.636058
986.176626,306.438199,-0.000000,9548.656652
986.176941,153.219100,-74.020594,9474.636058
986.177257,76.609550,-148.041188,9548.656652
986.177573,459.657299,-0.000000,9622.677246
986.177889,229.828649,-74.020594,9474.636058
986.178205,229.828649,-74.020594,9400.615463
986.178520,306.438199,-74.020594,9400.615463
986.178836,0.000000,-296.082377,9474.636058
986.179152,306.438199,-74.020594,9400.615463
986.179468,306.438199,-296.082377,9622.677246
986.179784,153.219100,-0.000000,9474.636058
986.180099,0.000000,-296.082377,9474.636058
986.180415,536.266849,-222.061783,9400.615463
986.180731,536.266849,-222.061783,9474.636058
986.181047,306.438199,-148.041188,9400.615463
986.181363,459.657299,-296.082377,9400.615463
986.181678,459.657299,-0.000000,9474.636058
986.181994,383.047749,-666.185348,9252.574275
986.182310,229.828649,-444.123565,9474.636058
986.182626,536.266849,-444.123565,9548.656652
986.182942,612.876398,-296.082377,9474.636058
986.183257,612.876398,-444.123565,9474.636058
986.183573,459.657299,-370.102971,9400.615463
986.183889,459.657299,-222.061783,9326.594869
986.184205,459.657299,-444.123565,9474.636058
986.184521,383.047749,-148.041188,9326.594869
986.184836,459.657299,-0.000000,9696.697840
986.185152,306.438199,-222.061783,9474.636058
986.185468,612.876398,-0.000000,9400.615463
986.185784,306.438199,-296.082377,9400.615463
986.186099,383.047749,-370.102971,9474.636058
986.186415,459.657299,-814.226536,9326.594869
986.186731,459.657299,-518.144159,9400.615463
986.187047,153.219100,-296.082377,9474.636058
986.187363,383.047749,-148.041188,9474.636058
986.187678,689.485948,-296.082377,9474.636058
986.187994,383.047749,-592.164754,9770.718434
986.188310,459.657299,-148.041188,9474.636058
986.188626,383.047749,-0.000000,9474.636058
986.188942,536.266849,-148.041188,9400.615463
986.189257,383.047749,-74.020594,9474.636058
986.189573,459.657299,-222.061783,9548.656652
986.189889,306.438199,-74.020594,9474.636058
986.190205,536.266849,-74.020594,9474.636058
986.190521,689.485948,-0.000000,9474.636058
986.190836,383.047749,-148.041188,9622.677246
986.191152,229.828649,-296.082377,9474.636058
986.191468,229.828649,-296.082377,9622.677246
986.191784,536.266849,-148.041188,9474.636058
986.192100,536.266849,-0.000000,9696.697840
986.192415,612.876398,-148.041188,9548.656652
986.192731,536.266849,-296.082377,9622.677246
986.193047,459.657299,-370.102971,9474.636058
986.193363,306.438199,-74.020594,9548.656652
986.193678,459.657299,-74.020594,9548.656652
986.193994,459.657299,-518.144159,9548.656652
986.194310,612.876398,-592.164754,9400.615463
986.194626,306.438199,-74.020594,9622.677246
986.194942,536.266849,-0.000000,9548.656652
986.195257,153.219100,-74.020594,9548.656652
986.195573,383.047749,-370.102971,9400.615463
986.195889,459.657299,-296.082377,9622.677246
986.196205,459.657299,-296.082377,9474.636058
986.196521,306.438199,-444.123565,9474.636058
986.196836,536.266849,-296.082377,9474.636058
986.197152,459.657299,-222.061783,9474.636058
986.197468,536.266849,-370.102971,9474.636058
986.197784,459.657299,-148.041188,9770.718434
986.198100,383.047749,-370.102971,9474.636058
986.198415,536.266849,-74.020594,9474.636058
986.198731,689.485948,-222.061783,9400.615463
986.199047,459.657299,-222.061783,9400.615463
986.199363,689.485948,-296.082377,9474.636058
986.199679,536.266849,-148.041188,9548.656652
986.199994,1302.362347,-296.082377,9474.636058
986.200310,612.876398,-222.061783,9474.636058
986.200626,536.266849,-296.082377,9474.636058
986.200942,383.047749,-296.082377,9400.615463
986.201257,612.876398,-74.020594,9474.636058
986.201573,383.047749,-296.082377,9252.574275
986.201889,612.876398,-444.123565,9474.636058
986.202205,536.266849,-222.061783,9326.594869
986.202521,459.657299,-296.082377,9326.594869
986.202837,459.657299,-74.020594,9548.656652
986.203152,459.657299,-148.041188,9400.615463
986.203468,383.047749,-296.082377,9474.636058
986.203784,306.438199,-148.041188,9474.636058
986.204100,383.047749,-148.041188,9548.656652
986.204416,689.485948,-296.082377,9474.636058
986.204732,383.047749,-222.061783,9474.636058
986.205048,306.438199,-74.020594,9548.656652
986.205363,536.266849,-0.000000,9474.636058
986.205679,536.266849,-222.061783,9326.594869
986.205995,383.047749,-370.102971,9474.636058
986.206311,459.657299,-370.102971,9178.553681
986.206627,153.219100,-296.082377,9400.615463
986.206943,383.047749,-0.000000,9696.697840
986.207259,459.657299,-74.020594,9474.636058
986.207574,306.438199,-222.061783,9696.697840
986.207890,306.438199,-74.020594,9696.697840
986.208206,306.438199,-74.020594,9474.636058
986.208522,536.266849,-74.020594,9548.656652
986.208838,383.047749,-0.000000,9696.697840
986.209154,459.657299,-74.020594,9400.615463
986.209470,306.438199,-0.000000,9474.636058
986.209785,306.438199,-0.000000,9548.656652
986.210101,229.828649,-148.041188,9474.636058
986.210417,459.657299,-74.020594,9548.656652
986.210733,306.438199,-0.000000,9474.636058
986.211049,766.095498,222.061783,9474.636058
986.211365,459.657299,-74.020594,9770.718434
986.211681,459.657299,-0.000000,9696.697840
986.211996,306.438199,-370.102971,9622.677246
986.212312,536.266849,-74.020594,9696.697840
986.212628,383.047749,148.041188,9474.636058
986.212944,536.266849,148.041188,9622.677246
986.213260,383.047749,-74.020594,9622.677246
986.213576,689.485948,-444.123565,9844.739029
986.213892,689.485948,-0.000000,9844.739029
986.214207,306.438199,-74.020594,9548.656652
986.214523,536.266849,222.061783,9548.656652
986.214839,689.485948,518.144159,9474.636058
986.215155,383.047749,666.185348,8808.450710
986.215471,459.657299,666.185348,9104.533087
986.215787,306.438199,296.082377,9178.553681
986.216103,689.485948,148.041188,9474.636058
986.216418,459.657299,370.102971,9400.615463
986.216734,153.219100,296.082377,9326.594869
986.217050,612.876398,-0.000000,9770.718434
986.217366,76.609550,-222.061783,9844.739029
986.217682,459.657299,-0.000000,9696.697840
986.217998,229.828649,296.082377,9548.656652
986.218314,383.047749,296.082377,9622.677246
986.218629,536.266849,592.164754,9548.656652
986.218945,229.828649,1036.288319,9030.512492
986.219261,153.219100,1110.308913,9030.512492
986.219577,229.828649,1110.308913,9104.533087
986.219893,153.219100,1184.329507,9104.533087
986.220209,0.000000,1110.308913,8882.471304
986.220525,0.000000,740.205942,9178.553681
986.220840,-459.657299,1110.308913,9400.615463
986.221156,-383.047749,888.247130,9474.636058
986.221472,-766.095498,814.226536,9252.574275
986.221788,-919.314598,592.164754,9548.656652
986.222104,-1225.752797,740.205942,9696.697840
986.222420,-995.924147,888.247130,9622.677246
986.222735,-1225.752797,814.226536,9696.697840
986.223051,-1378.971896,1406.391290,9844.739029
986.223367,-995.924147,1036.288319,9326.594869
986.223683,-1072.533697,1554.432478,9400.615463
986.223999,-1072.533697,1924.535449,9178.553681
986.224315,-1378.971896,2072.576638,8808.450710
986.224631,-1302.362347,2146.597232,8808.450710
986.224946,-1532.190996,2146.597232,8882.471304
986.225262,-1762.019645,2220.617826,9104.533087
986.225578,-2068.457845,1998.556043,9474.636058
986.225894,-2528.115143,1850.514855,9548.656652
986.226210,-2604.724693,1258.350101,9696.697840
986.226526,-2834.553343,1702.473667,10066.800811
986.226842,-2911.162892,1258.350101,10214.842000
986.227157,-3140.991542,1480.411884,9992.780217
986.227473,-2911.162892,1850.514855,10510.924376
986.227789,-2604.724693,1776.494261,9844.739029
986.228105,-2528.115143,2072.576638,9696.697840
986.228421,-2145.067394,2368.659014,9474.636058
986.228737,-1608.800546,2368.659014,9252.574275
986.229053,-1378.971896,2072.576638,9178.553681
986.229368,-1532.190996,2516.700203,9104.533087
986.229684,-1455.581446,2220.617826,9030.512492
986.230000,-1302.362347,2146.597232,9178.553681
986.230316,-1838.629195,1998.556043,9400.615463
986.230632,-1685.410096,1776.494261,9474.636058
986.230948,-2221.676944,1702.473667,9770.718434
986.231264,-2604.724693,1850.514855,9844.739029
986.231579,-2911.162892,1850.514855,9770.718434
986.231895,-3294.210641,2146.597232,9992.780217
986.232211,-3447.429741,1924.535449,10288.862594
986.232527,-3140.991542,1776.494261,10066.800811
986.232843,-3294.210641,1036.288319,10140.821405
986.233159,-2834.553343,592.164754,10288.862594
986.233475,-2221.676944,222.061783,9992.780217
986.233790,-2068.457845,-0.000000,9844.739029
986.234106,-1838.629195,-0.000000,10140.821405
986.234422,-919.314598,814.226536,10140.821405
986.234738,-229.828649,962.267725,9696.697840
986.235054,0.000000,1554.432478,9178.553681
986.235370,383.047749,2146.597232,8364.327145
986.235686,459.657299,2146.597232,8142.265362
986.236001,612.876398,2220.617826,8586.388927
986.236317,612.876398,1998.556043,8438.347739
986.236633,536.266849,1258.350101,8882.471304
986.236949,0.000000,370.102971,9252.574275
986.237265,-689.485948,-296.082377,9622.677246
986.237581,-1225.752797,-962.267725,10140.821405
986.237897,-1762.019645,-1406.391290,10584.944971
986.238212,-1532.190996,-814.226536,10732.986159
986.238528,-1762.019645,-444.123565,10288.862594
986.238844,-1455.581446,222.061783,9622.677246
986.239160,-842.705048,1036.288319,9252.574275
986.239476,-766.095498,1258.350101,9104.533087
986.239792,-536.266849,1406.391290,8586.388927
986.240108,-229.828649,1036.288319,8586.388927
986.240423,-229.828649,444.123565,8882.471304
986.240739,0.000000,-296.082377,9474.636058
986.241055,306.438199,-1036.288319,9696.697840
986.241371,766.095498,-1406.391290,9918.759623
986.241687,1072.533697,-1184.329507,9622.677246
986.242003,1838.629195,-962.267725,9474.636058
986.242319,2451.505594,-444.123565,9400.615463
986.242634,2374.896044,74.020594,8882.471304
986.242950,2528.115143,888.247130,8660.409521
986.243266,2068.457845,1332.370696,8142.265362
986.243582,1838.629195,1184.329507,7920.203579
986.243898,1532.190996,1110.308913,8660.409521
986.244214,995.924147,740.205942,8660.409521
986.244530,0.000000,296.082377,9178.553681
986.244845,-842.705048,-370.102971,9178.553681
986.245161,-1455.581446,-740.205942,9844.739029
986.245477,-1762.019645,-1258.350101,9918.759623
986.245793,-2221.676944,-1406.391290,10362.883188
986.246109,-2374.896044,-1110.308913,10881.027347
986.246425,-2528.115143,-1480.411884,10732.986159
986.246741,-1991.848295,-1776.494261,10584.944971
986.247056,-1378.971896,-1628.453072,10584.944971
986.247372,-536.266849,-1332.370696,9918.759623
986.247688,0.000000,-1110.308913,9400.615463
986.248004,842.705048,-666.185348,9178.553681
986.248320,1762.019645,-148.041188,8734.430116
986.248636,2374.896044,518.144159,8364.327145
986.248952,2221.676944,1184.329507,8290.306550
986.249267,2145.067394,1554.432478,8216.285956
986.249583,2068.457845,1628.453072,8290.306550
986.249899,1378.971896,1702.473667,8216.285956
986.250215,1072.533697,1702.473667,8364.327145
986.250531,0.000000,1554.432478,9030.512492
986.250847,-766.095498,740.205942,9474.636058
986.251163,-1608.800546,-0.000000,10066.800811
986.251478,-2451.505594,-740.205942,10732.986159
986.251794,-2451.505594,-1258.350101,11473.192101
986.252110,-2604.724693,-1702.473667,11399.171507
986.252426,-1991.848295,-1480.411884,11769.274478
986.252742,-1378.971896,-1258.350101,11029.068536
986.253058,306.438199,-888.247130,10140.821405
986.253374,1378.971896,-74.020594,9918.759623
986.253689,2298.286494,888.247130,8956.491898
986.254005,3140.991542,1776.494261,8216.285956
986.254321,3524.039291,2368.659014,7550.100608
986.254637,3447.429741,2812.782580,7994.224174
986.254953,3447.429741,2886.803174,7328.038826
986.255269,2911.162892,3182.885551,7550.100608
986.255585,1762.019645,2960.823768,7550.100608
986.255900,1302.362347,2368.659014,8586.388927
986.256216,536.266849,1258.350101,8956.491898
986.256532,-919.314598,518.144159,9844.739029
986.256848,-1762.019645,-666.185348,10881.027347
986.257164,-2451.505594,-1332.370696,11547.212695
986.257480,-2451.505594,-2072.576638,11843.295072
986.257796,-2681.334243,-2368.659014,11991.336260
986.258111,-2374.896044,-1998.556043,11917.315666
986.258427,-995.924147,-1184.329507,11251.130318
986.258743,229.828649,-370.102971,10288.862594
986.259059,1455.581446,518.144159,9400.615463
986.259375,2451.505594,1258.350101,8512.368333
986.259691,3140.991542,1924.535449,7920.203579
986.260007,3753.867940,2368.659014,7476.080014
986.260322,3600.648841,2368.659014,7402.059420
986.260638,3447.429741,2294.638420,7402.059420
986.260954,2374.896044,1924.535449,7920.203579
986.261270,1608.800546,1036.288319,8364.327145
986.261586,76.609550,148.041188,9400.615463
986.261902,-842.705048,-592.164754,10066.800811
986.262218,-1302.362347,-2220.617826,11251.130318
986.262533,-1991.848295,-3034.844362,11843.295072
986.262849,-1991.848295,-3478.967927,11917.315666
986.263165,-2145.067394,-3552.988522,11917.315666
986.263481,-995.924147,-3330.926739,11843.295072
986.263797,76.609550,-2442.679609,10807.006753
986.264113,919.314598,-1702.473667,9548.656652
986.264429,1532.190996,-148.041188,8956.491898
986.264744,2604.724693,1332.370696,7920.203579
986.265060,3140.991542,2146.597232,7328.038826
986.265376,2911.162892,2368.659014,7105.977043
986.265692,2834.553343,2072.576638,6883.915261
986.266008,2374.896044,1184.329507,7328.038826
986.266324,1302.362347,-0.000000,8142.265362
986.266640,76.609550,-1184.329507,9030.512492
986.266955,-1149.143247,-1924.535449,9918.759623
986.267271,-1762.019645,-2442.679609,10807.006753
986.267587,-2374.896044,-3182.885551,11473.192101
986.267903,-2374.896044,-3256.906145,11473.192101
986.268219,-1991.848295,-3034.844362,11325.150913
986.268535,-1455.581446,-2664.741391,10881.027347
986.268850,-306.438199,-1850.514855,10140.821405
986.269166,536.266849,-1184.329507,9474.636058
986.269482,1685.410096,-370.102971,8364.327145
986.269798,1991.848295,518.144159,8068.244768
986.270114,2911.162892,1184.329507,7254.018232
986.270430,2604.724693,1776.494261,7328.038826
986.270746,2298.286494,1850.514855,7254.018232
986.271061,1915.238745,1184.329507,7476.080014
986.271377,995.924147,296.082377,8216.285956
986.271693,-383.047749,-148.041188,9030.512492
986.272009,-1149.143247,-1480.411884,9918.759623
986.272325,-1991.848295,-2516.700203,10732.986159
986.272641,-2298.286494,-2960.823768,11325.150913
986.272957,-2068.457845,-3256.906145,11325.150913
986.273272,-1685.410096,-3108.864956,11177.109724
986.273588,-842.705048,-2590.720797,10881.027347
986.273904,229.828649,-1554.432478,10214.842000
986.274220,1302.362347,-370.102971,9178.553681
986.274536,2221.676944,1036.288319,8364.327145
986.274852,2681.334243,2146.597232,7994.224174
986.275168,3140.991542,2516.700203,7698.141797
986.275483,2987.772442,2664.741391,7550.100608
986.275799,2987.772442,2738.761985,7402.059420
986.276115,2068.457845,1924.535449,7920.203579
986.276431,842.705048,1110.308913,8734.430116
986.276747,0.000000,444.123565,9474.636058
986.277063,-612.876398,-518.144159,10362.883188
986.277379,-1608.800546,-1110.308913,11399.171507
986.277694,-2451.505594,-1480.411884,11695.253884
986.278010,-2374.896044,-1850.514855,11547.212695
986.278326,-1762.019645,-1628.453072,11399.171507
986.278642,-1072.533697,-962.267725,11251.130318
986.278958,153.219100,-370.102971,10732.986159
986.279274,689.485948,370.102971,9400.615463
986.279590,1915.238745,1628.453072,8882.471304
986.279905,2451.505594,2516.700203,8290.306550
986.280221,2451.505594,2738.761985,8290.306550
986.280537,2681.334243,3404.947333,8068.244768
986.280853,2221.676944,3256.906145,8068.244768
986.281169,1378.971896,2738.761985,8142.265362
986.281485,612.876398,2146.597232,8882.471304
986.281801,-689.485948,592.164754,9622.677246
986.282116,-1225.752797,-370.102971,10807.006753
986.282432,-1915.238745,-1554.432478,11399.171507
986.282748,-2068.457845,-1924.535449,11621.233289
986.283064,-1915.238745,-2220.617826,11843.295072
986.283380,-1149.143247,-2220.617826,11621.233289
986.283696,-689.485948,-1628.453072,10881.027347
986.284012,153.219100,-888.247130,10436.903782
986.284327,995.924147,518.144159,9252.574275
986.284643,2451.505594,1406.391290,8734.430116
986.284959,2374.896044,2072.576638,8364.327145
986.285275,2528.115143,2442.679609,7920.203579
986.285591,2374.896044,2146.597232,7698.141797
986.285907,1991.848295,1850.514855,7698.141797
986.286223,1225.752797,1036.288319,8364.327145
986.286538,0.000000,-296.082377,9252.574275
986.286854,-153.219100,-962.267725,9770.718434
986.287170,-1455.581446,-1924.535449,10658.965565
986.287486,-2145.067394,-2664.741391,11177.109724
986.287802,-2145.067394,-2442.679609,11769.274478
986.288118,-2221.676944,-2960.823768,11177.109724
986.288434,-1378.971896,-2664.741391,10807.006753
986.288749,-459.657299,-2368.659014,10214.842000
986.289065,612.876398,-1332.370696,9474.636058
986.289381,1762.019645,-444.123565,8808.450710
986.289697,2221.676944,-0.000000,7920.203579
986.290013,2528.115143,888.247130,7920.203579
986.290329,3064.381992,1258.350101,7550.100608
986.290645,2834.553343,1628.453072,7105.977043
986.290960,2145.067394,1480.411884,7402.059420
986.291276,1302.362347,740.205942,7920.203579
986.291592,383.047749,-148.041188,8512.368333
986.291908,-689.485948,-1258.350101,9474.636058
986.292224,-1225.752797,-2442.679609,10807.006753
986.292540,-1838.629195,-3701.029710,11177.109724
986.292856,-1685.410096,-3923.091493,11325.150913
986.293171,-2221.676944,-3849.070898,11177.109724
986.293487,-1302.362347,-3478.967927,10881.027347
986.293803,0.000000,-2960.823768,10214.842000
986.294119,1072.533697,-1480.411884,9548.656652
986.294435,2068.457845,-0.000000,8586.388927
986.294751,2834.553343,1184.329507,7846.182985
986.295067,3294.210641,1998.556043,7105.977043
986.295382,3907.087040,1776.494261,7105.977043
986.295698,3064.381992,1850.514855,7105.977043
986.296014,2604.724693,1702.473667,7624.121203
986.296330,1455.581446,814.226536,7846.182985
986.296646,536.266849,-296.082377,9252.574275
986.296962,-536.266849,-1554.432478,10584.944971
986.297278,-1608.800546,-2220.617826,11325.150913
986.297593,-2451.505594,-2516.700203,11547.212695
986.297909,-2528.115143,-2590.720797,12065.356855
986.298225,-2221.676944,-2590.720797,11843.295072
986.298541,-1378.971896,-2220.617826,11399.171507
986.298857,-383.047749,-1702.473667,10732.986159
986.299173,842.705048,-222.061783,9548.656652
986.299489,1838.629195,1110.308913,8808.450710
986.299804,2681.334243,1702.473667,7920.203579
986.300120,3524.039291,1850.514855,7698.141797
986.300436,3217.601092,2516.700203,7328.038826
986.300752,2757.943793,2812.782580,7698.141797
986.301068,2068.457845,2442.679609,8364.327145
986.301384,1302.362347,1554.432478,8660.409521
986.301700,153.219100,1036.288319,9252.574275
986.302015,-612.876398,-0.000000,10288.862594
986.302331,-1685.410096,-888.247130,11103.089130
986.302647,-2374.896044,-1850.514855,11843.295072
986.302963,-2757.943793,-2294.638420,11917.315666
986.303279,-2681.334243,-2442.679609,11917.315666
986.303595,-2145.067394,-2368.659014,11695.253884
986.303910,-1072.533697,-1702.473667,11103.089130
986.304226,76.609550,-444.123565,10288.862594
986.304542,459.657299,1110.308913,8882.471304
986.304858,1685.410096,2368.659014,8586.388927
986.305173,2451.505594,2960.823768,7920.203579
986.305489,2911.162892,3108.864956,7328.038826
986.305805,2987.772442,3701.029710,7550.100608
986.306121,2681.334243,2886.803174,7624.121203
986.306437,1532.190996,1998.556043,8068.244768
986.306752,383.047749,1184.329507,9030.512492
986.307068,-766.095498,-0.000000,9918.759623
986.307384,-1991.848295,-1184.329507,11029.068536
986.307700,-2451.505594,-1850.514855,11695.253884
986.308015,-3064.381992,-2146.597232,11991.336260
986.308331,-2604.724693,-2294.638420,11843.295072
986.308647,-1838.629195,-2146.597232,11251.130318
986.308963,-842.705048,-1554.432478,10510.924376
986.309279,383.047749,-814.226536,9696.697840
986.309594,1302.362347,370.102971,8734.430116
986.309910,2221.676944,1406.391290,8068.244768
986.310226,2757.943793,2368.659014,7550.100608
986.310542,3294.210641,2664.741391,7328.038826
986.310857,2911.162892,2738.761985,7328.038826
986.311173,2528.115143,2368.659014,7698.141797
986.311489,1532.190996,1554.432478,7920.203579
986.311805,842.705048,592.164754,8660.409521
986.312121,0.000000,-518.144159,9844.739029
986.312436,-995.924147,-1628.453072,10807.006753
986.312752,-1608.800546,-2220.617826,11473.192101
986.313068,-2298.286494,-2516.700203,11695.253884
986.313384,-1915.238745,-3182.885551,11843.295072
986.313699,-1225.752797,-2960.823768,11473.192101
986.314015,-459.657299,-2368.659014,10510.924376
986.314331,689.485948,-1332.370696,9770.718434
986.314647,2221.676944,148.041188,9104.533087
986.314962,3217.601092,1184.329507,7772.162391
986.315278,3294.210641,2294.638420,7254.018232
986.315594,3600.648841,2442.679609,7179.997637
986.315910,3524.039291,2516.700203,7328.038826
986.316226,3064.381992,1776.494261,7550.100608
986.316541,1915.238745,666.185348,8216.285956
986.316857,766.095498,-666.185348,9104.533087
986.317173,-383.047749,-1480.411884,9918.759623
986.317489,-1378.971896,-2590.720797,10881.027347
986.317804,-2068.457845,-3108.864956,11843.295072
986.318120,-2451.505594,-3775.050304,11695.253884
986.318436,-2221.676944,-3182.885551,11547.212695
986.318752,-1378.971896,-2960.823768,11103.089130
986.319068,-153.219100,-2368.659014,10584.944971
986.319383,1225.752797,-1628.453072,9474.636058
986.319699,1685.410096,-370.102971,8734.430116
986.320015,2604.724693,370.102971,8142.265362
986.320331,3217.601092,1628.453072,7550.100608
986.320646,3447.429741,1850.514855,7105.977043
986.320962,2834.553343,2294.638420,7624.121203
986.321278,2298.286494,1850.514855,7846.182985
986.321594,1302.362347,1036.288319,8142.265362
986.321910,383.047749,-0.000000,8882.471304
986.322225,-842.705048,-962.267725,10066.800811
986.322541,-1685.410096,-1776.494261,10881.027347
986.322857,-2145.067394,-2812.782580,11399.171507
986.323173,-2451.505594,-3478.967927,11769.274478
986.323488,-2221.676944,-3478.967927,11621.233289
986.323804,-1762.019645,-3108.864956,11473.192101
986.324120,-919.314598,-2368.659014,10658.965565
986.324436,153.219100,-1036.288319,10066.800811
986.324752,1608.800546,296.082377,8660.409521
986.325067,2374.896044,1924.535449,7772.162391
986.325383,2987.772442,2664.741391,7328.038826
986.325699,3370.820191,2738.761985,7328.038826
986.326015,2834.553343,2812.782580,7105.977043
986.326330,2374.896044,2294.638420,7550.100608
986.326646,1225.752797,1258.350101,7772.162391
986.326962,306.438199,370.102971,8956.491898
986.327278,-1225.752797,-1258.350101,10288.862594
986.327594,-2068.457845,-1554.432478,11103.089130
986.327909,-2451.505594,-2220.617826,11621.233289
986.328225,-2987.772442,-2516.700203,11843.295072
986.328541,-2604.724693,-2220.617826,11621.233289
986.328857,-1915.238745,-2220.617826,11251.130318
986.329172,-459.657299,-1332.370696,10510.924376
986.329488,536.266849,-296.082377,9548.656652
986.329804,1378.971896,888.247130,8586.388927
986.330120,2068.457845,1628.453072,8216.285956
986.330435,2681.334243,2516.700203,7624.121203
986.330751,2911.162892,3034.844362,7624.121203
986.331067,2374.896044,2960.823768,7476.080014
986.331383,1991.848295,2516.700203,7698.141797
986.331699,995.924147,2072.576638,7920.203579
986.332014,612.876398,888.247130,8956.491898
986.332330,-383.047749,-74.020594,10140.821405
986.332646,-1149.143247,-1258.350101,10881.027347
986.332962,-1991.848295,-1850.514855,11399.171507
986.333277,-2145.067394,-2368.659014,11621.233289
986.333593,-2374.896044,-2812.782580,11621.233289
986.333909,-1378.971896,-1850.514855,11251.130318
986.334225,-459.657299,-1702.473667,10732.986159
986.334541,459.657299,-666.185348,9918.759623
986.334856,1838.629195,1258.350101,9178.553681
986.335172,2221.676944,1628.453072,8216.285956
986.335488,2911.162892,2368.659014,7772.162391
986.335804,3294.210641,2442.679609,7550.100608
986.336119,2911.162892,2442.679609,7624.121203
986.336435,2374.896044,1998.556043,7476.080014
986.336751,1302.362347,1184.329507,8290.306550
986.337067,306.438199,222.061783,9326.594869
986.337383,-536.266849,-888.247130,9992.780217
986.337698,-1225.752797,-1480.411884,11177.109724
986.338014,-1991.848295,-2072.576638,11473.192101
986.338330,-2221.676944,-2442.679609,11695.253884
986.338646,-1991.848295,-2590.720797,11695.253884
986.338961,-1378.971896,-2368.659014,11177.109724
986.339277,-383.047749,-2072.576638,10807.006753
986.339593,995.924147,-1110.308913,9696.697840
986.339909,1685.410096,-74.020594,8882.471304
986.340225,2374.896044,1036.288319,8364.327145
986.340540,2604.724693,1480.411884,7624.121203
986.340856,2987.772442,2146.597232,7402.059420
986.341172,2451.505594,2220.617826,7698.141797
986.341488,2068.457845,1776.494261,7772.162391
986.341803,1608.800546,740.205942,8290.306550
986.342119,689.485948,-0.000000,9030.512492
986.342435,-689.485948,-1184.329507,9992.780217
986.342751,-1378.971896,-2294.638420,11029.068536
986.343066,-1991.848295,-2886.803174,11399.171507
986.343382,-2298.286494,-3108.864956,11399.171507
986.343698,-2068.457845,-3256.906145,11695.253884
986.344014,-1608.800546,-2960.823768,11251.130318
986.344330,-383.047749,-2442.679609,10584.944971
986.344645,536.266849,-1332.370696,9474.636058
986.344961,1455.581446,-222.061783,8586.388927
986.345277,2298.286494,740.205942,8142.265362
986.345593,2911.162892,1628.453072,7698.141797
986.345908,3217.601092,1998.556043,7550.100608
986.346224,2911.162892,1776.494261,7254.018232
986.346540,2528.115143,1554.432478,7550.100608
986.346856,1762.019645,592.164754,8142.265362
986.347172,383.047749,-74.020594,8956.491898
986.347487,-766.095498,-1036.288319,9622.677246
986.347803,-1302.362347,-1924.535449,10584.944971
986.348119,-2145.067394,-2368.659014,10807.006753
986.348435,-2068.457845,-2738.761985,11177.109724
986.348750,-1838.629195,-2738.761985,11399.171507
986.349066,-1072.533697,-2590.720797,10658.965565
986.349382,-153.219100,-2072.576638,10362.883188
986.349698,689.485948,-518.144159,9474.636058
986.350014,1685.410096,148.041188,8882.471304
986.350329,2221.676944,1110.308913,7994.224174
986.350645,2681.334243,2072.576638,7550.100608
986.350961,2757.943793,2294.638420,7846.182985
986.351277,2451.505594,2590.720797,7846.182985
986.351592,1991.848295,2294.638420,7772.162391
986.351908,1225.752797,1406.391290,7920.203579
986.352224,383.047749,518.144159,8956.491898
986.352540,-995.924147,-444.123565,9622.677246
986.352856,-1608.800546,-1406.391290,10658.965565
986.353171,-1838.629195,-2220.617826,11621.233289
986.353487,-2145.067394,-1776.494261,11769.274478
986.353803,-2068.457845,-1924.535449,11473.192101
986.354119,-1225.752797,-1776.494261,11251.130318
986.354434,-383.047749,-1258.350101,10658.965565
986.354750,612.876398,-0.000000,9548.656652
986.355066,1685.410096,1258.350101,8956.491898
986.355382,2451.505594,2146.597232,8068.244768
986.355697,2757.943793,2738.761985,8142.265362
986.356013,2911.162892,2738.761985,7920.203579
986.356329,2451.505594,2812.782580,7920.203579
986.356645,1762.019645,2516.700203,8364.327145
986.356961,919.314598,1406.391290,8512.368333
986.357276,0.000000,222.061783,9548.656652
986.357592,-1149.143247,-0.000000,10658.965565
986.357908,-1991.848295,-1258.350101,11029.068536
986.358224,-2298.286494,-1554.432478,11695.253884
986.358539,-2221.676944,-1924.535449,11769.274478
986.358855,-2221.676944,-2146.597232,11547.212695
986.359171,-919.314598,-1554.432478,10955.047942
986.359487,-229.828649,-1184.329507,10584.944971
986.359803,842.705048,-222.061783,9548.656652
986.360118,1302.362347,814.226536,8660.409521
986.360434,2528.115143,1702.473667,8364.327145
986.360750,2911.162892,2590.720797,7846.182985
986.361066,2834.553343,2590.720797,7846.182985
986.361381,2757.943793,2738.761985,7772.162391
986.361697,2068.457845,2220.617826,7698.141797
986.362013,1378.971896,814.226536,8956.491898
986.362329,306.438199,148.041188,9400.615463
986.362645,-689.485948,-592.164754,10140.821405
986.362960,-1762.019645,-1998.556043,11251.130318
986.363276,-2068.457845,-2516.700203,11473.192101
986.363592,-2298.286494,-2960.823768,11399.171507
986.363908,-2145.067394,-2368.659014,11473.192101
986.364223,-1532.190996,-2368.659014,11177.109724
986.364539,-459.657299,-1850.514855,10510.924376
986.364855,536.266849,-814.226536,9696.697840
986.365171,1685.410096,370.102971,8882.471304
986.365487,2451.505594,962.267725,7994.224174
986.365802,3294.210641,2146.597232,7402.059420
986.366118,3524.039291,1998.556043,7476.080014
986.366434,3217.601092,1776.494261,7105.977043
986.366750,2451.505594,1406.391290,7772.162391
986.367065,1608.800546,962.267725,7994.224174
986.367381,766.095498,-296.082377,8956.491898
986.367697,0.000000,-1258.350101,9770.718434
986.368013,-1149.143247,-2220.617826,10510.924376
986.368329,-1838.629195,-2738.761985,10732.986159
986.368644,-2068.457845,-3182.885551,11399.171507
986.368960,-1915.238745,-3404.947333,11103.089130
986.369276,-995.924147,-3330.926739,10881.027347
986.369592,-153.219100,-2220.617826,10510.924376
986.369907,536.266849,-1258.350101,9400.615463
986.370223,1838.629195,-148.041188,8586.388927
986.370539,2298.286494,592.164754,7994.224174
986.370855,2757.943793,1184.329507,7624.121203
986.371170,2987.772442,1480.411884,7476.080014
986.371486,3064.381992,1554.432478,7105.977043
986.371802,2451.505594,1406.391290,7624.121203
986.372118,1915.238745,592.164754,8068.244768
986.372434,919.314598,-74.020594,8808.450710
986.372749,-306.438199,-962.267725,9696.697840
986.373065,-842.705048,-1850.514855,10732.986159
986.373381,-1532.190996,-2590.720797,11029.068536
986.373697,-1915.238745,-2812.782580,11547.212695
986.374012,-1685.410096,-3034.844362,11547.212695
986.374328,-1225.752797,-2664.741391,10955.047942
986.374644,-383.047749,-2294.638420,10732.986159
986.374960,766.095498,-666.185348,9696.697840
986.375276,1302.362347,518.144159,8808.450710
986.375591,2068.457845,888.247130,8068.244768
986.375907,2528.115143,1998.556043,7772.162391
986.376223,2757.943793,2294.638420,7772.162391
986.376539,2451.505594,2368.659014,7698.141797
986.376854,1685.410096,1924.535449,8068.244768
986.377170,1072.533697,1332.370696,8512.368333
986.377486,306.438199,222.061783,9326.594869
986.377802,-995.924147,-370.102971,9992.780217
986.378118,-1838.629195,-1332.370696,11177.109724
986.378433,-1991.848295,-1850.514855,11473.192101
986.378749,-2145.067394,-2368.659014,11473.192101
986.379065,-1762.019645,-1924.535449,11399.171507
986.379381,-1378.971896,-1702.473667,11029.068536
986.379696,-459.657299,-1184.329507,10362.883188
986.380012,306.438199,-518.144159,9696.697840
986.380328,995.924147,740.205942,9104.533087
986.380644,1608.800546,1776.494261,8512.368333
986.380960,2221.676944,2442.679609,8142.265362
986.381275,2221.676944,2442.679609,8068.244768
986.381591,2145.067394,2590.720797,8142.265362
986.381907,1302.362347,2368.659014,8290.306550
986.382223,766.095498,1332.370696,8586.388927
986.382538,76.609550,592.164754,9474.636058
986.382854,-1072.533697,222.061783,10066.800811
986.383170,-1991.848295,-1110.308913,10955.047942
986.383486,-2298.286494,-1776.494261,11473.192101
986.383801,-2298.286494,-1924.535449,11621.233289
986.384117,-1915.238745,-1924.535449,11399.171507
986.384433,-1378.971896,-1702.473667,11177.109724
986.384749,-383.047749,-1332.370696,10362.883188
986.385065,689.485948,-222.061783,9474.636058
986.385380,1838.629195,1036.288319,8956.491898
986.385696,2374.896044,1776.494261,7920.203579
986.386012,3217.601092,2368.659014,7920.203579
986.386328,2834.553343,2368.659014,7624.121203
986.386643,2604.724693,2294.638420,7698.141797
986.386959,2451.505594,1850.514855,7772.162391
986.387275,1455.581446,1258.350101,8216.285956
986.387591,459.657299,296.082377,9104.533087
986.387907,-383.047749,-666.185348,9696.697840
986.388222,-1455.581446,-1628.453072,10732.986159
986.388538,-1762.019645,-2072.576638,11325.150913
986.388854,-1762.019645,-2886.803174,11399.171507
986.389170,-1762.019645,-2442.679609,11399.171507
986.389485,-1149.143247,-2220.617826,11103.089130
986.389801,0.000000,-1924.535449,10362.883188
986.390117,919.314598,-962.267725,9696.697840
986.390433,1378.971896,-0.000000,8808.450710
986.390749,2374.896044,666.185348,8142.265362
986.391064,2834.553343,1702.473667,7550.100608
986.391380,2834.553343,2146.597232,7624.121203
986.391696,2834.553343,2146.597232,7550.100608
986.392012,2221.676944,1184.329507,7698.141797
986.392327,1532.190996,888.247130,8364.327145
986.392643,459.657299,-0.000000,8882.471304
986.392959,-229.828649,-1258.350101,9918.759623
986.393275,-1225.752797,-1998.556043,10881.027347
986.393591,-1991.848295,-2738.761985,11103.089130
986.393906,-1838.629195,-2664.741391,11547.212695
986.394222,-1685.410096,-3256.906145,11325.150913
986.394538,-1072.533697,-2738.761985,11029.068536
986.394854,0.000000,-2072.576638,10362.883188
986.395169,1149.143247,-1184.329507,9844.739029
986.395485,1991.848295,-148.041188,8734.430116
986.395801,2374.896044,888.247130,8142.265362
986.396117,2911.162892,1406.391290,7772.162391
986.396433,2834.553343,1776.494261,7550.100608
986.396748,2681.334243,1480.411884,7994.224174
986.397064,2068.457845,814.226536,7994.224174
986.397380,1378.971896,518.144159,8512.368333
986.397696,612.876398,-74.020594,9104.533087
986.398011,-306.438199,-1184.329507,9918.759623
986.398327,-919.314598,-1998.556043,10584.944971
986.398643,-1608.800546,-2516.700203,11251.130318
986.398959,-1838.629195,-2590.720797,11473.192101
986.399274,-1608.800546,-2738.761985,11399.171507
986.399590,-1302.362347,-2590.720797,11251.130318
986.399906,-306.438199,-2146.597232,10362.883188
986.400222,689.485948,-962.267725,9326.594869
986.400538,1302.362347,-0.000000,8808.450710
986.400853,1991.848295,814.226536,7994.224174
986.401169,2298.286494,1332.370696,7846.182985
986.401485,2298.286494,1850.514855,7772.162391
986.401801,1915.238745,1998.556043,7846.182985
986.402117,1532.190996,1480.411884,7994.224174
986.402432,1072.533697,962.267725,8290.306550
986.402748,0.000000,296.082377,9252.574275
986.403064,-1072.533697,-666.185348,9844.739029
986.403380,-1685.410096,-1924.535449,10584.944971
986.403696,-1915.238745,-1702.473667,11177.109724
986.404012,-2374.896044,-2146.597232,11399.171507
986.404327,-1915.238745,-2368.659014,11621.233289
986.404643,-1455.581446,-1776.494261,11251.130318
986.404959,-383.047749,-1332.370696,10510.924376
986.405275,612.876398,-296.082377,9548.656652
986.405591,1915.238745,1184.329507,8808.450710
986.405906,2374.896044,1924.535449,8068.244768
986.406222,3064.381992,2442.679609,7624.121203
986.406538,2911.162892,2590.720797,7624.121203
986.406854,2451.505594,2738.761985,7920.203579
986.407170,2145.067394,2368.659014,7994.224174
986.407486,1378.971896,1702.473667,8364.327145
986.407801,383.047749,740.205942,9178.553681
986.408117,-919.314598,-148.041188,10140.821405
986.408433,-1608.800546,-888.247130,10732.986159
986.408749,-1608.800546,-1702.473667,11103.089130
986.409065,-1991.848295,-2220.617826,11251.130318
986.409380,-1838.629195,-2368.659014,11621.233289
986.409696,-1378.971896,-1702.473667,11103.089130
986.410012,-383.047749,-1184.329507,10584.944971
986.410328,995.924147,-148.041188,10214.842000
986.410644,1532.190996,666.185348,8734.430116
986.410960,2298.286494,1628.453072,8142.265362
986.411275,2911.162892,2516.700203,7772.162391
986.411591,2987.772442,2664.741391,7772.162391
986.411907,3064.381992,2738.761985,8142.265362
986.412223,2451.505594,2516.700203,7994.224174
986.412539,1762.019645,1776.494261,7994.224174
986.412854,536.266849,592.164754,9252.574275
986.413170,-459.657299,-222.061783,9992.780217
986.413486,-1149.143247,-1480.411884,11177.109724
986.413802,-1762.019645,-1998.556043,11547.212695
986.414118,-1991.848295,-2368.659014,11621.233289
986.414434,-1838.629195,-2516.700203,11769.274478
986.414749,-1378.971896,-2442.679609,11621.233289
986.415065,-383.047749,-2146.597232,10807.006753
986.415381,842.705048,-1110.308913,10140.821405
986.415697,1838.629195,-0.000000,9252.574275
986.416013,2145.067394,962.267725,8364.327145
986.416328,3064.381992,1924.535449,7624.121203
986.416644,3140.991542,2146.597232,7328.038826
986.416960,2987.772442,2146.597232,7402.059420
986.417276,2451.505594,1850.514855,7772.162391
986.417592,1762.019645,814.226536,8068.244768
986.417908,842.705048,-296.082377,8808.450710
986.418223,-459.657299,-1184.329507,9992.780217
986.418539,-1149.143247,-1924.535449,10658.965565
986.418855,-2145.067394,-2516.700203,11473.192101
986.419171,-2298.286494,-2960.823768,11621.233289
986.419487,-2068.457845,-2812.782580,11473.192101
986.419802,-1455.581446,-2664.741391,11029.068536
986.420118,-536.266849,-2368.659014,10436.903782
986.420434,383.047749,-1406.391290,9622.677246
986.420750,1149.143247,-148.041188,8882.471304
986.421066,2068.457845,592.164754,7994.224174
986.421382,2451.505594,1258.350101,7698.141797
986.421697,2757.943793,1628.453072,7328.038826
986.422013,2451.505594,1258.350101,7550.100608
986.422329,2221.676944,1406.391290,7550.100608
986.422645,1608.800546,814.226536,7994.224174
986.422961,536.266849,148.041188,8808.450710
986.423276,-383.047749,-1110.308913,9474.636058
986.423592,-1072.533697,-2072.576638,10066.800811
986.423908,-1762.019645,-2442.679609,10732.986159
986.424224,-1991.848295,-2886.803174,11251.130318
986.424540,-2068.457845,-3182.885551,11177.109724
986.424856,-1225.752797,-2886.803174,10955.047942
986.425171,-536.266849,-2368.659014,10510.924376
986.425487,995.924147,-1110.308913,10066.800811
986.425803,1608.800546,-222.061783,8660.409521
986.426119,2298.286494,888.247130,7994.224174
986.426435,2451.505594,1776.494261,7846.182985
986.426750,2757.943793,2072.576638,7476.080014
986.427066,2834.553343,2294.638420,7624.121203
986.427382,2221.676944,2072.576638,7772.162391
986.427698,1302.362347,1332.370696,7920.203579
986.428014,383.047749,518.144159,8734.430116
986.428330,-153.219100,-444.123565,9844.739029
986.428645,-995.924147,-1480.411884,10881.027347
986.428961,-2145.067394,-1776.494261,11399.171507
986.429277,-2298.286494,-2146.597232,11473.192101
986.429593,-2145.067394,-2294.638420,11843.295072
986.429909,-1532.190996,-2220.617826,11547.212695
986.430225,-995.924147,-1406.391290,10436.903782
986.430540,459.657299,-444.123565,9844.739029
986.430856,1302.362347,814.226536,9178.553681
986.431172,1915.238745,1702.473667,8290.306550
986.431488,2451.505594,2368.659014,7994.224174
986.431804,2604.724693,2738.761985,7846.182985
986.432119,2221.676944,2960.823768,7920.203579
986.432435,1838.629195,2738.761985,8068.244768
986.432751,1149.143247,1924.535449,8142.265362
986.433067,306.438199,888.247130,9178.553681
986.433383,-689.485948,-0.000000,10214.842000
986.433699,-1762.019645,-1110.308913,11029.068536
986.434014,-2068.457845,-1776.494261,11621.233289
986.434330,-2604.724693,-1776.494261,11843.295072
986.434646,-1378.971896,-1850.514855,12139.377449
986.434962,-1455.581446,-1924.535449,11325.150913
986.435278,-459.657299,-1628.453072,11029.068536
986.435593,689.485948,-592.164754,9844.739029
986.435909,1685.410096,666.185348,9252.574275
986.436225,2221.676944,1776.494261,8512.368333
986.436541,2681.334243,2368.659014,8068.244768
986.436857,3140.991542,2812.782580,7920.203579
986.437173,2757.943793,2590.720797,7772.162391
986.437488,2145.067394,2072.576638,7772.162391
986.437804,1302.362347,1628.453072,8438.347739
986.438120,536.266849,518.144159,9104.533087
986.438436,-383.047749,-740.205942,9992.780217
986.438752,-1302.362347,-1554.432478,10955.047942
986.439067,-1838.629195,-1998.556043,11399.171507
986.439383,-2221.676944,-2812.782580,11695.253884
986.439699,-2068.457845,-2886.803174,11399.171507
986.440015,-1302.362347,-2664.741391,11103.089130
986.440331,-459.657299,-2146.597232,10362.883188
986.440647,306.438199,-1406.391290,9548.656652
986.440962,1532.190996,-0.000000,8956.491898
986.441278,2221.676944,962.267725,7846.182985
986.441594,2604.724693,1776.494261,7328.038826
986.441910,2681.334243,2146.597232,7328.038826
986.442226,2528.115143,2072.576638,7402.059420
986.442541,1991.848295,1628.453072,7328.038826
986.442857,1225.752797,1036.288319,7920.203579
986.443173,383.047749,-0.000000,8882.471304
986.443489,-612.876398,-888.247130,9844.739029
986.443805,-1455.581446,-2220.617826,10584.944971
986.444121,-1838.629195,-2738.761985,11251.130318
986.444436,-2068.457845,-3108.864956,11473.192101
986.444752,-2145.067394,-3108.864956,11399.171507
986.445068,-766.095498,-3108.864956,11103.089130
986.445384,-383.047749,-2368.659014,10510.924376
986.445700,995.924147,-1406.391290,9474.636058
986.446015,1838.629195,-222.061783,8364.327145
986.446331,2681.334243,814.226536,7624.121203
986.446647,3217.601092,1480.411884,7550.100608
986.446963,3294.210641,1554.432478,7328.038826
986.447279,3217.601092,1850.514855,7476.080014
986.447595,2451.505594,1184.329507,7476.080014
986.447910,1685.410096,592.164754,8142.265362
986.448226,612.876398,-222.061783,9326.594869
986.448542,-536.266849,-1110.308913,10140.821405
986.448858,-1378.971896,-2072.576638,11029.068536
986.449174,-1915.238745,-2442.679609,11547.212695
986.449489,-2221.676944,-2368.659014,12139.377449
986.449805,-2068.457845,-2886.803174,11695.253884
986.450121,-1302.362347,-2516.700203,11251.130318
986.450437,0.000000,-2220.617826,10658.965565
986.450753,995.924147,-888.247130,9844.739029
986.451069,2068.457845,666.185348,8882.471304
986.451384,2451.505594,1110.308913,7920.203579
986.451700,3064.381992,2146.597232,7624.121203
986.452016,3064.381992,2516.700203,7328.038826
986.452332,2528.115143,2294.638420,7624.121203
986.452648,2145.067394,1850.514855,7772.162391
986.452964,1225.752797,1258.350101,8290.306550
986.453279,306.438199,518.144159,9252.574275
986.453595,-1532.190996,-518.144159,10214.842000
986.453911,-1838.629195,-1406.391290,11177.109724
986.454227,-2451.505594,-2220.617826,11843.295072
986.454543,-2604.724693,-2516.700203,11991.336260
986.454858,-2451.505594,-2368.659014,11843.295072
986.455174,-1685.410096,-1850.514855,11325.150913
986.455490,-536.266849,-1702.473667,10510.924376
986.455806,459.657299,-0.000000,9770.718434
986.456122,1378.971896,888.247130,8438.347739
986.456438,2298.286494,2072.576638,7846.182985
986.456753,3217.601092,2738.761985,7624.121203
986.457069,3217.601092,3330.926739,7846.182985
986.457385,2987.772442,3182.885551,7402.059420
986.457701,1991.848295,2664.741391,7624.121203
986.458017,1608.800546,1702.473667,8290.306550
986.458332,306.438199,740.205942,9474.636058
986.458648,-766.095498,-370.102971,10214.842000
986.458964,-1762.019645,-1036.288319,11103.089130
986.459280,-1991.848295,-1554.432478,11473.192101
986.459596,-2145.067394,-1850.514855,11547.212695
986.459912,-1915.238745,-1998.556043,11325.150913
986.460227,-1455.581446,-1776.494261,11103.089130
986.460543,-306.438199,-1110.308913,10584.944971
986.460859,536.266849,-592.164754,9696.697840
986.461175,1378.971896,370.102971,8734.430116
986.461491,1762.019645,888.247130,8068.244768
986.461806,2451.505594,1850.514855,7920.203579
986.462122,2528.115143,2368.659014,7698.141797
986.462438,2221.676944,2368.659014,7698.141797
986.462754,1991.848295,2220.617826,7920.203579
986.463070,1225.752797,1258.350101,8364.327145
986.463386,306.438199,666.185348,9178.553681
986.463701,-612.876398,-370.102971,9622.677246
986.464017,-1302.362347,-1258.350101,10584.944971
986.464333,-1838.629195,-1776.494261,11399.171507
986.464649,-1915.238745,-2368.659014,11325.150913
986.464965,-1762.019645,-2368.659014,11325.150913
986.465280,-1225.752797,-2072.576638,11029.068536
986.465596,0.000000,-1776.494261,10584.944971
986.465912,689.485948,-666.185348,9696.697840
986.466228,2298.286494,-0.000000,8808.450710
986.466544,1991.848295,1480.411884,8364.327145
986.466860,2757.943793,1998.556043,7920.203579
986.467175,2911.162892,1924.535449,7624.121203
986.467491,2757.943793,2072.576638,7550.100608
986.467807,2604.724693,1628.453072,7624.121203
986.468123,1378.971896,518.144159,8290.306550
986.468439,459.657299,-74.020594,9474.636058
986.468754,-229.828649,-1036.288319,10140.821405
986.469070,-1225.752797,-2072.576638,10807.006753
986.469386,-1455.581446,-2442.679609,11399.171507
986.469702,-1685.410096,-2664.741391,11621.233289
986.470018,-1685.410096,-2664.741391,11325.150913
986.470334,-689.485948,-2664.741391,10955.047942
986.470649,306.438199,-2294.638420,10584.944971
986.470965,1532.190996,-1406.391290,9696.697840
986.471281,1915.238745,-74.020594,8734.430116
986.471597,2451.505594,444.123565,7994.224174
986.471913,2681.334243,1184.329507,7920.203579
986.472228,2834.553343,1628.453072,7550.100608
986.472544,1915.238745,2072.576638,7624.121203
986.472860,1378.971896,1480.411884,7920.203579
986.473176,995.924147,518.144159,8364.327145
986.473492,383.047749,-74.020594,9474.636058
986.473808,-842.705048,-1406.391290,10066.800811
986.474123,-1685.410096,-2294.638420,10881.027347
986.474439,-1762.019645,-2886.803174,11473.192101
986.474755,-1991.848295,-3034.844362,11621.233289
986.475071,-1762.019645,-2886.803174,11325.150913
986.475387,-1072.533697,-2664.741391,11251.130318
986.475703,-383.047749,-1998.556043,10362.883188
986.476018,536.266849,-814.226536,9252.574275
986.476334,1608.800546,518.144159,8290.306550
986.476650,1915.238745,1480.411884,7624.121203
986.476966,2604.724693,1776.494261,7550.100608
986.477282,2757.943793,1924.535449,7550.100608
986.477597,2528.115143,1924.535449,7698.141797
986.477913,1915.238745,1554.432478,7772.162391
986.478229,1072.533697,592.164754,8734.430116
986.478545,0.000000,-444.123565,8882.471304
986.478861,-1072.533697,-814.226536,9992.780217
986.479177,-1915.238745,-1554.432478,10510.924376
986.479492,-2221.676944,-1998.556043,11399.171507
986.479808,-2298.286494,-2294.638420,11251.130318
986.480124,-2298.286494,-2294.638420,11103.089130
986.480440,-1302.362347,-2146.597232,10732.986159
986.480756,-459.657299,-1406.391290,10362.883188
986.481071,536.266849,-592.164754,9474.636058
986.481387,1685.410096,740.205942,8734.430116
986.481703,1991.848295,1776.494261,8142.265362
986.482019,2451.505594,2294.638420,7698.141797
986.482335,2528.115143,2812.782580,7550.100608
986.482651,2298.286494,2886.803174,7328.038826
986.482966,1991.848295,2294.638420,7994.224174
986.483282,1149.143247,1628.453072,8364.327145
986.483598,0.000000,888.247130,9104.533087
986.483914,-842.705048,-148.041188,10362.883188
986.484230,-1991.848295,-1554.432478,11103.089130
986.484545,-1991.848295,-1480.411884,11695.253884
986.484861,-1991.848295,-1924.535449,11547.212695
986.485177,-1685.410096,-2072.576638,11473.192101
986.485493,-1225.752797,-1554.432478,11103.089130
986.485809,0.000000,-1110.308913,10288.862594
986.486125,689.485948,148.041188,9548.656652
986.486440,1838.629195,1036.288319,8808.450710
986.486756,2374.896044,1628.453072,8142.265362
986.487072,2834.553343,2146.597232,7846.182985
986.487388,2911.162892,2072.576638,7698.141797
986.487704,2757.943793,2220.617826,7994.224174
986.488019,1991.848295,1998.556043,7994.224174
986.488335,1225.752797,1184.329507,8734.430116
986.488651,459.657299,-0.000000,9622.677246
986.488967,-612.876398,-296.082377,10288.862594
986.489283,-1378.971896,-1480.411884,11473.192101
986.489599,-1838.629195,-1776.494261,11621.233289
986.489914,-2068.457845,-2294.638420,11473.192101
986.490230,-1685.410096,-2590.720797,11621.233289
986.490546,-766.095498,-2368.659014,11251.130318
986.490862,-153.219100,-1776.494261,10807.006753
986.491178,689.485948,-740.205942,9918.759623
986.491493,1532.190996,-0.000000,8882.471304
986.491809,2604.724693,962.267725,8512.368333
986.492125,2298.286494,1628.453072,8068.244768
986.492441,2834.553343,2072.576638,7846.182985
986.492757,2911.162892,1998.556043,7698.141797
986.493073,2298.286494,1776.494261,7698.141797
986.493388,1685.410096,814.226536,8142.265362
986.493704,689.485948,-222.061783,9030.512492
986.494020,-459.657299,-1258.350101,9918.759623
986.494336,-1149.143247,-2220.617826,10584.944971
986.494652,-1685.410096,-2590.720797,10955.047942
986.494967,-1991.848295,-3256.906145,11251.130318
986.495283,-1685.410096,-2738.761985,11251.130318
986.495599,-1149.143247,-2812.782580,10807.006753
986.495915,0.000000,-2146.597232,10288.862594
986.496231,612.876398,-1258.350101,9252.574275
986.496547,1762.019645,-222.061783,8586.388927
986.496862,2221.676944,518.144159,8068.244768
986.497178,2911.162892,1110.308913,7698.141797
986.497494,2834.553343,1480.411884,7476.080014
986.497810,2451.505594,1110.308913,7624.121203
986.498126,1991.848295,1184.329507,7624.121203
986.498441,1455.581446,518.144159,8142.265362
986.498757,612.876398,-370.102971,8808.450710
986.499073,-306.438199,-1184.329507,9918.759623
986.499389,-1225.752797,-2368.659014,10732.986159
986.499705,-1838.629195,-2368.659014,10881.027347
986.500021,-1685.410096,-2738.761985,11177.109724
986.500336,-1532.190996,-2960.823768,11177.109724
986.500652,-995.924147,-2738.761985,10510.924376
986.500968,-76.609550,-1702.473667,10658.965565
986.501284,612.876398,-1036.288319,9696.697840
986.501600,1532.190996,-0.000000,8512.368333
986.501916,1838.629195,1110.308913,8142.265362
986.502231,2528.115143,1702.473667,7846.182985
986.502547,2681.334243,1702.473667,7920.203579
986.502863,2221.676944,1998.556043,7550.100608
986.503178,1455.581446,1702.473667,7920.203579
986.503494,1072.533697,888.247130,8438.347739
986.503810,459.657299,222.061783,9252.574275
986.504126,-766.095498,-518.144159,10066.800811
986.504441,-1762.019645,-1850.514855,11029.068536
986.504757,-1991.848295,-1924.535449,11473.192101
986.505073,-2451.505594,-1924.535449,11399.171507
986.505388,-1608.800546,-1924.535449,11473.192101
986.505704,-1225.752797,-2072.576638,10955.047942
986.506020,0.000000,-1184.329507,10436.903782
986.506336,842.705048,-74.020594,9400.615463
986.506651,1608.800546,666.185348,8660.409521
986.506967,2298.286494,1776.494261,8438.347739
986.507283,2451.505594,2220.617826,7624.121203
986.507598,2528.115143,2516.700203,7920.203579
986.507914,2374.896044,2812.782580,7994.224174
986.508230,1608.800546,2368.659014,8142.265362
986.508546,1302.362347,1406.391290,8882.471304
986.508861,0.000000,518.144159,9548.656652
986.509177,-842.705048,-222.061783,10510.924376
986.509493,-1685.410096,-1036.288319,11103.089130
986.509808,-1915.238745,-1036.288319,11473.192101
986.510124,-1532.190996,-1702.473667,11769.274478
986.510440,-1378.971896,-1628.453072,11251.130318
986.510756,-766.095498,-1036.288319,10807.006753
986.511071,76.609550,-814.226536,10510.924376
986.511387,842.705048,-0.000000,9770.718434
986.511703,1762.019645,1110.308913,8882.471304
986.512018,2068.457845,1628.453072,8142.265362
986.512334,2528.115143,2294.638420,7994.224174
986.512650,2451.505594,2368.659014,8068.244768
986.512966,2451.505594,2294.638420,7920.203579
986.513281,1685.410096,2220.617826,8290.306550
986.513597,1378.971896,1110.308913,8734.430116
986.513913,229.828649,444.123565,9326.594869
986.514228,-536.266849,-592.164754,9992.780217
986.514544,-1378.971896,-1628.453072,10955.047942
986.514860,-1685.410096,-1998.556043,11177.109724
986.515176,-1762.019645,-2368.659014,11325.150913
986.515491,-1762.019645,-2072.576638,11399.171507
986.515807,-1072.533697,-2072.576638,10881.027347
986.516123,0.000000,-2072.576638,10288.862594
986.516438,995.924147,-740.205942,9474.636058
986.516754,1915.238745,-222.061783,8808.450710
986.517070,2451.505594,962.267725,8216.285956
986.517386,2911.162892,1702.473667,7624.121203
986.517701,3064.381992,1776.494261,7254.018232
986.518017,2451.505594,1850.514855,7624.121203
986.518333,1915.238745,1850.514855,7920.203579
986.518648,1225.752797,666.185348,8142.265362
986.518964,229.828649,-148.041188,8956.491898
986.519280,0.000000,-1258.350101,10066.800811
986.519596,-1149.143247,-2220.617826,10881.027347
986.519911,-1455.581446,-2664.741391,11029.068536
986.520227,-2221.676944,-2664.741391,11103.089130
986.520543,-1915.238745,-2738.761985,11177.109724
986.520858,-1378.971896,-2812.782580,10658.965565
986.521174,-459.657299,-2146.597232,10288.862594
986.521490,229.828649,-1258.350101,9622.677246
986.521806,1149.143247,-222.061783,8734.430116
986.522121,2068.457845,444.123565,8290.306550
986.522437,2298.286494,1110.308913,8068.244768
986.522753,2451.505594,1406.391290,7624.121203
986.523068,2221.676944,1554.432478,7402.059420
986.523384,2068.457845,1036.288319,7772.162391
986.523700,1455.581446,518.144159,8216.285956
986.524016,459.657299,148.041188,8882.471304
986.524331,-689.485948,-814.226536,9770.718434
986.524647,-1072.533697,-1924.535449,10584.944971
986.524963,-1302.362347,-2368.659014,11399.171507
986.525278,-1838.629195,-2590.720797,11251.130318
986.525594,-1608.800546,-2664.741391,11177.109724
986.525910,-1149.143247,-2516.700203,10955.047942
986.526226,-153.219100,-2220.617826,10584.944971
986.526541,919.314598,-1184.329507,9696.697840
986.526857,1225.752797,-222.061783,8734.430116
986.527173,1991.848295,592.164754,8438.347739
986.527488,2451.505594,1258.350101,8068.244768
986.527804,2528.115143,1628.453072,7772.162391
986.528120,2068.457845,1998.556043,7550.100608
986.528436,1991.848295,1776.494261,7920.203579
986.528751,1302.362347,1332.370696,8142.265362
986.529067,459.657299,666.185348,8734.430116
986.529383,-229.828649,-518.144159,9548.656652
986.529698,-1378.971896,-1110.308913,10436.903782
986.530014,-1838.629195,-1850.514855,11177.109724
986.530330,-1838.629195,-1850.514855,11547.212695
986.530646,-1532.190996,-2146.597232,11399.171507
986.530961,-995.924147,-2072.576638,11177.109724
986.531277,-689.485948,-1110.308913,10955.047942
986.531593,229.828649,-592.164754,9992.780217
986.531908,1149.143247,592.164754,8882.471304
986.532224,1762.019645,1628.453072,8512.368333
986.532540,2145.067394,1998.556043,8142.265362
986.532856,2681.334243,2516.700203,7994.224174
986.533171,2068.457845,2590.720797,7846.182985
986.533487,1455.581446,2368.659014,8068.244768
986.533803,995.924147,1258.350101,8364.327145
986.534118,0.000000,592.164754,9400.615463
986.534434,-383.047749,-370.102971,10140.821405
986.534750,-1072.533697,-1554.432478,10881.027347
986.535066,-1991.848295,-1480.411884,11399.171507
986.535381,-1762.019645,-1628.453072,11399.171507
986.535697,-1225.752797,-1776.494261,11695.253884
986.536013,-919.314598,-1628.453072,11029.068536
986.536328,0.000000,-962.267725,10510.924376
986.536644,1072.533697,-148.041188,9400.615463
986.536960,1685.410096,740.205942,8512.368333
986.537276,1685.410096,1406.391290,8660.409521
986.537591,2451.505594,2146.597232,8142.265362
986.537907,2604.724693,2220.617826,7772.162391
986.538223,2068.457845,2220.617826,7994.224174
986.538538,1608.800546,1998.556043,8068.244768
986.538854,766.095498,1110.308913,8956.491898
986.539170,0.000000,444.123565,9474.636058
986.539486,-689.485948,-370.102971,9992.780217
986.539801,-1378.971896,-1332.370696,11029.068536
986.540117,-1838.629195,-1702.473667,11473.192101
986.540433,-1838.629195,-2368.659014,11177.109724
986.540748,-1149.143247,-2368.659014,11251.130318
986.541064,-536.266849,-2368.659014,10881.027347
986.541380,0.000000,-1776.494261,10214.842000
986.541696,1225.752797,-1110.308913,9252.574275
986.542011,1915.238745,-222.061783,8734.430116
986.542327,2451.505594,1036.288319,7920.203579
986.542643,2834.553343,1702.473667,7920.203579
986.542958,2987.772442,2072.576638,7402.059420
986.543274,2911.162892,2294.638420,7624.121203
986.543590,1915.238745,1850.514855,7772.162391
986.543906,1072.533697,814.226536,8512.368333
986.544221,153.219100,-0.000000,9030.512492
986.544537,-919.314598,-1406.391290,10140.821405
986.544853,-1762.019645,-2368.659014,11251.130318
986.545168,-2145.067394,-2886.803174,11695.253884
986.545484,-2221.676944,-3108.864956,11547.212695
986.545800,-1838.629195,-3182.885551,11621.233289
986.546116,-995.924147,-2960.823768,11103.089130
986.546431,-536.266849,-2442.679609,10584.944971
986.546747,1225.752797,-1258.350101,9252.574275
986.547063,2221.676944,-222.061783,8512.368333
986.547378,2757.943793,814.226536,7698.141797
986.547694,3600.648841,1702.473667,7624.121203
986.548010,3907.087040,1924.535449,7179.997637
986.548326,3217.601092,1998.556043,7402.059420
986.548641,2528.115143,1628.453072,7624.121203
986.548957,1838.629195,814.226536,8216.285956
986.549273,612.876398,-296.082377,8956.491898
986.549588,-612.876398,-1184.329507,9992.780217
986.549904,-1225.752797,-2294.638420,11029.068536
986.550220,-1685.410096,-2368.659014,11547.212695
986.550536,-2068.457845,-2960.823768,11473.192101
986.550851,-1838.629195,-2590.720797,11547.212695
986.551167,-1149.143247,-2960.823768,11177.109724
986.551483,-383.047749,-2220.617826,10436.903782
986.551798,459.657299,-1036.288319,9770.718434
986.552114,1302.362347,-296.082377,8808.450710
986.552430,1532.190996,740.205942,8586.388927
986.552746,2451.505594,1776.494261,7698.141797
986.553061,2834.553343,2072.576638,7550.100608
986.553377,2528.115143,2294.638420,7402.059420
986.553693,2068.457845,1998.556043,7476.080014
986.554008,1608.800546,1406.391290,8068.244768
986.554324,153.219100,518.144159,8882.471304
986.554640,-536.266849,-444.123565,10066.800811
986.554956,-1532.190996,-1184.329507,10955.047942
986.555271,-2145.067394,-1628.453072,11399.171507
986.555587,-2374.896044,-2294.638420,11621.233289
986.555903,-2145.067394,-2368.659014,11473.192101
986.556218,-1302.362347,-2072.576638,11029.068536
986.556534,-153.219100,-1332.370696,10732.986159
986.556850,995.924147,-740.205942,10214.842000
986.557166,1378.971896,888.247130,8882.471304
986.557481,1838.629195,1702.473667,7994.224174
986.557797,2451.505594,2368.659014,7994.224174
986.558113,2374.896044,2516.700203,7846.182985
986.558428,1915.238745,2738.761985,7624.121203
986.558744,1685.410096,2368.659014,7994.224174
986.559060,995.924147,1480.411884,8364.327145
986.559376,76.609550,592.164754,9030.512492
986.559691,-689.485948,-518.144159,10288.862594
986.560007,-1225.752797,-1184.329507,10955.047942
986.560323,-1915.238745,-1406.391290,11399.171507
986.560638,-1838.629195,-1628.453072,10955.047942
986.560954,-1685.410096,-1850.514855,11029.068536
986.561270,-919.314598,-1924.535449,11029.068536
986.561586,0.000000,-1110.308913,10140.821405
986.561901,995.924147,-370.102971,9252.574275
986.562217,1608.800546,666.185348,8734.430116
986.562533,2145.067394,1554.432478,8290.306550
986.562848,2451.505594,2220.617826,8216.285956
986.563164,2681.334243,2664.741391,7624.121203
986.563480,1991.848295,2442.679609,7846.182985
986.563796,1378.971896,2368.659014,8068.244768
986.564111,995.924147,1850.514855,8438.347739
986.564427,229.828649,592.164754,9696.697840
986.564743,-842.705048,-222.061783,9992.780217
986.565058,-1072.533697,-1184.329507,10881.027347
986.565374,-1608.800546,-1702.473667,11547.212695
986.565690,-1991.848295,-2146.597232,11621.233289
986.566006,-1685.410096,-2294.638420,11547.212695
986.566321,-995.924147,-1850.514855,11029.068536
986.566637,0.000000,-1702.473667,10510.924376
986.566953,995.924147,-814.226536,9622.677246
986.567268,1685.410096,296.082377,8808.450710
986.567584,1762.019645,1110.308913,8216.285956
986.567900,2604.724693,1776.494261,7920.203579
986.568216,2911.162892,2220.617826,7550.100608
986.568531,2451.505594,2146.597232,7920.203579
986.568847,2068.457845,1554.432478,8068.244768
986.569163,1302.362347,814.226536,8734.430116
986.569478,536.266849,-0.000000,9474.636058
986.569794,-689.485948,-592.164754,10140.821405
986.570110,-1302.362347,-1480.411884,10881.027347
986.570426,-1225.752797,-2294.638420,11325.150913
986.570741,-1915.238745,-2368.659014,11399.171507
986.571057,-1225.752797,-2590.720797,11103.089130
986.571373,-766.095498,-2738.761985,11177.109724
986.571688,0.000000,-1924.535449,10807.006753
986.572004,383.047749,-1924.535449,9770.718434
986.572320,1302.362347,-592.164754,9104.533087
986.572636,1838.629195,296.082377,8216.285956
986.572951,2298.286494,1258.350101,8068.244768
986.573267,2757.943793,1554.432478,7846.182985
986.573583,2374.896044,1998.556043,7698.141797
986.573898,2068.457845,1406.391290,7550.100608
986.574214,1302.362347,518.144159,8142.265362
986.574530,153.219100,-74.020594,8808.450710
986.574846,-536.266849,-1110.308913,9844.739029
986.575161,-842.705048,-1924.535449,10807.006753
986.575477,-1532.190996,-2516.700203,11177.109724
986.575793,-1762.019645,-3034.844362,11103.089130
986.576108,-1762.019645,-2812.782580,11251.130318
986.576424,-1225.752797,-2664.741391,10732.986159
986.576740,0.000000,-2664.741391,10140.821405
986.577056,919.314598,-1258.350101,9252.574275
986.577371,1302.362347,-148.041188,8660.409521
986.577687,2145.067394,740.205942,8142.265362
986.578003,2451.505594,1332.370696,7624.121203
986.578318,2528.115143,1776.494261,7476.080014
986.578634,2374.896044,1776.494261,7402.059420
986.578950,1838.629195,1628.453072,7698.141797
986.579266,1225.752797,666.185348,8142.265362
986.579581,459.657299,-74.020594,8808.450710
986.579897,-919.314598,-888.247130,9622.677246
986.580213,-1225.752797,-1406.391290,10807.006753
986.580528,-1762.019645,-2294.638420,11029.068536
986.580844,-2145.067394,-2368.659014,11325.150913
986.581160,-1838.629195,-2516.700203,11251.130318
986.581476,-1149.143247,-2220.617826,11177.109724
986.581791,-459.657299,-1776.494261,10510.924376
986.582107,153.219100,-666.185348,9548.656652
986.582423,995.924147,222.061783,8734.430116
986.582738,1915.238745,1332.370696,8290.306550
986.583054,2068.457845,1924.535449,7698.141797
986.583370,2221.676944,2590.720797,7772.162391
986.583686,1838.629195,2664.741391,7846.182985
986.584001,1608.800546,2294.638420,7994.224174
986.584317,1149.143247,1406.391290,8290.306550
986.584633,0.000000,518.144159,9252.574275
986.584948,-612.876398,-222.061783,10214.842000
986.585264,-1225.752797,-1110.308913,10881.027347
986.585580,-1532.190996,-1480.411884,11399.171507
986.585896,-1915.238745,-2220.617826,11695.253884
986.586211,-1608.800546,-1776.494261,11399.171507
986.586527,-766.095498,-1332.370696,11177.109724
986.586843,-153.219100,-1036.288319,10807.006753
986.587158,689.485948,-0.000000,9918.759623
986.587474,1225.752797,814.226536,9104.533087
986.587790,1685.410096,1480.411884,8290.306550
986.588106,2298.286494,2072.576638,8216.285956
986.588421,2451.505594,2516.700203,8142.265362
986.588737,2374.896044,2516.700203,8438.347739
986.589053,1378.971896,2368.659014,8142.265362
986.589368,1072.533697,1406.391290,8808.450710
986.589684,76.609550,370.102971,9474.636058
986.590000,-536.266849,-296.082377,10214.842000
986.590316,-1455.581446,-1480.411884,11251.130318
986.590631,-1378.971896,-1332.370696,11473.192101
986.590947,-1608.800546,-1998.556043,11473.192101
986.591263,-1225.752797,-2220.617826,11325.150913
986.591578,-536.266849,-1924.535449,11103.089130
986.591894,306.438199,-1554.432478,10362.883188
986.592210,842.705048,-666.185348,9696.697840
986.592526,1608.800546,296.082377,8882.471304
986.592841,2068.457845,962.267725,8290.306550
986.593157,2451.505594,1776.494261,8216.285956
986.593473,1991.848295,1924.535449,8068.244768
986.593788,1991.848295,1776.494261,7624.121203
986.594104,1685.410096,1406.391290,7920.203579
986.594420,1149.143247,222.061783,8438.347739
986.594736,383.047749,-740.205942,8808.450710
986.595051,-689.485948,-1110.308913,10140.821405
986.595367,-1072.533697,-1998.556043,10807.006753
986.595683,-1378.971896,-2516.700203,10807.006753
986.595998,-1608.800546,-2738.761985,11029.068536
986.596314,-1455.581446,-2812.782580,11251.130318
986.596630,-689.485948,-2368.659014,10732.986159
986.596946,76.609550,-1998.556043,10066.800811
986.597261,1149.143247,-1332.370696,9178.553681
986.597577,1991.848295,-296.082377,8364.327145
986.597893,2604.724693,740.205942,7994.224174
986.598208,2911.162892,1258.350101,7550.100608
986.598524,2604.724693,1332.370696,7476.080014
986.598840,2451.505594,1480.411884,7402.059420
986.599156,2145.067394,1480.411884,7846.182985
986.599471,1378.971896,222.061783,8364.327145
986.599787,229.828649,-444.123565,9104.533087
986.600103,-536.266849,-1406.391290,9844.739029
986.600418,-1225.752797,-2368.659014,10732.986159
986.600734,-1302.362347,-2590.720797,11325.150913
986.601050,-1685.410096,-2960.823768,11177.109724
986.601366,-1455.581446,-2960.823768,11029.068536
986.601681,-842.705048,-2664.741391,10732.986159
986.601997,76.609550,-2146.597232,10066.800811
986.602313,995.924147,-1332.370696,9548.656652
986.602628,1685.410096,-0.000000,8290.306550
986.602944,1838.629195,888.247130,8216.285956
986.603260,2374.896044,1554.432478,7624.121203
986.603580,2604.724693,1924.535449,7402.059420
986.603895,2374.896044,1850.514855,7920.203579
986.604211,1225.752797,1776.494261,7772.162391
986.604527,612.876398,1036.288319,8438.347739
986.604843,-383.047749,-0.000000,9326.594869
986.605159,-995.924147,-1184.329507,10436.903782
986.605475,-1838.629195,-1702.473667,11473.192101
986.605790,-2298.286494,-2146.597232,11399.171507
986.606106,-2374.896044,-2294.638420,11695.253884
986.606422,-1838.629195,-2072.576638,11769.274478
986.606738,-1225.752797,-1776.494261,10955.047942
986.607054,-306.438199,-1036.288319,10214.842000
986.607369,612.876398,-0.000000,9474.636058
986.607685,1225.752797,740.205942,8956.491898
986.608001,2068.457845,1628.453072,8364.327145
986.608317,2451.505594,2442.679609,7772.162391
986.608633,2451.505594,2590.720797,7772.162391
986.608949,2221.676944,2812.782580,7624.121203
986.609264,1455.581446,2294.638420,8068.244768
986.609580,919.314598,1480.411884,8734.430116
986.609896,-153.219100,962.267725,9400.615463
986.610212,-842.705048,-0.000000,10436.903782
986.610528,-1225.752797,-814.226536,11251.130318
986.610844,-1762.019645,-1184.329507,11547.212695
986.611159,-2221.676944,-1480.411884,11621.233289
986.611475,-1532.190996,-1924.535449,11251.130318
986.611791,-1149.143247,-1776.494261,10881.027347
986.612107,-229.828649,-1036.288319,10584.944971
986.612423,1149.143247,-0.000000,9622.677246
986.612738,1608.800546,888.247130,9104.533087
986.613054,2145.067394,1628.453072,8512.368333
986.613370,2681.334243,2368.659014,7846.182985
986.613686,2757.943793,2664.741391,7624.121203
986.614002,2528.115143,2664.741391,7624.121203
986.614318,2145.067394,2220.617826,7698.141797
986.614633,1532.190996,1110.308913,8216.285956
986.614949,383.047749,148.041188,9030.512492
986.615265,-536.266849,-666.185348,9992.780217
986.615581,-1072.533697,-1406.391290,10658.965565
986.615897,-1532.190996,-1702.473667,11177.109724
986.616212,-1685.410096,-2368.659014,11325.150913
986.616528,-1608.800546,-2220.617826,11177.109724
986.616844,-919.314598,-2294.638420,10881.027347
986.617160,-229.828649,-1850.514855,10214.842000
986.617476,689.485948,-740.205942,9548.656652
986.617792,1149.143247,-0.000000,9104.533087
986.618107,1991.848295,666.185348,8142.265362
986.618423,2298.286494,1332.370696,7920.203579
986.618739,2451.505594,1702.473667,7772.162391
986.619055,2298.286494,1924.535449,7846.182985
986.619371,2145.067394,1184.329507,7846.182985
986.619686,1149.143247,740.205942,8364.327145
986.620002,536.266849,-74.020594,8808.450710
986.620318,-383.047749,-888.247130,9696.697840
986.620634,-612.876398,-1628.453072,10510.924376
986.620950,-612.876398,-2368.659014,10807.006753
986.621266,-1455.581446,-2516.700203,11251.130318
986.621581,-1149.143247,-2738.761985,11029.068536
986.621897,-536.266849,-2664.741391,10732.986159
986.622213,383.047749,-2072.576638,10140.821405
986.622529,919.314598,-962.267725,9696.697840
986.622845,1685.410096,-296.082377,8586.388927
986.623161,2145.067394,518.144159,8142.265362
986.623476,2298.286494,1480.411884,7920.203579
986.623792,2757.943793,1110.308913,7328.038826
986.624108,1915.238745,1184.329507,7550.100608
986.624424,1455.581446,814.226536,7772.162391
986.624740,612.876398,-74.020594,8734.430116
986.625055,0.000000,-666.185348,9400.615463
986.625371,-995.924147,-1776.494261,10214.842000
986.625687,-1532.190996,-2368.659014,11029.068536
986.626003,-1838.629195,-2516.700203,11177.109724
986.626319,-1838.629195,-2590.720797,11251.130318
986.626635,-1608.800546,-2442.679609,10732.986159
986.626950,-689.485948,-2220.617826,10881.027347
986.627266,383.047749,-2072.576638,10066.800811
986.627582,1378.971896,-1110.308913,9400.615463
986.627898,1991.848295,-0.000000,8290.306550
986.628214,2298.286494,1036.288319,8068.244768
986.628529,3064.381992,1776.494261,7920.203579
986.628845,2681.334243,2294.638420,7402.059420
986.629161,2145.067394,2368.659014,7698.141797
986.629477,1455.581446,1702.473667,7846.182985
986.629793,919.314598,888.247130,8660.409521
986.630109,-536.266849,148.041188,9548.656652
986.630424,-1302.362347,-888.247130,10510.924376
986.630740,-2068.457845,-1628.453072,11621.233289
986.631056,-2221.676944,-2146.597232,11769.274478
986.631372,-2451.505594,-2146.597232,11621.233289
986.631688,-1838.629195,-2368.659014,11621.233289
986.632003,-995.924147,-1850.514855,10955.047942
986.632319,0.000000,-1184.329507,10066.800811
986.632635,995.924147,-0.000000,9400.615463
986.632951,1608.800546,814.226536,8216.285956
986.633267,2374.896044,1554.432478,7920.203579
986.633583,2681.334243,2368.659014,7772.162391
986.633898,2911.162892,2442.679609,7624.121203
986.634214,2374.896044,2664.741391,7402.059420
986.634530,2374.896044,2072.576638,7772.162391
986.634846,995.924147,1184.329507,8586.388927
986.635162,0.000000,518.144159,9548.656652
986.635478,-1072.533697,-592.164754,10214.842000
986.635793,-1762.019645,-1258.350101,11029.068536
986.636109,-1838.629195,-1776.494261,11473.192101
986.636425,-2068.457845,-2072.576638,11473.192101
986.636741,-2145.067394,-2072.576638,11621.233289
986.637057,-1225.752797,-1480.411884,10955.047942
986.637372,0.000000,-1036.288319,10362.883188
986.637688,612.876398,-296.082377,9474.636058
986.638004,1685.410096,962.267725,8734.430116
986.638320,2298.286494,1628.453072,8068.244768
986.638636,2834.553343,2442.679609,7994.224174
986.638952,3370.820191,2590.720797,7846.182985
986.639267,2757.943793,3034.844362,7624.121203
986.639583,2145.067394,2368.659014,7994.224174
986.639899,1225.752797,1480.411884,8364.327145
986.640215,459.657299,444.123565,9252.574275
986.640531,-689.485948,-592.164754,10214.842000
986.640846,-1225.752797,-1554.432478,11029.068536
986.641162,-1838.629195,-1924.535449,11251.130318
986.641478,-1991.848295,-2146.597232,11621.233289
986.641794,-1378.971896,-2368.659014,11473.192101
986.642110,-1149.143247,-1924.535449,11029.068536
986.642426,-536.266849,-1776.494261,10584.944971
986.642741,612.876398,-962.267725,9770.718434
986.643057,1532.190996,-0.000000,8734.430116
986.643373,2528.115143,666.185348,8438.347739
986.643689,2451.505594,1554.432478,8290.306550
986.644005,2757.943793,1628.453072,7698.141797
986.644320,2451.505594,1850.514855,7846.182985
986.644636,1838.629195,1702.473667,7920.203579
986.644952,1225.752797,814.226536,8586.388927
986.645268,689.485948,-0.000000,9252.574275
986.645584,-536.266849,-740.205942,9622.677246
986.645900,-766.095498,-1554.432478,10584.944971
986.646215,-1302.362347,-2294.638420,11325.150913
986.646531,-1378.971896,-2664.741391,11103.089130
986.646847,-1455.581446,-2590.720797,11251.130318
986.647163,-995.924147,-2664.741391,10881.027347
986.647479,0.000000,-2294.638420,10584.944971
986.647794,1149.143247,-1554.432478,9474.636058
986.648110,1378.971896,-592.164754,8956.491898
986.648426,2068.457845,296.082377,8290.306550
986.648742,2298.286494,1184.329507,8142.265362
986.649058,2451.505594,1628.453072,7846.182985
986.649374,2221.676944,1628.453072,7698.141797
986.649689,1685.410096,1480.411884,7698.141797
986.650005,1072.533697,444.123565,8364.327145
986.650321,612.876398,-592.164754,8956.491898
986.650637,-229.828649,-1406.391290,9844.739029
986.650953,-612.876398,-2368.659014,10881.027347
986.651269,-1378.971896,-2516.700203,11177.109724
986.651584,-1455.581446,-2590.720797,11251.130318
986.651900,-1378.971896,-2738.761985,10955.047942
986.652216,-689.485948,-2442.679609,10807.006753
986.652532,0.000000,-1998.556043,10140.821405
986.652848,1149.143247,-888.247130,9622.677246
986.653163,1991.848295,-148.041188,8438.347739
986.653479,2298.286494,814.226536,8216.285956
986.653795,2757.943793,1924.535449,7624.121203
986.654111,2221.676944,1998.556043,7624.121203
986.654427,2068.457845,1998.556043,7624.121203
986.654743,1532.190996,1628.453072,7994.224174
986.655058,612.876398,740.205942,8586.388927
986.655374,-306.438199,-148.041188,9104.533087
986.655690,-1072.533697,-1258.350101,10140.821405
986.656006,-1685.410096,-1628.453072,10732.986159
986.656322,-2374.896044,-2146.597232,11251.130318
986.656637,-2374.896044,-2220.617826,11547.212695
986.656953,-2145.067394,-2146.597232,11251.130318
986.657269,-919.314598,-1702.473667,10881.027347
986.657585,-306.438199,-1184.329507,9992.780217
986.657901,536.266849,-222.061783,9400.615463
986.658217,1302.362347,814.226536,8882.471304
986.658532,2757.943793,1332.370696,8290.306550
986.658848,2604.724693,2368.659014,8216.285956
986.659164,2757.943793,2590.720797,7920.203579
986.659480,2451.505594,2664.741391,7624.121203
986.659796,1838.629195,2664.741391,7698.141797
986.660111,1455.581446,1628.453072,8512.368333
986.660427,229.828649,740.205942,9548.656652
986.660743,-842.705048,-222.061783,10214.842000
986.661059,-1608.800546,-962.267725,10955.047942
986.661375,-2145.067394,-1258.350101,11547.212695
986.661691,-2068.457845,-1998.556043,11769.274478
986.662006,-1991.848295,-1776.494261,11621.233289
986.662322,-1302.362347,-1406.391290,10955.047942
986.662638,-229.828649,-1036.288319,10584.944971
986.662954,689.485948,148.041188,9548.656652
986.663270,1685.410096,814.226536,8660.409521
986.663586,2451.505594,1776.494261,8438.347739
986.663901,2681.334243,2294.638420,7920.203579
986.664217,2604.724693,2442.679609,7772.162391
986.664533,2528.115143,2590.720797,7920.203579
986.664849,2145.067394,1924.535449,8142.265362
986.665165,995.924147,1406.391290,8290.306550
986.665480,306.438199,814.226536,9326.594869
986.665796,-919.314598,-148.041188,10140.821405
986.666112,-1455.581446,-1184.329507,11103.089130
986.666428,-1762.019645,-1406.391290,11547.212695
986.666744,-1915.238745,-1998.556043,11695.253884
986.667060,-1838.629195,-2294.638420,11473.192101
986.667375,-995.924147,-1924.535449,10955.047942
986.667691,306.438199,-1406.391290,9992.780217
986.668007,1225.752797,-814.226536,9696.697840
986.668323,1762.019645,222.061783,8808.450710
986.668639,2451.505594,1480.411884,8216.285956
986.668954,2911.162892,1998.556043,7772.162391
986.669270,2757.943793,2220.617826,7402.059420
986.669586,2451.505594,2294.638420,7624.121203
986.669902,1915.238745,1776.494261,7772.162391
986.670218,995.924147,444.123565,8734.430116
986.670534,0.000000,-296.082377,9548.656652
986.670849,-919.314598,-1258.350101,10066.800811
986.671165,-1685.410096,-1924.535449,11029.068536
986.671481,-1915.238745,-2220.617826,11695.253884
986.671797,-2068.457845,-2590.720797,11473.192101
986.672113,-1608.800546,-2516.700203,11473.192101
986.672428,-536.266849,-2960.823768,11251.130318
986.672744,76.609550,-2072.576638,10436.903782
986.673060,1302.362347,-962.267725,9474.636058
986.673376,2145.067394,-222.061783,8290.306550
986.673692,2681.334243,296.082377,7772.162391
986.674008,3370.820191,1554.432478,7550.100608
986.674323,3140.991542,1924.535449,7254.018232
986.674639,2451.505594,1850.514855,7402.059420
986.674955,1838.629195,1110.308913,7624.121203
986.675271,1149.143247,-0.000000,8068.244768
986.675587,-76.609550,-592.164754,9252.574275
986.675903,-1149.143247,-1480.411884,9696.697840
986.676218,-2068.457845,-2294.638420,10732.986159
986.676534,-2298.286494,-2738.761985,11251.130318
986.676850,-2451.505594,-3182.885551,11399.171507
986.677166,-1991.848295,-3404.947333,11473.192101
986.677482,-1149.143247,-2738.761985,11177.109724
986.677797,0.000000,-2294.638420,10214.842000
986.678113,1225.752797,-1702.473667,9252.574275
986.678429,2221.676944,148.041188,8438.347739
986.678745,2528.115143,1406.391290,7772.162391
986.679061,3140.991542,1924.535449,7402.059420
986.679377,3064.381992,2220.617826,7254.018232
986.679692,2757.943793,2220.617826,7476.080014
986.680008,1991.848295,1776.494261,7476.080014
986.680324,689.485948,962.267725,8142.265362
986.680640,0.000000,-74.020594,9252.574275
986.680956,-1302.362347,-1036.288319,10362.883188
986.681271,-2145.067394,-1998.556043,11325.150913
986.681587,-2604.724693,-1998.556043,11695.253884
986.681903,-2451.505594,-2590.720797,11695.253884
986.682219,-2221.676944,-2590.720797,11843.295072
986.682535,-995.924147,-2442.679609,11399.171507
986.682851,0.000000,-1406.391290,10362.883188
986.683166,1072.533697,-370.102971,9326.594869
986.683482,1838.629195,518.144159,8586.388927
986.683798,2604.724693,1628.453072,7846.182985
986.684114,3294.210641,2812.782580,7698.141797
986.684430,3217.601092,2812.782580,7254.018232
986.684745,2681.334243,3182.885551,7550.100608
986.685061,1915.238745,2590.720797,7624.121203
986.685377,1072.533697,1480.411884,8512.368333
986.685693,0.000000,592.164754,9696.697840
986.686009,-995.924147,-518.144159,10510.924376
986.686325,-1915.238745,-1332.370696,11399.171507
986.686640,-2298.286494,-1702.473667,11991.336260
986.686956,-2528.115143,-1998.556043,11991.336260
986.687272,-1915.238745,-2072.576638,11917.315666
986.687588,-995.924147,-1554.432478,10955.047942
986.687904,0.000000,-1258.350101,10436.903782
986.688220,1072.533697,-0.000000,9622.677246
986.688535,1838.629195,1036.288319,8808.450710
986.688851,2681.334243,1406.391290,8142.265362
986.689167,3140.991542,2368.659014,7994.224174
986.689483,2987.772442,2664.741391,7402.059420
986.689799,2604.724693,2812.782580,7624.121203
986.690114,1991.848295,2368.659014,7920.203579
986.690430,1378.971896,962.267725,8586.388927
986.690746,0.000000,-0.000000,9548.656652
986.691062,-1149.143247,-666.185348,10510.924376
986.691378,-1991.848295,-1480.411884,11103.089130
986.691694,-2221.676944,-2220.617826,11695.253884
986.692009,-1991.848295,-2442.679609,11769.274478
986.692325,-1991.848295,-2368.659014,11399.171507
986.692641,-1149.143247,-2072.576638,10807.006753
986.692957,0.000000,-1480.411884,10510.924376
986.693273,1455.581446,-666.185348,9474.636058
986.693588,1915.238745,370.102971,8438.347739
986.693904,2451.505594,1480.411884,7698.141797
986.694220,3217.601092,2220.617826,7624.121203
986.694536,3217.601092,2220.617826,7328.038826
986.694852,3064.381992,1998.556043,7105.977043
986.695168,2068.457845,1332.370696,7550.100608
986.695483,1225.752797,666.185348,8586.388927
986.695799,76.609550,-444.123565,9400.615463
986.696115,-995.924147,-1406.391290,10140.821405
986.696431,-1532.190996,-2294.638420,10658.965565
986.696747,-2068.457845,-2664.741391,11399.171507
986.697062,-2221.676944,-2960.823768,11473.192101
986.697378,-1915.238745,-2738.761985,11325.150913
986.697694,-919.314598,-2738.761985,10807.006753
986.698010,153.219100,-2368.659014,10066.800811
986.698326,1302.362347,-1406.391290,9400.615463
986.698642,2374.896044,-148.041188,8438.347739
986.698957,2757.943793,1036.288319,7772.162391
986.699273,3600.648841,1924.535449,7476.080014
986.699589,3217.601092,1850.514855,7476.080014
986.699905,2911.162892,1628.453072,7402.059420
986.700221,2221.676944,1406.391290,7772.162391
986.700537,1149.143247,370.102971,8512.368333
986.700852,612.876398,-518.144159,9400.615463
986.701168,-689.485948,-1554.432478,10584.944971
986.701484,-1608.800546,-2442.679609,11177.109724
986.701800,-2221.676944,-2886.803174,11547.212695
986.702116,-2451.505594,-3108.864956,11695.253884
986.702431,-1991.848295,-3330.926739,11695.253884
986.702747,-1225.752797,-2812.782580,11029.068536
986.703063,0.000000,-1998.556043,10288.862594
986.703379,1072.533697,-666.185348,9326.594869
986.703695,1915.238745,296.082377,8290.306550
986.704011,2451.505594,1184.329507,7698.141797
986.704326,3064.381992,1998.556043,7550.100608
986.704642,2987.772442,2294.638420,7476.080014
986.704958,2451.505594,2368.659014,7550.100608
986.705274,1838.629195,1776.494261,7772.162391
986.705590,459.657299,1036.288319,9030.512492
986.705906,-153.219100,-74.020594,9474.636058
986.706221,-1072.533697,-1036.288319,10362.883188
986.706537,-2145.067394,-1924.535449,10732.986159
986.706853,-2221.676944,-2368.659014,11991.336260
986.707169,-2528.115143,-2442.679609,11769.274478
986.707485,-1991.848295,-2368.659014,11547.212695
986.707801,-995.924147,-1776.494261,11177.109724
986.708117,76.609550,-1258.350101,10584.944971
986.708432,1072.533697,370.102971,9326.594869
986.708748,1838.629195,1036.288319,8512.368333
986.709064,2451.505594,2146.597232,7920.203579
986.709380,2834.553343,2590.720797,7328.038826
986.709696,3217.601092,3108.864956,7105.977043
986.710012,2604.724693,2960.823768,7698.141797
986.710328,2221.676944,2368.659014,7846.182985
986.710643,1072.533697,1480.411884,8586.388927
986.710959,0.000000,518.144159,9326.594869
986.711275,-1149.143247,-888.247130,10436.903782
986.711591,-1608.800546,-1258.350101,11325.150913
986.711907,-2221.676944,-1702.473667,11399.171507
986.712223,-2451.505594,-1850.514855,11325.150913
986.712539,-1838.629195,-1998.556043,11399.171507
986.712854,-1378.971896,-1554.432478,11029.068536
986.713170,-459.657299,-1110.308913,10658.965565
986.713486,689.485948,-0.000000,9474.636058
986.713802,1608.800546,666.185348,8734.430116
986.714118,2451.505594,1776.494261,8290.306550
986.714434,2528.115143,2516.700203,7772.162391
986.714750,2681.334243,2812.782580,7550.100608
986.715065,2374.896044,2886.803174,7550.100608
986.715381,1915.238745,2442.679609,7698.141797
986.715697,1225.752797,1406.391290,8512.368333
986.716013,0.000000,592.164754,9622.677246
986.716329,-766.095498,-444.123565,10066.800811
986.716645,-1532.190996,-1406.391290,10881.027347
986.716961,-1762.019645,-1776.494261,11251.130318
986.717276,-2145.067394,-1998.556043,11547.212695
986.717592,-1608.800546,-2294.638420,11399.171507
986.717908,-1072.533697,-2220.617826,11177.109724
986.718224,229.828649,-1554.432478,10214.842000
986.718540,1072.533697,-444.123565,9474.636058
986.718856,1991.848295,666.185348,8956.491898
986.719172,2681.334243,1332.370696,8142.265362
986.719487,3064.381992,2146.597232,7846.182985
986.719803,2834.553343,2146.597232,7402.059420
986.720119,2757.943793,2072.576638,7476.080014
986.720435,1838.629195,1110.308913,7772.162391
986.720751,1225.752797,296.082377,8808.450710
986.721067,76.609550,-888.247130,9548.656652
986.721383,-766.095498,-1480.411884,10436.903782
986.721698,-1378.971896,-1998.556043,10955.047942
986.722014,-1455.581446,-2590.720797,11325.150913
986.722330,-1378.971896,-2664.741391,11325.150913
986.722646,-1455.581446,-2738.761985,11251.130318
986.722962,-766.095498,-2294.638420,10881.027347
986.723278,306.438199,-1702.473667,10140.821405
986.723594,1455.581446,-740.205942,9178.553681
986.723909,2068.457845,-0.000000,8512.368333
986.724225,2528.115143,740.205942,7846.182985
986.724541,2834.553343,1406.391290,7846.182985
986.724857,2987.772442,1554.432478,7772.162391
986.725173,2911.162892,1924.535449,7698.141797
986.725489,1991.848295,1480.411884,7402.059420
986.725805,995.924147,740.205942,8290.306550
986.726120,0.000000,-296.082377,9252.574275
986.726436,-995.924147,-1406.391290,10214.842000
986.726752,-1608.800546,-2368.659014,10881.027347
986.727068,-1915.238745,-2738.761985,11473.192101
986.727384,-1762.019645,-3034.844362,11547.212695
986.727700,-1685.410096,-2960.823768,11473.192101
986.728015,-612.876398,-2590.720797,10955.047942
986.728331,0.000000,-1850.514855,9992.780217
986.728647,995.924147,-888.247130,9178.553681
986.728963,1991.848295,148.041188,8734.430116
986.729279,2451.505594,962.267725,7920.203579
986.729595,2757.943793,1924.535449,7994.224174
986.729911,2757.943793,1850.514855,7328.038826
986.730226,2451.505594,1850.514855,7105.977043
986.730542,1685.410096,1554.432478,7698.141797
986.730858,766.095498,444.123565,8808.450710
986.731174,-153.219100,-666.185348,9326.594869
986.731490,-995.924147,-1184.329507,9992.780217
986.731806,-1532.190996,-1776.494261,10807.006753
986.732122,-2068.457845,-2220.617826,11473.192101
986.732437,-2068.457845,-2146.597232,11473.192101
986.732753,-1838.629195,-2072.576638,11695.253884
986.733069,-842.705048,-1776.494261,10807.006753
986.733385,0.000000,-1184.329507,10066.800811
986.733701,995.924147,-74.020594,9030.512492
986.734017,1532.190996,222.061783,8364.327145
986.734333,2451.505594,1258.350101,7920.203579
986.734648,2451.505594,1850.514855,7698.141797
986.734964,2298.286494,2294.638420,7698.141797
986.735280,1915.238745,2368.659014,7920.203579
986.735596,1838.629195,2294.638420,8142.265362
986.735912,766.095498,1184.329507,8734.430116
986.736228,0.000000,370.102971,9474.636058
986.736544,-919.314598,-296.082377,10214.842000
986.736859,-1532.190996,-1110.308913,10955.047942
986.737175,-2068.457845,-1776.494261,11695.253884
986.737491,-1915.238745,-2072.576638,11473.192101
986.737807,-1378.971896,-1998.556043,11251.130318
986.738123,-1149.143247,-1702.473667,11029.068536
986.738439,76.609550,-814.226536,10436.903782
986.738755,842.705048,-0.000000,9326.594869
986.739070,1302.362347,1110.308913,9104.533087
986.739386,1991.848295,1924.535449,8364.327145
986.739702,2604.724693,2664.741391,8068.244768
986.740018,2987.772442,2960.823768,7920.203579
986.740334,2298.286494,2812.782580,7846.182985
986.740650,1762.019645,2220.617826,7994.224174
986.740966,1072.533697,1258.350101,8882.471304
986.741281,153.219100,370.102971,9696.697840
986.741597,-766.095498,-1036.288319,10362.883188
986.741913,-1378.971896,-1406.391290,11399.171507
986.742229,-1685.410096,-1924.535449,11547.212695
986.742545,-1915.238745,-1924.535449,11695.253884
986.742861,-1455.581446,-1998.556043,11325.150913
986.743177,-306.438199,-2146.597232,11177.109724
986.743492,0.000000,-814.226536,9992.780217
986.743808,1302.362347,-0.000000,8956.491898
986.744124,2221.676944,592.164754,8586.388927
986.744440,2451.505594,1110.308913,8216.285956
986.744756,2528.115143,1480.411884,7846.182985
986.745072,2528.115143,1554.432478,8068.244768
986.745388,2221.676944,1998.556043,8142.265362
986.745703,1685.410096,1110.308913,7772.162391
986.746019,1302.362347,518.144159,8586.388927
986.746335,76.609550,-0.000000,9400.615463
986.746651,-689.485948,-1258.350101,10140.821405
986.746967,-1225.752797,-2146.597232,10807.006753
986.747283,-1608.800546,-2368.659014,11029.068536
986.747599,-1915.238745,-3034.844362,10881.027347
986.747914,-1072.533697,-2886.803174,10807.006753
986.748230,-919.314598,-2664.741391,10807.006753
986.748546,153.219100,-1998.556043,10066.800811
986.748862,1225.752797,-888.247130,9252.574275
986.749178,1915.238745,518.144159,8438.347739
986.749494,2528.115143,962.267725,7994.224174
986.749810,2681.334243,1332.370696,7402.059420
986.750125,2911.162892,1332.370696,7105.977043
986.750441,2298.286494,1554.432478,7476.080014
986.750757,1685.410096,518.144159,7624.121203
986.751073,1378.971896,-0.000000,8438.347739
986.751389,0.000000,-814.226536,9252.574275
986.751705,-919.314598,-1702.473667,9918.759623
986.752021,-1991.848295,-2220.617826,10732.986159
986.752336,-1915.238745,-2516.700203,11251.130318
986.752652,-1915.238745,-2960.823768,11177.109724
986.752968,-1532.190996,-2516.700203,11029.068536
986.753284,-842.705048,-2294.638420,10732.986159
986.753600,306.438199,-1480.411884,9844.739029
986.753916,1455.581446,-370.102971,8956.491898
986.754231,1915.238745,592.164754,8290.306550
986.754547,2298.286494,1258.350101,7920.203579
986.754863,2451.505594,1850.514855,7772.162391
986.755179,2528.115143,1924.535449,7772.162391
986.755495,1838.629195,1924.535449,7846.182985
986.755811,1225.752797,1332.370696,8364.327145
986.756127,459.657299,592.164754,8808.450710
986.756442,-459.657299,-370.102971,9696.697840
986.756758,-1532.190996,-1258.350101,10436.903782
986.757074,-1915.238745,-1406.391290,11399.171507
986.757390,-1838.629195,-2072.576638,11547.212695
986.757706,-1991.848295,-2072.576638,11547.212695
986.758022,-1685.410096,-2072.576638,11325.150913
986.758338,-612.876398,-1480.411884,11177.109724
986.758653,383.047749,-962.267725,9992.780217
986.758969,1225.752797,148.041188,9104.533087
986.759285,1991.848295,1184.329507,8586.388927
986.759601,2451.505594,1628.453072,7920.203579
986.759917,2834.553343,2738.761985,7994.224174
986.760233,2757.943793,2516.700203,7772.162391
986.760549,2451.505594,2516.700203,7994.224174
986.760864,1762.019645,2072.576638,8216.285956
986.761180,995.924147,1036.288319,8956.491898
986.761496,153.219100,-0.000000,9918.759623
986.761812,-1072.533697,-592.164754,10732.986159
986.762128,-1915.238745,-1258.350101,11029.068536
986.762444,-2145.067394,-1554.432478,11399.171507
986.762760,-2068.457845,-1924.535449,11621.233289
986.763075,-1762.019645,-1776.494261,11029.068536
986.763391,-1072.533697,-1332.370696,10955.047942
986.763707,0.000000,-666.185348,10436.903782
986.764023,1072.533697,-0.000000,9178.553681
986.764339,2374.896044,888.247130,8808.450710
986.764655,2221.676944,1554.432478,8216.285956
986.764971,2681.334243,2220.617826,8216.285956
986.765286,2451.505594,2368.659014,7846.182985
986.765602,2298.286494,2368.659014,7772.162391
986.765918,1762.019645,1850.514855,8068.244768
986.766234,919.314598,1332.370696,8882.471304
986.766550,153.219100,740.205942,9326.594869
986.766866,-689.485948,-222.061783,10288.862594
986.767182,-1378.971896,-1332.370696,10807.006753
986.767497,-1915.238745,-1776.494261,11325.150913
986.767813,-1838.629195,-2368.659014,11547.212695
986.768129,-1455.581446,-2442.679609,11473.192101
986.768445,-766.095498,-2368.659014,10881.027347
986.768761,76.609550,-1776.494261,9918.759623
986.769077,1149.143247,-592.164754,9474.636058
986.769393,1455.581446,296.082377,8586.388927
986.769708,2374.896044,1702.473667,8068.244768
986.770024,2681.334243,1850.514855,7772.162391
986.770340,2528.115143,2146.597232,7550.100608
986.770656,2451.505594,1998.556043,7476.080014
986.770972,1915.238745,1480.411884,7772.162391
986.771288,1072.533697,370.102971,8586.388927
986.771604,229.828649,-444.123565,9400.615463
986.771919,-612.876398,-1184.329507,10362.883188
986.772235,-1685.410096,-1776.494261,11399.171507
986.772551,-1838.629195,-2368.659014,11177.109724
986.772867,-1915.238745,-2664.741391,11399.171507
986.773183,-1302.362347,-2664.741391,11029.068536
986.773499,-536.266849,-2294.638420,10732.986159
986.773815,306.438199,-1702.473667,9844.739029
986.774130,1302.362347,-592.164754,9252.574275
986.774446,1991.848295,-0.000000,8512.368333
986.774762,2298.286494,1036.288319,8142.265362
986.775078,2528.115143,1332.370696,7846.182985
986.775394,2451.505594,1258.350101,7846.182985
986.775710,1838.629195,1480.411884,7994.224174
986.776026,1225.752797,962.267725,8216.285956
986.776341,459.657299,370.102971,8734.430116
986.776657,-536.266849,-444.123565,9474.636058
986.776973,-1072.533697,-1258.350101,10288.862594
986.777289,-1762.019645,-2072.576638,10955.047942
986.777605,-1685.410096,-2368.659014,11399.171507
986.777921,-1838.629195,-2886.803174,11621.233289
986.778236,-1685.410096,-2886.803174,11177.109724
986.778552,-383.047749,-2368.659014,10732.986159
986.778868,536.266849,-1554.432478,10288.862594
986.779184,1455.581446,-666.185348,9178.553681
986.779500,2451.505594,592.164754,8438.347739
986.779816,2757.943793,1480.411884,7920.203579
986.780132,3064.381992,1776.494261,7476.080014
986.780447,3370.820191,2220.617826,7328.038826
986.780763,2221.676944,2294.638420,7402.059420
986.781079,1532.190996,1332.370696,8068.244768
986.781395,689.485948,518.144159,9252.574275
986.781711,-612.876398,-740.205942,9696.697840
986.782027,-1378.971896,-1258.350101,10732.986159
986.782343,-2221.676944,-1850.514855,11399.171507
986.782658,-2451.505594,-2368.659014,11473.192101
986.782974,-2451.505594,-2516.700203,11547.212695
986.783290,-1915.238745,-2146.597232,11325.150913
986.783606,-689.485948,-1480.411884,10658.965565
986.783922,383.047749,-888.247130,9696.697840
986.784238,1149.143247,296.082377,9030.512492
986.784554,1991.848295,888.247130,8216.285956
986.784869,2528.115143,1850.514855,7772.162391
986.785185,2757.943793,2442.679609,7698.141797
986.785501,2451.505594,2368.659014,7772.162391
986.785817,2068.457845,2516.700203,8142.265362
986.786133,1378.971896,2146.597232,8068.244768
986.786449,536.266849,1036.288319,8882.471304
986.786765,-459.657299,740.205942,9400.615463
986.787080,-1532.190996,-74.020594,10066.800811
986.787396,-1838.629195,-1406.391290,11325.150913
986.787712,-2298.286494,-1850.514855,11325.150913
986.788028,-2451.505594,-1924.535449,11473.192101
986.788344,-1455.581446,-2368.659014,11103.089130
986.788660,-1149.143247,-2220.617826,10881.027347
986.788976,0.000000,-1406.391290,10288.862594
986.789291,995.924147,-0.000000,9474.636058
986.789607,1915.238745,962.267725,8586.388927
986.789923,2451.505594,1776.494261,8142.265362
986.790239,3064.381992,2368.659014,7920.203579
986.790555,2834.553343,2368.659014,7624.121203
986.790871,2528.115143,2368.659014,7476.080014
986.791187,1762.019645,1998.556043,7698.141797
986.791502,766.095498,888.247130,8882.471304
986.791818,76.609550,-0.000000,9622.677246
986.792134,-1455.581446,-666.185348,9992.780217
986.792450,-1991.848295,-1480.411884,11177.109724
986.792766,-2451.505594,-2220.617826,11547.212695
986.793082,-2298.286494,-2738.761985,11843.295072
986.793398,-2145.067394,-2516.700203,11547.212695
986.793713,-919.314598,-2220.617826,11103.089130
986.794029,0.000000,-1480.411884,10140.821405
986.794345,612.876398,-592.164754,9548.656652
986.794661,2068.457845,296.082377,8808.450710
986.794977,2681.334243,1184.329507,8290.306550
986.795293,2681.334243,2072.576638,7994.224174
986.795609,3140.991542,2146.597232,7476.080014
986.795924,2604.724693,1998.556043,7772.162391
986.796240,1915.238745,1406.391290,8142.265362
986.796556,1608.800546,666.185348,8438.347739
986.796872,229.828649,-148.041188,9030.512492
986.797188,-766.095498,-888.247130,9992.780217
986.797504,-1225.752797,-1776.494261,10881.027347
986.797820,-1378.971896,-2368.659014,11177.109724
986.798135,-1838.629195,-2516.700203,11473.192101
986.798451,-1532.190996,-2812.782580,11695.253884
986.798767,-689.485948,-2664.741391,10881.027347
986.799083,0.000000,-2072.576638,10362.883188
986.799399,1302.362347,-1184.329507,9400.615463
986.799715,1991.848295,-0.000000,8956.491898
986.800031,2528.115143,1110.308913,8068.244768
986.800346,2757.943793,1702.473667,7846.182985
986.800662,3217.601092,1998.556043,7772.162391
986.800978,2451.505594,1924.535449,7179.997637
986.801294,2145.067394,1332.370696,7476.080014
986.801610,1378.971896,296.082377,8438.347739
986.801926,229.828649,-296.082377,9326.594869
986.802241,-459.657299,-1258.350101,10214.842000
986.802557,-1225.752797,-2072.576638,11029.068536
986.802873,-1915.238745,-2294.638420,11029.068536
986.803189,-2221.676944,-2442.679609,11399.171507
986.803505,-1532.190996,-2812.782580,11177.109724
986.803821,-766.095498,-2516.700203,10807.006753
986.804137,0.000000,-1554.432478,9992.780217
986.804452,995.924147,-814.226536,9400.615463
986.804768,1838.629195,-0.000000,8586.388927
986.805084,2374.896044,962.267725,8216.285956
986.805400,2528.115143,1924.535449,7846.182985
986.805716,2528.115143,1924.535449,7624.121203
986.806032,2145.067394,1924.535449,7550.100608
986.806348,1608.800546,1628.453072,7624.121203
986.806663,919.314598,592.164754,8882.471304
986.806979,0.000000,-0.000000,9474.636058
986.807295,-842.705048,-814.226536,10214.842000
986.807611,-1838.629195,-1850.514855,10732.986159
986.807927,-2145.067394,-2146.597232,11029.068536
986.808242,-2068.457845,-2442.679609,11769.274478
986.808558,-1685.410096,-2294.638420,11251.130318
986.808874,-612.876398,-1924.535449,10807.006753
986.809190,0.000000,-1258.350101,10066.800811
986.809506,1225.752797,-148.041188,9252.574275
986.809822,2068.457845,1110.308913,8660.409521
986.810137,2451.505594,2146.597232,7920.203579
986.810453,2528.115143,2516.700203,7476.080014
986.810769,2834.553343,2886.803174,7476.080014
986.811085,2374.896044,2516.700203,7994.224174
986.811401,1378.971896,1998.556043,7994.224174
986.811716,459.657299,814.226536,8882.471304
986.812032,-612.876398,-0.000000,9770.718434
986.812348,-1455.581446,-962.267725,10807.006753
986.812664,-2298.286494,-1924.535449,11325.150913
986.812980,-2681.334243,-1776.494261,11843.295072
986.813296,-2834.553343,-1924.535449,11843.295072
986.813611,-2068.457845,-1924.535449,11621.233289
986.813927,-842.705048,-1702.473667,11103.089130
986.814243,229.828649,-1036.288319,10214.842000
986.814559,1225.752797,-0.000000,9326.594869
986.814875,2221.676944,962.267725,8438.347739
986.815191,2911.162892,1850.514855,7920.203579
986.815506,2451.505594,2146.597232,7846.182985
986.815822,3064.381992,2738.761985,7624.121203
986.816138,2604.724693,2738.761985,7550.100608
986.816454,1915.238745,2220.617826,7994.224174
986.816770,919.314598,1110.308913,8512.368333
986.817085,76.609550,814.226536,9992.780217
986.817401,-1149.143247,-518.144159,10288.862594
986.817717,-1532.190996,-1702.473667,11177.109724
986.818033,-1915.238745,-2146.597232,11473.192101
986.818349,-2451.505594,-2442.679609,11695.253884
986.818665,-1685.410096,-2442.679609,11547.212695
986.818980,-1072.533697,-2294.638420,11251.130318
986.819296,-153.219100,-1702.473667,10362.883188
986.819612,1302.362347,-592.164754,9474.636058
986.819928,2068.457845,814.226536,8586.388927
986.820244,3064.381992,1924.535449,7994.224174
986.820560,3447.429741,2442.679609,7328.038826
986.820875,3677.258390,2886.803174,7550.100608
986.821191,3140.991542,2442.679609,7550.100608
986.821507,2451.505594,1702.473667,7550.100608
986.821823,1149.143247,592.164754,8808.450710
986.822139,0.000000,-666.185348,9548.656652
986.822454,-766.095498,-1406.391290,10807.006753
986.822770,-1685.410096,-2072.576638,11029.068536
986.823086,-1915.238745,-2442.679609,11473.192101
986.823402,-2145.067394,-2516.700203,11473.192101
986.823718,-1991.848295,-2368.659014,11325.150913
986.824034,-842.705048,-2368.659014,11103.089130
986.824349,153.219100,-1628.453072,10140.821405
986.824665,1532.190996,-666.185348,9400.615463
986.824981,1991.848295,-0.000000,8586.388927
986.825297,2528.115143,666.185348,7772.162391
986.825613,2987.772442,1702.473667,7550.100608
986.825928,2911.162892,1850.514855,7328.038826
986.826244,2528.115143,1480.411884,7624.121203
986.826560,1302.362347,592.164754,7624.121203
986.826876,919.314598,74.020594,8660.409521
986.827192,-306.438199,-518.144159,9178.553681
986.827508,-1149.143247,-1480.411884,10214.842000
986.827823,-1915.238745,-2294.638420,10955.047942
986.828139,-2145.067394,-2590.720797,11029.068536
986.828455,-2145.067394,-3182.885551,11399.171507
986.828771,-1608.800546,-3182.885551,11251.130318
986.829087,-995.924147,-2886.803174,10881.027347
986.829403,459.657299,-2072.576638,9918.759623
986.829718,1378.971896,-814.226536,9030.512492
986.830034,2145.067394,296.082377,8290.306550
986.830350,2757.943793,1332.370696,7624.121203
986.830666,3064.381992,2294.638420,7550.100608
986.830982,3064.381992,2368.659014,7402.059420
986.831297,2757.943793,2516.700203,7179.997637
986.831613,1685.410096,1628.453072,7476.080014
986.831929,842.705048,518.144159,8956.491898
986.832245,-383.047749,-74.020594,9474.636058
986.832561,-1455.581446,-1702.473667,10436.903782
986.832877,-2298.286494,-2146.597232,11103.089130
986.833192,-2911.162892,-2442.679609,11621.233289
986.833508,-2604.724693,-2442.679609,11843.295072
986.833824,-1915.238745,-2220.617826,11769.274478
986.834140,-1072.533697,-1850.514855,10955.047942
986.834456,76.609550,-888.247130,10140.821405
986.834771,1378.971896,-0.000000,9104.533087
986.835087,1991.848295,1110.308913,8364.327145
986.835403,2757.943793,1554.432478,7772.162391
986.835719,3217.601092,2220.617826,7698.141797
986.836035,2911.162892,2442.679609,7402.059420
986.836351,2068.457845,2442.679609,7772.162391
986.836666,1455.581446,1850.514855,7994.224174
986.836982,612.876398,814.226536,8956.491898
986.837298,-306.438199,-0.000000,9918.759623
986.837614,-1225.752797,-740.205942,10732.986159
986.837930,-1915.238745,-1480.411884,11177.109724
986.838246,-2374.896044,-1776.494261,11547.212695
986.838561,-2374.896044,-2146.597232,11695.253884
986.838877,-1762.019645,-2146.597232,11325.150913
986.839193,-536.266849,-1554.432478,11029.068536
986.839509,0.000000,-814.226536,10214.842000
986.839825,995.924147,-0.000000,9400.615463
986.840140,2298.286494,888.247130,8512.368333
986.840456,2604.724693,1850.514855,7920.203579
986.840772,3140.991542,2664.741391,8068.244768
986.841088,2834.553343,2664.741391,7624.121203
986.841404,2604.724693,2442.679609,8068.244768
986.841720,1608.800546,1850.514855,7994.224174
986.842035,842.705048,962.267725,8808.450710
986.842351,-383.047749,-0.000000,9622.677246
986.842667,-1072.533697,-814.226536,10584.944971
986.842983,-1762.019645,-1554.432478,11399.171507
986.843299,-2145.067394,-2072.576638,11621.233289
986.843615,-2068.457845,-2368.659014,11473.192101
986.843930,-1532.190996,-1998.556043,11177.109724
986.844246,-459.657299,-1850.514855,10658.965565
986.844562,536.266849,-1332.370696,9696.697840
986.844878,1685.410096,-444.123565,8956.491898
986.845194,2374.896044,518.144159,8586.388927
986.845509,2604.724693,1332.370696,7920.203579
986.845825,2757.943793,1850.514855,7772.162391
986.846141,2604.724693,1850.514855,7846.182985
986.846457,1991.848295,1850.514855,7772.162391
986.846773,1532.190996,1258.350101,8142.265362
986.847089,536.266849,148.041188,9104.533087
986.847404,-383.047749,-888.247130,9474.636058
986.847720,-1378.971896,-1332.370696,10510.924376
986.848036,-2221.676944,-2294.638420,11103.089130
986.848352,-1762.019645,-2368.659014,11473.192101
986.848668,-1762.019645,-3034.844362,11325.150913
986.848983,-842.705048,-2812.782580,11399.171507
986.849299,-612.876398,-2516.700203,10658.965565
986.849615,612.876398,-1628.453072,10066.800811
986.849931,1838.629195,-370.102971,8882.471304
986.850247,2374.896044,518.144159,8216.285956
986.850563,2757.943793,1406.391290,7698.141797
986.850878,3294.210641,1702.473667,7328.038826
986.851194,2834.553343,1998.556043,7328.038826
986.851510,2451.505594,1702.473667,7624.121203
986.851826,2221.676944,888.247130,7772.162391
986.852142,766.095498,-0.000000,8808.450710
986.852458,-536.266849,-888.247130,9622.677246
986.852773,-1378.971896,-1776.494261,10732.986159
986.853089,-2068.457845,-2368.659014,10955.047942
986.853405,-1991.848295,-2960.823768,11473.192101
986.853721,-1915.238745,-2812.782580,11325.150913
986.854037,-1455.581446,-2664.741391,11251.130318
986.854352,-459.657299,-2072.576638,10510.924376
986.854668,459.657299,-1406.391290,9918.759623
986.854984,1991.848295,-148.041188,9252.574275
986.855300,2221.676944,444.123565,8438.347739
986.855616,2681.334243,1480.411884,7772.162391
986.855932,2987.772442,1776.494261,7624.121203
986.856247,2757.943793,1850.514855,7550.100608
986.856563,2145.067394,2072.576638,7772.162391
986.856879,1685.410096,1332.370696,7994.224174
986.857195,842.705048,518.144159,8734.430116
986.857511,-459.657299,-74.020594,9622.677246
986.857826,-1455.581446,-1258.350101,10584.944971
986.858142,-1532.190996,-2146.597232,11029.068536
986.858458,-2145.067394,-2516.700203,11103.089130
986.858774,-2068.457845,-2294.638420,11473.192101
986.859090,-1455.581446,-2368.659014,11251.130318
986.859406,-1302.362347,-2368.659014,10881.027347
986.859721,0.000000,-1184.329507,9918.759623
986.860037,1302.362347,-222.061783,9178.553681
986.860353,1991.848295,1036.288319,8734.430116
986.860669,2604.724693,2220.617826,7920.203579
986.860985,2987.772442,2664.741391,7698.141797
986.861301,2681.334243,2368.659014,7698.141797
986.861616,2221.676944,2664.741391,7772.162391
986.861932,1302.362347,1850.514855,7846.182985
986.862248,766.095498,962.267725,8956.491898
986.862564,-229.828649,-444.123565,9622.677246
986.862880,-1302.362347,-666.185348,10658.965565
986.863195,-1915.238745,-1332.370696,10955.047942
986.863511,-2298.286494,-1702.473667,11399.171507
986.863827,-2221.676944,-1628.453072,11473.192101
986.864143,-1991.848295,-1702.473667,11547.212695
986.864459,-995.924147,-1332.370696,10732.986159
986.864775,0.000000,-370.102971,10288.862594
986.865090,1149.143247,222.061783,9178.553681
986.865406,1915.238745,1110.308913,8808.450710
986.865722,2451.505594,1406.391290,7920.203579
986.866038,2528.115143,2294.638420,7772.162391
986.866354,2604.724693,2368.659014,7772.162391
986.866670,2298.286494,2442.679609,7846.182985
986.866985,995.924147,2442.679609,7994.224174
986.867301,536.266849,1258.350101,8956.491898
986.867617,-229.828649,518.144159,9622.677246
986.867933,-842.705048,-444.123565,10140.821405
986.868249,-1685.410096,-1480.411884,11103.089130
986.868564,-1302.362347,-2146.597232,11621.233289
986.868880,-1838.629195,-2442.679609,11695.253884
986.869196,-1608.800546,-2664.741391,11473.192101
986.869512,-842.705048,-2294.638420,11103.089130
986.869828,383.047749,-1258.350101,10362.883188
986.870144,1378.971896,-148.041188,9696.697840
986.870459,2068.457845,888.247130,8586.388927
986.870775,2528.115143,1702.473667,8216.285956
