#time,accel_x,accel_y,accel_z
1136.799724,612.876398,-222.061783,9474.636058
1136.800040,306.438199,-148.041188,9474.636058
1136.800356,383.047749,-370.102971,9474.636058
1136.800672,383.047749,-148.041188,9474.636058
1136.800988,306.438199,-148.041188,9400.615463
1136.801304,383.047749,-296.082377,9400.615463
1136.801619,229.828649,-74.020594,9548.656652
1136.801935,612.876398,-0.000000,9770.718434
1136.802251,383.047749,-148.041188,9696.697840
1136.802567,306.438199,-222.061783,9548.656652
1136.802883,306.438199,-296.082377,9474.636058
1136.803199,459.657299,-222.061783,9326.594869
1136.803514,383.047749,-74.020594,9622.677246
1136.803830,459.657299,-222.061783,9622.677246
1136.804146,383.047749,-0.000000,9474.636058
1136.804462,536.266849,-0.000000,9474.636058
1136.804778,383.047749,370.102971,9474.636058
1136.805094,153.219100,296.082377,9548.656652
1136.805409,229.828649,74.020594,9326.594869
1136.805725,383.047749,370.102971,9474.636058
1136.806041,536.266849,444.123565,9178.553681
1136.806357,0.000000,-222.061783,9326.594869
1136.806673,383.047749,-0.000000,9400.615463
1136.806989,536.266849,-0.000000,9474.636058
1136.807305,842.705048,-74.020594,9622.677246
1136.807620,229.828649,444.123565,9696.697840
1136.807936,612.876398,222.061783,9326.594869
1136.808252,153.219100,592.164754,9474.636058
1136.808568,383.047749,740.205942,9548.656652
1136.808884,612.876398,888.247130,9252.574275
1136.809200,536.266849,962.267725,9104.533087
1136.809515,306.438199,1332.370696,9400.615463
1136.809831,306.438199,888.247130,9400.615463
1136.810147,459.657299,888.247130,9474.636058
1136.810463,153.219100,1110.308913,9104.533087
1136.810779,-459.657299,814.226536,9474.636058
1136.811095,-229.828649,814.226536,9622.677246
1136.811410,-612.876398,1036.288319,9474.636058
1136.811726,-229.828649,1184.329507,9252.574275
1136.812042,-842.705048,1258.350101,9400.615463
1136.812358,-459.657299,1480.411884,9400.615463
1136.812674,-1302.362347,1480.411884,9252.574275
1136.812990,-1532.190996,1332.370696,9474.636058
1136.813305,-1685.410096,1406.391290,9548.656652
1136.813621,-1762.019645,1406.391290,9770.718434
1136.813937,-2298.286494,1184.329507,9696.697840
1136.814253,-2145.067394,1258.350101,9770.718434
1136.814569,-2221.676944,1480.411884,9770.718434
1136.814885,-1685.410096,1554.432478,9548.656652
1136.815201,-1378.971896,1850.514855,9696.697840
1136.815516,-1608.800546,1850.514855,9474.636058
1136.815832,-1455.581446,1850.514855,9178.553681
1136.816148,-1302.362347,1776.494261,9474.636058
1136.816464,-1455.581446,1776.494261,9474.636058
1136.816780,-1608.800546,1998.556043,9548.656652
1136.817096,-1532.190996,1480.411884,9474.636058
1136.817411,-1302.362347,1702.473667,9696.697840
1136.817727,-1225.752797,1924.535449,9696.697840
1136.818043,-1225.752797,1702.473667,9622.677246
1136.818359,-919.314598,1776.494261,9252.574275
1136.818675,-1302.362347,2072.576638,9548.656652
1136.818991,-1149.143247,2146.597232,9326.594869
1136.819306,-1225.752797,2368.659014,9474.636058
1136.819622,-1532.190996,2072.576638,9474.636058
1136.819938,-1838.629195,1702.473667,9474.636058
1136.820254,-1838.629195,1332.370696,9474.636058
1136.820570,-2068.457845,1184.329507,9992.780217
1136.820886,-2145.067394,1258.350101,9770.718434
1136.821202,-2145.067394,1406.391290,9770.718434
1136.821517,-1915.238745,1258.350101,9474.636058
1136.821833,-2221.676944,1480.411884,9770.718434
1136.822149,-2298.286494,1258.350101,9696.697840
1136.822465,-2145.067394,1332.370696,9622.677246
1136.822781,-1225.752797,1184.329507,9696.697840
1136.823097,-1915.238745,1702.473667,9770.718434
1136.823412,-1838.629195,1776.494261,9252.574275
1136.823728,-1915.238745,1850.514855,9104.533087
1136.824044,-2145.067394,1924.535449,8956.491898
1136.824360,-1915.238745,2072.576638,8808.450710
1136.824676,-2221.676944,2294.638420,8586.388927
1136.824992,-2451.505594,2294.638420,9030.512492
1136.825307,-2528.115143,2220.617826,9474.636058
1136.825623,-2757.943793,1702.473667,9252.574275
1136.825939,-2681.334243,814.226536,9400.615463
1136.826255,-2911.162892,592.164754,10140.821405
1136.826571,-2604.724693,296.082377,10362.883188
1136.826887,-2451.505594,222.061783,10510.924376
1136.827202,-2221.676944,222.061783,10140.821405
1136.827518,-995.924147,1110.308913,10066.800811
1136.827834,-919.314598,1258.350101,9548.656652
1136.828150,-306.438199,2072.576638,8956.491898
1136.828466,306.438199,2664.741391,8512.368333
1136.828782,536.266849,3182.885551,8142.265362
1136.829098,536.266849,3478.967927,7698.141797
1136.829413,459.657299,3182.885551,7920.203579
1136.829729,229.828649,3108.864956,8216.285956
1136.830045,-766.095498,2738.761985,7846.182985
1136.830361,-1532.190996,1998.556043,8586.388927
1136.830677,-2145.067394,1702.473667,9696.697840
1136.830993,-2987.772442,1036.288319,10214.842000
1136.831308,-3830.477490,962.267725,10362.883188
1136.831624,-4290.134789,592.164754,10881.027347
1136.831940,-4443.353888,-148.041188,11251.130318
1136.832256,-3677.258390,-0.000000,11251.130318
1136.832572,-3140.991542,-0.000000,10881.027347
1136.832888,-1991.848295,444.123565,10658.965565
1136.833203,-1149.143247,740.205942,9696.697840
1136.833519,383.047749,1406.391290,9326.594869
1136.833835,76.609550,2368.659014,8882.471304
1136.834151,1072.533697,3182.885551,8068.244768
1136.834467,1378.971896,4071.132681,7698.141797
1136.834783,919.314598,4663.297435,7476.080014
1136.835099,919.314598,4737.318029,7105.977043
1136.835414,0.000000,4663.297435,7328.038826
1136.835730,-1225.752797,3701.029710,8216.285956
1136.836046,-2451.505594,2590.720797,9252.574275
1136.836362,-3370.820191,1184.329507,10362.883188
1136.836678,-4290.134789,-0.000000,11547.212695
1136.836994,-4903.011187,-1110.308913,12361.439231
1136.837309,-5439.278036,-1480.411884,12879.583391
1136.837625,-5132.839837,-1406.391290,12435.459826
1136.837941,-4443.353888,-888.247130,12065.356855
1136.838257,-2911.162892,296.082377,11399.171507
1136.838573,-1532.190996,1998.556043,9844.739029
1136.838889,0.000000,3330.926739,8290.306550
1136.839204,995.924147,4737.318029,6957.935855
1136.839520,1378.971896,5329.482782,6661.853478
1136.839836,1532.190996,5847.626942,6291.750507
1136.840152,919.314598,5403.503377,6809.894666
1136.840468,459.657299,4515.256246,7179.997637
1136.840784,-689.485948,2886.803174,8364.327145
1136.841099,-1608.800546,666.185348,9918.759623
1136.841415,-3447.429741,-370.102971,11325.150913
1136.841731,-4136.915689,-1036.288319,12287.418637
1136.842047,-4596.572988,-1036.288319,12361.439231
1136.842363,-4903.011187,-148.041188,12139.377449
1136.842679,-4213.525239,296.082377,11325.150913
1136.842995,-3600.648841,1184.329507,10732.986159
1136.843310,-2374.896044,2220.617826,9918.759623
1136.843626,-1378.971896,3182.885551,8956.491898
1136.843942,-536.266849,3552.988522,7994.224174
1136.844258,-229.828649,3552.988522,7624.121203
1136.844574,0.000000,3256.906145,7994.224174
1136.844890,229.828649,3034.844362,8364.327145
1136.845205,383.047749,2294.638420,8586.388927
1136.845521,-153.219100,1998.556043,8586.388927
1136.845837,-1072.533697,1850.514855,9104.533087
1136.846153,-1685.410096,1406.391290,9400.615463
1136.846469,-1685.410096,1480.411884,9918.759623
1136.846785,-1838.629195,1702.473667,9696.697840
1136.847100,-2911.162892,1628.453072,9770.718434
1136.847416,-3524.039291,962.267725,9918.759623
1136.847732,-3524.039291,-0.000000,9918.759623
1136.848048,-2911.162892,148.041188,9992.780217
1136.848364,-2834.553343,740.205942,9400.615463
1136.848680,-2528.115143,1406.391290,9030.512492
1136.848996,-1915.238745,1850.514855,8882.471304
1136.849311,-1455.581446,1850.514855,9030.512492
1136.849627,-1149.143247,2146.597232,9252.574275
1136.849943,-1838.629195,2072.576638,8882.471304
1136.850259,-1532.190996,1998.556043,9474.636058
1136.850575,-1149.143247,1628.453072,9474.636058
1136.850891,-1072.533697,1628.453072,9326.594869
1136.851206,-1225.752797,1776.494261,9326.594869
1136.851522,-842.705048,1258.350101,9474.636058
1136.851838,-919.314598,962.267725,9474.636058
1136.852154,-1149.143247,1258.350101,9474.636058
1136.852470,-1149.143247,1554.432478,9252.574275
1136.852786,-1149.143247,1628.453072,9622.677246
1136.853101,-612.876398,2590.720797,9918.759623
1136.853417,-536.266849,3108.864956,9030.512492
1136.853733,-536.266849,3701.029710,8660.409521
1136.854049,-536.266849,3404.947333,8364.327145
1136.854365,-919.314598,3182.885551,8586.388927
1136.854681,-1685.410096,2146.597232,9548.656652
1136.854996,-2068.457845,1258.350101,10066.800811
1136.855312,-2068.457845,740.205942,10362.883188
1136.855628,-2757.943793,518.144159,11029.068536
1136.855944,-2604.724693,148.041188,10881.027347
1136.856260,-1991.848295,-296.082377,11251.130318
1136.856576,-1991.848295,592.164754,10140.821405
1136.856892,-1302.362347,1554.432478,9992.780217
1136.857207,-383.047749,1850.514855,9252.574275
1136.857523,459.657299,2146.597232,8956.491898
1136.857839,612.876398,2516.700203,8216.285956
1136.858155,995.924147,2368.659014,7920.203579
1136.858470,766.095498,1924.535449,8216.285956
1136.858786,-153.219100,2442.679609,8216.285956
1136.859102,-1072.533697,2368.659014,8808.450710
1136.859418,-1762.019645,1850.514855,9326.594869
1136.859734,-2757.943793,962.267725,9992.780217
1136.860049,-3600.648841,1258.350101,10510.924376
1136.860365,-3753.867940,444.123565,10510.924376
1136.860681,-3907.087040,-148.041188,10732.986159
1136.860997,-4903.011187,-0.000000,10881.027347
1136.861312,-4519.963438,-962.267725,10807.006753
1136.861628,-3677.258390,-888.247130,11029.068536
1136.861944,-3830.477490,-0.000000,10436.903782
1136.862260,-2528.115143,-222.061783,9474.636058
1136.862576,-1762.019645,370.102971,9178.553681
1136.862891,-995.924147,1628.453072,8438.347739
1136.863207,-306.438199,2368.659014,7698.141797
1136.863523,459.657299,2072.576638,8660.409521
1136.863839,689.485948,1776.494261,8660.409521
1136.864154,689.485948,1332.370696,8364.327145
1136.864470,612.876398,666.185348,8290.306550
1136.864786,0.000000,-0.000000,8660.409521
1136.865102,0.000000,-222.061783,9918.759623
1136.865418,0.000000,148.041188,10362.883188
1136.865733,0.000000,148.041188,10214.842000
1136.866049,-612.876398,296.082377,9770.718434
1136.866365,-306.438199,148.041188,9104.533087
1136.866681,-766.095498,-444.123565,9104.533087
1136.866996,-842.705048,-148.041188,9622.677246
1136.867312,383.047749,518.144159,9992.780217
1136.867628,459.657299,814.226536,9474.636058
1136.867944,153.219100,962.267725,8956.491898
1136.868259,612.876398,518.144159,8734.430116
1136.868575,76.609550,296.082377,8660.409521
1136.868891,0.000000,-0.000000,9400.615463
1136.869207,689.485948,-0.000000,10288.862594
1136.869523,1072.533697,-0.000000,10140.821405
1136.869838,995.924147,-222.061783,9844.739029
1136.870154,1149.143247,-444.123565,9770.718434
1136.870470,1378.971896,-740.205942,9844.739029
1136.870786,1685.410096,-0.000000,9474.636058
1136.871101,2145.067394,1184.329507,8956.491898
1136.871417,2068.457845,962.267725,9178.553681
1136.871733,1762.019645,740.205942,8512.368333
1136.872049,1149.143247,740.205942,8734.430116
1136.872365,612.876398,-0.000000,8660.409521
1136.872680,76.609550,-444.123565,9844.739029
1136.872996,0.000000,-74.020594,9844.739029
1136.873312,-383.047749,-592.164754,10288.862594
1136.873628,-536.266849,-888.247130,10658.965565
1136.873943,-995.924147,-1036.288319,10510.924376
1136.874259,-766.095498,-1036.288319,10362.883188
1136.874575,-306.438199,-1184.329507,10584.944971
1136.874891,306.438199,-666.185348,10288.862594
1136.875207,766.095498,-222.061783,9844.739029
1136.875522,1378.971896,-296.082377,9178.553681
1136.875838,2145.067394,-0.000000,8438.347739
1136.876154,1838.629195,666.185348,8438.347739
1136.876470,2528.115143,1036.288319,8438.347739
1136.876785,2834.553343,1184.329507,8660.409521
1136.877101,2681.334243,1776.494261,8882.471304
1136.877417,3140.991542,1702.473667,8364.327145
1136.877733,1532.190996,962.267725,8290.306550
1136.878049,612.876398,518.144159,9474.636058
1136.878364,383.047749,592.164754,10288.862594
1136.878680,-153.219100,296.082377,9918.759623
1136.878996,-995.924147,-0.000000,9548.656652
1136.879312,-1455.581446,-0.000000,10436.903782
1136.879627,-1685.410096,-518.144159,9844.739029
1136.879943,-1225.752797,-370.102971,9696.697840
1136.880259,-1685.410096,-518.144159,10881.027347
1136.880575,-689.485948,-814.226536,10362.883188
1136.880890,-612.876398,-148.041188,8734.430116
1136.881206,-229.828649,-74.020594,9844.739029
1136.881522,-153.219100,-370.102971,9474.636058
1136.881838,536.266849,666.185348,9252.574275
1136.882154,766.095498,1406.391290,8882.471304
1136.882469,459.657299,666.185348,8586.388927
1136.882785,459.657299,1036.288319,8956.491898
1136.883101,306.438199,-0.000000,8364.327145
1136.883417,0.000000,148.041188,9030.512492
1136.883732,0.000000,-444.123565,9918.759623
1136.884048,0.000000,-1332.370696,10066.800811
1136.884364,-689.485948,-1332.370696,10288.862594
1136.884680,-536.266849,-2072.576638,10658.965565
1136.884996,-1302.362347,-1998.556043,10510.924376
1136.885311,0.000000,-814.226536,10362.883188
1136.885627,153.219100,-666.185348,9622.677246
1136.885943,0.000000,74.020594,9622.677246
1136.886259,536.266849,-222.061783,9548.656652
1136.886574,1225.752797,-518.144159,8364.327145
1136.886890,842.705048,814.226536,8956.491898
1136.887206,1072.533697,148.041188,8512.368333
1136.887522,1685.410096,148.041188,8956.491898
1136.887838,1532.190996,-222.061783,9104.533087
1136.888153,766.095498,-370.102971,9474.636058
1136.888469,919.314598,-592.164754,9992.780217
1136.888785,383.047749,-1110.308913,9474.636058
1136.889101,842.705048,-370.102971,10066.800811
1136.889416,1302.362347,-0.000000,9844.739029
1136.889732,1072.533697,-444.123565,9178.553681
1136.890048,842.705048,-0.000000,9178.553681
1136.890364,766.095498,-444.123565,9400.615463
1136.890679,1378.971896,-222.061783,9326.594869
1136.890995,1149.143247,740.205942,9474.636058
1136.891311,1072.533697,222.061783,9104.533087
1136.891627,1455.581446,148.041188,9252.574275
1136.891943,612.876398,-222.061783,9400.615463
1136.892258,842.705048,-518.144159,9326.594869
1136.892574,1838.629195,-148.041188,9474.636058
1136.892890,1838.629195,370.102971,9326.594869
1136.893206,2068.457845,296.082377,9844.739029
1136.893521,1685.410096,370.102971,9104.533087
1136.893837,1378.971896,-222.061783,9104.533087
1136.894153,1149.143247,-148.041188,9474.636058
1136.894469,1455.581446,814.226536,9474.636058
1136.894785,1455.581446,-0.000000,9326.594869
1136.895100,919.314598,-888.247130,9400.615463
1136.895416,229.828649,-518.144159,9178.553681
1136.895732,0.000000,-1184.329507,9992.780217
1136.896048,76.609550,-1184.329507,10066.800811
1136.896363,0.000000,-148.041188,10362.883188
1136.896679,-229.828649,148.041188,10066.800811
1136.896995,-536.266849,-0.000000,9918.759623
1136.897311,-1072.533697,-296.082377,9918.759623
1136.897627,-995.924147,-296.082377,9548.656652
1136.897942,-229.828649,-74.020594,9474.636058
1136.898258,-689.485948,-0.000000,9548.656652
1136.898574,76.609550,-370.102971,9696.697840
1136.898890,0.000000,-592.164754,9252.574275
1136.899205,-153.219100,-888.247130,9548.656652
1136.899521,0.000000,-740.205942,9474.636058
1136.899837,383.047749,-222.061783,9252.574275
1136.900153,689.485948,370.102971,9252.574275
1136.900469,689.485948,-0.000000,9178.553681
1136.900784,0.000000,-222.061783,9400.615463
1136.901100,-306.438199,444.123565,8660.409521
1136.901416,76.609550,-444.123565,9474.636058
1136.901732,766.095498,-370.102971,10066.800811
1136.902047,0.000000,-222.061783,9474.636058
1136.902363,0.000000,-666.185348,8512.368333
1136.902679,0.000000,-888.247130,9548.656652
1136.902995,0.000000,-1554.432478,10140.821405
1136.903310,153.219100,-666.185348,9326.594869
1136.903626,0.000000,148.041188,9474.636058
1136.903942,0.000000,-148.041188,9918.759623
1136.904258,0.000000,-0.000000,9252.574275
1136.904574,229.828649,-74.020594,8956.491898
1136.904889,76.609550,-148.041188,9178.553681
1136.905205,766.095498,148.041188,9400.615463
1136.905521,383.047749,-0.000000,9326.594869
1136.905837,842.705048,-592.164754,9474.636058
1136.906152,689.485948,-518.144159,9696.697840
1136.906468,689.485948,296.082377,8882.471304
1136.906784,689.485948,444.123565,8956.491898
1136.907100,919.314598,296.082377,9104.533087
1136.907416,383.047749,-0.000000,9474.636058
1136.907731,153.219100,-444.123565,9474.636058
1136.908047,383.047749,-518.144159,9918.759623
1136.908363,383.047749,-0.000000,9178.553681
1136.908679,689.485948,-222.061783,8956.491898
1136.908994,536.266849,-222.061783,9474.636058
1136.909310,689.485948,-1332.370696,10807.006753
1136.909626,383.047749,-666.185348,9844.739029
1136.909942,153.219100,-370.102971,9548.656652
1136.910258,536.266849,-222.061783,9326.594869
1136.910573,1072.533697,370.102971,9104.533087
1136.910889,1149.143247,-0.000000,9696.697840
1136.911205,1302.362347,296.082377,9326.594869
1136.911521,1072.533697,370.102971,9252.574275
1136.911836,612.876398,-0.000000,9104.533087
1136.912152,1608.800546,-0.000000,8882.471304
1136.912468,1532.190996,592.164754,9326.594869
1136.912784,1302.362347,-0.000000,9992.780217
1136.913100,766.095498,-148.041188,9548.656652
1136.913415,383.047749,-0.000000,9474.636058
1136.913731,229.828649,-222.061783,9696.697840
1136.914047,306.438199,-148.041188,9696.697840
1136.914363,0.000000,1036.288319,9992.780217
1136.914678,0.000000,518.144159,9474.636058
1136.914994,0.000000,148.041188,9696.697840
1136.915310,0.000000,-0.000000,10288.862594
1136.915626,-76.609550,-0.000000,9178.553681
1136.915941,-229.828649,222.061783,9030.512492
1136.916257,0.000000,296.082377,9992.780217
1136.916573,0.000000,-370.102971,9918.759623
1136.916889,-229.828649,-148.041188,9844.739029
1136.917205,-536.266849,-0.000000,9548.656652
1136.917520,0.000000,-74.020594,9622.677246
1136.917836,0.000000,-0.000000,9400.615463
1136.918152,229.828649,-0.000000,9992.780217
1136.918468,536.266849,-814.226536,10140.821405
1136.918783,0.000000,-518.144159,9548.656652
1136.919099,229.828649,-888.247130,9548.656652
1136.919415,536.266849,-740.205942,10288.862594
1136.919731,383.047749,-0.000000,9474.636058
1136.920047,612.876398,-0.000000,10066.800811
1136.920362,536.266849,-0.000000,9252.574275
1136.920678,0.000000,-592.164754,9474.636058
1136.920994,0.000000,-444.123565,9400.615463
1136.921310,153.219100,-370.102971,9252.574275
1136.921625,536.266849,-592.164754,9696.697840
1136.921941,153.219100,-444.123565,8882.471304
1136.922257,-306.438199,-1110.308913,9622.677246
1136.922573,0.000000,-1554.432478,9548.656652
1136.922889,0.000000,-1776.494261,9844.739029
1136.923204,-229.828649,-1184.329507,9770.718434
1136.923520,153.219100,-1110.308913,10288.862594
1136.923836,153.219100,-518.144159,9326.594869
1136.924152,153.219100,-666.185348,9178.553681
1136.924467,76.609550,-962.267725,9474.636058
1136.924783,995.924147,-518.144159,8882.471304
1136.925099,1149.143247,-74.020594,9030.512492
1136.925415,1072.533697,-666.185348,8882.471304
1136.925730,383.047749,-222.061783,9030.512492
1136.926046,612.876398,-518.144159,8734.430116
1136.926362,995.924147,-518.144159,8660.409521
1136.926678,383.047749,-74.020594,9770.718434
1136.926994,842.705048,-148.041188,9548.656652
1136.927309,1149.143247,-592.164754,8956.491898
1136.927625,459.657299,-74.020594,9400.615463
1136.927941,842.705048,-296.082377,9474.636058
1136.928257,1225.752797,-0.000000,8364.327145
1136.928572,995.924147,296.082377,9252.574275
1136.928888,842.705048,-222.061783,9474.636058
1136.929204,1225.752797,296.082377,9104.533087
1136.929520,766.095498,888.247130,8660.409521
1136.929836,689.485948,296.082377,8660.409521
1136.930151,995.924147,222.061783,9104.533087
1136.930467,919.314598,296.082377,9622.677246
1136.930783,842.705048,-0.000000,9178.553681
1136.931099,459.657299,-0.000000,9252.574275
1136.931414,689.485948,148.041188,9548.656652
1136.931730,459.657299,296.082377,8956.491898
1136.932046,689.485948,296.082377,9326.594869
1136.932362,459.657299,592.164754,9844.739029
1136.932678,76.609550,-0.000000,9696.697840
1136.932993,-229.828649,222.061783,9030.512492
1136.933309,-459.657299,-148.041188,10214.842000
1136.933625,0.000000,-222.061783,9918.759623
1136.933941,306.438199,-0.000000,9770.718434
1136.934256,306.438199,-0.000000,10288.862594
1136.934572,153.219100,-74.020594,9548.656652
1136.934888,76.609550,-0.000000,9992.780217
1136.935204,-229.828649,-0.000000,9622.677246
1136.935520,0.000000,666.185348,8808.450710
1136.935835,153.219100,740.205942,9622.677246
1136.936151,383.047749,-74.020594,10214.842000
1136.936467,0.000000,-1036.288319,9474.636058
1136.936783,-229.828649,-740.205942,9918.759623
1136.937098,0.000000,-814.226536,10140.821405
1136.937414,153.219100,-962.267725,10288.862594
1136.937730,229.828649,-444.123565,10732.986159
1136.938046,612.876398,-222.061783,10066.800811
1136.938361,536.266849,-0.000000,9548.656652
1136.938677,76.609550,-370.102971,9622.677246
1136.938993,306.438199,-370.102971,9770.718434
1136.939309,689.485948,444.123565,9326.594869
1136.939625,1225.752797,222.061783,9918.759623
1136.939940,612.876398,296.082377,9104.533087
1136.940256,306.438199,370.102971,9326.594869
1136.940572,153.219100,-370.102971,9400.615463
1136.940888,383.047749,-0.000000,9474.636058
1136.941203,995.924147,148.041188,9474.636058
1136.941519,612.876398,-740.205942,10066.800811
1136.941835,229.828649,-444.123565,10066.800811
1136.942151,76.609550,-444.123565,9474.636058
1136.942467,689.485948,-666.185348,9474.636058
1136.942782,1072.533697,-74.020594,9400.615463
1136.943098,689.485948,-0.000000,8882.471304
1136.943414,842.705048,-222.061783,9326.594869
1136.943730,612.876398,-0.000000,9104.533087
1136.944045,842.705048,-370.102971,9104.533087
1136.944361,919.314598,-518.144159,8438.347739
1136.944677,1149.143247,-296.082377,8660.409521
1136.944993,1378.971896,-740.205942,8882.471304
1136.945309,1225.752797,-1110.308913,9252.574275
1136.945624,612.876398,-962.267725,9474.636058
1136.945940,995.924147,-666.185348,9178.553681
1136.946256,1302.362347,-444.123565,8438.347739
1136.946572,1149.143247,-0.000000,8808.450710
1136.946887,1302.362347,-962.267725,9030.512492
1136.947203,995.924147,-740.205942,8734.430116
1136.947519,153.219100,-1036.288319,9400.615463
1136.947835,536.266849,-962.267725,9030.512492
1136.948150,766.095498,-296.082377,8438.347739
1136.948466,383.047749,-518.144159,9622.677246
1136.948782,689.485948,-888.247130,9844.739029
1136.949098,229.828649,-296.082377,9030.512492
1136.949414,-459.657299,-222.061783,9252.574275
1136.949729,-153.219100,-222.061783,9474.636058
1136.950045,153.219100,-74.020594,9696.697840
1136.950361,383.047749,296.082377,9770.718434
1136.950677,76.609550,-0.000000,9326.594869
1136.950992,-383.047749,-222.061783,9326.594869
1136.951308,0.000000,-666.185348,9696.697840
1136.951624,0.000000,-222.061783,9178.553681
1136.951940,229.828649,296.082377,8882.471304
1136.952256,459.657299,-74.020594,10066.800811
1136.952571,153.219100,-0.000000,9992.780217
1136.952887,0.000000,444.123565,9326.594869
1136.953203,306.438199,-148.041188,9178.553681
1136.953519,459.657299,296.082377,10140.821405
1136.953834,0.000000,-0.000000,9918.759623
1136.954150,459.657299,-148.041188,10214.842000
1136.954466,0.000000,-296.082377,9918.759623
1136.954782,0.000000,-592.164754,9844.739029
1136.955098,306.438199,-444.123565,9326.594869
1136.955413,383.047749,-370.102971,10362.883188
1136.955729,306.438199,-222.061783,10584.944971
1136.956045,383.047749,-148.041188,9696.697840
1136.956361,536.266849,-0.000000,9770.718434
1136.956676,536.266849,-296.082377,10066.800811
1136.956992,1072.533697,-222.061783,9400.615463
1136.957308,995.924147,-148.041188,9474.636058
1136.957624,1072.533697,-0.000000,10362.883188
1136.957940,1532.190996,-740.205942,9252.574275
1136.958255,459.657299,-148.041188,9400.615463
1136.958571,306.438199,-74.020594,9326.594869
1136.958887,689.485948,-370.102971,10214.842000
1136.959203,536.266849,-296.082377,10214.842000
1136.959518,0.000000,-222.061783,9770.718434
1136.959834,459.657299,148.041188,9548.656652
1136.960150,76.609550,-518.144159,9992.780217
1136.960466,0.000000,-0.000000,10288.862594
1136.960782,229.828649,962.267725,9622.677246
1136.961097,306.438199,814.226536,9474.636058
1136.961413,229.828649,-0.000000,9400.615463
1136.961729,383.047749,-296.082377,9104.533087
1136.962045,766.095498,-666.185348,9474.636058
1136.962360,536.266849,-370.102971,9474.636058
1136.962676,1378.971896,-0.000000,9474.636058
1136.962992,1149.143247,-74.020594,9622.677246
1136.963308,1378.971896,592.164754,8512.368333
1136.963623,1225.752797,-0.000000,8956.491898
1136.963939,1455.581446,518.144159,8660.409521
1136.964255,1378.971896,370.102971,8438.347739
1136.964571,1149.143247,296.082377,9104.533087
1136.964887,1149.143247,-148.041188,9104.533087
1136.965202,459.657299,222.061783,8808.450710
1136.965518,689.485948,-222.061783,8290.306550
1136.965834,229.828649,222.061783,8512.368333
1136.966150,-306.438199,-0.000000,9030.512492
1136.966465,0.000000,-74.020594,9992.780217
1136.966781,-383.047749,-1036.288319,9770.718434
1136.967097,-1072.533697,-962.267725,10066.800811
1136.967413,-536.266849,-962.267725,9770.718434
1136.967729,0.000000,-148.041188,8438.347739
1136.968044,153.219100,370.102971,9252.574275
1136.968360,0.000000,-0.000000,9696.697840
1136.968676,229.828649,222.061783,8660.409521
1136.968992,-229.828649,592.164754,8364.327145
1136.969307,-229.828649,222.061783,9104.533087
1136.969623,612.876398,-74.020594,9104.533087
1136.969939,689.485948,-74.020594,9178.553681
1136.970255,536.266849,-148.041188,9326.594869
1136.970571,76.609550,-518.144159,9770.718434
1136.970886,-153.219100,-222.061783,9474.636058
1136.971202,0.000000,148.041188,9030.512492
1136.971518,306.438199,-0.000000,9178.553681
1136.971834,536.266849,-296.082377,9992.780217
1136.972149,0.000000,-888.247130,9474.636058
1136.972465,-459.657299,-518.144159,9474.636058
1136.972781,-383.047749,-1184.329507,10362.883188
1136.973097,229.828649,-740.205942,9474.636058
1136.973413,383.047749,-148.041188,9770.718434
1136.973728,459.657299,-888.247130,10658.965565
1136.974044,306.438199,-444.123565,9622.677246
1136.974360,153.219100,-592.164754,9252.574275
1136.974676,459.657299,-888.247130,9474.636058
1136.974991,689.485948,-592.164754,9844.739029
1136.975307,842.705048,-148.041188,10140.821405
1136.975623,995.924147,-222.061783,9252.574275
1136.975939,995.924147,148.041188,9178.553681
1136.976255,689.485948,-222.061783,9622.677246
1136.976570,766.095498,-0.000000,8734.430116
1136.976886,689.485948,-148.041188,10214.842000
1136.977202,842.705048,-592.164754,9992.780217
1136.977518,919.314598,-888.247130,9992.780217
1136.977833,229.828649,-740.205942,9918.759623
1136.978149,0.000000,-592.164754,9474.636058
1136.978465,153.219100,-444.123565,9992.780217
1136.978781,612.876398,-148.041188,9918.759623
1136.979097,766.095498,-0.000000,9844.739029
1136.979412,689.485948,-0.000000,8956.491898
1136.979728,842.705048,-0.000000,9252.574275
1136.980044,1149.143247,-666.185348,9474.636058
1136.980360,1532.190996,-148.041188,9474.636058
1136.980675,1608.800546,-74.020594,9104.533087
1136.980991,1532.190996,-444.123565,9178.553681
1136.981307,1378.971896,-74.020594,8882.471304
1136.981623,842.705048,-222.061783,9030.512492
1136.981939,1378.971896,-296.082377,9770.718434
1136.982254,1378.971896,148.041188,9030.512492
1136.982570,1149.143247,-0.000000,9178.553681
1136.982886,689.485948,-148.041188,9030.512492
1136.983202,612.876398,-962.267725,9474.636058
1136.983517,459.657299,-444.123565,9104.533087
1136.983833,306.438199,148.041188,9104.533087
1136.984149,306.438199,-0.000000,8956.491898
1136.984465,536.266849,-0.000000,9178.553681
1136.984781,383.047749,148.041188,9474.636058
1136.985096,0.000000,-222.061783,9400.615463
1136.985412,-383.047749,-0.000000,9474.636058
1136.985728,0.000000,-0.000000,9474.636058
1136.986044,153.219100,592.164754,9474.636058
1136.986359,306.438199,222.061783,10066.800811
1136.986675,-76.609550,444.123565,8586.388927
1136.986991,229.828649,148.041188,9104.533087
1136.987307,306.438199,222.061783,9474.636058
1136.987623,0.000000,962.267725,8882.471304
1136.987938,76.609550,666.185348,9918.759623
1136.988254,0.000000,-0.000000,9326.594869
1136.988570,0.000000,-0.000000,9474.636058
1136.988886,-306.438199,-0.000000,9844.739029
1136.989201,-229.828649,-0.000000,9178.553681
1136.989517,-459.657299,-222.061783,9992.780217
1136.989833,0.000000,-0.000000,10214.842000
1136.990149,-306.438199,-518.144159,9548.656652
1136.990465,-689.485948,-74.020594,9400.615463
1136.990780,-383.047749,-888.247130,10066.800811
1136.991096,0.000000,-1332.370696,10066.800811
1136.991412,-306.438199,-296.082377,10214.842000
1136.991728,536.266849,-1480.411884,10510.924376
1136.992043,0.000000,-0.000000,9178.553681
1136.992359,153.219100,74.020594,9622.677246
1136.992675,842.705048,-444.123565,8808.450710
1136.992991,1072.533697,814.226536,9474.636058
1136.993306,1378.971896,-518.144159,9992.780217
1136.993622,1302.362347,-296.082377,9326.594869
1136.993938,995.924147,370.102971,9400.615463
1136.994254,0.000000,-222.061783,8956.491898
1136.994570,919.314598,-592.164754,9844.739029
1136.994885,0.000000,-740.205942,10288.862594
1136.995201,306.438199,-888.247130,10510.924376
1136.995517,306.438199,-666.185348,9844.739029
1136.995833,0.000000,-666.185348,9918.759623
1136.996148,306.438199,-518.144159,9548.656652
1136.996464,1072.533697,444.123565,9548.656652
1136.996780,919.314598,296.082377,9474.636058
1136.997096,1225.752797,-148.041188,10288.862594
1136.997412,995.924147,-0.000000,9474.636058
1136.997727,1072.533697,-444.123565,8882.471304
1136.998043,919.314598,-296.082377,8438.347739
1136.998359,1991.848295,-222.061783,9474.636058
1136.998675,1685.410096,-592.164754,9474.636058
1136.998990,1455.581446,-666.185348,10288.862594
1136.999306,1072.533697,-148.041188,9548.656652
1136.999622,1072.533697,-0.000000,8512.368333
1136.999938,1455.581446,296.082377,9178.553681
1137.000254,1302.362347,148.041188,9104.533087
1137.000569,1532.190996,-370.102971,9178.553681
1137.000885,1302.362347,-592.164754,9622.677246
1137.001201,153.219100,-666.185348,9326.594869
1137.001517,919.314598,-666.185348,9252.574275
1137.001832,536.266849,-0.000000,9030.512492
1137.002148,536.266849,518.144159,9474.636058
1137.002464,306.438199,-370.102971,9474.636058
1137.002780,229.828649,-0.000000,9326.594869
1137.003096,-153.219100,-0.000000,9474.636058
1137.003411,459.657299,-222.061783,8882.471304
1137.003727,689.485948,518.144159,9548.656652
1137.004043,306.438199,-592.164754,9400.615463
1137.004359,153.219100,-222.061783,9474.636058
1137.004674,0.000000,-148.041188,8512.368333
1137.004990,0.000000,-592.164754,9474.636058
1137.005306,0.000000,-74.020594,9252.574275
1137.005622,306.438199,-0.000000,8882.471304
1137.005938,153.219100,-74.020594,9474.636058
1137.006253,-306.438199,-370.102971,9474.636058
1137.006569,-153.219100,-592.164754,9326.594869
1137.006885,153.219100,-0.000000,8882.471304
1137.007201,0.000000,-296.082377,9252.574275
1137.007516,-459.657299,-666.185348,9548.656652
1137.007832,229.828649,-444.123565,9844.739029
1137.008148,-306.438199,-74.020594,8956.491898
1137.008464,0.000000,-814.226536,9474.636058
1137.008780,0.000000,-962.267725,9474.636058
1137.009095,0.000000,-666.185348,9474.636058
1137.009411,0.000000,-296.082377,9844.739029
1137.009727,383.047749,-592.164754,9844.739029
1137.010043,76.609550,-0.000000,9548.656652
1137.010358,0.000000,74.020594,9252.574275
1137.010674,306.438199,148.041188,9178.553681
1137.010990,612.876398,296.082377,9474.636058
1137.011306,612.876398,-74.020594,9918.759623
1137.011622,229.828649,-74.020594,9548.656652
1137.011937,0.000000,-0.000000,10066.800811
1137.012253,0.000000,-74.020594,9844.739029
1137.012569,0.000000,-0.000000,9622.677246
1137.012885,0.000000,222.061783,11103.089130
1137.013200,0.000000,-148.041188,10140.821405
1137.013516,383.047749,518.144159,10214.842000
1137.013832,0.000000,74.020594,9474.636058
1137.014148,612.876398,370.102971,9474.636058
1137.014464,459.657299,740.205942,9622.677246
1137.014779,1072.533697,148.041188,9992.780217
1137.015095,1072.533697,-0.000000,9400.615463
1137.015411,536.266849,148.041188,9474.636058
1137.015727,612.876398,-74.020594,9474.636058
1137.016042,1532.190996,518.144159,9622.677246
1137.016358,1378.971896,518.144159,9474.636058
1137.016674,1302.362347,-0.000000,9696.697840
1137.016990,1378.971896,-444.123565,9770.718434
1137.017306,766.095498,-296.082377,8734.430116
1137.017621,1225.752797,-740.205942,9622.677246
1137.017937,1302.362347,-222.061783,9474.636058
1137.018253,1378.971896,-74.020594,9474.636058
1137.018569,1149.143247,-222.061783,9622.677246
1137.018884,1225.752797,-444.123565,9844.739029
1137.019200,766.095498,-0.000000,8882.471304
1137.019516,919.314598,-0.000000,8660.409521
1137.019832,842.705048,-148.041188,9030.512492
1137.020148,689.485948,-888.247130,9844.739029
1137.020463,842.705048,-518.144159,9474.636058
1137.020779,383.047749,-222.061783,8290.306550
1137.021095,0.000000,-666.185348,9252.574275
1137.021411,459.657299,-0.000000,8882.471304
1137.021726,153.219100,666.185348,8808.450710
1137.022042,-383.047749,-148.041188,9474.636058
1137.022358,-229.828649,-444.123565,9844.739029
1137.022674,-612.876398,-370.102971,8882.471304
1137.022990,-383.047749,-296.082377,9030.512492
1137.023305,306.438199,-740.205942,9474.636058
1137.023621,0.000000,-740.205942,9770.718434
1137.023937,0.000000,-740.205942,9696.697840
1137.024253,-229.828649,-370.102971,9400.615463
1137.024568,-229.828649,-148.041188,8808.450710
1137.024884,0.000000,-222.061783,9326.594869
1137.025200,153.219100,148.041188,9178.553681
1137.025516,0.000000,-148.041188,9474.636058
1137.025831,229.828649,-666.185348,9548.656652
1137.026147,-76.609550,-148.041188,9178.553681
1137.026463,306.438199,-1258.350101,9622.677246
1137.026779,229.828649,-1406.391290,9548.656652
1137.027095,689.485948,-370.102971,9696.697840
1137.027410,459.657299,-814.226536,9622.677246
1137.027726,612.876398,-1332.370696,10288.862594
1137.028042,0.000000,-666.185348,9326.594869
1137.028358,459.657299,-666.185348,9918.759623
1137.028673,306.438199,-592.164754,9918.759623
1137.028989,459.657299,-444.123565,10140.821405
1137.029305,919.314598,-74.020594,9696.697840
1137.029621,689.485948,-148.041188,9252.574275
1137.029937,0.000000,-518.144159,9326.594869
1137.030252,536.266849,-222.061783,9326.594869
1137.030568,689.485948,-666.185348,9400.615463
1137.030884,536.266849,-888.247130,10288.862594
1137.031200,536.266849,-1036.288319,10140.821405
1137.031515,536.266849,-592.164754,9696.697840
1137.031831,383.047749,-444.123565,9696.697840
1137.032147,689.485948,-222.061783,9178.553681
1137.032463,1149.143247,222.061783,9696.697840
1137.032779,1302.362347,148.041188,9326.594869
1137.033094,536.266849,-592.164754,8734.430116
1137.033410,383.047749,-222.061783,10140.821405
1137.033726,766.095498,-222.061783,9030.512492
1137.034042,995.924147,-0.000000,9178.553681
1137.034357,842.705048,-74.020594,9992.780217
1137.034673,1149.143247,-1110.308913,9992.780217
1137.034989,766.095498,-74.020594,9178.553681
1137.035305,229.828649,-74.020594,9474.636058
1137.035621,689.485948,-74.020594,9696.697840
1137.035936,842.705048,296.082377,9178.553681
1137.036252,1225.752797,814.226536,9104.533087
1137.036568,995.924147,666.185348,9326.594869
1137.036884,766.095498,74.020594,9474.636058
1137.037199,536.266849,-74.020594,8660.409521
1137.037515,919.314598,592.164754,9104.533087
1137.037831,1302.362347,296.082377,9918.759623
1137.038147,919.314598,592.164754,9178.553681
1137.038463,306.438199,888.247130,9770.718434
1137.038778,306.438199,-0.000000,9622.677246
1137.039094,229.828649,-74.020594,9326.594869
1137.039410,0.000000,666.185348,9474.636058
1137.039726,76.609550,296.082377,9474.636058
1137.040041,229.828649,-0.000000,10214.842000
1137.040357,0.000000,-0.000000,9474.636058
1137.040673,-689.485948,148.041188,9400.615463
1137.040989,-459.657299,-0.000000,9474.636058
1137.041305,0.000000,-0.000000,9326.594869
1137.041620,0.000000,222.061783,9844.739029
1137.041936,-383.047749,-296.082377,10066.800811
1137.042252,0.000000,-1184.329507,10510.924376
1137.042568,-229.828649,-74.020594,9992.780217
1137.042883,229.828649,296.082377,9030.512492
1137.043199,306.438199,666.185348,9104.533087
1137.043515,689.485948,-0.000000,9992.780217
1137.043831,536.266849,-592.164754,9622.677246
1137.044147,689.485948,-74.020594,9326.594869
1137.044462,306.438199,-0.000000,9178.553681
1137.044778,459.657299,-222.061783,9696.697840
1137.045094,612.876398,-370.102971,9918.759623
1137.045410,383.047749,-888.247130,10140.821405
1137.045725,306.438199,-592.164754,10140.821405
1137.046041,0.000000,-518.144159,9622.677246
1137.046357,153.219100,-592.164754,9548.656652
1137.046673,536.266849,-0.000000,9326.594869
1137.046989,536.266849,-370.102971,9918.759623
1137.047304,689.485948,-1332.370696,9178.553681
1137.047620,0.000000,-1184.329507,9696.697840
1137.047936,0.000000,-1480.411884,10066.800811
1137.048252,0.000000,-666.185348,9622.677246
1137.048567,766.095498,-296.082377,9474.636058
1137.048883,459.657299,-296.082377,9548.656652
1137.049199,536.266849,-888.247130,10214.842000
1137.049515,536.266849,-518.144159,9622.677246
1137.049831,766.095498,-740.205942,8660.409521
1137.050146,689.485948,-518.144159,9622.677246
1137.050462,1685.410096,-296.082377,10140.821405
1137.050778,1302.362347,-0.000000,8512.368333
1137.051094,842.705048,370.102971,9030.512492
1137.051409,689.485948,222.061783,9326.594869
1137.051725,1302.362347,-74.020594,8956.491898
1137.052041,995.924147,296.082377,8734.430116
1137.052357,919.314598,-148.041188,9326.594869
1137.052673,995.924147,-1554.432478,9844.739029
1137.052988,612.876398,-1628.453072,9104.533087
1137.053304,0.000000,-962.267725,9326.594869
1137.053620,383.047749,-1036.288319,9474.636058
1137.053936,612.876398,-222.061783,9178.553681
1137.054251,383.047749,148.041188,9474.636058
1137.054567,689.485948,-74.020594,9178.553681
1137.054883,459.657299,-74.020594,8882.471304
1137.055199,689.485948,-444.123565,8660.409521
1137.055515,459.657299,-0.000000,8734.430116
1137.055830,1225.752797,-518.144159,9548.656652
1137.056146,995.924147,370.102971,8660.409521
1137.056462,459.657299,444.123565,9400.615463
1137.056778,153.219100,-74.020594,9548.656652
1137.057093,459.657299,148.041188,9030.512492
1137.057409,153.219100,1184.329507,9252.574275
1137.057725,459.657299,740.205942,9548.656652
1137.058041,0.000000,-0.000000,9474.636058
1137.058356,-383.047749,-0.000000,9844.739029
1137.058672,-536.266849,222.061783,9844.739029
1137.058988,0.000000,-0.000000,9474.636058
1137.059304,-153.219100,666.185348,9548.656652
1137.059620,-383.047749,370.102971,9622.677246
1137.059935,0.000000,-666.185348,9696.697840
1137.060251,-306.438199,-888.247130,9992.780217
1137.060567,-383.047749,-740.205942,9844.739029
1137.060882,-306.438199,-148.041188,9696.697840
1137.061198,0.000000,222.061783,9992.780217
1137.061514,766.095498,666.185348,9400.615463
1137.061829,306.438199,814.226536,9030.512492
1137.062145,76.609550,296.082377,9104.533087
1137.062461,612.876398,-370.102971,9474.636058
1137.062776,766.095498,-0.000000,9992.780217
1137.063092,995.924147,-1036.288319,9770.718434
1137.063408,1072.533697,-666.185348,10066.800811
1137.063723,153.219100,-592.164754,9326.594869
1137.064039,383.047749,-592.164754,9474.636058
1137.064355,919.314598,-518.144159,10066.800811
1137.064670,995.924147,-296.082377,9918.759623
1137.064986,842.705048,148.041188,9992.780217
1137.065302,306.438199,-0.000000,9252.574275
1137.065617,306.438199,-222.061783,9548.656652
1137.065933,536.266849,-296.082377,9548.656652
1137.066249,689.485948,-222.061783,9474.636058
1137.066565,306.438199,-148.041188,9992.780217
1137.066880,689.485948,-1110.308913,9992.780217
1137.067196,76.609550,-888.247130,9844.739029
1137.067512,76.609550,-814.226536,9400.615463
1137.067827,842.705048,-592.164754,9844.739029
1137.068143,1072.533697,-222.061783,9030.512492
1137.068459,995.924147,222.061783,9474.636058
1137.068774,842.705048,-296.082377,9474.636058
1137.069090,995.924147,-0.000000,8512.368333
1137.069406,995.924147,-0.000000,8956.491898
1137.069721,1532.190996,-0.000000,8438.347739
1137.070037,1455.581446,-0.000000,8882.471304
1137.070353,1072.533697,-518.144159,9622.677246
1137.070668,536.266849,-1036.288319,9400.615463
1137.070984,0.000000,-1406.391290,9474.636058
1137.071300,-153.219100,-1554.432478,9844.739029
1137.071615,76.609550,-0.000000,9474.636058
1137.071931,153.219100,370.102971,9178.553681
1137.072247,153.219100,-814.226536,9400.615463
1137.072563,306.438199,-518.144159,9770.718434
1137.072878,76.609550,-444.123565,9252.574275
1137.073194,76.609550,444.123565,8660.409521
1137.073510,153.219100,370.102971,8956.491898
1137.073825,153.219100,-296.082377,9474.636058
1137.074141,306.438199,-296.082377,9548.656652
1137.074457,0.000000,-0.000000,9252.574275
1137.074772,0.000000,-666.185348,9770.718434
1137.075088,306.438199,148.041188,9178.553681
1137.075404,536.266849,888.247130,9326.594869
1137.075719,459.657299,148.041188,9696.697840
1137.076035,153.219100,-74.020594,9474.636058
1137.076351,0.000000,-0.000000,9178.553681
1137.076666,0.000000,-0.000000,9178.553681
1137.076982,383.047749,296.082377,9474.636058
1137.077298,0.000000,148.041188,9400.615463
1137.077613,-459.657299,-592.164754,9918.759623
1137.077929,-306.438199,-1036.288319,10140.821405
1137.078245,-842.705048,-740.205942,9696.697840
1137.078561,-612.876398,-592.164754,9548.656652
1137.078876,0.000000,-222.061783,9474.636058
1137.079192,383.047749,222.061783,9474.636058
1137.079508,153.219100,-370.102971,9400.615463
1137.079823,229.828649,-222.061783,9252.574275
1137.080139,383.047749,-888.247130,9844.739029
1137.080455,689.485948,-1036.288319,9622.677246
1137.080770,766.095498,-222.061783,9696.697840
1137.081086,689.485948,-444.123565,9844.739029
1137.081402,689.485948,-814.226536,9252.574275
1137.081717,766.095498,-0.000000,9474.636058
1137.082033,689.485948,222.061783,9474.636058
1137.082349,1302.362347,444.123565,9400.615463
1137.082664,1225.752797,814.226536,9030.512492
1137.082980,1685.410096,296.082377,9400.615463
1137.083296,919.314598,-888.247130,10066.800811
1137.083611,766.095498,-222.061783,10214.842000
1137.083927,612.876398,-148.041188,9326.594869
1137.084243,383.047749,444.123565,9770.718434
1137.084559,383.047749,666.185348,9918.759623
1137.084874,459.657299,-518.144159,10066.800811
1137.085190,383.047749,-222.061783,10288.862594
1137.085506,0.000000,-444.123565,9918.759623
1137.085821,689.485948,-222.061783,9252.574275
1137.086137,1302.362347,444.123565,9770.718434
1137.086453,919.314598,-74.020594,9178.553681
1137.086768,995.924147,-444.123565,9326.594869
1137.087084,919.314598,-148.041188,9696.697840
1137.087400,536.266849,-148.041188,9326.594869
1137.087715,1302.362347,-444.123565,9622.677246
1137.088031,1149.143247,-0.000000,9030.512492
1137.088347,1455.581446,-296.082377,9104.533087
1137.088662,1685.410096,-296.082377,9252.574275
1137.088978,842.705048,-296.082377,8586.388927
1137.089294,919.314598,-222.061783,9104.533087
1137.089609,1072.533697,-0.000000,9252.574275
1137.089925,612.876398,148.041188,8808.450710
1137.090241,919.314598,-222.061783,9474.636058
1137.090556,229.828649,-370.102971,9474.636058
1137.090872,0.000000,-518.144159,9104.533087
1137.091188,76.609550,-222.061783,9104.533087
1137.091504,306.438199,-888.247130,9474.636058
1137.091819,-153.219100,-962.267725,10214.842000
1137.092135,0.000000,-592.164754,9326.594869
1137.092451,-383.047749,-518.144159,8660.409521
1137.092766,-459.657299,-444.123565,9992.780217
1137.093082,0.000000,-0.000000,9474.636058
1137.093398,229.828649,666.185348,8364.327145
1137.093713,-536.266849,-0.000000,9326.594869
1137.094029,-229.828649,-222.061783,10066.800811
1137.094345,-459.657299,-370.102971,8808.450710
1137.094660,0.000000,222.061783,8734.430116
1137.094976,-383.047749,74.020594,9474.636058
1137.095292,153.219100,-296.082377,9918.759623
1137.095607,229.828649,-370.102971,9622.677246
1137.095923,-383.047749,-222.061783,9622.677246
1137.096239,-689.485948,-740.205942,9622.677246
1137.096554,229.828649,444.123565,9474.636058
1137.096870,-229.828649,444.123565,9252.574275
1137.097186,459.657299,-296.082377,10214.842000
1137.097502,689.485948,-592.164754,9770.718434
1137.097817,-229.828649,-444.123565,9178.553681
1137.098133,-153.219100,-888.247130,10288.862594
1137.098449,689.485948,-814.226536,10362.883188
1137.098764,766.095498,222.061783,9474.636058
1137.099080,919.314598,-0.000000,9622.677246
1137.099396,689.485948,-148.041188,9622.677246
1137.099711,842.705048,-148.041188,9770.718434
1137.100027,1378.971896,-444.123565,9400.615463
1137.100343,1378.971896,-74.020594,9474.636058
1137.100658,1378.971896,-222.061783,9770.718434
1137.100974,1149.143247,-814.226536,9326.594869
1137.101290,842.705048,-444.123565,9992.780217
1137.101605,459.657299,-296.082377,9844.739029
1137.101921,612.876398,-296.082377,9622.677246
1137.102237,842.705048,888.247130,9104.533087
1137.102552,612.876398,-0.000000,9326.594869
1137.102868,612.876398,-518.144159,9844.739029
1137.103184,383.047749,-370.102971,10066.800811
1137.103500,153.219100,-962.267725,9548.656652
1137.103815,919.314598,-666.185348,9622.677246
1137.104131,1149.143247,-0.000000,10362.883188
1137.104447,612.876398,-74.020594,9474.636058
1137.104762,612.876398,-0.000000,9770.718434
1137.105078,383.047749,-0.000000,8882.471304
1137.105394,612.876398,222.061783,8660.409521
1137.105709,1455.581446,-0.000000,9178.553681
1137.106025,766.095498,-0.000000,9474.636058
1137.106341,842.705048,-0.000000,9474.636058
1137.106656,842.705048,-148.041188,9326.594869
1137.106972,689.485948,222.061783,9252.574275
1137.107288,459.657299,518.144159,8956.491898
1137.107603,536.266849,592.164754,9104.533087
1137.107919,689.485948,-0.000000,9474.636058
1137.108235,383.047749,222.061783,9400.615463
1137.108550,0.000000,-148.041188,9696.697840
1137.108866,229.828649,-740.205942,9474.636058
1137.109182,459.657299,370.102971,8808.450710
1137.109497,383.047749,518.144159,8956.491898
1137.109813,689.485948,-0.000000,9474.636058
1137.110129,229.828649,-222.061783,9770.718434
1137.110445,76.609550,-74.020594,8882.471304
1137.110760,306.438199,222.061783,8882.471304
1137.111076,229.828649,-0.000000,8808.450710
1137.111392,-229.828649,-0.000000,9696.697840
1137.111707,383.047749,-444.123565,9918.759623
1137.112023,-383.047749,-222.061783,9474.636058
1137.112339,-766.095498,-444.123565,9844.739029
1137.112654,0.000000,222.061783,9178.553681
1137.112970,306.438199,222.061783,9252.574275
1137.113286,229.828649,222.061783,9474.636058
1137.113601,0.000000,-444.123565,10066.800811
1137.113917,0.000000,-518.144159,9474.636058
1137.114233,0.000000,-666.185348,9770.718434
1137.114548,0.000000,-370.102971,9548.656652
1137.114864,536.266849,-666.185348,9474.636058
1137.115180,842.705048,-370.102971,9696.697840
1137.115495,-153.219100,-222.061783,9622.677246
1137.115811,-612.876398,-518.144159,9918.759623
1137.116127,0.000000,-1110.308913,9918.759623
1137.116443,153.219100,-1110.308913,9770.718434
1137.116758,229.828649,-296.082377,9992.780217
1137.117074,689.485948,-1110.308913,9918.759623
1137.117390,76.609550,-518.144159,9622.677246
1137.117705,229.828649,-148.041188,10362.883188
1137.118021,1149.143247,-148.041188,8882.471304
1137.118337,1532.190996,814.226536,8364.327145
1137.118652,1302.362347,296.082377,9696.697840
1137.118968,842.705048,-592.164754,9030.512492
1137.119284,689.485948,-148.041188,9326.594869
1137.119599,689.485948,-592.164754,9992.780217
1137.119915,1072.533697,-592.164754,9696.697840
1137.120231,1072.533697,-0.000000,9548.656652
1137.120546,842.705048,-444.123565,9770.718434
1137.120862,383.047749,-814.226536,9844.739029
1137.121178,383.047749,-666.185348,10066.800811
1137.121493,612.876398,-518.144159,9326.594869
1137.121809,536.266849,-518.144159,9844.739029
1137.122125,919.314598,-370.102971,9474.636058
1137.122441,1302.362347,-296.082377,9104.533087
1137.122756,1149.143247,-370.102971,9252.574275
1137.123072,919.314598,-222.061783,8734.430116
1137.123388,1302.362347,-0.000000,8660.409521
1137.123703,1762.019645,-0.000000,9326.594869
1137.124019,1378.971896,-518.144159,9474.636058
1137.124335,1378.971896,-592.164754,9548.656652
1137.124650,766.095498,-444.123565,8808.450710
1137.124966,766.095498,-444.123565,9252.574275
1137.125282,1225.752797,222.061783,9030.512492
1137.125597,536.266849,888.247130,8808.450710
1137.125913,842.705048,-0.000000,9104.533087
1137.126229,766.095498,-592.164754,9696.697840
1137.126544,0.000000,-74.020594,9326.594869
1137.126860,76.609550,-370.102971,9474.636058
1137.127176,612.876398,-0.000000,8882.471304
1137.127491,306.438199,-0.000000,9622.677246
1137.127807,229.828649,-148.041188,9400.615463
1137.128123,0.000000,-0.000000,9622.677246
1137.128439,-995.924147,-74.020594,9400.615463
1137.128754,-229.828649,222.061783,9400.615463
1137.129070,0.000000,666.185348,8956.491898
1137.129386,-229.828649,296.082377,10140.821405
1137.129701,76.609550,-222.061783,9474.636058
1137.130017,-153.219100,-0.000000,9104.533087
1137.130333,76.609550,-148.041188,9400.615463
1137.130648,0.000000,-0.000000,10066.800811
1137.130964,229.828649,370.102971,9770.718434
1137.131280,76.609550,-148.041188,10066.800811
1137.131595,-153.219100,-148.041188,9918.759623
1137.131911,0.000000,-0.000000,9104.533087
1137.132227,0.000000,-148.041188,9474.636058
1137.132542,229.828649,296.082377,10362.883188
1137.132858,0.000000,370.102971,9178.553681
1137.133174,0.000000,-222.061783,9252.574275
1137.133489,76.609550,-814.226536,10362.883188
1137.133805,-383.047749,-740.205942,10066.800811
1137.134121,229.828649,-74.020594,9474.636058
1137.134436,-306.438199,-74.020594,9622.677246
1137.134752,0.000000,-962.267725,10807.006753
1137.135068,229.828649,-1036.288319,10510.924376
1137.135384,-612.876398,-296.082377,9474.636058
1137.135699,-229.828649,-222.061783,9844.739029
1137.136015,536.266849,-74.020594,9474.636058
1137.136331,612.876398,666.185348,8808.450710
1137.136646,689.485948,740.205942,9252.574275
1137.136962,612.876398,-518.144159,9770.718434
1137.137278,76.609550,-592.164754,9252.574275
1137.137593,153.219100,-444.123565,9548.656652
1137.137909,383.047749,-666.185348,9918.759623
1137.138225,459.657299,-592.164754,9992.780217
1137.138540,306.438199,-592.164754,9770.718434
1137.138856,-229.828649,-0.000000,9844.739029
1137.139172,612.876398,370.102971,9548.656652
1137.139487,842.705048,-148.041188,8882.471304
1137.139803,766.095498,296.082377,9918.759623
1137.140119,995.924147,370.102971,9326.594869
1137.140434,1302.362347,-222.061783,9030.512492
1137.140750,689.485948,-148.041188,9104.533087
1137.141066,919.314598,-296.082377,9104.533087
1137.141382,1225.752797,-148.041188,9178.553681
1137.141697,1072.533697,-0.000000,8882.471304
1137.142013,919.314598,-444.123565,9696.697840
1137.142329,1608.800546,-592.164754,9326.594869
1137.142644,842.705048,-370.102971,8734.430116
1137.142960,1378.971896,-74.020594,8956.491898
1137.143276,1455.581446,222.061783,8364.327145
1137.143591,1149.143247,148.041188,8734.430116
1137.143907,919.314598,-148.041188,8808.450710
1137.144223,766.095498,-222.061783,9104.533087
1137.144538,689.485948,-0.000000,8956.491898
1137.144854,229.828649,-0.000000,8882.471304
1137.145170,536.266849,-518.144159,9474.636058
1137.145485,229.828649,-592.164754,9622.677246
1137.145801,229.828649,-0.000000,9548.656652
1137.146117,0.000000,-74.020594,9326.594869
1137.146432,76.609550,-74.020594,9770.718434
1137.146748,383.047749,370.102971,8512.368333
1137.147064,153.219100,370.102971,8956.491898
1137.147380,0.000000,-518.144159,9696.697840
1137.147695,0.000000,-148.041188,9992.780217
1137.148011,-153.219100,-74.020594,9400.615463
1137.148327,-153.219100,148.041188,8734.430116
1137.148642,229.828649,444.123565,9104.533087
1137.148958,76.609550,-0.000000,9918.759623
1137.149274,76.609550,-518.144159,10436.903782
1137.149589,-306.438199,-296.082377,10066.800811
1137.149905,229.828649,222.061783,9622.677246
1137.150221,306.438199,-0.000000,9474.636058
1137.150536,229.828649,444.123565,9992.780217
1137.150852,459.657299,370.102971,9770.718434
1137.151168,153.219100,-370.102971,9918.759623
1137.151483,0.000000,148.041188,9918.759623
1137.151799,-306.438199,-296.082377,9622.677246
1137.152115,536.266849,-740.205942,10510.924376
1137.152430,306.438199,-222.061783,10066.800811
1137.152746,612.876398,-666.185348,10214.842000
1137.153062,0.000000,-518.144159,9696.697840
1137.153377,153.219100,-592.164754,10436.903782
1137.153693,536.266849,-1110.308913,9918.759623
1137.154009,919.314598,-0.000000,9474.636058
1137.154325,459.657299,370.102971,9474.636058
1137.154640,689.485948,-518.144159,10214.842000
1137.154956,689.485948,-222.061783,9104.533087
1137.155272,612.876398,-148.041188,9400.615463
1137.155587,306.438199,-222.061783,9400.615463
1137.155903,536.266849,-148.041188,9474.636058
1137.156219,995.924147,-888.247130,9400.615463
1137.156534,306.438199,-962.267725,9844.739029
1137.156850,0.000000,-1036.288319,10066.800811
1137.157166,153.219100,-666.185348,9252.574275
1137.157481,383.047749,-296.082377,9400.615463
1137.157797,383.047749,-222.061783,9696.697840
1137.158113,689.485948,-0.000000,9178.553681
1137.158428,1072.533697,666.185348,8586.388927
1137.158744,76.609550,296.082377,8068.244768
1137.159060,383.047749,-518.144159,8734.430116
1137.159375,1225.752797,-518.144159,9326.594869
1137.159691,612.876398,-444.123565,9104.533087
1137.160007,459.657299,-518.144159,9178.553681
1137.160323,229.828649,-518.144159,9104.533087
1137.160638,0.000000,-592.164754,9178.553681
1137.160954,1072.533697,-740.205942,9178.553681
1137.161270,919.314598,148.041188,8882.471304
1137.161586,766.095498,296.082377,9252.574275
1137.161902,842.705048,296.082377,9104.533087
1137.162217,689.485948,-0.000000,9030.512492
1137.162533,536.266849,592.164754,9104.533087
1137.162849,1225.752797,-0.000000,9104.533087
1137.163165,995.924147,296.082377,8956.491898
1137.163481,919.314598,-0.000000,9696.697840
1137.163797,459.657299,-148.041188,9178.553681
1137.164112,229.828649,-296.082377,9474.636058
1137.164428,459.657299,-0.000000,9918.759623
1137.164744,536.266849,740.205942,9178.553681
1137.165060,229.828649,962.267725,9474.636058
1137.165376,536.266849,-0.000000,9252.574275
1137.165692,-229.828649,-148.041188,9104.533087
1137.166007,0.000000,-370.102971,9622.677246
1137.166323,0.000000,-518.144159,9844.739029
1137.166639,0.000000,-296.082377,9844.739029
1137.166955,0.000000,-666.185348,10140.821405
1137.167271,-383.047749,-666.185348,9400.615463
1137.167587,-766.095498,-592.164754,9918.759623
1137.167902,-153.219100,-740.205942,10140.821405
1137.168218,229.828649,-74.020594,9696.697840
1137.168534,0.000000,148.041188,9622.677246
1137.168850,612.876398,-222.061783,9844.739029
1137.169166,306.438199,-222.061783,9696.697840
1137.169481,0.000000,-518.144159,9844.739029
1137.169797,76.609550,-814.226536,9178.553681
1137.170113,459.657299,-592.164754,9400.615463
1137.170429,995.924147,-1184.329507,10510.924376
1137.170745,919.314598,-1110.308913,10066.800811
1137.171061,536.266849,-666.185348,9474.636058
1137.171376,306.438199,-444.123565,9696.697840
1137.171692,842.705048,-370.102971,9918.759623
1137.172008,1149.143247,222.061783,9696.697840
1137.172324,842.705048,296.082377,9252.574275
1137.172640,459.657299,-148.041188,9696.697840
1137.172956,306.438199,-592.164754,9770.718434
1137.173271,459.657299,-518.144159,9622.677246
1137.173587,229.828649,-666.185348,9326.594869
1137.173903,229.828649,-444.123565,9474.636058
1137.174219,689.485948,-592.164754,10510.924376
1137.174535,-229.828649,-814.226536,9474.636058
1137.174850,-153.219100,-1110.308913,9622.677246
1137.175166,153.219100,-1332.370696,10436.903782
1137.175482,612.876398,-444.123565,9400.615463
1137.175798,1302.362347,518.144159,9474.636058
1137.176114,1378.971896,-0.000000,8734.430116
1137.176430,842.705048,-222.061783,8956.491898
1137.176745,1532.190996,-370.102971,9178.553681
1137.177061,1072.533697,296.082377,7846.182985
1137.177377,1225.752797,296.082377,9030.512492
1137.177693,995.924147,-814.226536,8882.471304
1137.178009,1072.533697,-666.185348,9474.636058
1137.178325,612.876398,-814.226536,9030.512492
1137.178640,306.438199,-888.247130,8808.450710
1137.178956,766.095498,-222.061783,9474.636058
1137.179272,536.266849,-370.102971,9548.656652
1137.179588,153.219100,-0.000000,9400.615463
1137.179904,306.438199,-148.041188,9178.553681
1137.180220,0.000000,-0.000000,9030.512492
1137.180535,306.438199,-74.020594,9178.553681
1137.180851,612.876398,-0.000000,8956.491898
1137.181167,536.266849,-74.020594,8660.409521
1137.181483,306.438199,-444.123565,9252.574275
1137.181799,0.000000,-222.061783,9548.656652
1137.182114,0.000000,370.102971,9178.553681
1137.182430,0.000000,666.185348,8734.430116
1137.182746,229.828649,666.185348,9548.656652
1137.183062,306.438199,518.144159,9474.636058
1137.183378,0.000000,148.041188,9770.718434
1137.183694,-459.657299,148.041188,9622.677246
1137.184009,-459.657299,370.102971,9326.594869
1137.184325,306.438199,148.041188,9622.677246
1137.184641,-612.876398,296.082377,9844.739029
1137.184957,-76.609550,-518.144159,10584.944971
1137.185273,0.000000,-666.185348,10140.821405
1137.185589,-536.266849,-0.000000,9844.739029
1137.185904,0.000000,222.061783,9770.718434
1137.186220,306.438199,-0.000000,9770.718434
1137.186536,766.095498,-0.000000,9770.718434
1137.186852,919.314598,-74.020594,10066.800811
1137.187168,536.266849,444.123565,9252.574275
1137.187483,383.047749,-148.041188,9326.594869
1137.187799,919.314598,-444.123565,9548.656652
1137.188115,919.314598,-0.000000,9844.739029
1137.188431,766.095498,-370.102971,10140.821405
1137.188747,1149.143247,-518.144159,10288.862594
1137.189063,919.314598,-962.267725,9548.656652
1137.189378,536.266849,-740.205942,10288.862594
1137.189694,1378.971896,-222.061783,9770.718434
1137.190010,1149.143247,-0.000000,9326.594869
1137.190326,1455.581446,370.102971,10140.821405
1137.190642,919.314598,-222.061783,9474.636058
1137.190958,766.095498,148.041188,9178.553681
1137.191273,536.266849,-148.041188,9622.677246
1137.191589,536.266849,-0.000000,9474.636058
1137.191905,612.876398,-296.082377,9992.780217
1137.192221,1225.752797,-1184.329507,9548.656652
1137.192537,0.000000,-740.205942,9474.636058
1137.192853,0.000000,-740.205942,9770.718434
1137.193168,306.438199,-962.267725,9326.594869
1137.193484,612.876398,222.061783,9252.574275
1137.193800,536.266849,370.102971,9474.636058
1137.194116,536.266849,-370.102971,9178.553681
1137.194432,306.438199,-74.020594,9030.512492
1137.194747,689.485948,-222.061783,8660.409521
1137.195063,919.314598,-222.061783,8586.388927
1137.195379,1072.533697,-296.082377,9104.533087
1137.195695,1072.533697,-1184.329507,9252.574275
1137.196011,689.485948,-1036.288319,9622.677246
1137.196327,459.657299,-740.205942,8956.491898
1137.196642,766.095498,-444.123565,8808.450710
1137.196958,766.095498,296.082377,8586.388927
1137.197274,766.095498,370.102971,8808.450710
1137.197590,1149.143247,-0.000000,9252.574275
1137.197906,0.000000,-296.082377,9474.636058
1137.198222,229.828649,-888.247130,9252.574275
1137.198537,536.266849,-444.123565,9326.594869
1137.198853,76.609550,-0.000000,9030.512492
1137.199169,536.266849,-148.041188,9474.636058
1137.199485,689.485948,-444.123565,9400.615463
1137.199801,0.000000,-370.102971,9252.574275
1137.200117,306.438199,-666.185348,9474.636058
1137.200432,536.266849,-0.000000,9474.636058
1137.200748,306.438199,888.247130,8512.368333
1137.201064,689.485948,962.267725,9252.574275
1137.201380,306.438199,518.144159,8512.368333
1137.201696,0.000000,-222.061783,9844.739029
1137.202011,0.000000,-222.061783,9474.636058
1137.202327,-153.219100,296.082377,8734.430116
1137.202643,-383.047749,-74.020594,9844.739029
1137.202959,-459.657299,-888.247130,9844.739029
1137.203275,-612.876398,-666.185348,10066.800811
1137.203591,-1072.533697,-296.082377,10066.800811
1137.203906,-1149.143247,-518.144159,10362.883188
1137.204222,-536.266849,-222.061783,10140.821405
1137.204538,0.000000,740.205942,9918.759623
1137.204854,0.000000,222.061783,9622.677246
1137.205170,0.000000,-518.144159,9548.656652
1137.205486,0.000000,-592.164754,9918.759623
1137.205801,459.657299,-592.164754,10288.862594
1137.206117,689.485948,148.041188,9474.636058
1137.206433,995.924147,-592.164754,9992.780217
1137.206749,842.705048,-296.082377,9992.780217
1137.207065,1149.143247,-370.102971,9474.636058
1137.207380,1455.581446,-0.000000,9696.697840
1137.207696,1225.752797,740.205942,9992.780217
1137.208012,1532.190996,370.102971,9326.594869
1137.208328,1532.190996,222.061783,8956.491898
1137.208644,612.876398,518.144159,9622.677246
1137.208960,459.657299,-962.267725,10436.903782
1137.209275,766.095498,-814.226536,10066.800811
1137.209591,536.266849,-814.226536,9622.677246
1137.209907,153.219100,-962.267725,10214.842000
1137.210223,459.657299,-1332.370696,10436.903782
1137.210539,229.828649,-888.247130,9770.718434
1137.210855,306.438199,-370.102971,9548.656652
1137.211170,766.095498,-0.000000,9696.697840
1137.211486,1149.143247,666.185348,9104.533087
1137.211802,1608.800546,296.082377,8734.430116
1137.212118,1149.143247,-74.020594,8364.327145
1137.212434,995.924147,-444.123565,9400.615463
1137.212750,1455.581446,-370.102971,8364.327145
1137.213065,1762.019645,-0.000000,8882.471304
1137.213381,995.924147,-370.102971,9030.512492
1137.213697,1608.800546,-962.267725,9474.636058
1137.214013,1072.533697,-518.144159,8882.471304
1137.214329,842.705048,-222.061783,8956.491898
1137.214644,919.314598,-0.000000,9030.512492
1137.214960,1072.533697,-0.000000,8808.450710
1137.215276,1072.533697,-518.144159,9400.615463
1137.215592,153.219100,-1110.308913,9252.574275
1137.215908,-153.219100,-370.102971,9178.553681
1137.216224,153.219100,-370.102971,8586.388927
1137.216539,-306.438199,-296.082377,9030.512492
1137.216855,0.000000,148.041188,9326.594869
1137.217171,-153.219100,-296.082377,9178.553681
1137.217487,-612.876398,-592.164754,9252.574275
1137.217803,-1072.533697,-666.185348,9770.718434
1137.218119,-842.705048,-148.041188,9178.553681
1137.218434,-459.657299,444.123565,8512.368333
1137.218750,0.000000,-0.000000,9474.636058
1137.219066,-612.876398,-518.144159,9770.718434
1137.219382,-536.266849,222.061783,9104.533087
1137.219698,-842.705048,444.123565,8512.368333
1137.220013,-689.485948,222.061783,9400.615463
1137.220329,-766.095498,222.061783,10066.800811
1137.220645,-536.266849,296.082377,9252.574275
1137.220961,-842.705048,-444.123565,9770.718434
1137.221277,-919.314598,-444.123565,10362.883188
1137.221593,-842.705048,-296.082377,10066.800811
1137.221908,-536.266849,-148.041188,10140.821405
1137.222224,-536.266849,666.185348,9474.636058
1137.222540,459.657299,-222.061783,9844.739029
1137.222856,0.000000,-222.061783,9844.739029
1137.223172,0.000000,-740.205942,10732.986159
1137.223488,306.438199,-740.205942,9844.739029
1137.223803,612.876398,-0.000000,9400.615463
1137.224119,995.924147,-0.000000,9030.512492
1137.224435,1072.533697,-296.082377,10288.862594
1137.224751,1225.752797,-370.102971,10288.862594
1137.225067,842.705048,-444.123565,9326.594869
1137.225383,1225.752797,-296.082377,9326.594869
1137.225698,1685.410096,-370.102971,9844.739029
1137.226014,1915.238745,-296.082377,9992.780217
1137.226330,1608.800546,-0.000000,9548.656652
1137.226646,919.314598,-296.082377,9548.656652
1137.226962,1225.752797,-518.144159,9696.697840
1137.227277,1302.362347,222.061783,9548.656652
1137.227593,766.095498,518.144159,9178.553681
1137.227909,995.924147,-814.226536,10436.903782
1137.228225,995.924147,-592.164754,9548.656652
1137.228541,842.705048,-666.185348,9696.697840
1137.228857,1225.752797,-962.267725,9400.615463
1137.229172,1149.143247,-518.144159,9548.656652
1137.229488,1302.362347,-0.000000,9548.656652
1137.229804,1225.752797,-0.000000,9622.677246
1137.230120,1378.971896,296.082377,9030.512492
1137.230436,612.876398,296.082377,8808.450710
1137.230752,1225.752797,444.123565,8956.491898
1137.231067,1378.971896,370.102971,8586.388927
1137.231383,1149.143247,-222.061783,8882.471304
1137.231699,1302.362347,-962.267725,9696.697840
1137.232015,689.485948,-1184.329507,9326.594869
1137.232331,1072.533697,-740.205942,9474.636058
1137.232646,766.095498,-296.082377,8882.471304
1137.232962,766.095498,148.041188,9178.553681
1137.233278,1455.581446,-222.061783,9252.574275
1137.233594,229.828649,-0.000000,8882.471304
1137.233910,459.657299,-0.000000,9178.553681
1137.234226,229.828649,-222.061783,8660.409521
1137.234541,306.438199,-0.000000,8660.409521
1137.234857,0.000000,-296.082377,8586.388927
1137.235173,306.438199,-740.205942,9326.594869
1137.235489,-229.828649,-592.164754,8882.471304
1137.235805,-306.438199,-592.164754,9400.615463
1137.236121,0.000000,-444.123565,9548.656652
1137.236436,-306.438199,-0.000000,9400.615463
1137.236752,-153.219100,222.061783,9992.780217
1137.237068,0.000000,-0.000000,9104.533087
1137.237384,-612.876398,296.082377,9326.594869
1137.237700,-383.047749,148.041188,9400.615463
1137.238016,229.828649,-0.000000,9400.615463
1137.238331,0.000000,148.041188,9474.636058
1137.238647,0.000000,-0.000000,9474.636058
1137.238963,-229.828649,-74.020594,9696.697840
1137.239279,-612.876398,-0.000000,9474.636058
1137.239595,-536.266849,-222.061783,9992.780217
1137.239910,-306.438199,222.061783,9770.718434
1137.240226,-229.828649,148.041188,9548.656652
1137.240542,-459.657299,-444.123565,9992.780217
1137.240858,-536.266849,-814.226536,10658.965565
1137.241174,-766.095498,-1110.308913,9770.718434
1137.241490,-306.438199,-740.205942,9918.759623
1137.241805,-229.828649,-444.123565,9770.718434
1137.242121,383.047749,-370.102971,10140.821405
1137.242437,459.657299,-518.144159,9844.739029
1137.242753,153.219100,-444.123565,9474.636058
1137.243069,0.000000,-814.226536,10436.903782
1137.243385,995.924147,-296.082377,9770.718434
1137.243700,842.705048,518.144159,8808.450710
1137.244016,1378.971896,148.041188,9992.780217
1137.244332,1149.143247,-888.247130,10288.862594
1137.244648,689.485948,-296.082377,9252.574275
1137.244964,842.705048,-0.000000,9548.656652
1137.245279,459.657299,-592.164754,9844.739029
1137.245595,766.095498,-222.061783,10288.862594
1137.245911,1072.533697,-222.061783,10436.903782
1137.246227,383.047749,-370.102971,9696.697840
1137.246543,0.000000,-444.123565,9770.718434
1137.246859,766.095498,-296.082377,9696.697840
1137.247174,536.266849,-0.000000,9770.718434
1137.247490,766.095498,-0.000000,9918.759623
1137.247806,1072.533697,-296.082377,9252.574275
1137.248122,1072.533697,-0.000000,9178.553681
1137.248438,1378.971896,-0.000000,9326.594869
1137.248754,1762.019645,-0.000000,9178.553681
1137.249069,1608.800546,296.082377,8586.388927
1137.249385,1378.971896,-370.102971,9178.553681
1137.249701,1532.190996,-222.061783,9030.512492
1137.250017,1072.533697,-74.020594,8956.491898
1137.250333,1685.410096,-444.123565,9178.553681
1137.250649,1455.581446,-370.102971,9326.594869
1137.250964,1532.190996,-148.041188,9178.553681
1137.251280,1072.533697,-0.000000,8660.409521
1137.251596,919.314598,-0.000000,8660.409521
1137.251912,766.095498,-814.226536,8882.471304
1137.252228,842.705048,-296.082377,8956.491898
1137.252543,612.876398,-0.000000,8734.430116
1137.252859,689.485948,-592.164754,9326.594869
1137.253175,612.876398,-740.205942,8956.491898
1137.253491,-383.047749,-666.185348,8808.450710
1137.253807,-229.828649,-444.123565,9770.718434
1137.254123,0.000000,-74.020594,9400.615463
1137.254438,-229.828649,592.164754,9030.512492
1137.254754,-536.266849,-0.000000,9400.615463
1137.255070,-153.219100,-518.144159,9474.636058
1137.255386,-612.876398,-222.061783,9400.615463
1137.255702,-383.047749,-0.000000,9696.697840
1137.256018,0.000000,-296.082377,9548.656652
1137.256333,-612.876398,222.061783,9400.615463
1137.256649,-306.438199,148.041188,9770.718434
1137.256965,-306.438199,-74.020594,9326.594869
1137.257281,-612.876398,-74.020594,9992.780217
1137.257597,-459.657299,-148.041188,9770.718434
1137.257912,0.000000,-148.041188,9844.739029
1137.258228,229.828649,148.041188,9548.656652
1137.258544,0.000000,-740.205942,9696.697840
1137.258860,-459.657299,-148.041188,9696.697840
1137.259176,-459.657299,-518.144159,9918.759623
1137.259492,0.000000,-444.123565,10066.800811
1137.259807,0.000000,-0.000000,10066.800811
1137.260123,-383.047749,-296.082377,9844.739029
1137.260439,306.438199,-518.144159,9992.780217
1137.260755,0.000000,-740.205942,9918.759623
1137.261071,229.828649,-518.144159,9474.636058
1137.261387,766.095498,-0.000000,9844.739029
1137.261702,689.485948,148.041188,9474.636058
1137.262018,1072.533697,-74.020594,10140.821405
1137.262334,995.924147,-0.000000,9770.718434
1137.262650,612.876398,-0.000000,9696.697840
1137.262965,995.924147,148.041188,9178.553681
1137.263281,612.876398,-370.102971,9474.636058
1137.263597,1149.143247,-148.041188,10288.862594
1137.263913,919.314598,-222.061783,10510.924376
1137.264229,306.438199,-222.061783,9622.677246
1137.264544,536.266849,-74.020594,9548.656652
1137.264860,842.705048,148.041188,9622.677246
1137.265176,1149.143247,518.144159,9178.553681
1137.265492,1149.143247,-0.000000,9770.718434
1137.265807,919.314598,-222.061783,9844.739029
1137.266123,153.219100,-0.000000,9696.697840
1137.266439,766.095498,-0.000000,9400.615463
1137.266755,1455.581446,-222.061783,8808.450710
1137.267071,919.314598,444.123565,9474.636058
1137.267386,1608.800546,-74.020594,9918.759623
1137.267702,919.314598,-296.082377,8808.450710
1137.268018,459.657299,-0.000000,9326.594869
1137.268334,612.876398,-222.061783,9326.594869
1137.268649,1149.143247,-74.020594,8586.388927
1137.268965,1149.143247,370.102971,8956.491898
1137.269281,1072.533697,-296.082377,9030.512492
1137.269597,766.095498,-0.000000,9030.512492
1137.269912,842.705048,-444.123565,8808.450710
1137.270228,383.047749,-666.185348,8956.491898
1137.270544,536.266849,-370.102971,9178.553681
1137.270860,612.876398,-592.164754,9326.594869
1137.271176,383.047749,-740.205942,8586.388927
1137.271491,0.000000,-814.226536,9400.615463
1137.271807,0.000000,-740.205942,9696.697840
1137.272123,229.828649,-0.000000,8956.491898
1137.272439,-306.438199,740.205942,8660.409521
1137.272754,-229.828649,-370.102971,9548.656652
1137.273070,-383.047749,-518.144159,9474.636058
1137.273386,-459.657299,-444.123565,9104.533087
1137.273702,-229.828649,-74.020594,8956.491898
1137.274018,-229.828649,-0.000000,9548.656652
1137.274333,-153.219100,-444.123565,9474.636058
1137.274649,-306.438199,-0.000000,9770.718434
1137.274965,-459.657299,222.061783,9400.615463
1137.275281,-536.266849,-222.061783,9252.574275
1137.275596,76.609550,296.082377,9326.594869
1137.275912,0.000000,-222.061783,9918.759623
1137.276228,76.609550,-74.020594,10288.862594
1137.276544,153.219100,-296.082377,9844.739029
1137.276860,-229.828649,-296.082377,9178.553681
1137.277175,-153.219100,-148.041188,9770.718434
1137.277491,612.876398,-444.123565,9622.677246
1137.277807,459.657299,-74.020594,9696.697840
1137.278123,536.266849,-444.123565,10510.924376
1137.278438,229.828649,-666.185348,10066.800811
1137.278754,306.438199,-592.164754,9548.656652
1137.279070,0.000000,-592.164754,9474.636058
1137.279386,689.485948,296.082377,9474.636058
1137.279701,612.876398,-74.020594,9548.656652
1137.280017,1149.143247,-296.082377,10214.842000
1137.280333,306.438199,-444.123565,9400.615463
1137.280649,153.219100,-962.267725,10362.883188
1137.280965,0.000000,-518.144159,9918.759623
1137.281280,383.047749,-814.226536,9918.759623
1137.281596,995.924147,-222.061783,9918.759623
1137.281912,995.924147,-592.164754,10214.842000
1137.282228,76.609550,-370.102971,9548.656652
1137.282543,842.705048,-518.144159,9252.574275
1137.282859,995.924147,222.061783,9326.594869
1137.283175,1072.533697,222.061783,9400.615463
1137.283491,1302.362347,74.020594,9178.553681
1137.283807,1991.848295,-444.123565,9326.594869
1137.284122,1685.410096,-814.226536,9696.697840
1137.284438,1838.629195,-296.082377,8882.471304
1137.284754,1762.019645,444.123565,8512.368333
1137.285070,1378.971896,296.082377,9104.533087
1137.285385,1532.190996,-74.020594,9918.759623
1137.285701,1149.143247,-74.020594,9252.574275
1137.286017,306.438199,-296.082377,9178.553681
1137.286333,766.095498,-222.061783,9622.677246
1137.286649,76.609550,-518.144159,9622.677246
1137.286964,306.438199,-666.185348,9474.636058
1137.287280,383.047749,-296.082377,9918.759623
1137.287596,76.609550,-296.082377,9252.574275
1137.287912,766.095498,-0.000000,8882.471304
1137.288227,1072.533697,222.061783,8734.430116
1137.288543,766.095498,518.144159,8660.409521
1137.288859,1072.533697,-0.000000,9622.677246
1137.289175,306.438199,-222.061783,8512.368333
1137.289490,536.266849,148.041188,9326.594869
1137.289806,612.876398,-0.000000,9474.636058
1137.290122,536.266849,-0.000000,8438.347739
1137.290438,76.609550,296.082377,9178.553681
1137.290754,76.609550,-0.000000,9326.594869
1137.291069,-689.485948,-148.041188,9178.553681
1137.291385,-766.095498,-148.041188,9474.636058
1137.291701,-919.314598,-0.000000,9918.759623
1137.292017,-919.314598,-148.041188,9548.656652
1137.292332,-919.314598,148.041188,9622.677246
1137.292648,-842.705048,-592.164754,9770.718434
1137.292964,-1149.143247,-962.267725,9844.739029
1137.293280,-1302.362347,-814.226536,9918.759623
1137.293596,-612.876398,-296.082377,9326.594869
1137.293911,-383.047749,-0.000000,9622.677246
1137.294227,76.609550,-148.041188,9622.677246
1137.294543,-229.828649,-444.123565,9400.615463
1137.294859,76.609550,-0.000000,9474.636058
1137.295174,689.485948,-592.164754,9474.636058
1137.295490,459.657299,296.082377,9474.636058
1137.295806,689.485948,74.020594,9548.656652
1137.296122,1378.971896,-370.102971,9992.780217
1137.296438,919.314598,-74.020594,9326.594869
1137.296753,612.876398,-0.000000,9548.656652
1137.297069,1685.410096,-0.000000,9474.636058
1137.297385,1225.752797,296.082377,9548.656652
1137.297701,842.705048,740.205942,9770.718434
1137.298016,1149.143247,-148.041188,10140.821405
1137.298332,919.314598,-296.082377,9178.553681
1137.298648,76.609550,-0.000000,9844.739029
1137.298964,153.219100,-592.164754,9992.780217
1137.299280,766.095498,-370.102971,10807.006753
1137.299595,459.657299,-592.164754,10214.842000
1137.299911,459.657299,-740.205942,9844.739029
1137.300227,459.657299,-518.144159,9992.780217
1137.300543,1072.533697,-518.144159,9400.615463
1137.300858,1072.533697,296.082377,9178.553681
1137.301174,1149.143247,444.123565,10066.800811
1137.301490,2068.457845,-370.102971,10066.800811
1137.301806,1149.143247,222.061783,9030.512492
1137.302121,1225.752797,74.020594,9326.594869
1137.302437,1455.581446,-222.061783,9178.553681
1137.302753,1915.238745,-74.020594,9030.512492
1137.303069,1608.800546,-0.000000,9622.677246
1137.303385,1455.581446,-370.102971,9326.594869
1137.303700,612.876398,-0.000000,9474.636058
1137.304016,612.876398,-148.041188,9400.615463
1137.304332,689.485948,-74.020594,9548.656652
1137.304648,306.438199,370.102971,9400.615463
1137.304963,766.095498,-0.000000,9548.656652
1137.305279,383.047749,-370.102971,9030.512492
1137.305595,153.219100,-592.164754,8882.471304
1137.305911,459.657299,-666.185348,9474.636058
1137.306227,689.485948,-222.061783,9104.533087
1137.306542,842.705048,-74.020594,8882.471304
1137.306858,766.095498,-444.123565,9400.615463
1137.307174,76.609550,-74.020594,8808.450710
1137.307490,0.000000,-148.041188,8734.430116
1137.307805,383.047749,444.123565,8586.388927
1137.308121,153.219100,1110.308913,8660.409521
1137.308437,229.828649,-0.000000,9030.512492
1137.308753,0.000000,-296.082377,8882.471304
1137.309069,-459.657299,-0.000000,8734.430116
1137.309384,-306.438199,-740.205942,9474.636058
1137.309700,-1072.533697,-962.267725,9178.553681
1137.310016,-1072.533697,-370.102971,9622.677246
1137.310332,-689.485948,-518.144159,10288.862594
1137.310647,-689.485948,-592.164754,10288.862594
1137.310963,-1149.143247,222.061783,9326.594869
1137.311279,-689.485948,-74.020594,8512.368333
1137.311595,-229.828649,-296.082377,9400.615463
1137.311910,0.000000,148.041188,9548.656652
1137.312226,383.047749,-148.041188,9918.759623
1137.312542,0.000000,-296.082377,9548.656652
1137.312858,-229.828649,-0.000000,9326.594869
1137.313174,0.000000,-148.041188,9326.594869
1137.313489,766.095498,-444.123565,9918.759623
1137.313805,383.047749,-0.000000,10140.821405
1137.314121,459.657299,296.082377,9992.780217
1137.314437,459.657299,444.123565,9030.512492
1137.314752,76.609550,-592.164754,9622.677246
1137.315068,689.485948,-370.102971,9918.759623
1137.315384,536.266849,-0.000000,10066.800811
1137.315700,383.047749,-592.164754,9992.780217
1137.316016,229.828649,-518.144159,10732.986159
1137.316331,-306.438199,-1110.308913,10066.800811
1137.316647,536.266849,-1036.288319,10436.903782
1137.316963,766.095498,592.164754,9622.677246
1137.317279,383.047749,370.102971,8808.450710
1137.317594,383.047749,-74.020594,9918.759623
1137.317910,306.438199,-74.020594,10066.800811
1137.318226,459.657299,-0.000000,9474.636058
1137.318542,842.705048,-0.000000,9252.574275
1137.318858,919.314598,-222.061783,9696.697840
1137.319173,1225.752797,-296.082377,9474.636058
1137.319489,1225.752797,-518.144159,9992.780217
1137.319805,1072.533697,-0.000000,9474.636058
1137.320121,1608.800546,-0.000000,9770.718434
1137.320436,1685.410096,222.061783,9252.574275
1137.320752,1685.410096,-0.000000,8956.491898
1137.321068,1608.800546,-0.000000,9622.677246
1137.321384,1762.019645,-962.267725,9548.656652
1137.321699,1072.533697,-222.061783,9252.574275
1137.322015,1302.362347,-148.041188,9622.677246
1137.322331,1378.971896,296.082377,8734.430116
1137.322647,1455.581446,296.082377,9178.553681
1137.322963,1532.190996,148.041188,9104.533087
1137.323278,766.095498,-0.000000,9030.512492
1137.323594,0.000000,-74.020594,9474.636058
1137.323910,612.876398,-296.082377,9252.574275
1137.324226,229.828649,-222.061783,9178.553681
1137.324541,306.438199,-518.144159,9474.636058
1137.324857,0.000000,-444.123565,9326.594869
1137.325173,-153.219100,-222.061783,8956.491898
1137.325489,-229.828649,-148.041188,9474.636058
1137.325805,0.000000,-370.102971,8882.471304
1137.326120,306.438199,-296.082377,8956.491898
1137.326436,383.047749,148.041188,8882.471304
1137.326752,-153.219100,370.102971,9030.512492
1137.327068,-536.266849,-296.082377,9326.594869
1137.327383,-842.705048,-296.082377,9030.512492
1137.327699,-536.266849,592.164754,9178.553681
1137.328015,-306.438199,-0.000000,9622.677246
1137.328331,-459.657299,-74.020594,9178.553681
1137.328647,-766.095498,-1036.288319,10362.883188
1137.328962,-229.828649,-518.144159,9252.574275
1137.329278,-306.438199,-518.144159,9104.533087
1137.329594,-766.095498,296.082377,9252.574275
1137.329910,-383.047749,-222.061783,9474.636058
1137.330225,-229.828649,-518.144159,10362.883188
1137.330541,0.000000,-148.041188,9622.677246
1137.330857,-383.047749,-0.000000,9178.553681
1137.331173,0.000000,-74.020594,9770.718434
1137.331488,459.657299,148.041188,9622.677246
1137.331804,842.705048,-148.041188,9474.636058
1137.332120,689.485948,-518.144159,9770.718434
1137.332436,306.438199,-740.205942,9992.780217
1137.332752,229.828649,-666.185348,10140.821405
1137.333067,995.924147,-0.000000,9474.636058
1137.333383,689.485948,296.082377,9548.656652
1137.333699,689.485948,370.102971,10436.903782
1137.334015,459.657299,-0.000000,9400.615463
1137.334330,76.609550,-222.061783,9474.636058
1137.334646,919.314598,-592.164754,10362.883188
1137.334962,1225.752797,-296.082377,9622.677246
1137.335278,1149.143247,-592.164754,9844.739029
1137.335594,995.924147,-370.102971,9844.739029
1137.335909,383.047749,-296.082377,10140.821405
1137.336225,919.314598,-296.082377,10066.800811
1137.336541,1608.800546,-0.000000,9178.553681
1137.336857,1072.533697,518.144159,9178.553681
1137.337172,1149.143247,-0.000000,9400.615463
1137.337488,766.095498,-444.123565,9548.656652
1137.337804,459.657299,-0.000000,9474.636058
1137.338120,766.095498,-666.185348,9844.739029
1137.338436,1149.143247,370.102971,8734.430116
1137.338751,1072.533697,-0.000000,9548.656652
1137.339067,1072.533697,-1110.308913,9770.718434
1137.339383,383.047749,-1110.308913,9992.780217
1137.339699,306.438199,-888.247130,9696.697840
1137.340014,1149.143247,-740.205942,9770.718434
1137.340330,1149.143247,518.144159,8882.471304
1137.340646,1378.971896,740.205942,8290.306550
1137.340962,1455.581446,-0.000000,8882.471304
1137.341277,1072.533697,-148.041188,9474.636058
1137.341593,689.485948,-148.041188,8808.450710
1137.341909,766.095498,-74.020594,8734.430116
1137.342225,306.438199,-0.000000,8808.450710
1137.342541,1072.533697,-444.123565,8956.491898
1137.342856,536.266849,-740.205942,9104.533087
1137.343172,-153.219100,222.061783,9104.533087
1137.343488,76.609550,-74.020594,9252.574275
1137.343804,536.266849,370.102971,8512.368333
1137.344119,306.438199,-0.000000,8660.409521
1137.344435,76.609550,-296.082377,9622.677246
1137.344751,-229.828649,-666.185348,9696.697840
1137.345067,0.000000,-740.205942,9474.636058
1137.345383,0.000000,-666.185348,9474.636058
1137.345698,-1149.143247,-0.000000,9548.656652
1137.346014,-153.219100,518.144159,8882.471304
1137.346330,0.000000,-0.000000,9252.574275
1137.346646,-536.266849,-296.082377,9548.656652
1137.346961,-383.047749,-148.041188,9474.636058
1137.347277,383.047749,444.123565,9030.512492
1137.347593,-383.047749,222.061783,9104.533087
1137.347909,76.609550,-296.082377,10288.862594
1137.348225,153.219100,-888.247130,9770.718434
1137.348540,-536.266849,-296.082377,9326.594869
1137.348856,-229.828649,-962.267725,10066.800811
1137.349172,0.000000,-592.164754,10066.800811
1137.349488,306.438199,-518.144159,9770.718434
1137.349803,153.219100,-666.185348,9992.780217
1137.350119,0.000000,-888.247130,9992.780217
1137.350435,0.000000,-518.144159,9992.780217
1137.350751,383.047749,74.020594,9622.677246
1137.351066,229.828649,592.164754,9252.574275
1137.351382,536.266849,370.102971,9474.636058
1137.351698,612.876398,-0.000000,9178.553681
1137.352014,306.438199,-370.102971,9770.718434
1137.352330,0.000000,-962.267725,10510.924376
1137.352645,459.657299,-814.226536,9992.780217
1137.352961,689.485948,-444.123565,9918.759623
1137.353277,383.047749,-518.144159,10288.862594
1137.353593,153.219100,-814.226536,9918.759623
1137.353908,306.438199,-148.041188,9622.677246
1137.354224,536.266849,-222.061783,9918.759623
1137.354540,995.924147,518.144159,9252.574275
1137.354856,1762.019645,444.123565,9400.615463
1137.355172,995.924147,370.102971,8808.450710
1137.355487,842.705048,-222.061783,8956.491898
1137.355803,1149.143247,-0.000000,8660.409521
1137.356119,1532.190996,-0.000000,9622.677246
1137.356435,995.924147,-74.020594,9400.615463
1137.356750,919.314598,222.061783,10140.821405
1137.357066,1072.533697,-518.144159,9474.636058
1137.357382,766.095498,-518.144159,9400.615463
1137.357698,919.314598,-296.082377,9696.697840
1137.358014,1455.581446,-444.123565,9622.677246
1137.358329,1608.800546,222.061783,8808.450710
1137.358645,1302.362347,-74.020594,9326.594869
1137.358961,1072.533697,-222.061783,9474.636058
1137.359277,995.924147,-0.000000,9326.594869
1137.359592,1762.019645,-0.000000,8956.491898
1137.359908,1225.752797,-0.000000,9030.512492
1137.360224,842.705048,-222.061783,9474.636058
1137.360540,1149.143247,-518.144159,9474.636058
1137.360856,306.438199,-0.000000,8956.491898
1137.361171,306.438199,-0.000000,9326.594869
1137.361487,766.095498,-444.123565,9326.594869
1137.361803,306.438199,-0.000000,9104.533087
1137.362119,76.609550,-0.000000,9918.759623
1137.362434,-229.828649,-296.082377,9474.636058
1137.362750,-842.705048,-444.123565,9622.677246
1137.363066,-689.485948,-592.164754,9548.656652
1137.363382,0.000000,-0.000000,9474.636058
1137.363697,-229.828649,444.123565,9104.533087
1137.364013,0.000000,-296.082377,9326.594869
1137.364329,-383.047749,-296.082377,9696.697840
1137.364644,-842.705048,-814.226536,9844.739029
1137.364960,-612.876398,-296.082377,9474.636058
1137.365276,0.000000,-148.041188,9622.677246
1137.365592,-229.828649,296.082377,9178.553681
1137.365907,76.609550,-0.000000,9918.759623
1137.366223,-306.438199,-74.020594,9178.553681
1137.366539,-536.266849,-74.020594,9178.553681
1137.366855,76.609550,-444.123565,9178.553681
1137.367170,76.609550,-1036.288319,10288.862594
1137.367486,153.219100,-592.164754,10362.883188
1137.367802,306.438199,-444.123565,9992.780217
1137.368117,76.609550,-666.185348,8734.430116
1137.368433,306.438199,-592.164754,9548.656652
1137.368749,689.485948,-444.123565,10140.821405
1137.369065,842.705048,370.102971,9104.533087
1137.369380,842.705048,444.123565,9252.574275
1137.369696,536.266849,-0.000000,9770.718434
1137.370012,229.828649,-222.061783,9104.533087
1137.370327,1072.533697,-148.041188,9474.636058
1137.370643,229.828649,-0.000000,9474.636058
1137.370959,306.438199,-518.144159,9992.780217
1137.371275,459.657299,-888.247130,10955.047942
1137.371590,76.609550,-740.205942,9104.533087
1137.371906,0.000000,-444.123565,10066.800811
1137.372222,612.876398,-148.041188,10807.006753
1137.372538,612.876398,666.185348,9474.636058
1137.372853,919.314598,888.247130,9178.553681
1137.373169,995.924147,740.205942,9400.615463
1137.373485,612.876398,148.041188,9030.512492
1137.373800,689.485948,-592.164754,9548.656652
1137.374116,1532.190996,-888.247130,10140.821405
1137.374432,1149.143247,-370.102971,9844.739029
1137.374748,1225.752797,-0.000000,9030.512492
1137.375063,1608.800546,-0.000000,9104.533087
1137.375379,1072.533697,518.144159,9252.574275
1137.375695,919.314598,148.041188,8882.471304
1137.376011,766.095498,592.164754,9252.574275
1137.376326,1455.581446,-148.041188,9622.677246
1137.376642,1685.410096,-814.226536,9326.594869
1137.376958,766.095498,-74.020594,8364.327145
1137.377273,842.705048,-666.185348,9474.636058
1137.377589,919.314598,-888.247130,9252.574275
1137.377905,1149.143247,148.041188,9178.553681
1137.378221,1072.533697,814.226536,9252.574275
1137.378536,919.314598,-0.000000,8512.368333
1137.378852,0.000000,-0.000000,8364.327145
1137.379168,0.000000,-592.164754,9474.636058
1137.379483,383.047749,-1110.308913,9844.739029
1137.379799,383.047749,-0.000000,9326.594869
1137.380115,0.000000,222.061783,8882.471304
1137.380431,-306.438199,-740.205942,9474.636058
1137.380746,-689.485948,-370.102971,9030.512492
1137.381062,-229.828649,-296.082377,9252.574275
1137.381378,-459.657299,-296.082377,9474.636058
1137.381694,0.000000,-370.102971,9696.697840
1137.382009,76.609550,-666.185348,9992.780217
1137.382325,0.000000,-444.123565,9252.574275
1137.382641,-536.266849,-74.020594,9326.594869
1137.382956,229.828649,444.123565,8956.491898
1137.383272,383.047749,666.185348,9178.553681
1137.383588,459.657299,518.144159,9622.677246
1137.383904,612.876398,-74.020594,9178.553681
1137.384219,459.657299,-370.102971,8882.471304
1137.384535,0.000000,-888.247130,9548.656652
1137.384851,0.000000,-1776.494261,10214.842000
1137.385167,0.000000,-888.247130,10362.883188
1137.385482,76.609550,-444.123565,10288.862594
1137.385798,0.000000,-370.102971,9696.697840
1137.386114,-153.219100,-518.144159,9474.636058
1137.386429,153.219100,-814.226536,9474.636058
1137.386745,689.485948,-74.020594,9548.656652
1137.387061,459.657299,-666.185348,9548.656652
1137.387377,689.485948,-370.102971,9770.718434
1137.387692,612.876398,-740.205942,9548.656652
1137.388008,383.047749,-518.144159,8808.450710
1137.388324,766.095498,-444.123565,9474.636058
1137.388639,766.095498,-518.144159,10066.800811
1137.388955,536.266849,-666.185348,10066.800811
1137.389271,919.314598,-814.226536,10584.944971
1137.389587,536.266849,-444.123565,9474.636058
1137.389902,842.705048,-370.102971,8956.491898
1137.390218,1149.143247,-0.000000,9400.615463
1137.390534,1072.533697,-0.000000,9252.574275
1137.390850,1225.752797,444.123565,9474.636058
1137.391165,1455.581446,370.102971,9030.512492
1137.391481,0.000000,-0.000000,9030.512492
1137.391797,842.705048,-148.041188,9696.697840
1137.392112,766.095498,-518.144159,9326.594869
1137.392428,995.924147,-0.000000,9696.697840
1137.392744,1225.752797,-444.123565,9770.718434
1137.393060,766.095498,-888.247130,9770.718434
1137.393375,153.219100,-888.247130,9548.656652
1137.393691,842.705048,-1110.308913,10066.800811
1137.394007,919.314598,-0.000000,9400.615463
1137.394323,995.924147,444.123565,9400.615463
1137.394638,1532.190996,-0.000000,8734.430116
1137.394954,842.705048,666.185348,8586.388927
1137.395270,612.876398,-0.000000,9252.574275
1137.395585,1378.971896,-370.102971,8808.450710
1137.395901,995.924147,222.061783,8586.388927
1137.396217,229.828649,-0.000000,8882.471304
1137.396533,536.266849,-666.185348,9474.636058
1137.396848,306.438199,-592.164754,9548.656652
1137.397164,-229.828649,-370.102971,9696.697840
1137.397480,-612.876398,148.041188,9178.553681
1137.397796,-766.095498,-0.000000,9326.594869
1137.398111,76.609550,-0.000000,9474.636058
1137.398427,0.000000,518.144159,9252.574275
1137.398743,-612.876398,814.226536,8882.471304
1137.399058,0.000000,148.041188,9400.615463
1137.399374,-306.438199,-444.123565,10140.821405
1137.399690,-153.219100,-444.123565,9844.739029
1137.400006,0.000000,-518.144159,9548.656652
1137.400321,-459.657299,148.041188,9104.533087
1137.400637,-153.219100,-0.000000,9696.697840
1137.400953,459.657299,518.144159,10140.821405
1137.401268,383.047749,962.267725,9326.594869
1137.401584,459.657299,1110.308913,9030.512492
1137.401900,229.828649,-0.000000,9548.656652
1137.402216,-229.828649,-296.082377,9252.574275
1137.402531,383.047749,-814.226536,9770.718434
1137.402847,536.266849,-592.164754,9992.780217
1137.403163,76.609550,-74.020594,9548.656652
1137.403479,459.657299,-592.164754,10140.821405
1137.403794,-229.828649,-444.123565,9770.718434
1137.404110,0.000000,-296.082377,10066.800811
1137.404426,459.657299,-222.061783,9992.780217
1137.404741,689.485948,222.061783,9326.594869
1137.405057,689.485948,296.082377,9770.718434
1137.405373,766.095498,-222.061783,9474.636058
1137.405689,229.828649,-518.144159,9548.656652
1137.406004,153.219100,-592.164754,9770.718434
1137.406320,689.485948,-148.041188,9696.697840
1137.406636,306.438199,-0.000000,9770.718434
1137.406952,153.219100,-370.102971,9770.718434
1137.407267,153.219100,-740.205942,10436.903782
1137.407583,229.828649,-666.185348,9992.780217
1137.407899,459.657299,-518.144159,9770.718434
1137.408214,842.705048,222.061783,9400.615463
1137.408530,1302.362347,222.061783,9104.533087
1137.408846,1378.971896,-74.020594,9474.636058
1137.409162,995.924147,148.041188,9474.636058
1137.409477,612.876398,444.123565,8808.450710
1137.409793,1072.533697,-370.102971,8882.471304
1137.410109,766.095498,-592.164754,9622.677246
1137.410424,1072.533697,-1258.350101,9770.718434
1137.410740,1149.143247,-814.226536,9696.697840
1137.411056,689.485948,-370.102971,8956.491898
1137.411372,766.095498,-666.185348,9030.512492
1137.411687,1532.190996,-592.164754,9104.533087
1137.412003,1225.752797,-0.000000,9104.533087
1137.412319,1149.143247,296.082377,8882.471304
1137.412635,1532.190996,-666.185348,9030.512492
1137.412950,919.314598,-740.205942,9104.533087
1137.413266,842.705048,-148.041188,8660.409521
1137.413582,842.705048,-518.144159,8808.450710
1137.413897,1149.143247,-222.061783,9474.636058
1137.414213,842.705048,-0.000000,8882.471304
1137.414529,383.047749,148.041188,8734.430116
1137.414845,76.609550,-444.123565,10066.800811
1137.415160,612.876398,-666.185348,9548.656652
1137.415476,-229.828649,148.041188,8956.491898
1137.415792,-229.828649,518.144159,9252.574275
1137.416108,-153.219100,-148.041188,9918.759623
1137.416423,-383.047749,-74.020594,9400.615463
1137.416739,-459.657299,-148.041188,9178.553681
1137.417055,-536.266849,-222.061783,9326.594869
1137.417370,-536.266849,-592.164754,9474.636058
1137.417686,-153.219100,-888.247130,9696.697840
1137.418002,0.000000,-592.164754,10288.862594
1137.418318,-536.266849,-222.061783,9474.636058
1137.418633,-229.828649,-0.000000,9474.636058
1137.418949,76.609550,-148.041188,9474.636058
1137.419265,383.047749,-0.000000,9622.677246
1137.419580,383.047749,222.061783,9252.574275
1137.419896,229.828649,-296.082377,9178.553681
1137.420212,76.609550,-592.164754,9696.697840
1137.420528,76.609550,-518.144159,10288.862594
1137.420843,229.828649,-296.082377,9474.636058
1137.421159,383.047749,-370.102971,9992.780217
1137.421475,536.266849,-296.082377,9770.718434
1137.421791,306.438199,-0.000000,9918.759623
1137.422106,536.266849,-0.000000,10066.800811
1137.422422,919.314598,-148.041188,9696.697840
1137.422738,689.485948,-0.000000,9622.677246
1137.423053,995.924147,518.144159,9696.697840
1137.423369,995.924147,-148.041188,9918.759623
1137.423685,842.705048,814.226536,9474.636058
1137.424001,306.438199,444.123565,9696.697840
1137.424316,842.705048,222.061783,9622.677246
1137.424632,1072.533697,-0.000000,9474.636058
1137.424948,0.000000,-0.000000,9474.636058
1137.425264,383.047749,-74.020594,10362.883188
1137.425579,766.095498,-1184.329507,10066.800811
1137.425895,689.485948,370.102971,9474.636058
1137.426211,536.266849,-148.041188,9252.574275
1137.426526,612.876398,-444.123565,9770.718434
1137.426842,919.314598,222.061783,9696.697840
1137.427158,306.438199,-148.041188,8882.471304
1137.427474,306.438199,222.061783,9548.656652
1137.427789,536.266849,-296.082377,8956.491898
1137.428105,689.485948,-370.102971,8734.430116
1137.428421,1072.533697,-1110.308913,9178.553681
1137.428736,229.828649,-962.267725,9252.574275
1137.429052,229.828649,-74.020594,9400.615463
1137.429368,995.924147,-444.123565,8956.491898
1137.429684,612.876398,-370.102971,9104.533087
1137.429999,612.876398,296.082377,9104.533087
1137.430315,536.266849,370.102971,9252.574275
1137.430631,689.485948,-666.185348,9326.594869
1137.430947,0.000000,-370.102971,9400.615463
1137.431262,689.485948,-0.000000,8956.491898
1137.431578,766.095498,-0.000000,8734.430116
1137.431894,383.047749,444.123565,8808.450710
1137.432209,229.828649,296.082377,9844.739029
1137.432525,0.000000,-74.020594,9030.512492
1137.432841,0.000000,-222.061783,9770.718434
1137.433157,76.609550,296.082377,9622.677246
1137.433472,0.000000,666.185348,9326.594869
1137.433788,-229.828649,222.061783,9400.615463
1137.434104,0.000000,370.102971,9178.553681
1137.434420,-306.438199,518.144159,8956.491898
1137.434735,153.219100,-0.000000,9104.533087
1137.435051,-306.438199,-222.061783,9326.594869
1137.435367,-153.219100,-666.185348,9622.677246
1137.435682,0.000000,-1998.556043,10510.924376
1137.435998,-306.438199,-1776.494261,10584.944971
1137.436314,-229.828649,-1184.329507,10288.862594
1137.436630,536.266849,-666.185348,9474.636058
1137.436945,306.438199,666.185348,9326.594869
1137.437261,766.095498,666.185348,8956.491898
1137.437577,1225.752797,-518.144159,9400.615463
1137.437892,766.095498,-1184.329507,9252.574275
1137.438208,229.828649,-1110.308913,9622.677246
1137.438524,229.828649,-1406.391290,9400.615463
1137.438840,229.828649,-1702.473667,9400.615463
1137.439155,153.219100,-1332.370696,10807.006753
1137.439471,-766.095498,-1332.370696,10584.944971
1137.439787,-1072.533697,-2368.659014,10362.883188
1137.440103,-1302.362347,-1924.535449,10288.862594
1137.440418,-1149.143247,-1924.535449,10436.903782
1137.440734,-306.438199,-1406.391290,9844.739029
1137.441050,0.000000,-1258.350101,9696.697840
1137.441365,0.000000,-2072.576638,10288.862594
1137.441681,229.828649,-2220.617826,9474.636058
1137.441997,842.705048,-1776.494261,9474.636058
1137.442313,1149.143247,-888.247130,9400.615463
1137.442628,1532.190996,-1110.308913,9178.553681
1137.442944,2145.067394,-1702.473667,8956.491898
1137.443260,2221.676944,-2146.597232,9696.697840
1137.443576,2145.067394,-2368.659014,9400.615463
1137.443891,2374.896044,-1850.514855,9326.594869
1137.444207,2451.505594,-962.267725,8882.471304
1137.444523,2374.896044,-888.247130,9030.512492
1137.444838,2681.334243,-296.082377,8956.491898
1137.445154,2451.505594,-592.164754,8290.306550
1137.445470,1991.848295,-1406.391290,9104.533087
1137.445786,2068.457845,-2442.679609,10140.821405
1137.446101,1991.848295,-2220.617826,9770.718434
1137.446417,2068.457845,-1998.556043,9252.574275
1137.446733,2298.286494,-1480.411884,9548.656652
1137.447049,2757.943793,-1480.411884,9030.512492
1137.447364,2374.896044,-1406.391290,8808.450710
1137.447680,2834.553343,-1110.308913,9474.636058
1137.447996,3524.039291,-1332.370696,9178.553681
1137.448311,3600.648841,-1480.411884,9178.553681
1137.448627,3983.696590,-1332.370696,9104.533087
1137.448943,4366.744339,-1998.556043,9326.594869
1137.449259,3983.696590,-1628.453072,8660.409521
1137.449574,3447.429741,-962.267725,8660.409521
1137.449890,3370.820191,-814.226536,9178.553681
1137.450206,3677.258390,-666.185348,8734.430116
1137.450521,2681.334243,-444.123565,8808.450710
1137.450837,2451.505594,-1332.370696,8734.430116
1137.451153,2068.457845,-2294.638420,9474.636058
1137.451469,1532.190996,-2368.659014,10140.821405
1137.451784,995.924147,-2146.597232,10066.800811
1137.452100,995.924147,-2220.617826,10140.821405
1137.452416,842.705048,-1850.514855,10362.883188
1137.452732,919.314598,-1924.535449,9696.697840
1137.453047,1225.752797,-2664.741391,10066.800811
1137.453363,1302.362347,-2220.617826,9918.759623
1137.453679,1455.581446,-1702.473667,10140.821405
1137.453994,2451.505594,-1628.453072,10436.903782
1137.454310,3064.381992,-1776.494261,9844.739029
1137.454626,3140.991542,-814.226536,9400.615463
1137.454942,3140.991542,-1110.308913,9252.574275
1137.455257,3907.087040,-1332.370696,9178.553681
1137.455573,3983.696590,-814.226536,9104.533087
1137.455889,3600.648841,-518.144159,9104.533087
1137.456205,3753.867940,-888.247130,9474.636058
1137.456520,3217.601092,-814.226536,9622.677246
1137.456836,2374.896044,-1110.308913,9474.636058
1137.457152,2068.457845,-1628.453072,9622.677246
1137.457467,2145.067394,-1998.556043,9844.739029
1137.457783,1685.410096,-1776.494261,9918.759623
1137.458099,1149.143247,-2220.617826,10066.800811
1137.458415,1072.533697,-3404.947333,11251.130318
1137.458730,1149.143247,-3701.029710,11325.150913
1137.459046,1608.800546,-3552.988522,10807.006753
1137.459362,1378.971896,-3182.885551,10066.800811
1137.459677,2145.067394,-2738.761985,9992.780217
1137.459993,2987.772442,-2590.720797,9474.636058
1137.460309,3983.696590,-2368.659014,9770.718434
1137.460625,4366.744339,-2368.659014,8586.388927
1137.460940,4519.963438,-1998.556043,8142.265362
1137.461256,4596.572988,-1998.556043,8364.327145
1137.461572,4213.525239,-1998.556043,8142.265362
1137.461888,3524.039291,-1628.453072,8364.327145
1137.462203,3370.820191,-2220.617826,8808.450710
1137.462519,2681.334243,-2442.679609,9104.533087
1137.462835,1915.238745,-2664.741391,9622.677246
1137.463150,689.485948,-3478.967927,9918.759623
1137.463466,229.828649,-3775.050304,10436.903782
1137.463782,612.876398,-3775.050304,11103.089130
1137.464098,306.438199,-3775.050304,10288.862594
1137.464414,459.657299,-3182.885551,9918.759623
1137.464729,689.485948,-3108.864956,9548.656652
1137.465045,1608.800546,-3182.885551,9178.553681
1137.465361,2145.067394,-2442.679609,9030.512492
1137.465677,2681.334243,-1924.535449,8808.450710
1137.465993,2451.505594,-1554.432478,9030.512492
1137.466308,3294.210641,-2146.597232,9400.615463
1137.466624,3983.696590,-2368.659014,9030.512492
1137.466940,4290.134789,-2146.597232,8290.306550
1137.467256,4749.792088,-1406.391290,7920.203579
1137.467572,4290.134789,-1776.494261,7846.182985
1137.467888,4366.744339,-1924.535449,8364.327145
1137.468203,4060.306139,-1998.556043,9104.533087
1137.468519,3600.648841,-1702.473667,9104.533087
1137.468835,2374.896044,-2146.597232,9474.636058
1137.469151,2068.457845,-2590.720797,10214.842000
1137.469467,2145.067394,-3034.844362,10288.862594
1137.469782,2298.286494,-3256.906145,10066.800811
1137.470098,2068.457845,-2590.720797,9844.739029
1137.470414,1762.019645,-2368.659014,9400.615463
1137.470730,1838.629195,-2368.659014,9400.615463
1137.471046,1991.848295,-1702.473667,9178.553681
1137.471361,2298.286494,-888.247130,9474.636058
1137.471677,2451.505594,-592.164754,9548.656652
1137.471993,2374.896044,-1628.453072,9474.636058
1137.472309,2221.676944,-2072.576638,9844.739029
1137.472625,2528.115143,-2886.803174,10140.821405
1137.472940,3064.381992,-2886.803174,10510.924376
1137.473256,3447.429741,-2146.597232,9844.739029
1137.473572,3753.867940,-1554.432478,9104.533087
1137.473888,3753.867940,-1406.391290,9030.512492
1137.474204,3524.039291,-1184.329507,9474.636058
1137.474520,3140.991542,-888.247130,9474.636058
1137.474835,2987.772442,-814.226536,9104.533087
1137.475151,2298.286494,-1036.288319,9400.615463
1137.475467,2604.724693,-1628.453072,9918.759623
1137.475783,2374.896044,-2442.679609,10362.883188
1137.476099,1991.848295,-3182.885551,10807.006753
1137.476414,1915.238745,-3775.050304,11103.089130
1137.476730,1915.238745,-3627.009116,10584.944971
1137.477046,1762.019645,-3478.967927,10584.944971
1137.477362,1532.190996,-2812.782580,10584.944971
1137.477678,2068.457845,-1924.535449,10214.842000
1137.477993,2451.505594,-962.267725,9326.594869
1137.478309,2451.505594,-444.123565,8438.347739
1137.478625,2681.334243,-370.102971,8290.306550
1137.478941,2604.724693,-370.102971,8068.244768
1137.479257,2911.162892,-962.267725,8512.368333
1137.479572,2834.553343,-2368.659014,9178.553681
1137.479888,2451.505594,-3330.926739,9696.697840
1137.480204,1915.238745,-4811.338623,10288.862594
1137.480520,1685.410096,-5107.421000,11103.089130
1137.480836,1685.410096,-4885.359217,11251.130318
1137.481151,2145.067394,-3627.009116,10436.903782
1137.481467,2528.115143,-2368.659014,9770.718434
1137.481783,2987.772442,-1332.370696,9326.594869
1137.482099,3524.039291,-1036.288319,8364.327145
1137.482415,3907.087040,-518.144159,7476.080014
1137.482731,3830.477490,-444.123565,7179.997637
1137.483046,3370.820191,-740.205942,7179.997637
1137.483362,2834.553343,-1628.453072,7846.182985
1137.483678,2145.067394,-2146.597232,8438.347739
1137.483994,1455.581446,-2738.761985,9178.553681
1137.484310,383.047749,-3108.864956,9918.759623
1137.484625,76.609550,-3627.009116,10288.862594
1137.484941,0.000000,-4367.215058,10955.047942
1137.485257,536.266849,-4441.235652,11251.130318
1137.485573,1302.362347,-4441.235652,10807.006753
1137.485889,1838.629195,-3849.070898,10214.842000
1137.486204,2681.334243,-3404.947333,9770.718434
1137.486520,3753.867940,-2590.720797,9104.533087
1137.486836,4443.353888,-1554.432478,7994.224174
1137.487152,5056.230287,-444.123565,7328.038826
1137.487468,4903.011187,74.020594,6883.915261
1137.487783,4826.401637,222.061783,7254.018232
1137.488099,4519.963438,-740.205942,7846.182985
1137.488415,3753.867940,-1628.453072,8512.368333
1137.488731,3217.601092,-2738.761985,9400.615463
1137.489047,2221.676944,-3701.029710,10140.821405
1137.489363,1532.190996,-4367.215058,10955.047942
1137.489678,1225.752797,-4367.215058,11621.233289
1137.489994,1149.143247,-4145.153275,11473.192101
1137.490310,383.047749,-3627.009116,11547.212695
1137.490626,766.095498,-2738.761985,10658.965565
1137.490942,1225.752797,-2368.659014,10140.821405
1137.491257,1685.410096,-2072.576638,9548.656652
1137.491573,2604.724693,-1258.350101,8956.491898
1137.491889,3064.381992,-666.185348,8512.368333
1137.492205,3524.039291,-592.164754,8586.388927
1137.492521,3830.477490,-1332.370696,8734.430116
1137.492836,3830.477490,-1850.514855,9030.512492
1137.493152,3447.429741,-2294.638420,9400.615463
1137.493468,2834.553343,-2368.659014,9844.739029
1137.493784,2451.505594,-2368.659014,10436.903782
1137.494100,2145.067394,-1924.535449,10436.903782
1137.494415,1915.238745,-1628.453072,10436.903782
1137.494731,1838.629195,-1480.411884,10066.800811
1137.495047,1991.848295,-1406.391290,9992.780217
1137.495363,2298.286494,-1554.432478,9770.718434
1137.495679,2528.115143,-2072.576638,9622.677246
1137.495995,2528.115143,-2072.576638,9400.615463
1137.496310,2757.943793,-2368.659014,9474.636058
1137.496626,2757.943793,-1702.473667,9104.533087
1137.496942,2528.115143,-1332.370696,9474.636058
1137.497258,2681.334243,-1480.411884,9474.636058
1137.497574,2374.896044,-1480.411884,9548.656652
1137.497889,2068.457845,-1406.391290,9918.759623
1137.498205,1762.019645,-1628.453072,9474.636058
1137.498521,1915.238745,-1258.350101,9474.636058
1137.498837,1762.019645,-1036.288319,8956.491898
1137.499153,1072.533697,-1258.350101,8882.471304
1137.499468,1378.971896,-1110.308913,8956.491898
1137.499784,919.314598,-1480.411884,9030.512492
1137.500100,1072.533697,-1628.453072,9326.594869
1137.500416,689.485948,-1702.473667,9326.594869
1137.500732,842.705048,-1776.494261,9252.574275
1137.501047,995.924147,-1776.494261,9548.656652
1137.501363,1378.971896,-1776.494261,9696.697840
1137.501679,1378.971896,-2220.617826,9918.759623
1137.501995,1455.581446,-2812.782580,10214.842000
1137.502311,2068.457845,-2664.741391,9770.718434
1137.502627,2374.896044,-2442.679609,9548.656652
1137.502942,2604.724693,-1850.514855,9622.677246
1137.503258,2681.334243,-1184.329507,9474.636058
1137.503574,3524.039291,-1184.329507,9104.533087
1137.503890,3447.429741,-370.102971,8660.409521
1137.504206,3294.210641,-962.267725,8586.388927
1137.504521,3294.210641,-1184.329507,9104.533087
1137.504837,3677.258390,-1554.432478,9474.636058
1137.505153,3677.258390,-2368.659014,9030.512492
1137.505469,3677.258390,-2738.761985,9918.759623
1137.505785,3753.867940,-3478.967927,10066.800811
1137.506100,3677.258390,-3923.091493,10362.883188
1137.506416,3140.991542,-3775.050304,10436.903782
1137.506732,2757.943793,-3552.988522,10584.944971
1137.507048,2681.334243,-2960.823768,10658.965565
1137.507364,3064.381992,-2886.803174,10362.883188
1137.507679,2757.943793,-2442.679609,9844.739029
1137.507995,2911.162892,-2516.700203,9548.656652
1137.508311,3447.429741,-2590.720797,9400.615463
1137.508627,3447.429741,-2664.741391,8956.491898
1137.508943,3370.820191,-3034.844362,8808.450710
1137.509259,3447.429741,-3627.009116,9104.533087
1137.509574,3217.601092,-3775.050304,9474.636058
1137.509890,3064.381992,-4219.173869,9548.656652
1137.510206,2681.334243,-4293.194464,9992.780217
1137.510522,2374.896044,-4293.194464,10066.800811
1137.510838,2451.505594,-4219.173869,10288.862594
1137.511153,2528.115143,-3997.112087,9844.739029
1137.511469,2604.724693,-3552.988522,9474.636058
1137.511785,2528.115143,-3108.864956,9104.533087
1137.512101,2834.553343,-2886.803174,8882.471304
1137.512417,2834.553343,-2590.720797,8808.450710
1137.512732,2757.943793,-3108.864956,9030.512492
1137.513048,3064.381992,-3404.947333,9104.533087
1137.513364,3064.381992,-3775.050304,9252.574275
1137.513680,3217.601092,-3997.112087,9548.656652
1137.513996,3217.601092,-3775.050304,9548.656652
1137.514311,3370.820191,-3997.112087,9474.636058
1137.514627,3447.429741,-3404.947333,9474.636058
1137.514943,3677.258390,-2812.782580,8808.450710
1137.515259,3907.087040,-1850.514855,8364.327145
1137.515575,3524.039291,-1258.350101,7994.224174
1137.515891,3677.258390,-962.267725,7550.100608
1137.516206,2604.724693,-518.144159,7846.182985
1137.516522,2221.676944,-666.185348,7994.224174
1137.516838,995.924147,-1184.329507,8364.327145
1137.517154,229.828649,-2072.576638,9030.512492
1137.517470,229.828649,-3034.844362,9622.677246
1137.517785,-153.219100,-4071.132681,10510.924376
1137.518101,0.000000,-4737.318029,10807.006753
1137.518417,612.876398,-4589.276840,11029.068536
1137.518733,1072.533697,-4885.359217,11325.150913
1137.519049,1685.410096,-3627.009116,10436.903782
1137.519364,2834.553343,-2590.720797,9918.759623
1137.519680,3524.039291,-962.267725,9400.615463
1137.519996,4290.134789,370.102971,8216.285956
1137.520312,4596.572988,1480.411884,7254.018232
1137.520628,4826.401637,1776.494261,6735.874072
1137.520943,4366.744339,1628.453072,6809.894666
1137.521259,3524.039291,1480.411884,7624.121203
1137.521575,2451.505594,592.164754,8216.285956
1137.521891,1685.410096,-296.082377,9400.615463
1137.522207,76.609550,-1850.514855,10584.944971
1137.522523,-919.314598,-3330.926739,11621.233289
1137.522838,-1149.143247,-4293.194464,12731.542202
1137.523154,-1608.800546,-4737.318029,13249.686362
1137.523470,-1455.581446,-4737.318029,13471.748144
1137.523786,306.438199,-3775.050304,12583.501014
1137.524102,1608.800546,-2886.803174,11621.233289
1137.524417,2834.553343,-1258.350101,10362.883188
1137.524733,4213.525239,296.082377,8438.347739
1137.525049,5975.544884,1036.288319,8142.265362
1137.525365,6435.202183,2516.700203,7179.997637
1137.525681,6588.421283,2960.823768,6513.812290
1137.525996,6741.640382,2220.617826,7105.977043
1137.526312,5822.325785,740.205942,7772.162391
1137.526628,4673.182538,-592.164754,9030.512492
1137.526944,3600.648841,-2442.679609,10362.883188
1137.527260,2451.505594,-3701.029710,11473.192101
1137.527575,1378.971896,-3923.091493,12139.377449
1137.527891,459.657299,-3775.050304,12361.439231
1137.528207,-306.438199,-2960.823768,11695.253884
1137.528523,0.000000,-2294.638420,11843.295072
1137.528839,995.924147,-2220.617826,11103.089130
1137.529155,1685.410096,-1554.432478,10066.800811
1137.529470,1915.238745,-1554.432478,9104.533087
1137.529786,2987.772442,-2146.597232,9030.512492
1137.530102,4519.963438,-2220.617826,8882.471304
1137.530418,4366.744339,-1850.514855,8586.388927
1137.530734,4903.011187,-2516.700203,8290.306550
1137.531049,4979.620737,-3552.988522,8734.430116
1137.531365,4903.011187,-3478.967927,9178.553681
1137.531681,4749.792088,-3034.844362,8956.491898
1137.531997,4903.011187,-2146.597232,8882.471304
1137.532313,4136.915689,-1406.391290,8142.265362
1137.532628,3294.210641,-1924.535449,7846.182985
1137.532944,2987.772442,-1998.556043,8808.450710
1137.533260,2068.457845,-3404.947333,9252.574275
1137.533576,1149.143247,-4071.132681,9326.594869
1137.533892,612.876398,-4663.297435,9548.656652
1137.534207,842.705048,-5033.400406,9696.697840
1137.534523,1455.581446,-4737.318029,9622.677246
1137.534839,995.924147,-3997.112087,9326.594869
1137.535155,766.095498,-3330.926739,9326.594869
1137.535471,766.095498,-3775.050304,9918.759623
1137.535787,1072.533697,-3997.112087,10066.800811
1137.536102,2145.067394,-3701.029710,9918.759623
1137.536418,2451.505594,-3552.988522,9400.615463
1137.536734,2604.724693,-3330.926739,8882.471304
1137.537050,3524.039291,-3108.864956,8956.491898
1137.537366,3983.696590,-2664.741391,7994.224174
1137.537681,3677.258390,-1702.473667,7476.080014
1137.537997,3217.601092,-1406.391290,8068.244768
1137.538313,3907.087040,-1998.556043,8068.244768
1137.538629,2987.772442,-1628.453072,7994.224174
1137.538945,2911.162892,-1258.350101,8660.409521
1137.539260,2681.334243,-1702.473667,8586.388927
1137.539576,2145.067394,-2368.659014,8660.409521
1137.539892,1072.533697,-2368.659014,9474.636058
1137.540208,536.266849,-3034.844362,10066.800811
1137.540524,0.000000,-3552.988522,10732.986159
1137.540839,-612.876398,-3404.947333,10955.047942
1137.541155,-1225.752797,-3849.070898,11547.212695
1137.541471,-1072.533697,-4071.132681,11473.192101
1137.541787,76.609550,-3182.885551,10732.986159
1137.542103,766.095498,-1924.535449,10584.944971
1137.542419,2068.457845,-1850.514855,9992.780217
1137.542734,3294.210641,-1258.350101,8882.471304
1137.543050,4443.353888,-296.082377,8216.285956
1137.543366,5209.449386,-74.020594,8290.306550
1137.543682,5745.716235,-74.020594,8586.388927
1137.543998,5592.497135,518.144159,8142.265362
1137.544313,5439.278036,370.102971,8364.327145
1137.544629,4826.401637,-444.123565,8956.491898
1137.544945,4443.353888,-74.020594,9326.594869
1137.545261,2911.162892,-0.000000,9992.780217
1137.545577,2528.115143,-518.144159,10288.862594
1137.545892,1455.581446,-1036.288319,10658.965565
1137.546208,689.485948,-962.267725,10658.965565
1137.546524,306.438199,-1184.329507,11251.130318
1137.546840,612.876398,-1998.556043,11621.233289
1137.547156,306.438199,-1406.391290,11399.171507
1137.547471,383.047749,-1036.288319,11177.109724
1137.547787,1149.143247,-2072.576638,10807.006753
1137.548103,1302.362347,-444.123565,9918.759623
1137.548419,1991.848295,222.061783,9326.594869
1137.548735,3064.381992,-74.020594,9326.594869
1137.549051,3907.087040,-0.000000,8882.471304
1137.549366,4060.306139,444.123565,8808.450710
1137.549682,3907.087040,370.102971,8290.306550
1137.549998,3217.601092,296.082377,8290.306550
1137.550314,2911.162892,370.102971,8882.471304
1137.550630,2145.067394,518.144159,8512.368333
1137.550945,1838.629195,962.267725,9104.533087
1137.551261,1149.143247,370.102971,9696.697840
1137.551577,612.876398,-888.247130,9252.574275
1137.551893,-459.657299,-1628.453072,9918.759623
1137.552209,-1225.752797,-2220.617826,10510.924376
1137.552524,-1608.800546,-2590.720797,10584.944971
1137.552840,-1149.143247,-1702.473667,10881.027347
1137.553156,-536.266849,-1480.411884,10436.903782
1137.553472,-766.095498,-1036.288319,9548.656652
1137.553788,-1378.971896,-1332.370696,9178.553681
1137.554103,0.000000,-1628.453072,9104.533087
1137.554419,306.438199,-444.123565,8216.285956
1137.554735,1149.143247,296.082377,7846.182985
1137.555051,1685.410096,-222.061783,8290.306550
1137.555367,1685.410096,-370.102971,8586.388927
1137.555683,2068.457845,-1036.288319,8290.306550
1137.555998,2068.457845,-296.082377,8142.265362
1137.556314,1455.581446,-222.061783,8660.409521
1137.556630,1685.410096,-1110.308913,8586.388927
1137.556946,2374.896044,-74.020594,9474.636058
1137.557262,1072.533697,-740.205942,8882.471304
1137.557577,76.609550,-1184.329507,9104.533087
1137.557893,-383.047749,-1036.288319,9918.759623
1137.558209,-995.924147,-592.164754,9030.512492
1137.558525,-1149.143247,-74.020594,9326.594869
1137.558841,-1532.190996,-0.000000,10214.842000
1137.559156,-1838.629195,-888.247130,9696.697840
1137.559472,-2068.457845,-1554.432478,10066.800811
1137.559788,-2068.457845,-1998.556043,10362.883188
1137.560104,-1762.019645,-2220.617826,9696.697840
1137.560420,-612.876398,-814.226536,10140.821405
1137.560735,0.000000,-1406.391290,10066.800811
1137.561051,383.047749,-1406.391290,9844.739029
1137.561367,842.705048,-888.247130,9474.636058
1137.561683,1225.752797,-888.247130,9770.718434
1137.561999,1838.629195,-444.123565,9326.594869
1137.562315,2604.724693,518.144159,9030.512492
1137.562630,2911.162892,296.082377,8216.285956
1137.562946,2145.067394,-370.102971,8438.347739
1137.563262,1838.629195,-74.020594,9770.718434
1137.563578,1225.752797,296.082377,8734.430116
1137.563894,612.876398,222.061783,9326.594869
1137.564209,0.000000,-1036.288319,10140.821405
1137.564525,0.000000,-1850.514855,10658.965565
1137.564841,-689.485948,-1924.535449,10658.965565
1137.565157,-1532.190996,-2590.720797,11473.192101
1137.565472,-1225.752797,-2368.659014,10732.986159
1137.565788,-1072.533697,-1776.494261,10214.842000
1137.566104,-689.485948,-1332.370696,10288.862594
1137.566419,153.219100,-74.020594,9474.636058
1137.566735,689.485948,-0.000000,9178.553681
1137.567051,1302.362347,-0.000000,9178.553681
1137.567367,1455.581446,444.123565,8956.491898
1137.567682,2145.067394,1332.370696,7698.141797
1137.567998,2451.505594,1036.288319,8142.265362
1137.568314,1762.019645,148.041188,8512.368333
1137.568629,1532.190996,-74.020594,9474.636058
1137.568945,1532.190996,-0.000000,9178.553681
1137.569261,383.047749,-74.020594,8882.471304
1137.569576,1149.143247,-0.000000,9918.759623
1137.569892,995.924147,-74.020594,9252.574275
1137.570208,0.000000,-148.041188,9622.677246
1137.570524,0.000000,-518.144159,10288.862594
1137.570839,-153.219100,-518.144159,9474.636058
1137.571155,-383.047749,-0.000000,9030.512492
1137.571471,229.828649,-222.061783,9696.697840
1137.571786,153.219100,-518.144159,9400.615463
1137.572102,-383.047749,-814.226536,9104.533087
1137.572418,-612.876398,-1406.391290,9992.780217
1137.572734,153.219100,-962.267725,9918.759623
1137.573049,766.095498,296.082377,9030.512492
1137.573365,1149.143247,1036.288319,8586.388927
1137.573681,1455.581446,888.247130,8290.306550
1137.573996,919.314598,740.205942,8438.347739
1137.574312,995.924147,962.267725,8438.347739
1137.574628,459.657299,518.144159,8808.450710
1137.574943,842.705048,-222.061783,9548.656652
1137.575259,459.657299,-148.041188,9252.574275
1137.575575,-306.438199,-444.123565,9474.636058
1137.575891,-229.828649,-592.164754,10658.965565
1137.576206,-153.219100,444.123565,9622.677246
1137.576522,-459.657299,1110.308913,9030.512492
1137.576838,0.000000,740.205942,10214.842000
1137.577153,-229.828649,962.267725,9548.656652
1137.577469,0.000000,740.205942,9770.718434
1137.577785,-383.047749,74.020594,9696.697840
1137.578101,-383.047749,-0.000000,9844.739029
1137.578416,0.000000,-0.000000,10436.903782
1137.578732,229.828649,518.144159,10140.821405
1137.579048,76.609550,-444.123565,9696.697840
1137.579363,459.657299,-0.000000,10436.903782
1137.579679,612.876398,444.123565,9696.697840
1137.579995,1072.533697,814.226536,9252.574275
1137.580310,1762.019645,1110.308913,9696.697840
1137.580626,1838.629195,740.205942,9030.512492
1137.580942,1302.362347,1036.288319,9104.533087
1137.581258,1302.362347,518.144159,9770.718434
1137.581573,842.705048,222.061783,9474.636058
1137.581889,612.876398,-0.000000,9178.553681
1137.582205,153.219100,-740.205942,10436.903782
1137.582520,-229.828649,-1702.473667,11177.109724
1137.582836,-842.705048,-1702.473667,10732.986159
1137.583152,-612.876398,-1776.494261,11251.130318
1137.583467,-689.485948,-740.205942,9844.739029
1137.583783,-229.828649,-222.061783,9770.718434
1137.584099,153.219100,296.082377,10066.800811
1137.584415,76.609550,-0.000000,9400.615463
1137.584730,-229.828649,-592.164754,9030.512492
1137.585046,229.828649,-962.267725,9548.656652
1137.585362,459.657299,-1110.308913,9622.677246
1137.585677,1455.581446,-1332.370696,9252.574275
1137.585993,1072.533697,-1110.308913,8882.471304
1137.586309,383.047749,-888.247130,9252.574275
1137.586625,766.095498,-1036.288319,9474.636058
1137.586940,536.266849,-666.185348,8956.491898
1137.587256,383.047749,-74.020594,8808.450710
1137.587572,689.485948,-444.123565,9178.553681
1137.587887,612.876398,-0.000000,8512.368333
1137.588203,0.000000,-814.226536,9326.594869
1137.588519,-153.219100,-2146.597232,9548.656652
1137.588834,0.000000,-1850.514855,9474.636058
1137.589150,229.828649,-1332.370696,8734.430116
1137.589466,0.000000,-1924.535449,9696.697840
1137.589782,0.000000,-1850.514855,9252.574275
1137.590097,689.485948,-1776.494261,9104.533087
1137.590413,766.095498,-1332.370696,9252.574275
1137.590729,919.314598,-592.164754,8660.409521
1137.591044,1762.019645,-0.000000,7920.203579
1137.591360,1838.629195,-0.000000,7624.121203
1137.591676,1532.190996,444.123565,8438.347739
1137.591992,2374.896044,-0.000000,7994.224174
1137.592307,1302.362347,-148.041188,8808.450710
1137.592623,842.705048,-370.102971,8882.471304
1137.592939,842.705048,-888.247130,9622.677246
1137.593254,459.657299,-1036.288319,9474.636058
1137.593570,0.000000,-962.267725,9696.697840
1137.593886,0.000000,-666.185348,10140.821405
1137.594201,76.609550,222.061783,9844.739029
1137.594517,229.828649,592.164754,9326.594869
1137.594833,842.705048,666.185348,9400.615463
1137.595149,689.485948,444.123565,9474.636058
1137.595464,76.609550,666.185348,9030.512492
1137.595780,0.000000,-0.000000,9548.656652
1137.596096,76.609550,-0.000000,10362.883188
1137.596411,536.266849,-0.000000,10066.800811
1137.596727,842.705048,-0.000000,9696.697840
1137.597043,153.219100,444.123565,10214.842000
1137.597359,536.266849,222.061783,10140.821405
1137.597674,842.705048,1036.288319,9474.636058
1137.597990,1149.143247,1406.391290,9622.677246
1137.598306,1608.800546,1110.308913,9622.677246
1137.598621,1608.800546,1406.391290,9178.553681
1137.598937,306.438199,370.102971,9400.615463
1137.599253,0.000000,-0.000000,9992.780217
1137.599568,0.000000,370.102971,9992.780217
1137.599884,0.000000,222.061783,9548.656652
1137.600200,0.000000,-74.020594,10658.965565
1137.600516,-306.438199,-444.123565,10510.924376
1137.600831,-383.047749,-666.185348,10288.862594
1137.601147,-766.095498,-74.020594,10140.821405
1137.601463,-76.609550,-74.020594,9992.780217
1137.601778,0.000000,666.185348,9918.759623
1137.602094,0.000000,814.226536,9400.615463
1137.602410,-536.266849,740.205942,9474.636058
1137.602726,-536.266849,-74.020594,9844.739029
1137.603041,-383.047749,-74.020594,9400.615463
1137.603357,0.000000,148.041188,9844.739029
1137.603673,306.438199,-222.061783,9696.697840
1137.603988,0.000000,-444.123565,9918.759623
