#time,accel_x,accel_y,accel_z
825.555540,536.266849,-0.000000,9622.677246
825.555855,153.219100,-370.102971,9400.615463
825.556171,383.047749,-74.020594,9548.656652
825.556487,229.828649,-0.000000,9474.636058
825.556803,689.485948,-666.185348,9474.636058
825.557118,612.876398,-222.061783,9548.656652
825.557434,229.828649,-74.020594,9474.636058
825.557750,459.657299,-148.041188,9474.636058
825.558066,0.000000,-0.000000,9400.615463
825.558381,459.657299,-592.164754,9474.636058
825.558697,536.266849,-0.000000,9474.636058
825.559013,306.438199,-370.102971,9548.656652
825.559329,306.438199,-74.020594,9548.656652
825.559644,612.876398,-222.061783,9474.636058
825.559960,306.438199,-222.061783,9696.697840
825.560276,306.438199,-0.000000,9622.677246
825.560592,383.047749,-0.000000,9548.656652
825.560907,306.438199,-0.000000,9326.594869
825.561223,383.047749,222.061783,9474.636058
825.561539,306.438199,-0.000000,9474.636058
825.561855,383.047749,296.082377,9252.574275
825.562170,459.657299,-0.000000,9474.636058
825.562486,0.000000,-0.000000,9474.636058
825.562802,153.219100,-74.020594,9622.677246
825.563118,153.219100,-74.020594,9622.677246
825.563433,76.609550,-370.102971,9844.739029
825.563749,229.828649,-0.000000,9844.739029
825.564065,383.047749,-0.000000,9696.697840
825.564381,459.657299,518.144159,9474.636058
825.564696,383.047749,1036.288319,9326.594869
825.565012,1072.533697,1036.288319,9178.553681
825.565328,766.095498,814.226536,9326.594869
825.565643,612.876398,666.185348,8956.491898
825.565959,842.705048,666.185348,8956.491898
825.566275,766.095498,444.123565,9326.594869
825.566591,689.485948,444.123565,9474.636058
825.566906,612.876398,444.123565,9844.739029
825.567222,689.485948,444.123565,9696.697840
825.567538,995.924147,962.267725,9918.759623
825.567854,995.924147,962.267725,9770.718434
825.568169,1302.362347,740.205942,9474.636058
825.568485,1225.752797,1110.308913,9400.615463
825.568801,1455.581446,1406.391290,9178.553681
825.569117,1915.238745,1554.432478,9178.553681
825.569432,2068.457845,1554.432478,9178.553681
825.569748,2298.286494,1480.411884,9104.533087
825.570064,2374.896044,1554.432478,9252.574275
825.570380,2528.115143,1702.473667,9622.677246
825.570695,2451.505594,1406.391290,9474.636058
825.571011,2451.505594,1406.391290,9548.656652
825.571327,2451.505594,1850.514855,9844.739029
825.571643,2681.334243,2072.576638,9474.636058
825.571958,3064.381992,1998.556043,9696.697840
825.572274,2757.943793,2146.597232,9622.677246
825.572590,2987.772442,2220.617826,9400.615463
825.572906,2987.772442,2442.679609,9474.636058
825.573221,3064.381992,2294.638420,9474.636058
825.573537,3370.820191,2220.617826,8956.491898
825.573853,3447.429741,2516.700203,9326.594869
825.574169,3524.039291,2146.597232,9252.574275
825.574484,3217.601092,2368.659014,9474.636058
825.574800,3140.991542,2368.659014,9696.697840
825.575116,3294.210641,2442.679609,9622.677246
825.575432,2987.772442,2590.720797,9844.739029
825.575747,3140.991542,2368.659014,9844.739029
825.576063,3064.381992,2442.679609,9770.718434
825.576379,2451.505594,2368.659014,9844.739029
825.576695,2528.115143,1850.514855,9918.759623
825.577010,2374.896044,1850.514855,10140.821405
825.577326,2298.286494,1776.494261,9992.780217
825.577642,2681.334243,2220.617826,9844.739029
825.577958,2451.505594,2146.597232,9770.718434
825.578273,2604.724693,2442.679609,9770.718434
825.578589,2681.334243,2072.576638,9696.697840
825.578905,2834.553343,2368.659014,9622.677246
825.579220,2911.162892,2368.659014,9474.636058
825.579536,2604.724693,1924.535449,9326.594869
825.579852,2757.943793,1850.514855,9252.574275
825.580168,2681.334243,1924.535449,9252.574275
825.580483,2451.505594,1776.494261,9252.574275
825.580799,1838.629195,1406.391290,9474.636058
825.581115,1378.971896,1480.411884,9770.718434
825.581431,919.314598,740.205942,10140.821405
825.581746,536.266849,370.102971,10362.883188
825.582062,383.047749,-0.000000,10732.986159
825.582378,383.047749,-518.144159,10807.006753
825.582694,612.876398,-518.144159,10955.047942
825.583009,1225.752797,-0.000000,10584.944971
825.583325,1608.800546,814.226536,10288.862594
825.583641,2298.286494,1702.473667,9104.533087
825.583957,3753.867940,2146.597232,8586.388927
825.584272,3753.867940,2812.782580,7846.182985
825.584588,4213.525239,3182.885551,7254.018232
825.584904,4596.572988,2886.803174,7105.977043
825.585220,4673.182538,2442.679609,7105.977043
825.585535,4060.306139,1776.494261,7772.162391
825.585851,3064.381992,1258.350101,8290.306550
825.586167,2298.286494,740.205942,9104.533087
825.586483,1149.143247,370.102971,9548.656652
825.586798,0.000000,-0.000000,10140.821405
825.587114,-612.876398,-74.020594,10362.883188
825.587430,-1149.143247,-296.082377,10881.027347
825.587746,-1225.752797,-888.247130,11325.150913
825.588061,-766.095498,-1110.308913,11325.150913
825.588377,-153.219100,-740.205942,10881.027347
825.588693,689.485948,-148.041188,10436.903782
825.589009,1455.581446,814.226536,10140.821405
825.589324,2681.334243,1702.473667,9030.512492
825.589640,4060.306139,2664.741391,8290.306550
825.589956,5439.278036,3627.009116,7402.059420
825.590272,6665.030833,3849.070898,7254.018232
825.590587,6741.640382,4293.194464,6439.791695
825.590903,6894.859482,4441.235652,6513.812290
825.591219,6511.811733,4367.215058,6809.894666
825.591535,5592.497135,4145.153275,7476.080014
825.591850,4519.963438,3034.844362,8364.327145
825.592166,2987.772442,1776.494261,9622.677246
825.592482,1532.190996,370.102971,10955.047942
825.592797,76.609550,-518.144159,11991.336260
825.593113,-1149.143247,-666.185348,13175.665768
825.593429,-1378.971896,-962.267725,13323.706956
825.593745,-1225.752797,-222.061783,12953.603985
825.594060,-306.438199,592.164754,12583.501014
825.594376,536.266849,1628.453072,11029.068536
825.594692,2145.067394,2886.803174,10066.800811
825.595008,3140.991542,3997.112087,8438.347739
825.595323,4903.011187,4293.194464,7105.977043
825.595639,6358.592633,4515.256246,6883.915261
825.595955,7124.688131,3997.112087,6809.894666
825.596271,7124.688131,3701.029710,7402.059420
825.596586,6358.592633,2516.700203,7994.224174
825.596902,5132.839837,2368.659014,9178.553681
825.597218,4136.915689,1776.494261,10288.862594
825.597534,2987.772442,1554.432478,11547.212695
825.597849,1685.410096,1258.350101,12065.356855
825.598165,689.485948,2220.617826,11325.150913
825.598481,383.047749,2960.823768,11029.068536
825.598797,995.924147,2664.741391,10807.006753
825.599112,1532.190996,2516.700203,10214.842000
825.599428,1915.238745,2146.597232,9844.739029
825.599744,1455.581446,2368.659014,9474.636058
825.600060,1838.629195,1628.453072,9326.594869
825.600375,2451.505594,1702.473667,9104.533087
825.600691,2757.943793,2368.659014,8660.409521
825.601007,2374.896044,2812.782580,8660.409521
825.601323,1685.410096,2886.803174,8882.471304
825.601638,1685.410096,2146.597232,9400.615463
825.601954,1838.629195,1554.432478,9844.739029
825.602270,2068.457845,1332.370696,10066.800811
825.602586,1225.752797,1258.350101,10288.862594
825.602901,1302.362347,1702.473667,10510.924376
825.603217,1762.019645,1850.514855,11029.068536
825.603533,2451.505594,2294.638420,10436.903782
825.603849,2528.115143,3330.926739,9030.512492
825.604164,2681.334243,3923.091493,8290.306550
825.604480,3677.258390,3256.906145,7698.141797
825.604796,4443.353888,2738.761985,7031.956449
825.605112,4443.353888,2812.782580,7105.977043
825.605427,3983.696590,2368.659014,7772.162391
825.605743,3447.429741,1480.411884,8216.285956
825.606059,2451.505594,-0.000000,9474.636058
825.606374,842.705048,-0.000000,10288.862594
825.606690,-306.438199,666.185348,11177.109724
825.607006,-306.438199,814.226536,11695.253884
825.607322,153.219100,666.185348,11399.171507
825.607637,612.876398,888.247130,10955.047942
825.607953,1149.143247,1332.370696,10288.862594
825.608269,1838.629195,1036.288319,9770.718434
825.608585,3140.991542,518.144159,9992.780217
825.608900,3677.258390,1110.308913,9252.574275
825.609216,4519.963438,2664.741391,7920.203579
825.609532,5286.058936,3108.864956,7476.080014
825.609848,5898.935335,2590.720797,7550.100608
825.610163,5439.278036,2812.782580,7698.141797
825.610479,4903.011187,2590.720797,7476.080014
825.610795,4979.620737,1850.514855,8142.265362
825.611111,3447.429741,1850.514855,8808.450710
825.611426,2298.286494,1776.494261,9030.512492
825.611742,1762.019645,1332.370696,10140.821405
825.612058,1149.143247,888.247130,10214.842000
825.612374,0.000000,370.102971,11177.109724
825.612689,-536.266849,-666.185348,11843.295072
825.613005,-766.095498,-1628.453072,12509.480420
825.613321,-689.485948,-740.205942,11843.295072
825.613637,459.657299,666.185348,11103.089130
825.613952,2145.067394,1184.329507,10140.821405
825.614268,3140.991542,1924.535449,8808.450710
825.614584,3753.867940,3330.926739,7920.203579
825.614900,4903.011187,2812.782580,7254.018232
825.615215,4979.620737,3182.885551,7846.182985
825.615531,4903.011187,4293.194464,7402.059420
825.615847,5132.839837,3330.926739,7698.141797
825.616162,4903.011187,2368.659014,8512.368333
825.616478,3600.648841,1998.556043,9474.636058
825.616794,2451.505594,1702.473667,9770.718434
825.617110,2068.457845,814.226536,10807.006753
825.617425,1225.752797,888.247130,10881.027347
825.617741,612.876398,2368.659014,10881.027347
825.618057,1378.971896,1110.308913,11251.130318
825.618373,1378.971896,1332.370696,10658.965565
825.618688,1072.533697,1850.514855,10510.924376
825.619004,1532.190996,1184.329507,9770.718434
825.619320,1685.410096,1554.432478,9252.574275
825.619636,2298.286494,1998.556043,9474.636058
825.619951,2757.943793,1480.411884,8956.491898
825.620267,2451.505594,2442.679609,8512.368333
825.620583,2298.286494,2442.679609,8660.409521
825.620899,1915.238745,1702.473667,8956.491898
825.621214,2068.457845,1998.556043,9326.594869
825.621530,2145.067394,2146.597232,10140.821405
825.621846,2068.457845,1258.350101,10362.883188
825.622161,1532.190996,1776.494261,9474.636058
825.622477,1302.362347,1998.556043,9992.780217
825.622793,1915.238745,2294.638420,9178.553681
825.623109,2451.505594,2442.679609,8956.491898
825.623424,2681.334243,2072.576638,9844.739029
825.623740,2221.676944,1702.473667,9030.512492
825.624056,1991.848295,1480.411884,8512.368333
825.624372,1302.362347,1924.535449,9104.533087
825.624687,1608.800546,2590.720797,8068.244768
825.625003,2604.724693,1332.370696,8660.409521
825.625319,1991.848295,1332.370696,9326.594869
825.625635,1685.410096,1406.391290,9918.759623
825.625950,995.924147,888.247130,9696.697840
825.626266,689.485948,1332.370696,9474.636058
825.626582,919.314598,2294.638420,9844.739029
825.626898,2298.286494,740.205942,10955.047942
825.627213,2221.676944,1924.535449,10362.883188
825.627529,1302.362347,2664.741391,10436.903782
825.627845,2298.286494,1332.370696,8808.450710
825.628160,3830.477490,2072.576638,9474.636058
825.628476,4213.525239,2368.659014,9178.553681
825.628792,4060.306139,2368.659014,8882.471304
825.629108,4213.525239,2516.700203,9252.574275
825.629423,3677.258390,1776.494261,8734.430116
825.629739,3907.087040,2812.782580,8512.368333
825.630055,3753.867940,1554.432478,9844.739029
825.630371,3064.381992,1110.308913,9844.739029
825.630686,2451.505594,518.144159,10510.924376
825.631002,1455.581446,-0.000000,11621.233289
825.631318,1915.238745,814.226536,11103.089130
825.631634,2451.505594,74.020594,10436.903782
825.631949,2298.286494,1332.370696,9030.512492
825.632265,1608.800546,1554.432478,10214.842000
825.632581,1532.190996,592.164754,9548.656652
825.632897,2451.505594,666.185348,9400.615463
825.633212,2068.457845,148.041188,9548.656652
825.633528,2068.457845,-0.000000,9918.759623
825.633844,1455.581446,-74.020594,9326.594869
825.634159,1608.800546,-148.041188,10066.800811
825.634475,1302.362347,-296.082377,9918.759623
825.634791,1915.238745,-740.205942,11251.130318
825.635107,1378.971896,-296.082377,9696.697840
825.635422,919.314598,222.061783,9844.739029
825.635738,536.266849,666.185348,9104.533087
825.636054,995.924147,1110.308913,8438.347739
825.636370,1225.752797,888.247130,10214.842000
825.636685,1225.752797,1036.288319,9252.574275
825.637001,383.047749,148.041188,8068.244768
825.637317,306.438199,-444.123565,8438.347739
825.637633,536.266849,-1258.350101,9770.718434
825.637948,0.000000,-1850.514855,9474.636058
825.638264,76.609550,-888.247130,9918.759623
825.638580,-1072.533697,-1332.370696,9474.636058
825.638896,-919.314598,-1850.514855,9474.636058
825.639211,-459.657299,-1776.494261,9548.656652
825.639527,-1072.533697,-1480.411884,10140.821405
825.639843,-612.876398,-444.123565,9844.739029
825.640158,-459.657299,-1480.411884,9178.553681
825.640474,-229.828649,-222.061783,8808.450710
825.640790,229.828649,-74.020594,9178.553681
825.641106,919.314598,-296.082377,8586.388927
825.641421,1302.362347,1332.370696,7179.997637
825.641737,995.924147,666.185348,6957.935855
825.642053,2374.896044,1258.350101,7031.956449
825.642369,2068.457845,-370.102971,8290.306550
825.642684,842.705048,-0.000000,8290.306550
825.643000,-459.657299,-518.144159,8364.327145
825.643316,-1302.362347,-1850.514855,9474.636058
825.643632,-766.095498,-1110.308913,10436.903782
825.643947,-1608.800546,-1110.308913,10881.027347
825.644263,-2298.286494,-592.164754,11251.130318
825.644579,-2451.505594,-740.205942,10140.821405
825.644895,-2451.505594,148.041188,9548.656652
825.645210,-689.485948,-222.061783,9844.739029
825.645526,-306.438199,-0.000000,9770.718434
825.645842,0.000000,518.144159,9918.759623
825.646157,306.438199,444.123565,8956.491898
825.646473,1302.362347,1184.329507,8142.265362
825.646789,2451.505594,2072.576638,9030.512492
825.647105,2298.286494,2294.638420,8586.388927
825.647420,2145.067394,1776.494261,8142.265362
825.647736,2681.334243,1110.308913,8808.450710
825.648052,2374.896044,-0.000000,9400.615463
825.648368,1532.190996,296.082377,10362.883188
825.648683,842.705048,-0.000000,11177.109724
825.648999,-383.047749,-888.247130,11991.336260
825.649315,-919.314598,-0.000000,10807.006753
825.649631,-229.828649,592.164754,11029.068536
825.649946,-229.828649,592.164754,11325.150913
825.650262,-919.314598,-148.041188,11547.212695
825.650578,229.828649,-296.082377,10140.821405
825.650894,1532.190996,-0.000000,8734.430116
825.651209,1991.848295,222.061783,9474.636058
825.651525,2145.067394,444.123565,10066.800811
825.651841,1838.629195,222.061783,9178.553681
825.652157,2604.724693,666.185348,8512.368333
825.652472,2451.505594,-0.000000,9252.574275
825.652788,1762.019645,666.185348,9844.739029
825.653104,842.705048,296.082377,10362.883188
825.653419,306.438199,296.082377,9252.574275
825.653735,306.438199,-148.041188,9548.656652
825.654051,612.876398,-666.185348,10362.883188
825.654367,-153.219100,-0.000000,10436.903782
825.654682,-766.095498,-222.061783,9696.697840
825.654998,-383.047749,-814.226536,9622.677246
825.655314,306.438199,-1628.453072,9992.780217
825.655630,0.000000,-740.205942,9326.594869
825.655945,766.095498,888.247130,9474.636058
825.656261,459.657299,444.123565,8142.265362
825.656577,1378.971896,296.082377,7698.141797
825.656893,1915.238745,-0.000000,8438.347739
825.657208,1378.971896,518.144159,8068.244768
825.657524,612.876398,962.267725,8808.450710
825.657840,383.047749,-518.144159,8512.368333
825.658156,459.657299,-1406.391290,8438.347739
825.658471,0.000000,-1036.288319,10584.944971
825.658787,-306.438199,-0.000000,10288.862594
825.659103,-995.924147,296.082377,8438.347739
825.659418,-536.266849,-296.082377,8808.450710
825.659734,153.219100,-1036.288319,8734.430116
825.660050,306.438199,-296.082377,9474.636058
825.660366,76.609550,-222.061783,8956.491898
825.660681,153.219100,-814.226536,8956.491898
825.660997,306.438199,-1036.288319,8364.327145
825.661313,536.266849,-1702.473667,9326.594869
825.661629,-306.438199,-370.102971,9696.697840
825.661944,-306.438199,-74.020594,9622.677246
825.662260,-612.876398,-148.041188,8364.327145
825.662576,76.609550,-740.205942,8882.471304
825.662892,306.438199,-1110.308913,9992.780217
825.663207,-153.219100,-222.061783,10510.924376
825.663523,-612.876398,-222.061783,9918.759623
825.663839,-229.828649,-814.226536,9252.574275
825.664155,536.266849,-666.185348,9770.718434
825.664470,383.047749,-370.102971,10288.862594
825.664786,-306.438199,296.082377,10436.903782
825.665102,0.000000,-0.000000,9474.636058
825.665417,383.047749,-370.102971,8882.471304
825.665733,1455.581446,-518.144159,9400.615463
825.666049,459.657299,-814.226536,10362.883188
825.666365,0.000000,-740.205942,10436.903782
825.666680,-229.828649,-296.082377,9178.553681
825.666996,153.219100,-740.205942,9548.656652
825.667312,0.000000,-740.205942,10362.883188
825.667628,-842.705048,592.164754,10436.903782
825.667943,0.000000,-148.041188,10436.903782
825.668259,-306.438199,-888.247130,9252.574275
825.668575,306.438199,-962.267725,10436.903782
825.668891,76.609550,-518.144159,11399.171507
825.669206,0.000000,-740.205942,9918.759623
825.669522,0.000000,296.082377,9696.697840
825.669838,995.924147,-888.247130,9696.697840
825.670154,1149.143247,-296.082377,9474.636058
825.670469,919.314598,592.164754,10214.842000
825.670785,612.876398,444.123565,9548.656652
825.671101,1302.362347,370.102971,8734.430116
825.671416,2221.676944,592.164754,8142.265362
825.671732,1532.190996,1184.329507,7920.203579
825.672048,995.924147,-0.000000,9918.759623
825.672364,766.095498,-518.144159,9696.697840
825.672679,612.876398,-592.164754,8438.347739
825.672995,536.266849,-1110.308913,9696.697840
825.673311,153.219100,-888.247130,10881.027347
825.673627,-306.438199,-666.185348,10584.944971
825.673942,-383.047749,222.061783,8438.347739
825.674258,1225.752797,-222.061783,8882.471304
825.674574,1072.533697,-1110.308913,9178.553681
825.674890,459.657299,-0.000000,9918.759623
825.675205,0.000000,-740.205942,8882.471304
825.675521,1225.752797,-518.144159,8734.430116
825.675837,2068.457845,-592.164754,9030.512492
825.676153,995.924147,1184.329507,8660.409521
825.676468,919.314598,592.164754,9252.574275
825.676784,689.485948,-0.000000,8660.409521
825.677100,1685.410096,296.082377,7624.121203
825.677415,2068.457845,-518.144159,8956.491898
825.677731,1685.410096,370.102971,10436.903782
825.678047,459.657299,296.082377,9030.512492
825.678363,1225.752797,222.061783,8660.409521
825.678678,1915.238745,-0.000000,8882.471304
825.678994,919.314598,-0.000000,9326.594869
825.679310,153.219100,1110.308913,9326.594869
825.679626,76.609550,-0.000000,9178.553681
825.679941,459.657299,-296.082377,9030.512492
825.680257,1225.752797,-0.000000,9326.594869
825.680573,76.609550,-0.000000,9326.594869
825.680889,-536.266849,-0.000000,10214.842000
825.681204,-766.095498,-518.144159,9474.636058
825.681520,-229.828649,-666.185348,9474.636058
825.681836,229.828649,518.144159,9918.759623
825.682152,-612.876398,370.102971,10436.903782
825.682467,-1072.533697,-222.061783,9622.677246
825.682783,-612.876398,-962.267725,10362.883188
825.683099,229.828649,-1258.350101,9548.656652
825.683414,459.657299,222.061783,9992.780217
825.683730,-306.438199,-0.000000,10214.842000
825.684046,153.219100,-74.020594,10362.883188
825.684362,766.095498,-444.123565,9252.574275
825.684677,1149.143247,148.041188,9030.512492
825.684993,459.657299,962.267725,10584.944971
825.685309,306.438199,370.102971,9622.677246
825.685625,689.485948,370.102971,8808.450710
825.685940,995.924147,-888.247130,8734.430116
825.686256,383.047749,-444.123565,9844.739029
825.686572,0.000000,-148.041188,10732.986159
825.686888,-919.314598,-296.082377,9622.677246
825.687203,-153.219100,-518.144159,9474.636058
825.687519,0.000000,-814.226536,10214.842000
825.687835,229.828649,-518.144159,10658.965565
825.688151,-536.266849,-74.020594,10658.965565
825.688466,-306.438199,-370.102971,9400.615463
825.688782,1149.143247,-1332.370696,8660.409521
825.689098,1072.533697,-1258.350101,10066.800811
825.689413,766.095498,296.082377,9622.677246
825.689729,153.219100,-74.020594,9696.697840
825.690045,612.876398,-518.144159,8660.409521
825.690361,1608.800546,-888.247130,9252.574275
825.690676,689.485948,-222.061783,10066.800811
825.690992,383.047749,888.247130,9622.677246
825.691308,612.876398,370.102971,8734.430116
825.691624,1532.190996,-0.000000,7920.203579
825.691939,1838.629195,-1480.411884,9770.718434
825.692255,766.095498,-296.082377,9918.759623
825.692571,153.219100,-444.123565,9844.739029
825.692887,229.828649,-740.205942,8438.347739
825.693202,1532.190996,-1628.453072,8882.471304
825.693518,1072.533697,-814.226536,9622.677246
825.693834,536.266849,814.226536,10066.800811
825.694150,-153.219100,-222.061783,9104.533087
825.694465,459.657299,-518.144159,8216.285956
825.694781,1608.800546,-518.144159,9030.512492
825.695097,612.876398,-74.020594,8438.347739
825.695412,229.828649,-888.247130,9770.718434
825.695728,-229.828649,-1184.329507,9844.739029
825.696044,0.000000,-1184.329507,8734.430116
825.696360,306.438199,-1258.350101,8956.491898
825.696675,-306.438199,-740.205942,9918.759623
825.696991,-536.266849,-222.061783,9622.677246
825.697307,153.219100,-296.082377,8660.409521
825.697623,1072.533697,-1036.288319,8438.347739
825.697938,383.047749,-888.247130,9474.636058
825.698254,0.000000,-518.144159,10140.821405
825.698570,0.000000,-1036.288319,9548.656652
825.698886,306.438199,-740.205942,8956.491898
825.699201,842.705048,-74.020594,8660.409521
825.699517,842.705048,444.123565,9844.739029
825.699833,153.219100,370.102971,9844.739029
825.700149,1072.533697,-0.000000,8512.368333
825.700464,1378.971896,740.205942,7994.224174
825.700780,1685.410096,222.061783,9474.636058
825.701096,383.047749,222.061783,9770.718434
825.701411,76.609550,592.164754,10584.944971
825.701727,153.219100,-296.082377,8882.471304
825.702043,612.876398,-222.061783,8808.450710
825.702359,383.047749,444.123565,10362.883188
825.702674,-229.828649,592.164754,10881.027347
825.702990,-229.828649,740.205942,9326.594869
825.703306,612.876398,-0.000000,9252.574275
825.703622,1149.143247,-444.123565,10362.883188
825.703937,766.095498,592.164754,11177.109724
825.704253,-689.485948,666.185348,10214.842000
825.704569,-153.219100,740.205942,9326.594869
825.704885,536.266849,-0.000000,9696.697840
825.705200,689.485948,1036.288319,9992.780217
825.705516,153.219100,1850.514855,9918.759623
825.705832,-383.047749,962.267725,9844.739029
825.706148,766.095498,-0.000000,9474.636058
825.706463,995.924147,-444.123565,10288.862594
825.706779,766.095498,444.123565,10362.883188
825.707095,383.047749,666.185348,10140.821405
825.707410,306.438199,-0.000000,9770.718434
825.707726,1302.362347,-0.000000,10214.842000
825.708042,1455.581446,518.144159,9844.739029
825.708358,919.314598,1406.391290,9992.780217
825.708673,0.000000,740.205942,9770.718434
825.708989,842.705048,370.102971,8882.471304
825.709305,1838.629195,-74.020594,9104.533087
825.709621,1378.971896,148.041188,9104.533087
825.709936,612.876398,-296.082377,9474.636058
825.710252,-306.438199,-740.205942,10140.821405
825.710568,766.095498,-1036.288319,9696.697840
825.710884,612.876398,-1184.329507,9622.677246
825.711199,0.000000,296.082377,9770.718434
825.711515,0.000000,-222.061783,9770.718434
825.711831,-229.828649,-370.102971,8660.409521
825.712147,306.438199,-888.247130,8586.388927
825.712462,536.266849,-1702.473667,10436.903782
825.712778,-153.219100,-1110.308913,9696.697840
825.713094,-1225.752797,-1258.350101,9548.656652
825.713409,-306.438199,-1776.494261,9178.553681
825.713725,919.314598,-1998.556043,8882.471304
825.714041,459.657299,148.041188,9104.533087
825.714357,-153.219100,-0.000000,9104.533087
825.714673,229.828649,-296.082377,8142.265362
825.714988,842.705048,-666.185348,8290.306550
825.715304,995.924147,-1036.288319,7994.224174
825.715620,383.047749,-740.205942,8734.430116
825.715936,-229.828649,-1110.308913,10362.883188
825.716252,383.047749,-1628.453072,8438.347739
825.716568,1072.533697,-814.226536,8364.327145
825.716884,536.266849,-0.000000,9474.636058
825.717200,-383.047749,-222.061783,9844.739029
825.717516,-383.047749,370.102971,8882.471304
825.717832,229.828649,-518.144159,8364.327145
825.718147,919.314598,-592.164754,9104.533087
825.718463,459.657299,-148.041188,9474.636058
825.718779,-306.438199,-222.061783,10362.883188
825.719095,0.000000,-0.000000,8956.491898
825.719411,459.657299,-518.144159,8660.409521
825.719727,689.485948,-888.247130,10214.842000
825.720043,-229.828649,-666.185348,11251.130318
825.720359,-689.485948,148.041188,9918.759623
825.720675,612.876398,666.185348,8882.471304
825.720991,383.047749,-370.102971,8956.491898
825.721306,612.876398,-296.082377,11103.089130
825.721622,612.876398,222.061783,10066.800811
825.721938,459.657299,370.102971,9326.594869
825.722254,1225.752797,444.123565,9622.677246
825.722570,2221.676944,-370.102971,9622.677246
825.722886,1762.019645,740.205942,10288.862594
825.723202,383.047749,-0.000000,9474.636058
825.723518,1302.362347,518.144159,8734.430116
825.723834,2451.505594,-740.205942,9622.677246
825.724150,995.924147,-0.000000,9474.636058
825.724465,536.266849,592.164754,10658.965565
825.724781,383.047749,148.041188,9844.739029
825.725097,459.657299,-74.020594,9474.636058
825.725413,383.047749,-666.185348,10510.924376
825.725729,0.000000,296.082377,10362.883188
825.726045,-612.876398,-74.020594,10066.800811
825.726361,-995.924147,-296.082377,9918.759623
825.726677,0.000000,-1036.288319,9400.615463
825.726993,229.828649,-1554.432478,10510.924376
825.727309,-459.657299,296.082377,10436.903782
825.727624,-689.485948,666.185348,9548.656652
825.727940,76.609550,-222.061783,9030.512492
825.728256,766.095498,-296.082377,9770.718434
825.728572,612.876398,444.123565,9252.574275
825.728888,383.047749,666.185348,9400.615463
825.729204,536.266849,444.123565,8438.347739
825.729520,995.924147,-222.061783,8364.327145
825.729836,2451.505594,-0.000000,9030.512492
825.730152,766.095498,666.185348,9622.677246
825.730467,306.438199,222.061783,9326.594869
825.730783,76.609550,666.185348,7698.141797
825.731099,842.705048,444.123565,8512.368333
825.731415,383.047749,-666.185348,10362.883188
825.731731,76.609550,370.102971,9844.739029
825.732047,-306.438199,-0.000000,8660.409521
825.732363,-153.219100,-518.144159,8216.285956
825.732679,919.314598,-1628.453072,9696.697840
825.732995,0.000000,-1184.329507,9548.656652
825.733311,-612.876398,-0.000000,9992.780217
825.733626,-383.047749,-0.000000,8882.471304
825.733942,153.219100,-518.144159,8438.347739
825.734258,842.705048,-0.000000,9400.615463
825.734574,153.219100,666.185348,9548.656652
825.734890,229.828649,370.102971,9326.594869
825.735206,306.438199,370.102971,8142.265362
825.735522,1455.581446,-592.164754,8290.306550
825.735838,1838.629195,-814.226536,9622.677246
825.736154,766.095498,-740.205942,10362.883188
825.736470,76.609550,-1258.350101,9696.697840
825.736785,1455.581446,-888.247130,9548.656652
825.737101,1072.533697,-444.123565,9400.615463
825.737417,383.047749,666.185348,9844.739029
825.737733,229.828649,222.061783,10362.883188
825.738049,229.828649,-0.000000,9178.553681
825.738365,459.657299,-222.061783,9178.553681
825.738681,995.924147,-888.247130,9252.574275
825.738997,-153.219100,-592.164754,10436.903782
825.739313,76.609550,-1924.535449,11029.068536
825.739629,-229.828649,-1110.308913,9252.574275
825.739944,229.828649,-1110.308913,9622.677246
825.740260,229.828649,-296.082377,11103.089130
825.740576,76.609550,-0.000000,10362.883188
825.740892,-536.266849,-0.000000,9400.615463
825.741208,306.438199,-592.164754,9178.553681
825.741524,1532.190996,-1036.288319,9918.759623
825.741840,919.314598,-370.102971,9104.533087
825.742156,0.000000,-518.144159,9474.636058
825.742472,229.828649,-888.247130,9474.636058
825.742788,1685.410096,-814.226536,9030.512492
825.743103,1149.143247,-0.000000,8438.347739
825.743419,-459.657299,-0.000000,10807.006753
825.743735,229.828649,-370.102971,10658.965565
825.744051,536.266849,148.041188,8068.244768
825.744367,766.095498,-370.102971,8438.347739
825.744683,536.266849,-74.020594,10881.027347
825.744999,459.657299,-814.226536,9844.739029
825.745315,0.000000,-148.041188,8882.471304
825.745631,536.266849,-296.082377,9326.594869
825.745946,995.924147,-740.205942,9326.594869
825.746262,383.047749,-0.000000,9992.780217
825.746578,-383.047749,-0.000000,10288.862594
825.746894,76.609550,-518.144159,8438.347739
825.747210,1225.752797,-148.041188,8808.450710
825.747526,689.485948,-0.000000,9918.759623
825.747842,229.828649,-296.082377,10436.903782
825.748158,383.047749,-296.082377,9326.594869
825.748474,306.438199,-74.020594,8512.368333
825.748790,995.924147,-592.164754,9548.656652
825.749105,919.314598,-0.000000,9548.656652
825.749421,0.000000,444.123565,9252.574275
825.749737,-306.438199,666.185348,9400.615463
825.750053,919.314598,-1332.370696,8882.471304
825.750369,1225.752797,-592.164754,9474.636058
825.750685,0.000000,222.061783,10510.924376
825.751001,-153.219100,-518.144159,9548.656652
825.751317,459.657299,444.123565,8216.285956
825.751633,1225.752797,-0.000000,8660.409521
825.751949,689.485948,444.123565,9918.759623
825.752264,0.000000,-0.000000,10436.903782
825.752580,-383.047749,222.061783,8956.491898
825.752896,-459.657299,-444.123565,8216.285956
825.753212,536.266849,-814.226536,10066.800811
825.753528,76.609550,-0.000000,10732.986159
825.753844,-536.266849,-0.000000,10140.821405
825.754160,-689.485948,296.082377,9178.553681
825.754476,459.657299,-370.102971,9252.574275
825.754792,536.266849,370.102971,9474.636058
825.755108,153.219100,888.247130,10362.883188
825.755423,-306.438199,222.061783,9178.553681
825.755739,229.828649,222.061783,8512.368333
825.756055,1532.190996,-740.205942,9252.574275
825.756371,1072.533697,-148.041188,9844.739029
825.756687,0.000000,-0.000000,10807.006753
825.757003,-383.047749,-740.205942,9030.512492
825.757319,153.219100,-666.185348,9104.533087
825.757635,919.314598,-148.041188,10140.821405
825.757951,306.438199,1184.329507,10066.800811
825.758267,0.000000,814.226536,9252.574275
825.758582,306.438199,-296.082377,8660.409521
825.758898,1072.533697,-814.226536,9474.636058
825.759214,995.924147,-592.164754,9474.636058
825.759530,153.219100,-222.061783,10362.883188
825.759846,0.000000,-74.020594,9252.574275
825.760162,612.876398,-74.020594,8290.306550
825.760478,1608.800546,-888.247130,10436.903782
825.760794,0.000000,370.102971,10881.027347
825.761110,76.609550,814.226536,9844.739029
825.761425,612.876398,740.205942,8512.368333
825.761741,1225.752797,-0.000000,8660.409521
825.762057,1149.143247,-0.000000,9992.780217
825.762373,842.705048,148.041188,10288.862594
825.762689,0.000000,-0.000000,10214.842000
825.763005,383.047749,148.041188,8882.471304
825.763321,612.876398,-740.205942,9548.656652
825.763637,0.000000,-74.020594,10510.924376
825.763953,-995.924147,666.185348,11399.171507
825.764269,0.000000,-296.082377,9400.615463
825.764584,995.924147,296.082377,9400.615463
825.764900,1149.143247,-222.061783,9104.533087
825.765216,919.314598,148.041188,9696.697840
825.765532,689.485948,518.144159,9326.594869
825.765848,306.438199,-666.185348,9400.615463
825.766164,1915.238745,-740.205942,9400.615463
825.766480,1225.752797,-0.000000,8734.430116
825.766796,229.828649,148.041188,9770.718434
825.767112,306.438199,-666.185348,9474.636058
825.767428,383.047749,-1406.391290,8956.491898
825.767743,1378.971896,-1110.308913,8956.491898
825.768059,766.095498,222.061783,9104.533087
825.768375,229.828649,-1036.288319,9770.718434
825.768691,0.000000,-740.205942,9400.615463
825.769007,306.438199,-1332.370696,8364.327145
825.769323,766.095498,-1184.329507,9178.553681
825.769639,-612.876398,-666.185348,9770.718434
825.769955,-919.314598,-888.247130,10288.862594
825.770271,0.000000,-1184.329507,8956.491898
825.770587,383.047749,-962.267725,7698.141797
825.770902,0.000000,-814.226536,9326.594869
825.771218,-153.219100,-962.267725,10584.944971
825.771534,-229.828649,-740.205942,9178.553681
825.771850,153.219100,-444.123565,8438.347739
825.772166,995.924147,-888.247130,8882.471304
825.772482,536.266849,-370.102971,9474.636058
825.772798,-383.047749,148.041188,9696.697840
825.773114,0.000000,-74.020594,8734.430116
825.773430,1225.752797,-666.185348,7772.162391
825.773746,995.924147,-74.020594,9992.780217
825.774061,383.047749,740.205942,9178.553681
825.774377,0.000000,592.164754,9104.533087
825.774693,689.485948,-0.000000,8068.244768
825.775009,1149.143247,-666.185348,9622.677246
825.775325,459.657299,-370.102971,10658.965565
825.775641,-383.047749,148.041188,10436.903782
825.775957,-689.485948,296.082377,8734.430116
825.776273,612.876398,-148.041188,9474.636058
825.776589,536.266849,-370.102971,9770.718434
825.776904,0.000000,814.226536,10288.862594
825.777220,-153.219100,-296.082377,11103.089130
825.777536,-229.828649,-814.226536,9474.636058
825.777852,383.047749,-962.267725,9400.615463
825.778168,459.657299,-74.020594,11103.089130
825.778484,153.219100,370.102971,10658.965565
825.778800,76.609550,444.123565,9770.718434
825.779116,1455.581446,-0.000000,9474.636058
825.779432,1225.752797,148.041188,8808.450710
825.779748,1378.971896,1332.370696,10510.924376
825.780063,995.924147,222.061783,9770.718434
825.780379,612.876398,-222.061783,9474.636058
825.780695,1455.581446,-740.205942,9474.636058
825.781011,1838.629195,-222.061783,9992.780217
825.781327,689.485948,1184.329507,9844.739029
825.781643,153.219100,222.061783,9400.615463
825.781959,612.876398,-0.000000,9104.533087
825.782275,1455.581446,-370.102971,9104.533087
825.782591,612.876398,-222.061783,9918.759623
825.782907,0.000000,-518.144159,10881.027347
825.783222,-612.876398,-1036.288319,9252.574275
825.783538,459.657299,-1184.329507,9696.697840
825.783854,536.266849,-296.082377,9548.656652
825.784170,0.000000,444.123565,9474.636058
825.784486,-229.828649,-0.000000,10066.800811
825.784802,153.219100,444.123565,8586.388927
825.785118,1685.410096,-592.164754,8216.285956
825.785434,1608.800546,-222.061783,9770.718434
825.785750,536.266849,-74.020594,9918.759623
825.786066,612.876398,-962.267725,9548.656652
825.786381,1608.800546,-148.041188,8364.327145
825.786697,1455.581446,-148.041188,9030.512492
825.787013,612.876398,740.205942,9474.636058
825.787329,612.876398,518.144159,10510.924376
825.787645,76.609550,444.123565,8586.388927
825.787961,1532.190996,370.102971,7994.224174
825.788277,1838.629195,-0.000000,9326.594869
825.788593,689.485948,-296.082377,9696.697840
825.788909,0.000000,-888.247130,9770.718434
825.789225,459.657299,-592.164754,8660.409521
825.789540,1072.533697,-740.205942,8364.327145
825.789856,229.828649,518.144159,9326.594869
825.790172,153.219100,666.185348,9844.739029
825.790488,-766.095498,-222.061783,8734.430116
825.790804,612.876398,-814.226536,9178.553681
825.791120,766.095498,-666.185348,9178.553681
825.791436,306.438199,-666.185348,10288.862594
825.791752,-536.266849,-296.082377,10214.842000
825.792068,153.219100,-0.000000,9252.574275
825.792383,995.924147,-444.123565,8660.409521
825.792699,612.876398,-74.020594,9474.636058
825.793015,0.000000,666.185348,10066.800811
825.793331,-229.828649,-296.082377,9474.636058
825.793647,0.000000,-296.082377,8882.471304
825.793963,1225.752797,-740.205942,10140.821405
825.794279,1225.752797,296.082377,9030.512492
825.794595,76.609550,-0.000000,9252.574275
825.794911,459.657299,-518.144159,10584.944971
825.795227,459.657299,-1036.288319,9918.759623
825.795542,1378.971896,444.123565,9770.718434
825.795858,306.438199,1184.329507,9992.780217
825.796174,-383.047749,518.144159,10140.821405
825.796490,153.219100,-74.020594,9548.656652
825.796806,919.314598,-518.144159,9178.553681
825.797122,766.095498,-74.020594,9844.739029
825.797438,153.219100,-740.205942,11103.089130
825.797754,0.000000,-444.123565,10140.821405
825.798070,536.266849,-444.123565,8512.368333
825.798386,383.047749,-1110.308913,10288.862594
825.798701,459.657299,-0.000000,10066.800811
825.799017,-229.828649,-296.082377,10436.903782
825.799333,-383.047749,-0.000000,8586.388927
825.799649,612.876398,-1406.391290,9030.512492
825.799965,459.657299,-1258.350101,9474.636058
825.800281,0.000000,-1036.288319,10288.862594
825.800597,-766.095498,-1184.329507,10066.800811
825.800913,0.000000,-1554.432478,9548.656652
825.801229,1149.143247,-1406.391290,9252.574275
825.801545,459.657299,-222.061783,8660.409521
825.801860,0.000000,-0.000000,10140.821405
825.802176,383.047749,-0.000000,8068.244768
825.802492,1302.362347,-296.082377,7402.059420
825.802808,842.705048,-1184.329507,9104.533087
825.803124,383.047749,-1406.391290,9326.594869
825.803440,-383.047749,-962.267725,9918.759623
825.803756,0.000000,-666.185348,8512.368333
825.804072,229.828649,-1406.391290,8068.244768
825.804388,842.705048,-444.123565,9622.677246
825.804704,383.047749,370.102971,10066.800811
825.805019,-689.485948,-222.061783,8512.368333
825.805335,459.657299,-74.020594,8956.491898
825.805651,766.095498,-518.144159,8438.347739
825.805967,689.485948,-0.000000,9400.615463
825.806283,0.000000,-0.000000,9918.759623
825.806599,0.000000,-444.123565,9030.512492
825.806915,766.095498,-1332.370696,10066.800811
825.807231,383.047749,-814.226536,9178.553681
825.807547,0.000000,1110.308913,9844.739029
825.807862,0.000000,-74.020594,9770.718434
825.808178,612.876398,-444.123565,9030.512492
825.808494,1532.190996,-0.000000,9474.636058
825.808810,1378.971896,518.144159,9104.533087
825.809126,306.438199,370.102971,9622.677246
825.809442,-306.438199,-518.144159,9622.677246
825.809758,689.485948,-814.226536,9844.739029
825.810074,1149.143247,-814.226536,10140.821405
825.810390,766.095498,740.205942,10140.821405
825.810706,995.924147,370.102971,10140.821405
825.811021,612.876398,666.185348,8216.285956
825.811337,2221.676944,-0.000000,9178.553681
825.811653,2451.505594,444.123565,9326.594869
825.811969,1302.362347,222.061783,9696.697840
825.812285,612.876398,-148.041188,10066.800811
825.812601,153.219100,222.061783,9178.553681
825.812917,1072.533697,148.041188,9400.615463
825.813233,383.047749,814.226536,9548.656652
825.813549,-612.876398,888.247130,10807.006753
825.813865,-919.314598,444.123565,10214.842000
825.814180,0.000000,-666.185348,9400.615463
825.814496,0.000000,-1258.350101,9770.718434
825.814812,0.000000,-666.185348,11325.150913
825.815128,-536.266849,-444.123565,10510.924376
825.815444,-689.485948,-0.000000,9474.636058
825.815760,766.095498,-296.082377,9844.739029
825.816076,1072.533697,1258.350101,8956.491898
825.816391,612.876398,962.267725,9326.594869
825.816707,76.609550,1332.370696,8364.327145
825.817023,1378.971896,518.144159,8142.265362
825.817339,1991.848295,-0.000000,8216.285956
825.817655,1685.410096,1332.370696,8882.471304
825.817971,689.485948,1628.453072,9326.594869
825.818286,842.705048,740.205942,8438.347739
825.818602,459.657299,-74.020594,8660.409521
825.818918,0.000000,-0.000000,10140.821405
825.819234,-459.657299,296.082377,9844.739029
825.819550,-1072.533697,-0.000000,10288.862594
825.819865,-842.705048,-0.000000,9622.677246
825.820181,536.266849,-444.123565,9622.677246
825.820497,306.438199,962.267725,9030.512492
825.820813,-766.095498,962.267725,10140.821405
825.821129,-153.219100,666.185348,9326.594869
825.821444,995.924147,-148.041188,9622.677246
825.821760,842.705048,444.123565,9030.512492
825.822076,536.266849,888.247130,9400.615463
825.822392,995.924147,222.061783,9696.697840
825.822708,1072.533697,814.226536,8586.388927
825.823024,1762.019645,222.061783,8734.430116
825.823339,1915.238745,-0.000000,9030.512492
825.823655,995.924147,296.082377,9992.780217
825.823971,459.657299,-0.000000,8956.491898
825.824287,842.705048,-370.102971,9400.615463
825.824603,766.095498,-1480.411884,10510.924376
825.824918,229.828649,-370.102971,10955.047942
825.825234,76.609550,148.041188,10510.924376
825.825550,-229.828649,-148.041188,8734.430116
825.825866,229.828649,-814.226536,9252.574275
825.826182,842.705048,-1702.473667,9992.780217
825.826497,76.609550,-888.247130,10140.821405
825.826813,76.609550,-962.267725,10584.944971
825.827129,-306.438199,-1184.329507,9104.533087
825.827445,766.095498,-2220.617826,9770.718434
825.827761,689.485948,-1332.370696,10288.862594
825.828077,229.828649,-222.061783,9696.697840
825.828392,0.000000,-296.082377,9252.574275
825.828708,306.438199,-1258.350101,9326.594869
825.829024,1378.971896,-1554.432478,9400.615463
825.829340,612.876398,-888.247130,9474.636058
825.829656,76.609550,-1184.329507,10288.862594
825.829971,229.828649,-1850.514855,9252.574275
825.830287,919.314598,-1258.350101,8956.491898
825.830603,842.705048,-444.123565,9104.533087
825.830919,383.047749,-0.000000,9030.512492
825.831235,0.000000,-296.082377,9326.594869
825.831550,76.609550,-1332.370696,9104.533087
825.831866,1072.533697,-962.267725,8364.327145
825.832182,919.314598,-814.226536,8586.388927
825.832498,0.000000,-1036.288319,10510.924376
825.832814,0.000000,-962.267725,9326.594869
825.833130,0.000000,-1184.329507,8808.450710
825.833445,536.266849,-148.041188,9104.533087
825.833761,0.000000,444.123565,9770.718434
825.834077,306.438199,-222.061783,10140.821405
825.834393,76.609550,-222.061783,8586.388927
825.834709,1225.752797,-370.102971,8734.430116
825.835024,919.314598,-444.123565,9104.533087
825.835340,459.657299,-444.123565,9696.697840
825.835656,0.000000,-0.000000,9992.780217
825.835972,766.095498,-296.082377,9400.615463
825.836288,1608.800546,-370.102971,8364.327145
825.836604,76.609550,592.164754,9992.780217
825.836919,-229.828649,-74.020594,10140.821405
825.837235,0.000000,-444.123565,9252.574275
825.837551,536.266849,-1184.329507,9696.697840
825.837867,689.485948,-962.267725,10140.821405
825.838183,536.266849,-370.102971,10436.903782
825.838498,-383.047749,-0.000000,8660.409521
825.838814,306.438199,-740.205942,9400.615463
825.839130,1532.190996,-814.226536,9992.780217
825.839446,842.705048,-518.144159,9992.780217
825.839762,76.609550,370.102971,10140.821405
825.840077,0.000000,-0.000000,9178.553681
825.840393,919.314598,-0.000000,8364.327145
825.840709,1149.143247,-296.082377,9178.553681
825.841025,383.047749,-518.144159,8734.430116
825.841341,-229.828649,-1406.391290,10881.027347
825.841657,-306.438199,-666.185348,9474.636058
825.841972,153.219100,-1184.329507,9326.594869
825.842288,-229.828649,-148.041188,8956.491898
825.842604,-995.924147,222.061783,10584.944971
825.842920,-1149.143247,-0.000000,9918.759623
825.843236,-612.876398,74.020594,9178.553681
825.843551,0.000000,-666.185348,9622.677246
825.843867,-229.828649,-962.267725,9918.759623
825.844183,-383.047749,-296.082377,10955.047942
825.844499,-612.876398,-222.061783,9326.594869
825.844815,766.095498,-296.082377,9474.636058
825.845130,1762.019645,740.205942,9622.677246
825.845446,995.924147,1702.473667,8956.491898
825.845762,1225.752797,2294.638420,8660.409521
825.846078,1378.971896,1258.350101,7550.100608
825.846394,1762.019645,592.164754,8438.347739
825.846710,1915.238745,518.144159,9474.636058
825.847025,1302.362347,888.247130,9918.759623
825.847341,153.219100,1036.288319,8734.430116
825.847657,919.314598,370.102971,9178.553681
825.847973,1532.190996,296.082377,9252.574275
825.848289,612.876398,1406.391290,9844.739029
825.848604,-689.485948,444.123565,10584.944971
825.848920,-536.266849,1036.288319,9474.636058
825.849236,1072.533697,740.205942,9178.553681
825.849552,1072.533697,1036.288319,8364.327145
825.849868,229.828649,1776.494261,9844.739029
825.850183,383.047749,222.061783,9992.780217
825.850499,536.266849,740.205942,8438.347739
825.850815,1149.143247,592.164754,8882.471304
825.851131,919.314598,444.123565,9474.636058
825.851447,383.047749,814.226536,10436.903782
825.851763,-153.219100,814.226536,9474.636058
825.852078,766.095498,592.164754,9326.594869
825.852394,1838.629195,370.102971,10066.800811
825.852710,919.314598,1184.329507,9992.780217
825.853026,-229.828649,1110.308913,9918.759623
825.853342,383.047749,148.041188,9770.718434
825.853657,1608.800546,-0.000000,9770.718434
825.853973,1072.533697,296.082377,9992.780217
825.854289,689.485948,592.164754,10955.047942
825.854605,536.266849,518.144159,9918.759623
825.854921,842.705048,222.061783,9326.594869
825.855236,1455.581446,-518.144159,10066.800811
825.855552,689.485948,-74.020594,9474.636058
825.855868,-153.219100,-296.082377,10955.047942
825.856184,0.000000,-592.164754,9992.780217
825.856500,689.485948,-1628.453072,9992.780217
825.856816,842.705048,-1036.288319,8956.491898
825.857131,-383.047749,-370.102971,10584.944971
825.857447,-766.095498,-2072.576638,11251.130318
825.857763,76.609550,-1554.432478,9104.533087
825.858079,766.095498,-1702.473667,9178.553681
825.858395,229.828649,-1628.453072,9548.656652
825.858710,536.266849,-1406.391290,9918.759623
825.859026,-229.828649,-1702.473667,9178.553681
825.859342,0.000000,-2146.597232,8734.430116
825.859658,842.705048,-2072.576638,9474.636058
825.859974,306.438199,-444.123565,8956.491898
825.860289,0.000000,-962.267725,8290.306550
825.860605,-459.657299,-2220.617826,8808.450710
825.860921,229.828649,-2072.576638,9178.553681
825.861237,689.485948,-1628.453072,8142.265362
825.861553,0.000000,-1184.329507,8660.409521
825.861869,-1225.752797,-1776.494261,9992.780217
825.862184,-766.095498,-1628.453072,8734.430116
825.862500,0.000000,-1554.432478,8660.409521
825.862816,-536.266849,-296.082377,8956.491898
825.863132,-459.657299,-592.164754,9918.759623
825.863448,-306.438199,-962.267725,8586.388927
825.863763,229.828649,-1702.473667,7698.141797
825.864079,766.095498,-1628.453072,9474.636058
825.864395,306.438199,-962.267725,9178.553681
825.864711,0.000000,-666.185348,8882.471304
825.865027,0.000000,-296.082377,8290.306550
825.865342,383.047749,-1480.411884,9178.553681
825.865658,842.705048,-74.020594,9696.697840
825.865974,-383.047749,444.123565,9474.636058
825.866290,-1302.362347,-0.000000,8734.430116
825.866606,76.609550,-1332.370696,10066.800811
825.866922,1149.143247,-1406.391290,8808.450710
825.867237,306.438199,-740.205942,9770.718434
825.867553,-229.828649,-888.247130,11177.109724
825.867869,0.000000,-1480.411884,9770.718434
825.868185,1072.533697,-666.185348,9326.594869
825.868501,1532.190996,296.082377,9696.697840
825.868816,1378.971896,370.102971,9474.636058
825.869132,842.705048,1036.288319,9400.615463
825.869448,1072.533697,148.041188,8882.471304
825.869764,2298.286494,-1184.329507,9844.739029
825.870080,2528.115143,-148.041188,9548.656652
825.870395,919.314598,-0.000000,10362.883188
825.870711,306.438199,296.082377,9918.759623
825.871027,1072.533697,-0.000000,10140.821405
825.871343,1072.533697,222.061783,10066.800811
825.871659,0.000000,1480.411884,10955.047942
825.871975,-1072.533697,814.226536,10732.986159
825.872290,-919.314598,666.185348,9326.594869
825.872606,919.314598,-740.205942,9992.780217
825.872922,766.095498,-592.164754,9918.759623
825.873238,-153.219100,-0.000000,10732.986159
825.873554,-459.657299,-222.061783,9696.697840
825.873869,383.047749,-222.061783,9030.512492
825.874185,1378.971896,-296.082377,8956.491898
825.874501,689.485948,740.205942,9992.780217
825.874817,0.000000,1332.370696,9992.780217
825.875133,459.657299,1110.308913,8068.244768
825.875448,1072.533697,740.205942,7846.182985
825.875764,1762.019645,740.205942,8956.491898
825.876080,1608.800546,518.144159,9474.636058
825.876396,459.657299,1480.411884,9030.512492
825.876712,0.000000,1554.432478,8142.265362
825.877028,1149.143247,296.082377,9178.553681
825.877343,536.266849,1406.391290,9252.574275
825.877659,0.000000,1406.391290,9622.677246
825.877975,0.000000,1628.453072,9178.553681
825.878291,536.266849,814.226536,8734.430116
825.878607,1302.362347,1110.308913,8808.450710
825.878922,995.924147,2516.700203,9326.594869
825.879238,0.000000,1924.535449,9622.677246
825.879554,0.000000,2442.679609,8808.450710
825.879870,766.095498,1406.391290,9400.615463
825.880186,689.485948,814.226536,10066.800811
825.880501,0.000000,1776.494261,11621.233289
825.880817,-383.047749,1110.308913,9770.718434
825.881133,229.828649,740.205942,9474.636058
825.881449,1378.971896,-296.082377,11251.130318
825.881765,1072.533697,1480.411884,9622.677246
825.882081,689.485948,1924.535449,9770.718434
825.882396,383.047749,888.247130,8882.471304
825.882712,1302.362347,296.082377,8808.450710
825.883028,2221.676944,370.102971,9400.615463
825.883344,1072.533697,888.247130,9474.636058
825.883660,842.705048,-0.000000,10510.924376
825.883975,459.657299,-74.020594,8808.450710
825.884291,1685.410096,-1110.308913,8882.471304
825.884607,919.314598,-1332.370696,10288.862594
825.884923,-153.219100,-1702.473667,11399.171507
825.885239,-919.314598,-1924.535449,10510.924376
825.885554,-383.047749,-2812.782580,10584.944971
825.885870,229.828649,-2516.700203,10732.986159
825.886186,459.657299,-1332.370696,10214.842000
825.886502,-766.095498,-740.205942,10510.924376
825.886818,-383.047749,-1924.535449,9474.636058
825.887134,766.095498,-2442.679609,8882.471304
825.887449,1302.362347,-1702.473667,8734.430116
825.887765,536.266849,-1628.453072,8882.471304
825.888081,153.219100,-2886.803174,9992.780217
825.888397,536.266849,-2590.720797,8364.327145
825.888713,1149.143247,-2738.761985,8660.409521
825.889028,1072.533697,-1702.473667,9030.512492
825.889344,0.000000,-1332.370696,9474.636058
825.889660,-536.266849,-2072.576638,8808.450710
825.889976,919.314598,-2072.576638,8512.368333
825.890292,919.314598,-2812.782580,9030.512492
825.890607,76.609550,-1776.494261,8956.491898
825.890923,-383.047749,-1480.411884,9326.594869
825.891239,76.609550,-1998.556043,8586.388927
825.891555,612.876398,-2220.617826,9326.594869
825.891871,153.219100,-1036.288319,7772.162391
825.892187,-536.266849,-666.185348,9104.533087
825.892502,-842.705048,-814.226536,9400.615463
825.892818,459.657299,-1628.453072,8364.327145
825.893134,842.705048,-1184.329507,9030.512492
825.893450,383.047749,-296.082377,9030.512492
825.893766,-459.657299,-592.164754,9474.636058
825.894081,-612.876398,-592.164754,8068.244768
825.894397,76.609550,-1036.288319,9326.594869
825.894713,459.657299,-592.164754,9474.636058
825.895029,76.609550,814.226536,9252.574275
825.895345,-306.438199,814.226536,8290.306550
825.895660,76.609550,-592.164754,10362.883188
825.895976,1072.533697,-1258.350101,9474.636058
825.896292,612.876398,222.061783,8512.368333
825.896608,0.000000,962.267725,9326.594869
825.896924,0.000000,-592.164754,9474.636058
825.897240,383.047749,-814.226536,9696.697840
825.897555,1225.752797,-370.102971,10436.903782
825.897871,612.876398,888.247130,9770.718434
825.898187,-536.266849,740.205942,9844.739029
825.898503,0.000000,444.123565,9474.636058
825.898819,1149.143247,-0.000000,9104.533087
825.899134,919.314598,-74.020594,9622.677246
825.899450,0.000000,296.082377,10436.903782
825.899766,-459.657299,296.082377,10066.800811
825.900082,153.219100,-0.000000,9252.574275
825.900398,612.876398,-296.082377,10436.903782
825.900713,229.828649,1184.329507,9622.677246
825.901029,-383.047749,1184.329507,11251.130318
825.901345,-306.438199,1110.308913,10732.986159
825.901661,612.876398,814.226536,8882.471304
825.901977,1225.752797,740.205942,9474.636058
825.902293,689.485948,1332.370696,10362.883188
825.902608,0.000000,296.082377,10584.944971
825.902924,306.438199,962.267725,9400.615463
825.903240,1149.143247,962.267725,9770.718434
825.903556,995.924147,1480.411884,9696.697840
825.903872,306.438199,2220.617826,10881.027347
825.904187,306.438199,2294.638420,9400.615463
825.904503,1149.143247,1628.453072,8216.285956
825.904819,2298.286494,962.267725,9622.677246
825.905135,1762.019645,1850.514855,9548.656652
825.905451,1302.362347,1850.514855,10362.883188
825.905766,1378.971896,2072.576638,8882.471304
825.906082,1378.971896,1554.432478,8660.409521
825.906398,1608.800546,2368.659014,8734.430116
825.906714,1072.533697,2738.761985,10510.924376
825.907030,383.047749,1776.494261,10140.821405
825.907346,689.485948,888.247130,8438.347739
825.907661,1302.362347,222.061783,8808.450710
825.907977,995.924147,666.185348,10214.842000
825.908293,-153.219100,518.144159,10658.965565
825.908609,-76.609550,1036.288319,9696.697840
825.908925,0.000000,518.144159,9178.553681
825.909240,612.876398,296.082377,10214.842000
825.909556,0.000000,666.185348,9992.780217
825.909872,-306.438199,-0.000000,9548.656652
825.910188,0.000000,-740.205942,9252.574275
825.910504,1302.362347,-1258.350101,8808.450710
825.910819,1838.629195,-222.061783,8956.491898
825.911135,766.095498,518.144159,9548.656652
825.911451,383.047749,-592.164754,9326.594869
825.911767,229.828649,-1036.288319,8956.491898
825.912083,1378.971896,-814.226536,9178.553681
825.912399,689.485948,-222.061783,9178.553681
825.912714,383.047749,-666.185348,9918.759623
825.913030,-536.266849,-2146.597232,9696.697840
825.913346,536.266849,-2368.659014,9252.574275
825.913662,536.266849,-1850.514855,9474.636058
825.913978,0.000000,-740.205942,9400.615463
825.914293,-612.876398,-370.102971,10214.842000
825.914609,-612.876398,-1628.453072,8660.409521
825.914925,76.609550,-2516.700203,9178.553681
825.915241,0.000000,-2072.576638,10658.965565
825.915557,-842.705048,-2590.720797,10584.944971
825.915872,-1302.362347,-3108.864956,9696.697840
825.916188,-229.828649,-2516.700203,9326.594869
825.916504,1072.533697,-2368.659014,8882.471304
825.916820,383.047749,-814.226536,9474.636058
825.917135,-229.828649,-1184.329507,9178.553681
825.917451,-459.657299,-1998.556043,8808.450710
825.917767,612.876398,-2812.782580,9622.677246
825.918082,842.705048,-2072.576638,9770.718434
825.918398,-306.438199,-740.205942,8808.450710
825.918714,-229.828649,-518.144159,8512.368333
825.919030,919.314598,-1258.350101,8068.244768
825.919345,1838.629195,-1998.556043,8882.471304
825.919661,1532.190996,-814.226536,9030.512492
825.919977,0.000000,-962.267725,9474.636058
825.920292,-306.438199,-1406.391290,8216.285956
825.920608,689.485948,-1998.556043,9252.574275
825.920924,689.485948,-1924.535449,9622.677246
825.921239,-153.219100,-0.000000,10066.800811
825.921555,-689.485948,-148.041188,9326.594869
825.921871,-1072.533697,-1184.329507,8438.347739
825.922186,536.266849,-1332.370696,9326.594869
825.922502,229.828649,-888.247130,9326.594869
825.922818,-153.219100,-0.000000,9622.677246
825.923133,-536.266849,-1036.288319,9400.615463
825.923449,229.828649,-1332.370696,9770.718434
825.923765,536.266849,-296.082377,9400.615463
825.924080,229.828649,1184.329507,8734.430116
825.924396,-459.657299,592.164754,10066.800811
825.924712,306.438199,592.164754,8956.491898
825.925027,1225.752797,-74.020594,9548.656652
825.925343,1915.238745,666.185348,9474.636058
825.925659,306.438199,888.247130,9400.615463
825.925974,0.000000,-0.000000,10436.903782
825.926290,153.219100,-0.000000,9474.636058
825.926606,1072.533697,148.041188,9918.759623
825.926921,689.485948,1554.432478,10066.800811
825.927237,459.657299,1480.411884,10288.862594
825.927553,-383.047749,962.267725,9474.636058
825.927868,842.705048,740.205942,9770.718434
825.928184,1608.800546,444.123565,9622.677246
825.928500,919.314598,1776.494261,9400.615463
825.928815,0.000000,1406.391290,10214.842000
825.929131,383.047749,814.226536,9104.533087
825.929447,1302.362347,666.185348,9918.759623
825.929762,919.314598,814.226536,10214.842000
825.930078,0.000000,1480.411884,10362.883188
825.930394,-306.438199,888.247130,9918.759623
825.930709,689.485948,-0.000000,9696.697840
825.931025,1378.971896,-148.041188,10288.862594
825.931341,842.705048,888.247130,9844.739029
825.931657,-229.828649,1554.432478,9918.759623
825.931972,-153.219100,518.144159,9918.759623
825.932288,919.314598,370.102971,9326.594869
825.932604,1762.019645,888.247130,9622.677246
825.932919,612.876398,1554.432478,9474.636058
825.933235,459.657299,814.226536,10066.800811
825.933551,842.705048,148.041188,8956.491898
825.933866,1685.410096,740.205942,8438.347739
825.934182,2068.457845,1258.350101,8364.327145
825.934498,766.095498,1332.370696,9326.594869
825.934813,383.047749,666.185348,9030.512492
825.935129,919.314598,-0.000000,9104.533087
825.935445,1302.362347,296.082377,9474.636058
825.935760,153.219100,888.247130,9474.636058
825.936076,306.438199,1110.308913,9992.780217
825.936392,0.000000,814.226536,8956.491898
825.936707,995.924147,-814.226536,8660.409521
825.937023,995.924147,-0.000000,9548.656652
825.937339,0.000000,-0.000000,9770.718434
825.937654,-612.876398,-370.102971,10140.821405
825.937970,0.000000,-518.144159,9326.594869
825.938286,766.095498,-74.020594,9548.656652
825.938601,919.314598,592.164754,9770.718434
825.938917,229.828649,1184.329507,8808.450710
825.939233,0.000000,-0.000000,8882.471304
825.939548,1838.629195,-666.185348,8882.471304
825.939864,1991.848295,-1184.329507,8438.347739
825.940180,1455.581446,-0.000000,8882.471304
825.940495,612.876398,-1258.350101,9844.739029
825.940811,0.000000,-1406.391290,9548.656652
825.941127,459.657299,-2368.659014,9918.759623
825.941442,0.000000,-370.102971,9548.656652
825.941758,-459.657299,-0.000000,9548.656652
825.942074,-459.657299,-1184.329507,9696.697840
825.942389,76.609550,-1554.432478,9030.512492
825.942705,766.095498,-2886.803174,9992.780217
825.943021,612.876398,-2072.576638,9474.636058
825.943336,0.000000,-1776.494261,9622.677246
825.943652,-919.314598,-1850.514855,10066.800811
825.943968,612.876398,-3182.885551,9844.739029
825.944284,383.047749,-1480.411884,8586.388927
825.944599,0.000000,-1036.288319,9918.759623
825.944915,-229.828649,-1332.370696,9400.615463
825.945231,76.609550,-1776.494261,8512.368333
825.945546,536.266849,-2442.679609,9326.594869
825.945862,1149.143247,-1924.535449,8956.491898
825.946178,0.000000,-1036.288319,10362.883188
825.946493,-383.047749,-1184.329507,9400.615463
825.946809,-383.047749,-1998.556043,8660.409521
825.947125,612.876398,-1998.556043,9844.739029
825.947440,459.657299,-888.247130,9992.780217
825.947756,-689.485948,-148.041188,9030.512492
825.948072,-995.924147,-666.185348,8438.347739
825.948387,995.924147,-1480.411884,9770.718434
825.948703,919.314598,-666.185348,8586.388927
825.949019,-383.047749,148.041188,8808.450710
825.949334,-919.314598,-518.144159,10288.862594
825.949650,-229.828649,-1258.350101,10066.800811
825.949966,229.828649,-814.226536,9400.615463
825.950281,-612.876398,888.247130,9252.574275
825.950597,-229.828649,-148.041188,10658.965565
825.950913,-229.828649,296.082377,8956.491898
825.951228,383.047749,-370.102971,8882.471304
825.951544,1455.581446,-296.082377,9696.697840
825.951860,1072.533697,1110.308913,9696.697840
825.952175,0.000000,1036.288319,9178.553681
825.952491,306.438199,592.164754,8734.430116
825.952807,1838.629195,-148.041188,10288.862594
825.953122,1608.800546,814.226536,8512.368333
825.953438,536.266849,1332.370696,9696.697840
825.953754,0.000000,296.082377,9548.656652
825.954069,919.314598,-74.020594,9178.553681
825.954385,1608.800546,296.082377,8956.491898
825.954701,306.438199,592.164754,9030.512492
825.955016,76.609550,-370.102971,10881.027347
825.955332,-536.266849,-444.123565,9844.739029
825.955648,306.438199,-0.000000,10214.842000
825.955963,689.485948,370.102971,9992.780217
825.956279,842.705048,1480.411884,9252.574275
825.956595,0.000000,1702.473667,9104.533087
825.956911,919.314598,-296.082377,9474.636058
825.957226,1991.848295,-0.000000,9474.636058
825.957542,2068.457845,962.267725,9326.594869
825.957858,842.705048,888.247130,9326.594869
825.958173,306.438199,592.164754,9992.780217
825.958489,919.314598,518.144159,9178.553681
825.958805,1915.238745,296.082377,9548.656652
825.959120,919.314598,2146.597232,9622.677246
825.959436,229.828649,1702.473667,10436.903782
825.959752,459.657299,814.226536,7994.224174
825.960067,766.095498,518.144159,9326.594869
825.960383,842.705048,222.061783,10658.965565
825.960699,383.047749,1036.288319,10140.821405
825.961014,-1302.362347,592.164754,9252.574275
825.961330,-1378.971896,-370.102971,10140.821405
825.961646,842.705048,-888.247130,11399.171507
825.961961,383.047749,592.164754,9326.594869
825.962277,-689.485948,1332.370696,10658.965565
825.962593,229.828649,740.205942,9622.677246
825.962908,1149.143247,-74.020594,9474.636058
825.963224,1455.581446,740.205942,8660.409521
825.963540,383.047749,1036.288319,9548.656652
825.963855,153.219100,296.082377,9326.594869
825.964171,153.219100,-370.102971,9252.574275
825.964487,995.924147,-296.082377,9696.697840
825.964802,1149.143247,-222.061783,9844.739029
825.965118,153.219100,888.247130,9548.656652
825.965434,-153.219100,814.226536,8956.491898
825.965749,306.438199,-518.144159,9030.512492
825.966065,1149.143247,-1702.473667,10288.862594
825.966381,153.219100,-222.061783,9400.615463
825.966696,-306.438199,-1036.288319,9844.739029
825.967012,-383.047749,-1924.535449,10362.883188
825.967328,0.000000,-2516.700203,9400.615463
825.967643,766.095498,-1480.411884,9918.759623
825.967959,-306.438199,-0.000000,9918.759623
825.968275,-536.266849,-1110.308913,9548.656652
825.968590,536.266849,-1406.391290,7920.203579
825.968906,1608.800546,-1554.432478,9326.594869
825.969222,1455.581446,-1110.308913,8512.368333
825.969538,1532.190996,-518.144159,8956.491898
825.969853,919.314598,-1036.288319,8586.388927
825.970169,1302.362347,-1480.411884,9178.553681
825.970485,1762.019645,-1184.329507,9400.615463
825.970800,1225.752797,-74.020594,8808.450710
825.971116,306.438199,-222.061783,9030.512492
825.971432,306.438199,-888.247130,8660.409521
825.971747,1455.581446,-1702.473667,9252.574275
825.972063,995.924147,-1258.350101,9104.533087
825.972379,383.047749,-666.185348,9474.636058
825.972694,0.000000,-518.144159,9178.553681
825.973010,0.000000,-444.123565,9622.677246
825.973326,383.047749,-888.247130,8660.409521
825.973641,0.000000,-740.205942,9400.615463
825.973957,-1455.581446,-74.020594,10140.821405
825.974273,-995.924147,-1554.432478,9548.656652
825.974588,0.000000,-2146.597232,9770.718434
825.974904,383.047749,-1998.556043,9548.656652
825.975220,-76.609550,-222.061783,10066.800811
825.975535,-689.485948,370.102971,9252.574275
825.975851,-229.828649,-148.041188,8364.327145
825.976167,612.876398,-1036.288319,10362.883188
825.976482,1225.752797,-444.123565,10288.862594
825.976798,153.219100,814.226536,9178.553681
825.977114,153.219100,296.082377,8956.491898
825.977429,1608.800546,-814.226536,9474.636058
825.977745,2528.115143,-222.061783,8808.450710
825.978061,2145.067394,2072.576638,8438.347739
825.978376,536.266849,962.267725,8586.388927
825.978692,459.657299,-222.061783,9548.656652
825.979008,1302.362347,-592.164754,9992.780217
825.979323,689.485948,-0.000000,9474.636058
825.979639,0.000000,1184.329507,10214.842000
825.979955,-229.828649,740.205942,9326.594869
825.980270,0.000000,-592.164754,8956.491898
825.980586,689.485948,-740.205942,10362.883188
825.980902,306.438199,-0.000000,9992.780217
825.981217,-306.438199,666.185348,9844.739029
825.981533,-612.876398,-592.164754,10362.883188
825.981849,383.047749,-444.123565,10362.883188
825.982165,919.314598,740.205942,9770.718434
825.982480,459.657299,1406.391290,9252.574275
825.982796,229.828649,888.247130,10362.883188
825.983112,153.219100,1110.308913,8512.368333
825.983427,1762.019645,370.102971,9252.574275
825.983743,1762.019645,666.185348,9474.636058
825.984059,1149.143247,1184.329507,10140.821405
825.984374,383.047749,518.144159,10510.924376
825.984690,842.705048,962.267725,9104.533087
825.985006,1532.190996,518.144159,10066.800811
825.985321,842.705048,1554.432478,9918.759623
825.985637,76.609550,1480.411884,9622.677246
825.985953,153.219100,1036.288319,8660.409521
825.986268,1149.143247,148.041188,9918.759623
825.986584,1149.143247,-0.000000,9326.594869
825.986900,459.657299,222.061783,9622.677246
825.987215,-766.095498,-0.000000,9844.739029
825.987531,-919.314598,-518.144159,10066.800811
825.987847,459.657299,-518.144159,9696.697840
825.988162,0.000000,370.102971,9326.594869
825.988478,-995.924147,666.185348,9992.780217
825.988794,-919.314598,-222.061783,9178.553681
825.989109,76.609550,-1924.535449,9696.697840
825.989425,919.314598,-1554.432478,9178.553681
825.989741,153.219100,-222.061783,9696.697840
825.990056,-153.219100,-888.247130,9548.656652
825.990372,0.000000,-1036.288319,9104.533087
825.990688,842.705048,-1036.288319,9400.615463
825.991003,1455.581446,-518.144159,8882.471304
825.991319,1149.143247,592.164754,8808.450710
825.991635,0.000000,222.061783,8438.347739
825.991950,842.705048,-1850.514855,9252.574275
825.992266,1378.971896,-1406.391290,8586.388927
825.992582,1532.190996,-74.020594,9400.615463
825.992897,306.438199,-222.061783,8956.491898
825.993213,153.219100,-296.082377,9030.512492
825.993529,536.266849,-1554.432478,9326.594869
825.993844,689.485948,-1480.411884,9178.553681
825.994160,-229.828649,-0.000000,10732.986159
825.994476,-459.657299,-740.205942,10214.842000
825.994792,0.000000,-1110.308913,8290.306550
825.995107,536.266849,-1036.288319,8956.491898
825.995423,153.219100,-1258.350101,9918.759623
825.995739,153.219100,-592.164754,9992.780217
825.996054,-919.314598,-1110.308913,8808.450710
825.996370,-229.828649,-2072.576638,10436.903782
825.996686,919.314598,-1998.556043,10584.944971
825.997001,766.095498,-74.020594,9400.615463
825.997317,306.438199,1036.288319,9104.533087
825.997633,229.828649,-592.164754,9252.574275
825.997948,1378.971896,-1406.391290,9844.739029
825.998264,2221.676944,-0.000000,8364.327145
825.998580,766.095498,518.144159,9252.574275
825.998895,1072.533697,-148.041188,9696.697840
825.999211,689.485948,-1184.329507,8512.368333
825.999527,1455.581446,-1776.494261,9622.677246
825.999842,842.705048,-0.000000,10807.006753
826.000158,0.000000,-148.041188,9918.759623
826.000474,-689.485948,-0.000000,8808.450710
826.000789,536.266849,-1036.288319,9770.718434
826.001105,919.314598,-1554.432478,10214.842000
826.001421,153.219100,666.185348,9474.636058
826.001736,-612.876398,-222.061783,9844.739029
826.002052,-383.047749,-1554.432478,9992.780217
826.002368,689.485948,-518.144159,9992.780217
826.002683,766.095498,148.041188,9030.512492
826.002999,153.219100,1332.370696,9400.615463
826.003315,-383.047749,222.061783,9400.615463
826.003630,306.438199,-1036.288319,8660.409521
826.003946,842.705048,-814.226536,9918.759623
826.004262,689.485948,-444.123565,9992.780217
826.004577,0.000000,370.102971,9696.697840
826.004893,-612.876398,148.041188,9474.636058
826.005209,459.657299,-592.164754,9548.656652
826.005524,1072.533697,444.123565,9622.677246
826.005840,229.828649,1702.473667,9474.636058
826.006156,-229.828649,814.226536,8956.491898
826.006471,-153.219100,-74.020594,8660.409521
826.006787,1608.800546,-962.267725,10510.924376
826.007103,842.705048,-296.082377,9474.636058
826.007419,-306.438199,222.061783,10288.862594
826.007734,-536.266849,444.123565,9178.553681
826.008050,306.438199,296.082377,8734.430116
826.008366,1225.752797,888.247130,9252.574275
826.008681,766.095498,1998.556043,9030.512492
826.008997,0.000000,1258.350101,9178.553681
826.009313,76.609550,148.041188,8586.388927
826.009628,1225.752797,-1406.391290,10140.821405
826.009944,1455.581446,-518.144159,9474.636058
826.010260,919.314598,1406.391290,9844.739029
826.010575,-153.219100,1110.308913,8660.409521
826.010891,76.609550,296.082377,8808.450710
826.011207,919.314598,148.041188,10807.006753
826.011522,842.705048,814.226536,9030.512492
826.011838,689.485948,592.164754,9622.677246
826.012154,229.828649,444.123565,9548.656652
826.012469,612.876398,-814.226536,9844.739029
826.012785,2068.457845,-1110.308913,10436.903782
826.013101,995.924147,1332.370696,9104.533087
826.013416,76.609550,1184.329507,8808.450710
826.013732,612.876398,148.041188,9474.636058
826.014048,1838.629195,-518.144159,9400.615463
826.014363,1838.629195,296.082377,9548.656652
826.014679,612.876398,-0.000000,10066.800811
826.014995,-229.828649,-222.061783,9770.718434
826.015310,612.876398,-740.205942,9696.697840
826.015626,1225.752797,-962.267725,9548.656652
826.015942,459.657299,-296.082377,10066.800811
826.016257,-229.828649,1036.288319,9770.718434
826.016573,-459.657299,-370.102971,8438.347739
826.016889,229.828649,-2294.638420,11177.109724
826.017204,383.047749,-1702.473667,10584.944971
826.017520,-536.266849,-888.247130,10288.862594
826.017836,-1302.362347,-518.144159,9918.759623
826.018151,-383.047749,-1406.391290,9844.739029
826.018467,459.657299,-1258.350101,10140.821405
826.018783,383.047749,222.061783,9252.574275
826.019098,-306.438199,-0.000000,8512.368333
826.019414,-536.266849,-814.226536,9474.636058
826.019730,0.000000,-2072.576638,9770.718434
826.020045,842.705048,-1554.432478,9104.533087
826.020361,229.828649,-444.123565,9992.780217
826.020677,-459.657299,-370.102971,9104.533087
826.020992,-306.438199,-518.144159,7846.182985
826.021308,919.314598,-1258.350101,9474.636058
826.021624,536.266849,-1628.453072,8956.491898
826.021939,-383.047749,-370.102971,8956.491898
826.022255,-842.705048,-1554.432478,9918.759623
826.022571,-153.219100,-2294.638420,9474.636058
826.022886,536.266849,-2146.597232,9104.533087
826.023202,766.095498,-444.123565,8512.368333
826.023518,-306.438199,-74.020594,9030.512492
826.023833,-612.876398,-592.164754,8808.450710
826.024149,1072.533697,-1184.329507,8068.244768
826.024465,1455.581446,-740.205942,8586.388927
826.024780,766.095498,-666.185348,9178.553681
826.025096,-153.219100,-1258.350101,9178.553681
826.025412,459.657299,-1332.370696,8734.430116
826.025727,919.314598,-1776.494261,9474.636058
826.026043,1225.752797,-592.164754,9770.718434
826.026359,459.657299,444.123565,8882.471304
826.026674,0.000000,222.061783,8512.368333
826.026990,919.314598,-814.226536,9992.780217
826.027305,1685.410096,-592.164754,9548.656652
826.027621,1302.362347,592.164754,9030.512492
826.027937,536.266849,222.061783,9696.697840
826.028252,689.485948,-0.000000,9252.574275
826.028568,2221.676944,-148.041188,9548.656652
826.028884,1455.581446,-0.000000,9326.594869
826.029199,612.876398,1332.370696,9696.697840
826.029515,153.219100,888.247130,9400.615463
826.029831,842.705048,-0.000000,9474.636058
826.030146,1762.019645,-592.164754,9770.718434
826.030462,1302.362347,370.102971,10584.944971
826.030778,76.609550,1110.308913,8660.409521
826.031093,-1072.533697,-0.000000,9622.677246
826.031409,766.095498,-814.226536,11473.192101
826.031725,919.314598,296.082377,9992.780217
826.032040,229.828649,1554.432478,10140.821405
826.032356,-76.609550,1554.432478,10214.842000
826.032672,0.000000,-0.000000,9252.574275
826.032987,1225.752797,-592.164754,10066.800811
826.033303,1302.362347,740.205942,9918.759623
826.033619,612.876398,1258.350101,9844.739029
826.033934,0.000000,1110.308913,9030.512492
826.034250,689.485948,-0.000000,9770.718434
826.034566,1378.971896,222.061783,9992.780217
826.034881,536.266849,1554.432478,9474.636058
826.035197,-76.609550,962.267725,9844.739029
826.035513,0.000000,-0.000000,9992.780217
826.035828,1072.533697,-370.102971,9548.656652
826.036144,689.485948,-0.000000,8882.471304
826.036460,153.219100,740.205942,10288.862594
826.036775,-995.924147,296.082377,9696.697840
826.037091,-153.219100,-592.164754,9178.553681
826.037407,459.657299,-888.247130,10214.842000
826.037722,459.657299,444.123565,9992.780217
826.038038,-153.219100,1628.453072,8734.430116
826.038353,-153.219100,296.082377,8068.244768
826.038669,306.438199,-1258.350101,9622.677246
826.038985,919.314598,-1702.473667,9696.697840
826.039300,995.924147,296.082377,8512.368333
826.039616,0.000000,296.082377,9770.718434
826.039932,-689.485948,-296.082377,8808.450710
826.040247,1072.533697,-1036.288319,9548.656652
826.040563,536.266849,-0.000000,9474.636058
826.040879,0.000000,592.164754,9696.697840
826.041194,-153.219100,-74.020594,9104.533087
826.041510,536.266849,-740.205942,9104.533087
826.041826,1838.629195,-1406.391290,9622.677246
826.042141,1608.800546,518.144159,8882.471304
826.042457,995.924147,296.082377,8586.388927
826.042773,459.657299,-148.041188,8364.327145
826.043088,1302.362347,-1406.391290,10362.883188
826.043404,2145.067394,-222.061783,8438.347739
826.043720,1149.143247,1480.411884,8660.409521
826.044035,153.219100,370.102971,9326.594869
826.044351,383.047749,-740.205942,8216.285956
826.044667,1302.362347,-1406.391290,9252.574275
826.044982,1685.410096,-1332.370696,10066.800811
826.045298,0.000000,-222.061783,9548.656652
826.045614,-766.095498,-148.041188,8586.388927
826.045929,0.000000,-1628.453072,9104.533087
826.046245,919.314598,-2072.576638,10214.842000
826.046561,0.000000,-0.000000,10066.800811
826.046876,-766.095498,222.061783,8882.471304
826.047192,-689.485948,-1554.432478,9252.574275
826.047508,689.485948,-2368.659014,9992.780217
826.047823,842.705048,-814.226536,9326.594869
826.048139,-842.705048,-148.041188,9770.718434
826.048455,-1302.362347,-1036.288319,10140.821405
826.048770,0.000000,-1258.350101,9622.677246
826.049086,689.485948,-1036.288319,8586.388927
826.049401,306.438199,444.123565,9918.759623
826.049717,-383.047749,-0.000000,9844.739029
826.050033,-306.438199,-222.061783,8808.450710
826.050348,459.657299,-1184.329507,9474.636058
826.050664,1072.533697,-444.123565,9918.759623
826.050980,919.314598,814.226536,8734.430116
826.051295,153.219100,370.102971,9400.615463
826.051611,0.000000,-370.102971,9178.553681
826.051927,1302.362347,-962.267725,10510.924376
826.052242,1225.752797,-296.082377,9104.533087
826.052558,0.000000,814.226536,9252.574275
826.052874,-842.705048,148.041188,10362.883188
826.053189,306.438199,-814.226536,9548.656652
826.053505,1072.533697,-814.226536,9844.739029
826.053821,459.657299,518.144159,9548.656652
826.054136,-153.219100,-0.000000,9844.739029
826.054452,-612.876398,-814.226536,9474.636058
826.054768,689.485948,-1702.473667,10658.965565
826.055083,842.705048,-444.123565,9844.739029
826.055399,689.485948,814.226536,10362.883188
826.055715,-383.047749,592.164754,9104.533087
826.056030,536.266849,296.082377,8956.491898
826.056346,2068.457845,296.082377,9030.512492
826.056662,1762.019645,1184.329507,8586.388927
826.056977,919.314598,1258.350101,9030.512492
826.057293,766.095498,592.164754,8660.409521
826.057609,842.705048,-1480.411884,9474.636058
826.057924,1608.800546,-444.123565,9992.780217
826.058240,842.705048,1406.391290,8882.471304
826.058556,-1072.533697,1406.391290,9844.739029
826.058871,-612.876398,296.082377,8956.491898
826.059187,536.266849,-592.164754,9400.615463
826.059503,306.438199,-0.000000,9622.677246
826.059818,-153.219100,296.082377,9844.739029
826.060134,-1302.362347,-148.041188,9918.759623
826.060449,-536.266849,-296.082377,9992.780217
826.060765,459.657299,-1036.288319,9918.759623
826.061081,229.828649,888.247130,9770.718434
826.061396,-536.266849,962.267725,9770.718434
826.061712,-1149.143247,-148.041188,8808.450710
826.062028,383.047749,-962.267725,9696.697840
826.062343,1225.752797,-1332.370696,9770.718434
826.062659,536.266849,518.144159,9696.697840
826.062975,-153.219100,740.205942,9696.697840
826.063290,229.828649,-592.164754,9178.553681
826.063606,1378.971896,-444.123565,9770.718434
826.063922,995.924147,962.267725,8438.347739
826.064237,383.047749,1332.370696,9252.574275
826.064553,0.000000,444.123565,8290.306550
826.064869,1072.533697,-1036.288319,9178.553681
826.065184,1455.581446,-1332.370696,9844.739029
826.065500,1072.533697,-74.020594,9252.574275
826.065816,76.609550,-222.061783,9548.656652
826.066131,0.000000,-1184.329507,9696.697840
826.066447,612.876398,-888.247130,9252.574275
826.066763,1762.019645,-0.000000,9104.533087
826.067078,689.485948,1110.308913,9548.656652
826.067394,0.000000,-0.000000,9326.594869
826.067710,383.047749,-888.247130,9548.656652
826.068025,1608.800546,-1258.350101,9030.512492
826.068341,1149.143247,222.061783,9474.636058
826.068657,383.047749,518.144159,9696.697840
826.068972,0.000000,222.061783,8290.306550
826.069288,612.876398,-518.144159,9474.636058
826.069604,1455.581446,-592.164754,10362.883188
826.069919,536.266849,666.185348,9548.656652
826.070235,-766.095498,518.144159,9326.594869
826.070550,-842.705048,-444.123565,9474.636058
826.070866,995.924147,-1554.432478,10362.883188
826.071182,1302.362347,222.061783,8364.327145
826.071497,0.000000,518.144159,9622.677246
826.071813,-919.314598,-1258.350101,10214.842000
826.072129,0.000000,-1998.556043,10362.883188
826.072444,842.705048,-1480.411884,10140.821405
826.072760,0.000000,1184.329507,9918.759623
826.073076,-229.828649,962.267725,9696.697840
826.073391,-306.438199,-0.000000,8734.430116
826.073707,536.266849,-1184.329507,8882.471304
826.074023,995.924147,-1258.350101,9844.739029
826.074338,536.266849,-444.123565,9326.594869
826.074654,-306.438199,-740.205942,9400.615463
826.074970,0.000000,-1480.411884,9326.594869
826.075285,229.828649,-1924.535449,10584.944971
826.075601,76.609550,-814.226536,9918.759623
826.075917,-383.047749,222.061783,8956.491898
826.076232,-1072.533697,-1110.308913,8956.491898
826.076548,-1072.533697,-2516.700203,9696.697840
826.076864,612.876398,-2886.803174,10732.986159
826.077179,689.485948,-1924.535449,9622.677246
826.077495,0.000000,-1628.453072,9844.739029
826.077811,229.828649,-1406.391290,9474.636058
826.078126,1378.971896,-1998.556043,9622.677246
826.078442,1991.848295,-666.185348,8956.491898
826.078758,1455.581446,1110.308913,9178.553681
826.079073,1608.800546,444.123565,7920.203579
826.079389,1532.190996,-74.020594,7624.121203
826.079705,2221.676944,-1258.350101,8142.265362
826.080020,1762.019645,-1406.391290,9400.615463
826.080336,995.924147,-518.144159,9104.533087
826.080652,0.000000,-1258.350101,8734.430116
826.080967,229.828649,-1406.391290,9104.533087
826.081283,612.876398,-1480.411884,10658.965565
826.081598,-306.438199,-1332.370696,8808.450710
826.081914,-1455.581446,-1332.370696,10658.965565
826.082230,-1455.581446,-1998.556043,10214.842000
826.082545,-229.828649,-2072.576638,8734.430116
826.082861,0.000000,-1036.288319,9770.718434
826.083177,-229.828649,-296.082377,9474.636058
826.083492,-1072.533697,-666.185348,8956.491898
826.083808,-995.924147,-814.226536,8364.327145
826.084124,-842.705048,-1258.350101,9696.697840
826.084439,-383.047749,-222.061783,8882.471304
826.084755,-1225.752797,-0.000000,8512.368333
826.085071,-2068.457845,-1332.370696,9326.594869
826.085386,-1302.362347,-2220.617826,10362.883188
826.085702,-919.314598,-1998.556043,9770.718434
826.086018,-1915.238745,-888.247130,9474.636058
826.086333,-2374.896044,-1406.391290,10362.883188
826.086649,-3064.381992,-2590.720797,10288.862594
826.086965,-2298.286494,-2072.576638,9844.739029
826.087280,-1455.581446,-1554.432478,10436.903782
826.087596,-2068.457845,-1036.288319,9918.759623
826.087912,-2298.286494,-1702.473667,9844.739029
826.088227,-2374.896044,-2294.638420,9770.718434
826.088543,-1378.971896,-1628.453072,9030.512492
826.088859,0.000000,-666.185348,9104.533087
826.089174,-995.924147,-740.205942,9030.512492
826.089490,-995.924147,-1406.391290,9030.512492
826.089806,-919.314598,-2220.617826,9622.677246
826.090121,-689.485948,-1998.556043,9622.677246
826.090437,-995.924147,-1480.411884,9844.739029
826.090753,-919.314598,-1480.411884,9548.656652
826.091068,-1149.143247,-2220.617826,9918.759623
826.091384,-1915.238745,-2590.720797,9178.553681
826.091700,-1532.190996,-2886.803174,10066.800811
826.092015,-1915.238745,-1776.494261,9474.636058
826.092331,-2298.286494,-1406.391290,9104.533087
826.092646,-1991.848295,-1628.453072,9252.574275
826.092962,-2528.115143,-2812.782580,9844.739029
826.093278,-2834.553343,-2220.617826,9474.636058
826.093593,-2374.896044,-1628.453072,9696.697840
826.093909,-2528.115143,-2516.700203,9474.636058
826.094225,-2451.505594,-2516.700203,9178.553681
826.094540,-2528.115143,-2738.761985,9474.636058
826.094856,-2834.553343,-2664.741391,9622.677246
826.095172,-2757.943793,-1628.453072,9474.636058
826.095487,-2757.943793,-1850.514855,9252.574275
826.095803,-1838.629195,-2664.741391,9992.780217
826.096119,-1762.019645,-2516.700203,9622.677246
826.096434,-1915.238745,-3552.988522,9992.780217
826.096750,-1608.800546,-1924.535449,9104.533087
826.097066,-842.705048,-1776.494261,9474.636058
826.097381,-383.047749,-1628.453072,8882.471304
826.097697,153.219100,-962.267725,8290.306550
826.098013,-459.657299,-1554.432478,7994.224174
826.098328,-612.876398,-1110.308913,8586.388927
826.098644,-1378.971896,-1258.350101,8068.244768
826.098960,-1378.971896,-1850.514855,7846.182985
826.099275,-1608.800546,-2294.638420,9178.553681
826.099591,-2145.067394,-3330.926739,10066.800811
826.099907,-2834.553343,-4145.153275,10214.842000
826.100222,-3064.381992,-4663.297435,10955.047942
826.100538,-3370.820191,-4589.276840,10362.883188
826.100854,-2604.724693,-3182.885551,10436.903782
826.101169,-2451.505594,-2812.782580,10955.047942
826.101485,-1608.800546,-2812.782580,9474.636058
826.101801,-842.705048,-2368.659014,9622.677246
826.102116,-995.924147,-1924.535449,9474.636058
826.102432,-536.266849,-1850.514855,7550.100608
826.102748,306.438199,-1332.370696,8216.285956
826.103063,76.609550,-962.267725,7550.100608
826.103379,995.924147,-2146.597232,7994.224174
826.103694,766.095498,-2812.782580,9104.533087
826.104010,-612.876398,-2590.720797,8956.491898
826.104326,-766.095498,-3034.844362,9326.594869
826.104641,-1149.143247,-3478.967927,10066.800811
826.104957,-2451.505594,-2294.638420,9622.677246
826.105273,-2374.896044,-1628.453072,9918.759623
826.105588,-1608.800546,-3108.864956,10732.986159
826.105904,-2757.943793,-2516.700203,9770.718434
826.106220,-2834.553343,-2368.659014,9474.636058
826.106535,-2451.505594,-3256.906145,9770.718434
826.106851,-2528.115143,-2294.638420,9326.594869
826.107167,-2757.943793,-2220.617826,10140.821405
826.107482,-2145.067394,-2812.782580,9548.656652
826.107798,-1991.848295,-2886.803174,9104.533087
826.108114,-2451.505594,-2738.761985,9474.636058
826.108429,-1991.848295,-3627.009116,10362.883188
826.108745,-1762.019645,-2886.803174,10362.883188
826.109061,-1685.410096,-1998.556043,9770.718434
826.109376,-1991.848295,-1036.288319,9252.574275
826.109692,-1225.752797,-740.205942,8734.430116
826.110008,-1302.362347,-888.247130,9326.594869
826.110323,-995.924147,-1924.535449,9030.512492
826.110639,-1532.190996,-1776.494261,9400.615463
826.110955,-1149.143247,-1776.494261,8956.491898
826.111270,-1838.629195,-1554.432478,8660.409521
826.111586,-1455.581446,-1702.473667,9104.533087
826.111902,-1915.238745,-1554.432478,8586.388927
826.112217,-1915.238745,-1776.494261,8734.430116
826.112533,-2451.505594,-2368.659014,9400.615463
826.112849,-2911.162892,-3404.947333,9548.656652
826.113164,-3064.381992,-3775.050304,10362.883188
826.113480,-3447.429741,-3701.029710,10732.986159
826.113796,-3524.039291,-3627.009116,11251.130318
826.114111,-2911.162892,-3256.906145,11177.109724
826.114427,-2681.334243,-2368.659014,10288.862594
826.114742,-2528.115143,-962.267725,9918.759623
826.115058,-1608.800546,-962.267725,9104.533087
826.115374,-383.047749,-1110.308913,8882.471304
826.115689,153.219100,-1258.350101,8068.244768
826.116005,612.876398,-888.247130,7328.038826
826.116321,842.705048,-1332.370696,7550.100608
826.116636,1149.143247,-1480.411884,8142.265362
826.116952,1072.533697,-1184.329507,8512.368333
826.117268,0.000000,-814.226536,8586.388927
826.117584,-766.095498,-1110.308913,8882.471304
826.117899,-1302.362347,-1776.494261,9622.677246
826.118215,-1685.410096,-2590.720797,9992.780217
826.118531,-2068.457845,-2886.803174,10658.965565
826.118846,-2374.896044,-2886.803174,11325.150913
826.119162,-2604.724693,-3182.885551,11473.192101
826.119478,-2451.505594,-2886.803174,11251.130318
826.119793,-1685.410096,-1998.556043,10807.006753
826.120109,-1532.190996,-1258.350101,9992.780217
826.120425,-1072.533697,-296.082377,9178.553681
826.120740,-612.876398,-518.144159,8142.265362
826.121056,0.000000,-888.247130,7920.203579
826.121372,1072.533697,-666.185348,7476.080014
826.121687,766.095498,-962.267725,7550.100608
826.122003,0.000000,-2368.659014,8586.388927
826.122319,-842.705048,-3478.967927,9474.636058
826.122634,-1608.800546,-3627.009116,10288.862594
826.122950,-2221.676944,-3330.926739,11103.089130
826.123266,-2681.334243,-3108.864956,11843.295072
826.123581,-3370.820191,-2738.761985,11769.274478
826.123897,-3217.601092,-2664.741391,10584.944971
826.124213,-2834.553343,-2294.638420,9844.739029
826.124528,-2298.286494,-1332.370696,9030.512492
826.124844,-1838.629195,-1480.411884,8068.244768
826.125160,-995.924147,-2368.659014,7994.224174
826.125475,-1072.533697,-2960.823768,7920.203579
826.125791,-1455.581446,-3775.050304,8808.450710
826.126107,-1608.800546,-4367.215058,9622.677246
826.126422,-2221.676944,-4367.215058,9622.677246
826.126738,-2221.676944,-4219.173869,10510.924376
826.127054,-2298.286494,-3404.947333,10584.944971
826.127369,-2298.286494,-3182.885551,10288.862594
826.127685,-2068.457845,-2220.617826,9770.718434
826.128001,-2068.457845,-1850.514855,9548.656652
826.128316,-1608.800546,-1258.350101,8882.471304
826.128632,-1378.971896,-1332.370696,8216.285956
826.128948,-1532.190996,-1924.535449,8364.327145
826.129263,-1378.971896,-2294.638420,8660.409521
826.129579,-995.924147,-3182.885551,8142.265362
826.129895,-1608.800546,-4145.153275,8808.450710
826.130210,-1762.019645,-3775.050304,9178.553681
826.130526,-2145.067394,-3997.112087,9548.656652
826.130842,-2145.067394,-3849.070898,10066.800811
826.131157,-2681.334243,-3478.967927,10807.006753
826.131473,-2451.505594,-2960.823768,10732.986159
826.131789,-2604.724693,-2368.659014,10436.903782
826.132104,-2451.505594,-1406.391290,9622.677246
826.132420,-2068.457845,-888.247130,9178.553681
826.132736,-1225.752797,-888.247130,8660.409521
826.133051,-1072.533697,-592.164754,8290.306550
826.133367,-153.219100,-740.205942,7476.080014
826.133683,-229.828649,-1406.391290,7105.977043
826.133998,-536.266849,-1776.494261,7772.162391
826.134314,-612.876398,-2146.597232,8216.285956
826.134630,-1378.971896,-2442.679609,8808.450710
826.134946,-2374.896044,-3034.844362,9992.780217
826.135261,-3217.601092,-3997.112087,10807.006753
826.135577,-3600.648841,-4663.297435,11547.212695
826.135893,-3830.477490,-4737.318029,12213.398043
826.136208,-4136.915689,-4219.173869,11991.336260
826.136524,-3830.477490,-3108.864956,12139.377449
826.136840,-3294.210641,-1850.514855,11399.171507
826.137155,-1915.238745,-592.164754,9696.697840
826.137471,-536.266849,148.041188,8438.347739
826.137787,766.095498,666.185348,7624.121203
826.138102,1685.410096,518.144159,7031.956449
826.138418,2528.115143,-0.000000,6587.832884
826.138734,3294.210641,-370.102971,6883.915261
826.139049,2911.162892,-962.267725,7105.977043
826.139365,1991.848295,-1480.411884,7994.224174
826.139681,995.924147,-2146.597232,9104.533087
826.139996,-383.047749,-2664.741391,10140.821405
826.140312,-2298.286494,-2664.741391,11547.212695
826.140628,-2911.162892,-2738.761985,11621.233289
826.140943,-3600.648841,-2516.700203,11769.274478
826.141259,-3830.477490,-1702.473667,11843.295072
826.141575,-3907.087040,-1850.514855,11399.171507
826.141890,-3677.258390,-1850.514855,10881.027347
826.142206,-3447.429741,-1924.535449,10288.862594
826.142522,-2987.772442,-2368.659014,9548.656652
826.142837,-2068.457845,-2294.638420,9178.553681
826.143153,-1149.143247,-1924.535449,8734.430116
826.143469,-842.705048,-1628.453072,8068.244768
826.143784,-612.876398,-1332.370696,8290.306550
826.144100,-689.485948,-1776.494261,8734.430116
826.144416,-766.095498,-2294.638420,9326.594869
826.144731,-1149.143247,-2516.700203,9696.697840
826.145047,-1608.800546,-2146.597232,9992.780217
826.145363,-1685.410096,-1628.453072,10214.842000
826.145678,-1915.238745,-1628.453072,10066.800811
826.145994,-2145.067394,-1554.432478,10214.842000
826.146310,-2145.067394,-2072.576638,9918.759623
826.146625,-2451.505594,-2072.576638,9918.759623
826.146941,-2298.286494,-2516.700203,9252.574275
826.147257,-1991.848295,-3108.864956,9104.533087
826.147572,-1991.848295,-3552.988522,9252.574275
826.147888,-1455.581446,-3256.906145,9030.512492
826.148204,-1532.190996,-3256.906145,8734.430116
826.148519,-1685.410096,-3404.947333,9178.553681
826.148835,-1455.581446,-3775.050304,9622.677246
826.149151,-1685.410096,-3627.009116,9548.656652
826.149466,-1685.410096,-2960.823768,9844.739029
826.149782,-1608.800546,-2220.617826,9696.697840
826.150098,-842.705048,-1406.391290,9474.636058
826.150413,-383.047749,-1184.329507,8882.471304
826.150729,0.000000,-1036.288319,8216.285956
826.151045,383.047749,-888.247130,8290.306550
826.151360,612.876398,-1258.350101,8142.265362
826.151676,689.485948,-1332.370696,8142.265362
826.151992,383.047749,-1184.329507,7920.203579
826.152308,306.438199,-2146.597232,8068.244768
826.152623,-383.047749,-2294.638420,9104.533087
826.152939,-919.314598,-2516.700203,9548.656652
826.153255,-1685.410096,-2664.741391,9992.780217
826.153570,-2681.334243,-2294.638420,10436.903782
826.153886,-2834.553343,-1998.556043,10584.944971
826.154202,-2681.334243,-1258.350101,10288.862594
826.154517,-2604.724693,-592.164754,9918.759623
826.154833,-2145.067394,-444.123565,9696.697840
826.155149,-1915.238745,-740.205942,9548.656652
826.155464,-1225.752797,-1110.308913,9178.553681
826.155780,-383.047749,-1184.329507,8956.491898
826.156096,-383.047749,-1332.370696,8734.430116
826.156411,-383.047749,-1406.391290,8808.450710
826.156727,-229.828649,-1628.453072,9104.533087
826.157043,-612.876398,-1628.453072,9400.615463
826.157358,-995.924147,-1776.494261,9696.697840
826.157674,-1762.019645,-2072.576638,9770.718434
826.157990,-2374.896044,-1998.556043,9770.718434
826.158305,-2757.943793,-2220.617826,10140.821405
826.158621,-3064.381992,-2368.659014,10732.986159
826.158937,-3677.258390,-2516.700203,10807.006753
826.159252,-4060.306139,-2368.659014,10881.027347
826.159568,-4366.744339,-3034.844362,10584.944971
826.159884,-4060.306139,-3627.009116,10807.006753
826.160199,-3677.258390,-3775.050304,10510.924376
826.160515,-3064.381992,-3701.029710,10140.821405
826.160831,-2757.943793,-3701.029710,10066.800811
826.161146,-2528.115143,-4071.132681,9474.636058
826.161462,-1915.238745,-4145.153275,9696.697840
826.161778,-1991.848295,-3775.050304,9622.677246
826.162093,-2068.457845,-3552.988522,9622.677246
826.162409,-1838.629195,-3552.988522,9326.594869
826.162725,-1991.848295,-3478.967927,9622.677246
826.163040,-2681.334243,-3552.988522,9696.697840
826.163356,-1991.848295,-3182.885551,9696.697840
826.163672,-2298.286494,-3330.926739,9844.739029
826.163987,-1762.019645,-3182.885551,9918.759623
826.164303,-1685.410096,-3330.926739,9548.656652
826.164619,-1762.019645,-3108.864956,9252.574275
826.164934,-919.314598,-2738.761985,8734.430116
826.165250,-536.266849,-2146.597232,8512.368333
826.165566,-306.438199,-1628.453072,7624.121203
826.165881,-153.219100,-1924.535449,7402.059420
826.166197,0.000000,-2146.597232,7476.080014
826.166513,-766.095498,-2146.597232,7698.141797
826.166828,-1072.533697,-2368.659014,8068.244768
826.167144,-2221.676944,-2664.741391,8734.430116
826.167460,-2374.896044,-3627.009116,9326.594869
826.167775,-3140.991542,-3256.906145,10436.903782
826.168091,-3217.601092,-3552.988522,10214.842000
826.168407,-3677.258390,-3552.988522,10288.862594
826.168722,-3294.210641,-3478.967927,10510.924376
826.169038,-2451.505594,-3849.070898,10288.862594
826.169354,-2221.676944,-3034.844362,9844.739029
826.169670,-1378.971896,-2294.638420,9252.574275
826.169985,-536.266849,-1554.432478,8586.388927
826.170301,383.047749,-444.123565,7772.162391
826.170617,919.314598,370.102971,7031.956449
826.170932,1302.362347,518.144159,6587.832884
826.171248,1455.581446,518.144159,6439.791695
826.171564,1302.362347,-74.020594,7031.956449
826.171879,612.876398,-962.267725,7624.121203
826.172195,-229.828649,-1850.514855,8438.347739
826.172511,-1378.971896,-2738.761985,9548.656652
826.172826,-2451.505594,-3997.112087,11103.089130
826.173142,-3294.210641,-4737.318029,12287.418637
826.173458,-3753.867940,-4737.318029,13249.686362
826.173773,-3983.696590,-4145.153275,13471.748144
826.174089,-3983.696590,-3478.967927,12953.603985
826.174405,-3064.381992,-1850.514855,11769.274478
826.174720,-1685.410096,-74.020594,9918.759623
826.175036,-306.438199,740.205942,8512.368333
826.175352,995.924147,1184.329507,7254.018232
826.175667,1378.971896,962.267725,6365.771101
826.175983,1685.410096,1110.308913,6217.729913
826.176299,1455.581446,-0.000000,6735.874072
826.176614,383.047749,-1406.391290,8068.244768
826.176930,0.000000,-2442.679609,9104.533087
826.177246,-1608.800546,-3627.009116,10807.006753
826.177561,-2911.162892,-4145.153275,12361.439231
826.177877,-4213.525239,-4071.132681,13101.645173
826.178193,-4443.353888,-3627.009116,13471.748144
826.178508,-4519.963438,-2368.659014,12509.480420
826.178824,-4443.353888,-1554.432478,11843.295072
826.179140,-3830.477490,-888.247130,10436.903782
826.179455,-3294.210641,-666.185348,9474.636058
826.179771,-2374.896044,-1110.308913,8734.430116
826.180087,-1225.752797,-1332.370696,7920.203579
826.180402,-1072.533697,-1924.535449,8142.265362
826.180718,-995.924147,-1998.556043,8142.265362
826.181034,-1149.143247,-1924.535449,7698.141797
826.181349,-1072.533697,-2146.597232,8512.368333
826.181665,-1225.752797,-1924.535449,9104.533087
826.181981,-1915.238745,-2072.576638,9252.574275
826.182296,-2681.334243,-2368.659014,9548.656652
826.182612,-2528.115143,-2960.823768,10066.800811
826.182928,-2681.334243,-3478.967927,10732.986159
826.183243,-3370.820191,-3849.070898,10881.027347
826.183559,-3677.258390,-3404.947333,10807.006753
826.183875,-3677.258390,-2590.720797,10140.821405
826.184190,-2757.943793,-2960.823768,9992.780217
826.184506,-1685.410096,-2886.803174,9326.594869
826.184822,-1455.581446,-2442.679609,8068.244768
826.185137,-689.485948,-2516.700203,7179.997637
826.185453,689.485948,-3256.906145,6735.874072
826.185769,536.266849,-3701.029710,7328.038826
826.186084,-229.828649,-3552.988522,8216.285956
826.186400,-1149.143247,-3552.988522,8734.430116
826.186716,-1685.410096,-3923.091493,9252.574275
826.187032,-2221.676944,-3849.070898,10288.862594
826.187347,-2451.505594,-2812.782580,10288.862594
826.187663,-2068.457845,-1850.514855,9696.697840
826.187979,-1072.533697,-1702.473667,9474.636058
826.188294,-536.266849,-2516.700203,9104.533087
826.188610,0.000000,-2294.638420,8734.430116
826.188926,383.047749,-1776.494261,7920.203579
826.189241,459.657299,-2220.617826,8290.306550
826.189557,306.438199,-2590.720797,7994.224174
826.189873,-383.047749,-3182.885551,7994.224174
826.190188,-536.266849,-3404.947333,8808.450710
826.190504,-1072.533697,-3997.112087,9474.636058
826.190820,-2298.286494,-3923.091493,9992.780217
826.191135,-2834.553343,-3330.926739,10214.842000
826.191451,-2834.553343,-2664.741391,9918.759623
826.191767,-2604.724693,-1480.411884,10288.862594
826.192082,-2528.115143,-592.164754,9992.780217
826.192398,-2068.457845,-444.123565,9770.718434
826.192714,-1455.581446,-1406.391290,9622.677246
826.193029,-1378.971896,-1554.432478,9474.636058
826.193345,-842.705048,-1480.411884,8512.368333
826.193661,-153.219100,-888.247130,8142.265362
826.193976,-383.047749,-1332.370696,7698.141797
826.194292,-459.657299,-1406.391290,8364.327145
826.194608,-306.438199,-2516.700203,9252.574275
826.194923,-1455.581446,-3108.864956,9918.759623
826.195239,-2911.162892,-3108.864956,10510.924376
826.195555,-3677.258390,-3256.906145,11029.068536
826.195870,-3677.258390,-2442.679609,11473.192101
826.196186,-3983.696590,-1258.350101,11843.295072
826.196502,-3294.210641,-962.267725,11547.212695
826.196817,-2681.334243,-1036.288319,10510.924376
826.197133,-2757.943793,-370.102971,9770.718434
826.197449,-2145.067394,-296.082377,9252.574275
826.197764,-383.047749,-962.267725,8882.471304
826.198080,229.828649,-0.000000,8216.285956
826.198396,229.828649,-370.102971,7772.162391
826.198711,842.705048,-1776.494261,7994.224174
826.199027,306.438199,-1998.556043,8142.265362
826.199343,-1608.800546,-2368.659014,9030.512492
826.199658,-1608.800546,-3404.947333,10066.800811
826.199974,-2221.676944,-3552.988522,10881.027347
826.200290,-3064.381992,-3478.967927,11547.212695
826.200605,-4136.915689,-3256.906145,11917.315666
826.200921,-4290.134789,-2516.700203,12213.398043
826.201237,-4366.744339,-2220.617826,11177.109724
826.201552,-3753.867940,-1258.350101,10362.883188
826.201868,-2451.505594,-1110.308913,10140.821405
826.202184,-1302.362347,-1406.391290,9104.533087
826.202499,-612.876398,-1850.514855,7920.203579
826.202815,383.047749,-2368.659014,7698.141797
826.203131,1149.143247,-1480.411884,6957.935855
826.203446,1378.971896,-814.226536,6735.874072
826.203762,1532.190996,-1406.391290,7402.059420
826.204078,766.095498,-1850.514855,8364.327145
826.204394,-689.485948,-2146.597232,8586.388927
826.204709,-1532.190996,-2442.679609,9252.574275
826.205025,-2451.505594,-2442.679609,9770.718434
826.205341,-2757.943793,-2812.782580,10584.944971
826.205656,-2374.896044,-3182.885551,12213.398043
826.205972,-3524.039291,-2812.782580,10955.047942
826.206288,-3677.258390,-2442.679609,10140.821405
826.206603,-2681.334243,-3034.844362,10807.006753
826.206919,-2221.676944,-2368.659014,9104.533087
826.207235,-1302.362347,-1776.494261,8808.450710
826.207550,-229.828649,-1776.494261,8660.409521
826.207866,0.000000,-444.123565,7254.018232
826.208182,229.828649,-518.144159,6513.812290
826.208497,76.609550,-1110.308913,6291.750507
826.208813,536.266849,-2220.617826,7624.121203
826.209129,76.609550,-3404.947333,8438.347739
826.209444,-995.924147,-2516.700203,9326.594869
826.209760,-2145.067394,-2146.597232,9622.677246
826.210076,-2221.676944,-2442.679609,10362.883188
826.210391,-2298.286494,-1258.350101,11399.171507
826.210707,-3064.381992,-2368.659014,10732.986159
826.211023,-2834.553343,-1924.535449,10584.944971
826.211338,-3217.601092,-1628.453072,10955.047942
826.211654,-2451.505594,-3034.844362,9030.512492
826.211970,-306.438199,-2220.617826,9770.718434
826.212285,-919.314598,-1036.288319,8734.430116
826.212601,-766.095498,-1406.391290,7920.203579
826.212917,229.828649,-962.267725,8290.306550
826.213232,-153.219100,-222.061783,9252.574275
826.213548,1455.581446,-666.185348,8438.347739
826.213864,919.314598,1480.411884,8438.347739
826.214179,0.000000,888.247130,7920.203579
826.214495,0.000000,-0.000000,9474.636058
826.214811,1378.971896,-296.082377,10066.800811
826.215126,612.876398,-370.102971,9918.759623
826.215442,383.047749,-0.000000,9252.574275
826.215758,-153.219100,-370.102971,10732.986159
826.216073,0.000000,-1554.432478,10362.883188
826.216389,-229.828649,-1258.350101,9844.739029
826.216705,-229.828649,-1776.494261,11547.212695
826.217021,-612.876398,-1776.494261,10955.047942
826.217336,-459.657299,-962.267725,9400.615463
826.217652,-995.924147,-296.082377,8956.491898
826.217968,612.876398,-888.247130,10288.862594
826.218284,383.047749,222.061783,9400.615463
826.218600,-76.609550,1036.288319,8216.285956
826.218916,0.000000,-444.123565,9474.636058
826.219231,536.266849,-1258.350101,9622.677246
826.219547,995.924147,-1110.308913,10140.821405
826.219863,459.657299,-222.061783,10214.842000
826.220179,0.000000,-296.082377,9918.759623
826.220495,612.876398,-296.082377,9696.697840
826.220810,1072.533697,-74.020594,9696.697840
826.221126,1762.019645,-148.041188,9770.718434
826.221442,1072.533697,296.082377,10066.800811
826.221758,919.314598,-888.247130,9474.636058
826.222074,842.705048,-1258.350101,9548.656652
826.222389,1608.800546,-1258.350101,10732.986159
826.222705,995.924147,-222.061783,9696.697840
826.223021,306.438199,666.185348,9326.594869
826.223337,459.657299,222.061783,8808.450710
826.223653,842.705048,444.123565,8808.450710
826.223968,1991.848295,518.144159,9178.553681
826.224284,1838.629195,666.185348,7476.080014
826.224600,842.705048,814.226536,7994.224174
826.224916,1685.410096,-1998.556043,9104.533087
826.225232,1838.629195,-1554.432478,9400.615463
826.225547,1838.629195,-666.185348,9178.553681
826.225863,306.438199,-74.020594,9030.512492
826.226179,0.000000,-222.061783,9548.656652
826.226495,0.000000,-518.144159,8734.430116
826.226811,766.095498,518.144159,8512.368333
826.227126,229.828649,-0.000000,9474.636058
826.227442,-689.485948,-296.082377,9474.636058
826.227758,-1149.143247,-1036.288319,10066.800811
826.228074,-919.314598,-1628.453072,9548.656652
826.228390,612.876398,-814.226536,10510.924376
826.228706,-153.219100,148.041188,9844.739029
826.229021,-842.705048,888.247130,8734.430116
826.229337,229.828649,296.082377,8734.430116
826.229653,919.314598,222.061783,8586.388927
826.229969,1532.190996,518.144159,9474.636058
826.230285,612.876398,1184.329507,8808.450710
826.230600,612.876398,814.226536,8586.388927
826.230916,766.095498,-0.000000,8734.430116
826.231232,1225.752797,-888.247130,9622.677246
826.231548,1072.533697,-222.061783,9696.697840
826.231864,-842.705048,148.041188,9770.718434
826.232179,-1149.143247,-1036.288319,9918.759623
826.232495,-536.266849,-2368.659014,9992.780217
826.232811,-153.219100,-1850.514855,11103.089130
826.233127,-842.705048,-518.144159,10658.965565
826.233443,-1378.971896,-222.061783,9844.739029
826.233758,-612.876398,-814.226536,9474.636058
826.234074,0.000000,-1110.308913,9252.574275
826.234390,306.438199,-222.061783,10066.800811
826.234706,0.000000,370.102971,9030.512492
826.235022,76.609550,-592.164754,9326.594869
826.235337,766.095498,-1332.370696,9992.780217
826.235653,1608.800546,-1554.432478,9326.594869
826.235969,1685.410096,-592.164754,9770.718434
826.236285,1302.362347,222.061783,10214.842000
826.236601,1302.362347,-0.000000,9104.533087
826.236916,1532.190996,-740.205942,9252.574275
826.237232,1685.410096,-1332.370696,10436.903782
826.237548,1378.971896,-518.144159,9844.739029
826.237864,229.828649,518.144159,9918.759623
826.238180,612.876398,-666.185348,9548.656652
826.238495,995.924147,-888.247130,9178.553681
826.238811,1532.190996,-74.020594,9696.697840
826.239127,76.609550,814.226536,9326.594869
826.239443,-383.047749,-148.041188,9252.574275
826.239759,306.438199,-740.205942,8882.471304
826.240075,612.876398,-888.247130,9400.615463
826.240390,766.095498,-370.102971,10140.821405
826.240706,153.219100,-0.000000,9696.697840
826.241022,153.219100,-666.185348,8808.450710
826.241338,1072.533697,-444.123565,8364.327145
826.241654,1302.362347,-518.144159,9252.574275
826.241969,229.828649,518.144159,9474.636058
826.242285,0.000000,296.082377,9474.636058
826.242601,0.000000,-1110.308913,9326.594869
826.242917,459.657299,-740.205942,9326.594869
826.243233,459.657299,666.185348,9770.718434
826.243548,-536.266849,592.164754,8808.450710
826.243864,-842.705048,-222.061783,9770.718434
826.244180,0.000000,-1036.288319,8882.471304
826.244496,995.924147,-0.000000,8808.450710
826.244812,766.095498,1110.308913,9030.512492
826.245127,0.000000,666.185348,8882.471304
826.245443,153.219100,-296.082377,8882.471304
826.245759,766.095498,-592.164754,8956.491898
826.246075,995.924147,518.144159,9474.636058
826.246391,76.609550,1554.432478,9178.553681
826.246706,-153.219100,-0.000000,9030.512492
826.247022,766.095498,-888.247130,9474.636058
826.247338,1608.800546,-888.247130,9474.636058
826.247654,1378.971896,-444.123565,9474.636058
826.247970,-229.828649,-148.041188,9548.656652
826.248285,0.000000,-1480.411884,11251.130318
826.248601,536.266849,-1406.391290,9326.594869
826.248917,689.485948,-148.041188,9400.615463
826.249233,0.000000,1036.288319,10214.842000
826.249549,-995.924147,444.123565,9696.697840
826.249865,0.000000,-222.061783,8660.409521
826.250180,842.705048,-1036.288319,9696.697840
826.250496,1149.143247,-740.205942,9548.656652
826.250812,995.924147,-0.000000,9400.615463
826.251128,229.828649,-962.267725,9474.636058
826.251444,229.828649,-1406.391290,9548.656652
826.251759,1149.143247,-666.185348,10436.903782
826.252075,1378.971896,444.123565,9770.718434
826.252391,0.000000,1554.432478,9622.677246
826.252707,612.876398,-0.000000,10807.006753
826.253023,1225.752797,-518.144159,8660.409521
826.253338,1991.848295,370.102971,9252.574275
826.253654,919.314598,888.247130,9770.718434
826.253970,536.266849,-0.000000,9844.739029
826.254286,536.266849,-0.000000,9104.533087
826.254602,1149.143247,-518.144159,8734.430116
826.254917,459.657299,-222.061783,10288.862594
826.255233,-919.314598,1036.288319,9548.656652
826.255549,-766.095498,-0.000000,9770.718434
826.255865,-229.828649,-1036.288319,9474.636058
826.256181,536.266849,-1110.308913,10510.924376
826.256496,-459.657299,-0.000000,9770.718434
826.256812,-842.705048,-0.000000,9696.697840
826.257128,-229.828649,-1258.350101,9474.636058
826.257444,229.828649,-888.247130,9474.636058
826.257760,919.314598,296.082377,9030.512492
826.258075,-229.828649,814.226536,8734.430116
826.258391,-383.047749,222.061783,9918.759623
826.258707,766.095498,-888.247130,9178.553681
826.259023,1532.190996,-518.144159,8660.409521
826.259339,1225.752797,444.123565,9030.512492
826.259654,229.828649,1184.329507,9252.574275
826.259970,842.705048,-148.041188,9030.512492
826.260286,842.705048,-1554.432478,9474.636058
826.260602,1302.362347,370.102971,9770.718434
826.260918,383.047749,-0.000000,9770.718434
826.261234,-383.047749,-0.000000,9400.615463
826.261549,-306.438199,-222.061783,9474.636058
826.261865,612.876398,-1258.350101,9474.636058
826.262181,766.095498,-296.082377,9326.594869
826.262497,-766.095498,888.247130,8512.368333
826.262813,-842.705048,-1258.350101,10214.842000
826.263128,76.609550,-2368.659014,9252.574275
826.263444,153.219100,-1184.329507,9400.615463
826.263760,766.095498,-222.061783,9844.739029
826.264076,-229.828649,-74.020594,9178.553681
826.264392,-536.266849,-1480.411884,9770.718434
826.264707,842.705048,-666.185348,9474.636058
826.265023,1762.019645,-0.000000,8512.368333
826.265339,459.657299,814.226536,8660.409521
826.265655,459.657299,-370.102971,9770.718434
826.265971,383.047749,-1110.308913,9474.636058
826.266286,766.095498,-740.205942,9992.780217
826.266602,612.876398,-74.020594,9474.636058
826.266918,306.438199,518.144159,8956.491898
826.267234,229.828649,444.123565,9992.780217
826.267550,1072.533697,-592.164754,9104.533087
826.267865,1302.362347,-148.041188,9326.594869
826.268181,919.314598,148.041188,9844.739029
826.268497,76.609550,-0.000000,9696.697840
826.268813,459.657299,148.041188,9400.615463
826.269129,612.876398,-222.061783,9178.553681
826.269444,919.314598,74.020594,9548.656652
826.269760,-153.219100,888.247130,10510.924376
826.270076,-612.876398,-148.041188,9992.780217
826.270392,-153.219100,-962.267725,9030.512492
826.270708,919.314598,-888.247130,10140.821405
826.271024,766.095498,296.082377,10288.862594
826.271339,-153.219100,296.082377,9844.739029
826.271655,0.000000,-0.000000,10066.800811
826.271971,153.219100,370.102971,9696.697840
826.272287,995.924147,444.123565,9622.677246
826.272603,536.266849,1332.370696,9178.553681
826.272918,76.609550,962.267725,9474.636058
826.273234,459.657299,-148.041188,9178.553681
826.273550,1225.752797,-0.000000,8882.471304
826.273866,1225.752797,-0.000000,9548.656652
826.274182,0.000000,-0.000000,9622.677246
826.274497,-459.657299,-518.144159,10066.800811
826.274813,-459.657299,-222.061783,9696.697840
826.275129,766.095498,-370.102971,10436.903782
826.275445,-153.219100,-296.082377,10362.883188
826.275761,-919.314598,444.123565,10214.842000
826.276076,-383.047749,-444.123565,9548.656652
826.276392,383.047749,-962.267725,8734.430116
826.276708,536.266849,-518.144159,10510.924376
826.277024,0.000000,-222.061783,10214.842000
826.277340,153.219100,-370.102971,9104.533087
826.277655,-153.219100,-814.226536,8882.471304
826.277971,919.314598,-740.205942,9696.697840
826.278287,995.924147,-814.226536,9400.615463
826.278603,229.828649,-148.041188,9474.636058
826.278919,0.000000,-0.000000,9918.759623
826.279234,995.924147,-740.205942,8882.471304
826.279550,2451.505594,-592.164754,9178.553681
826.279866,1149.143247,296.082377,8216.285956
826.280182,229.828649,-518.144159,9696.697840
826.280498,612.876398,-1258.350101,9474.636058
826.280813,1302.362347,-1332.370696,9252.574275
826.281129,1149.143247,-222.061783,10436.903782
826.281445,536.266849,518.144159,9030.512492
826.281761,-383.047749,-444.123565,9548.656652
826.282077,612.876398,-592.164754,8882.471304
826.282393,1532.190996,-962.267725,9104.533087
826.282708,1455.581446,-0.000000,8882.471304
826.283024,536.266849,296.082377,9326.594869
826.283340,459.657299,-1036.288319,8956.491898
826.283656,1378.971896,-740.205942,9252.574275
826.283972,1225.752797,-148.041188,8512.368333
826.284287,459.657299,-0.000000,9326.594869
826.284603,0.000000,-0.000000,9474.636058
826.284919,-306.438199,-1184.329507,9030.512492
826.285235,612.876398,-370.102971,9104.533087
826.285551,995.924147,-148.041188,8734.430116
826.285866,-536.266849,-0.000000,9030.512492
826.286182,-689.485948,-370.102971,10066.800811
826.286498,-76.609550,-1480.411884,9844.739029
826.286814,383.047749,-888.247130,9770.718434
826.287130,-459.657299,296.082377,9918.759623
826.287445,-612.876398,444.123565,9844.739029
826.287761,0.000000,-0.000000,9326.594869
826.288077,153.219100,-518.144159,9326.594869
826.288393,1149.143247,-148.041188,9696.697840
826.288709,689.485948,1258.350101,9326.594869
826.289024,76.609550,-0.000000,8512.368333
826.289340,1608.800546,-444.123565,9770.718434
826.289656,1532.190996,-888.247130,9326.594869
826.289972,1455.581446,370.102971,9474.636058
826.290288,229.828649,888.247130,9400.615463
826.290603,153.219100,-0.000000,9252.574275
826.290919,919.314598,-740.205942,9622.677246
826.291235,1149.143247,-222.061783,9178.553681
826.291551,0.000000,370.102971,8660.409521
826.291867,-536.266849,-370.102971,10362.883188
826.292183,-689.485948,-2146.597232,10066.800811
826.292498,0.000000,-1554.432478,10807.006753
826.292814,0.000000,-1258.350101,11177.109724
826.293130,-1149.143247,148.041188,10214.842000
826.293446,-766.095498,222.061783,9992.780217
826.293762,153.219100,-74.020594,9474.636058
826.294077,1532.190996,296.082377,9104.533087
826.294393,766.095498,1258.350101,9622.677246
826.294709,229.828649,518.144159,9326.594869
826.295025,919.314598,-444.123565,9400.615463
826.295341,1685.410096,-444.123565,9178.553681
826.295656,1378.971896,148.041188,9992.780217
826.295972,536.266849,1406.391290,9104.533087
826.296288,459.657299,1110.308913,9400.615463
826.296604,919.314598,666.185348,9104.533087
826.296920,1608.800546,-0.000000,9178.553681
826.297235,766.095498,518.144159,9178.553681
826.297551,-153.219100,592.164754,9252.574275
826.297867,306.438199,-1110.308913,10510.924376
826.298183,612.876398,-444.123565,9400.615463
826.298499,612.876398,-0.000000,9252.574275
826.298814,0.000000,370.102971,10140.821405
826.299130,-383.047749,1184.329507,8808.450710
826.299446,0.000000,222.061783,8438.347739
826.299762,995.924147,-0.000000,8364.327145
826.300078,1225.752797,-0.000000,9474.636058
826.300393,383.047749,-148.041188,9252.574275
826.300709,0.000000,-666.185348,9548.656652
826.301025,536.266849,-1406.391290,9326.594869
826.301341,1378.971896,-370.102971,9548.656652
826.301657,1072.533697,1258.350101,8290.306550
826.301972,-153.219100,518.144159,8808.450710
826.302288,229.828649,-814.226536,10140.821405
826.302604,1072.533697,-370.102971,9252.574275
826.302920,1762.019645,-0.000000,9030.512492
826.303236,842.705048,444.123565,8660.409521
826.303552,383.047749,-296.082377,9252.574275
826.303867,536.266849,-1036.288319,8586.388927
826.304183,1532.190996,-740.205942,9992.780217
826.304499,1072.533697,-0.000000,10066.800811
826.304815,76.609550,1036.288319,9104.533087
826.305131,-229.828649,-148.041188,8660.409521
826.305446,76.609550,-1332.370696,9844.739029
826.305762,1072.533697,-962.267725,10362.883188
826.306078,919.314598,-222.061783,9326.594869
826.306394,-383.047749,444.123565,10066.800811
826.306710,-153.219100,-962.267725,9548.656652
826.307025,536.266849,-962.267725,9474.636058
826.307341,842.705048,-0.000000,9696.697840
826.307657,-306.438199,370.102971,10140.821405
826.307973,-153.219100,444.123565,9992.780217
826.308289,383.047749,-592.164754,9400.615463
826.308604,919.314598,-222.061783,9400.615463
826.308920,842.705048,666.185348,9178.553681
826.309236,76.609550,592.164754,9252.574275
826.309552,383.047749,-370.102971,9474.636058
826.309868,766.095498,-888.247130,10436.903782
826.310183,1149.143247,-518.144159,10658.965565
826.310499,-306.438199,592.164754,9252.574275
826.310815,-842.705048,-0.000000,10732.986159
826.311131,-306.438199,-888.247130,10881.027347
826.311447,306.438199,-222.061783,9252.574275
826.311762,536.266849,222.061783,9696.697840
826.312078,0.000000,962.267725,9696.697840
826.312394,-153.219100,-592.164754,10362.883188
826.312710,766.095498,-222.061783,8808.450710
826.313026,842.705048,-0.000000,8216.285956
826.313342,689.485948,-592.164754,10658.965565
826.313657,229.828649,666.185348,9326.594869
826.313973,306.438199,-444.123565,8956.491898
826.314289,153.219100,-222.061783,9178.553681
826.314605,1225.752797,-370.102971,9178.553681
826.314921,0.000000,-0.000000,8660.409521
826.315236,-306.438199,-296.082377,9992.780217
826.315552,0.000000,-962.267725,9844.739029
826.315868,689.485948,-888.247130,9178.553681
826.316184,306.438199,444.123565,9474.636058
826.316500,-995.924147,-0.000000,9178.553681
826.316815,-229.828649,-518.144159,10214.842000
826.317131,612.876398,-1036.288319,8734.430116
826.317447,1378.971896,-518.144159,9104.533087
826.317763,1149.143247,518.144159,9474.636058
826.318078,536.266849,444.123565,9030.512492
826.318394,766.095498,-444.123565,8438.347739
826.318710,1991.848295,-814.226536,9030.512492
826.319026,2145.067394,-518.144159,9252.574275
826.319341,689.485948,1036.288319,8438.347739
826.319657,76.609550,-592.164754,9178.553681
826.319973,1225.752797,-1184.329507,9252.574275
826.320289,1532.190996,-1110.308913,8956.491898
826.320604,306.438199,444.123565,8882.471304
826.320920,153.219100,-444.123565,10288.862594
826.321236,0.000000,-1924.535449,10510.924376
826.321552,995.924147,-518.144159,9548.656652
826.321867,1302.362347,-74.020594,9696.697840
826.322183,766.095498,740.205942,9474.636058
826.322499,229.828649,740.205942,9474.636058
826.322815,536.266849,-370.102971,9252.574275
826.323130,1455.581446,-518.144159,9548.656652
826.323446,1608.800546,-148.041188,10066.800811
826.323762,919.314598,888.247130,9844.739029
826.324077,689.485948,-222.061783,9696.697840
826.324393,1378.971896,-962.267725,9400.615463
826.324709,1991.848295,-0.000000,9992.780217
826.325025,1149.143247,1258.350101,9178.553681
826.325340,459.657299,1850.514855,9622.677246
826.325656,766.095498,740.205942,8956.491898
826.325972,1532.190996,296.082377,8808.450710
826.326288,1455.581446,-0.000000,10214.842000
826.326603,153.219100,-0.000000,9474.636058
826.326919,0.000000,-370.102971,10288.862594
826.327235,0.000000,-962.267725,10140.821405
826.327551,153.219100,-296.082377,9474.636058
826.327866,0.000000,222.061783,10214.842000
826.328182,-689.485948,1184.329507,9770.718434
826.328498,-1149.143247,148.041188,9474.636058
826.328814,-306.438199,-0.000000,9326.594869
826.329129,536.266849,-370.102971,9474.636058
826.329445,-689.485948,370.102971,9104.533087
826.329761,-1302.362347,-148.041188,10362.883188
826.330077,-536.266849,-1184.329507,9548.656652
826.330392,0.000000,-1036.288319,9622.677246
826.330708,153.219100,296.082377,9696.697840
826.331024,-612.876398,814.226536,9252.574275
826.331339,-153.219100,-296.082377,10140.821405
826.331655,995.924147,-296.082377,9622.677246
826.331971,1149.143247,-74.020594,8512.368333
826.332287,842.705048,-222.061783,9178.553681
826.332602,76.609550,-148.041188,9400.615463
826.332918,76.609550,-592.164754,8216.285956
826.333234,1072.533697,-370.102971,8586.388927
826.333550,995.924147,-1036.288319,9770.718434
826.333865,0.000000,-222.061783,9474.636058
826.334181,-459.657299,-148.041188,9918.759623
826.334497,0.000000,-2072.576638,9400.615463
826.334813,612.876398,-1850.514855,9844.739029
826.335128,919.314598,-814.226536,9252.574275
826.335444,0.000000,-0.000000,9326.594869
826.335760,383.047749,-1110.308913,9622.677246
826.336076,459.657299,-962.267725,9178.553681
826.336391,1608.800546,-592.164754,9030.512492
826.336707,766.095498,-0.000000,9474.636058
826.337023,383.047749,-148.041188,9326.594869
826.337339,766.095498,-666.185348,9252.574275
826.337654,1455.581446,-296.082377,9104.533087
826.337970,1991.848295,-370.102971,9252.574275
826.338286,995.924147,962.267725,8956.491898
826.338601,766.095498,-0.000000,9992.780217
826.338917,1302.362347,-962.267725,9252.574275
826.339233,1685.410096,-296.082377,9474.636058
826.339549,1072.533697,518.144159,9844.739029
826.339864,0.000000,592.164754,9770.718434
826.340180,76.609550,-444.123565,9696.697840
826.340496,383.047749,-296.082377,9178.553681
826.340812,1072.533697,-74.020594,9252.574275
826.341127,0.000000,-0.000000,9696.697840
826.341443,-383.047749,-370.102971,10214.842000
826.341759,0.000000,-1406.391290,10436.903782
826.342075,766.095498,-1110.308913,9844.739029
826.342390,306.438199,148.041188,9770.718434
826.342706,76.609550,814.226536,9844.739029
826.343022,-383.047749,518.144159,8808.450710
826.343338,229.828649,-518.144159,8882.471304
826.343653,995.924147,-370.102971,9474.636058
826.343969,919.314598,222.061783,9178.553681
826.344285,76.609550,370.102971,9548.656652
826.344601,383.047749,-444.123565,9918.759623
826.344916,1149.143247,-74.020594,8438.347739
826.345232,1378.971896,666.185348,9252.574275
826.345548,0.000000,1258.350101,9326.594869
826.345863,-153.219100,222.061783,9844.739029
826.346179,459.657299,-444.123565,9474.636058
826.346495,1072.533697,-592.164754,9474.636058
826.346811,842.705048,-74.020594,10066.800811
826.347126,0.000000,-0.000000,9400.615463
826.347442,-306.438199,-0.000000,9474.636058
826.347758,383.047749,-148.041188,9844.739029
826.348074,1072.533697,-0.000000,9030.512492
826.348389,0.000000,444.123565,9548.656652
826.348705,-1302.362347,-0.000000,10584.944971
826.349021,-306.438199,-740.205942,9474.636058
826.349337,459.657299,-962.267725,8512.368333
826.349652,919.314598,-740.205942,10807.006753
826.349968,-306.438199,296.082377,9696.697840
826.350284,-383.047749,-1110.308913,10288.862594
826.350600,-229.828649,-888.247130,9178.553681
826.350915,229.828649,-444.123565,9104.533087
826.351231,0.000000,-444.123565,10362.883188
826.351547,-306.438199,444.123565,9992.780217
826.351863,0.000000,-518.144159,9178.553681
826.352178,1225.752797,-592.164754,8438.347739
826.352494,1608.800546,-74.020594,9400.615463
826.352810,766.095498,-296.082377,9474.636058
826.353125,306.438199,-296.082377,9030.512492
826.353441,383.047749,-1036.288319,8734.430116
826.353757,995.924147,-666.185348,9474.636058
826.354073,1149.143247,-148.041188,9622.677246
826.354388,-229.828649,296.082377,9326.594869
826.354704,-306.438199,-0.000000,9844.739029
826.355020,76.609550,-666.185348,8586.388927
826.355336,1225.752797,-814.226536,9178.553681
826.355651,919.314598,-370.102971,9770.718434
826.355967,-76.609550,-444.123565,9844.739029
826.356283,-536.266849,-814.226536,9548.656652
826.356599,766.095498,-1480.411884,9104.533087
826.356914,919.314598,-740.205942,9474.636058
826.357230,0.000000,1110.308913,10288.862594
826.357546,-383.047749,962.267725,8956.491898
826.357862,919.314598,-0.000000,8364.327145
826.358177,1455.581446,-148.041188,8882.471304
826.358493,995.924147,-222.061783,9104.533087
826.358809,306.438199,444.123565,9178.553681
826.359125,-153.219100,-888.247130,9992.780217
826.359440,766.095498,-1480.411884,9844.739029
826.359756,842.705048,-592.164754,9696.697840
826.360072,0.000000,592.164754,9622.677246
826.360387,-536.266849,666.185348,10362.883188
826.360703,0.000000,-740.205942,10140.821405
826.361019,1455.581446,-222.061783,9474.636058
826.361335,1149.143247,666.185348,9548.656652
826.361650,459.657299,1036.288319,9178.553681
826.361966,766.095498,-518.144159,9622.677246
826.362282,459.657299,-814.226536,9474.636058
826.362598,1608.800546,-592.164754,9770.718434
826.362913,1149.143247,296.082377,9104.533087
826.363229,-229.828649,740.205942,9104.533087
826.363545,306.438199,-814.226536,9992.780217
826.363861,1685.410096,-1480.411884,9622.677246
826.364176,1302.362347,-592.164754,9474.636058
826.364492,0.000000,296.082377,9474.636058
826.364808,-689.485948,-814.226536,10732.986159
826.365124,0.000000,-1406.391290,9622.677246
826.365439,612.876398,-666.185348,8956.491898
826.365755,689.485948,-74.020594,10584.944971
826.366071,-689.485948,-370.102971,10436.903782
826.366387,-229.828649,-148.041188,9474.636058
826.366702,536.266849,-222.061783,8808.450710
826.367018,1302.362347,-592.164754,9400.615463
826.367334,919.314598,370.102971,9770.718434
826.367649,153.219100,666.185348,9400.615463
826.367965,1378.971896,-296.082377,8956.491898
826.368281,1378.971896,-0.000000,9326.594869
826.368597,1762.019645,-0.000000,9326.594869
826.368912,689.485948,1258.350101,9104.533087
