#time,accel_x,accel_y,accel_z
1147.716637,306.438199,-74.020594,9400.615463
1147.716953,383.047749,-0.000000,9622.677246
1147.717268,306.438199,-148.041188,9696.697840
1147.717584,536.266849,-148.041188,9548.656652
1147.717899,536.266849,-0.000000,9474.636058
1147.718215,459.657299,-148.041188,9548.656652
1147.718531,229.828649,-222.061783,9474.636058
1147.718846,153.219100,-222.061783,9252.574275
1147.719162,689.485948,-222.061783,9474.636058
1147.719478,536.266849,-296.082377,9696.697840
1147.719793,153.219100,-296.082377,9474.636058
1147.720109,306.438199,-222.061783,9474.636058
1147.720425,689.485948,-0.000000,9474.636058
1147.720740,229.828649,-148.041188,9622.677246
1147.721056,306.438199,-222.061783,9474.636058
1147.721372,536.266849,-74.020594,9622.677246
1147.721687,612.876398,-0.000000,9326.594869
1147.722003,919.314598,222.061783,9474.636058
1147.722319,459.657299,296.082377,9252.574275
1147.722634,306.438199,296.082377,9252.574275
1147.722950,689.485948,592.164754,9104.533087
1147.723266,153.219100,370.102971,9326.594869
1147.723581,306.438199,148.041188,9326.594869
1147.723897,689.485948,-0.000000,9474.636058
1147.724213,612.876398,-0.000000,9474.636058
1147.724528,612.876398,370.102971,9400.615463
1147.724844,229.828649,370.102971,9844.739029
1147.725160,689.485948,296.082377,9548.656652
1147.725475,306.438199,296.082377,9474.636058
1147.725791,76.609550,740.205942,9474.636058
1147.726107,229.828649,814.226536,9178.553681
1147.726422,0.000000,666.185348,9252.574275
1147.726738,76.609550,814.226536,9474.636058
1147.727054,229.828649,962.267725,9400.615463
1147.727369,229.828649,814.226536,9104.533087
1147.727685,0.000000,666.185348,9252.574275
1147.728001,-306.438199,814.226536,9474.636058
1147.728316,-153.219100,962.267725,9400.615463
1147.728632,-766.095498,962.267725,9400.615463
1147.728948,-612.876398,1110.308913,9178.553681
1147.729263,-766.095498,1406.391290,9178.553681
1147.729579,-1225.752797,1406.391290,9474.636058
1147.729895,-1532.190996,1406.391290,9548.656652
1147.730210,-1532.190996,1628.453072,9696.697840
1147.730526,-1838.629195,1480.411884,9622.677246
1147.730842,-1991.848295,1110.308913,9474.636058
1147.731157,-1532.190996,1480.411884,9918.759623
1147.731473,-2145.067394,1554.432478,9992.780217
1147.731788,-2221.676944,1554.432478,9918.759623
1147.732104,-1838.629195,1702.473667,9696.697840
1147.732420,-1991.848295,2072.576638,9474.636058
1147.732735,-1532.190996,1924.535449,9326.594869
1147.733051,-1838.629195,1776.494261,9400.615463
1147.733367,-1455.581446,1924.535449,9474.636058
1147.733682,-1532.190996,1776.494261,9474.636058
1147.733998,-1302.362347,1776.494261,9548.656652
1147.734314,-1302.362347,1628.453072,9918.759623
1147.734629,-1149.143247,1998.556043,9844.739029
1147.734945,-1302.362347,2072.576638,9474.636058
1147.735261,-1455.581446,2072.576638,9622.677246
1147.735576,-1378.971896,2146.597232,9474.636058
1147.735892,-1225.752797,2368.659014,9326.594869
1147.736208,-1225.752797,2368.659014,9326.594869
1147.736523,-1532.190996,1998.556043,9474.636058
1147.736839,-1685.410096,1702.473667,9844.739029
1147.737155,-1685.410096,1554.432478,9696.697840
1147.737470,-2145.067394,1258.350101,9844.739029
1147.737786,-2298.286494,1110.308913,9844.739029
1147.738102,-2221.676944,814.226536,9696.697840
1147.738417,-1225.752797,1258.350101,9696.697840
1147.738733,-2374.896044,1258.350101,9696.697840
1147.739049,-2145.067394,1628.453072,9770.718434
1147.739364,-1991.848295,1554.432478,9696.697840
1147.739680,-2068.457845,1332.370696,9548.656652
1147.739996,-1915.238745,1480.411884,9326.594869
1147.740311,-1685.410096,1628.453072,9178.553681
1147.740627,-1608.800546,1776.494261,9104.533087
1147.740943,-2068.457845,1998.556043,9030.512492
1147.741258,-1991.848295,2220.617826,9030.512492
1147.741574,-2374.896044,2368.659014,8956.491898
1147.741890,-2374.896044,2294.638420,9030.512492
1147.742205,-2528.115143,1998.556043,9178.553681
1147.742521,-2757.943793,1406.391290,9252.574275
1147.742837,-2987.772442,666.185348,9696.697840
1147.743152,-2604.724693,296.082377,9918.759623
1147.743468,-2451.505594,296.082377,10288.862594
1147.743784,-2145.067394,-0.000000,10288.862594
1147.744099,-2068.457845,370.102971,10288.862594
1147.744415,-1608.800546,518.144159,9992.780217
1147.744731,-459.657299,1258.350101,9326.594869
1147.745046,-153.219100,2072.576638,8956.491898
1147.745362,0.000000,2812.782580,8586.388927
1147.745677,689.485948,3034.844362,8216.285956
1147.745993,459.657299,3627.009116,8142.265362
1147.746309,383.047749,3330.926739,7772.162391
1147.746624,0.000000,3182.885551,8068.244768
1147.746940,-842.705048,3034.844362,8068.244768
1147.747256,-1455.581446,2442.679609,8512.368333
1147.747571,-2374.896044,1924.535449,9918.759623
1147.747887,-3217.601092,1258.350101,10066.800811
1147.748203,-3907.087040,962.267725,10584.944971
1147.748518,-4366.744339,444.123565,10955.047942
1147.748834,-4060.306139,-0.000000,11251.130318
1147.749150,-3217.601092,-148.041188,10955.047942
1147.749465,-2681.334243,148.041188,11103.089130
1147.749781,-2068.457845,740.205942,10510.924376
1147.750097,-1149.143247,1036.288319,9844.739029
1147.750412,76.609550,1850.514855,9326.594869
1147.750728,689.485948,2516.700203,8438.347739
1147.751044,1378.971896,3552.988522,7846.182985
1147.751359,1225.752797,4219.173869,7624.121203
1147.751675,1225.752797,4515.256246,7402.059420
1147.751991,919.314598,4515.256246,7254.018232
1147.752306,-383.047749,4293.194464,7550.100608
1147.752622,-1455.581446,3552.988522,8216.285956
1147.752938,-2451.505594,2368.659014,9252.574275
1147.753253,-3677.258390,1036.288319,10658.965565
1147.753569,-4826.401637,-0.000000,11769.274478
1147.753885,-5515.887586,-1036.288319,12361.439231
1147.754200,-5286.058936,-1554.432478,12657.521608
1147.754516,-5209.449386,-1702.473667,12583.501014
1147.754832,-4443.353888,-1110.308913,12065.356855
1147.755147,-2987.772442,-148.041188,11547.212695
1147.755463,-1532.190996,1702.473667,9918.759623
1147.755779,0.000000,3330.926739,8142.265362
1147.756094,1072.533697,4885.359217,6957.935855
1147.756410,1225.752797,5625.565159,6291.750507
1147.756726,1302.362347,5921.647536,6069.688724
1147.757041,919.314598,5625.565159,6513.812290
1147.757357,383.047749,4293.194464,7254.018232
1147.757673,-612.876398,2738.761985,8586.388927
1147.757988,-2451.505594,962.267725,9844.739029
1147.758304,-3677.258390,-444.123565,11251.130318
1147.758619,-4443.353888,-1110.308913,12213.398043
1147.758935,-4596.572988,-962.267725,12435.459826
1147.759251,-4596.572988,-444.123565,11991.336260
1147.759566,-4136.915689,148.041188,10732.986159
1147.759882,-3600.648841,1184.329507,10510.924376
1147.760198,-2681.334243,1776.494261,9918.759623
1147.760513,-919.314598,3034.844362,8734.430116
1147.760829,-383.047749,3997.112087,7772.162391
1147.761145,306.438199,4145.153275,7476.080014
1147.761460,306.438199,3404.947333,7402.059420
1147.761776,689.485948,2664.741391,8142.265362
1147.762092,536.266849,2368.659014,8660.409521
1147.762407,0.000000,1924.535449,8586.388927
1147.762723,-919.314598,1332.370696,8882.471304
1147.763039,-1302.362347,1628.453072,9696.697840
1147.763354,-1608.800546,1258.350101,9770.718434
1147.763670,-2451.505594,1406.391290,10288.862594
1147.763986,-2681.334243,1628.453072,10066.800811
1147.764301,-3677.258390,962.267725,9770.718434
1147.764617,-3677.258390,-0.000000,10436.903782
1147.764933,-2911.162892,-0.000000,10510.924376
1147.765248,-2604.724693,962.267725,8882.471304
1147.765564,-2757.943793,1628.453072,9252.574275
1147.765880,-2145.067394,1702.473667,8586.388927
1147.766195,-1608.800546,1998.556043,9252.574275
1147.766511,-1302.362347,2368.659014,9178.553681
1147.766827,-1532.190996,2664.741391,9622.677246
1147.767142,-1455.581446,2146.597232,9696.697840
1147.767458,-842.705048,1702.473667,9178.553681
1147.767774,-689.485948,1406.391290,9400.615463
1147.768089,-1072.533697,1184.329507,9548.656652
1147.768405,-766.095498,592.164754,9696.697840
1147.768721,-995.924147,1258.350101,9178.553681
1147.769036,-1378.971896,1776.494261,9252.574275
1147.769352,-1532.190996,2368.659014,9178.553681
1147.769668,-995.924147,2442.679609,9400.615463
1147.769983,-1762.019645,2664.741391,9992.780217
1147.770299,-1455.581446,2516.700203,9104.533087
1147.770615,-1762.019645,2590.720797,8808.450710
1147.770930,-1378.971896,2220.617826,9252.574275
1147.771246,-1608.800546,2294.638420,8956.491898
1147.771562,-2068.457845,1776.494261,10066.800811
1147.771877,-1991.848295,1480.411884,10658.965565
1147.772193,-2068.457845,1036.288319,10510.924376
1147.772508,-2221.676944,1036.288319,10436.903782
1147.772824,-1991.848295,518.144159,10510.924376
1147.773140,-766.095498,444.123565,10436.903782
1147.773455,-459.657299,1480.411884,9178.553681
1147.773771,-153.219100,2294.638420,9104.533087
1147.774087,689.485948,2146.597232,9474.636058
1147.774411,1225.752797,2664.741391,8290.306550
1147.774727,995.924147,3256.906145,7254.018232
1147.775043,306.438199,3108.864956,7994.224174
1147.775358,0.000000,2368.659014,8512.368333
1147.775674,-1225.752797,3108.864956,8734.430116
1147.775990,-2298.286494,2960.823768,9696.697840
1147.776305,-2604.724693,2072.576638,9252.574275
1147.776621,-3677.258390,1184.329507,9844.739029
1147.776937,-4519.963438,814.226536,10732.986159
1147.777252,-4519.963438,-814.226536,11251.130318
1147.777568,-4136.915689,-1406.391290,11769.274478
1147.777884,-4519.963438,-444.123565,11547.212695
1147.778199,-4136.915689,-1332.370696,11695.253884
1147.778515,-2757.943793,-814.226536,11547.212695
1147.778831,-2451.505594,1036.288319,9918.759623
1147.779146,-1149.143247,1998.556043,8364.327145
1147.779462,76.609550,1924.535449,8808.450710
1147.779778,919.314598,2516.700203,7698.141797
1147.780093,919.314598,3923.091493,6883.915261
1147.780409,1072.533697,3330.926739,7328.038826
1147.780725,536.266849,2442.679609,7698.141797
1147.781040,0.000000,2072.576638,7772.162391
1147.781356,-995.924147,1258.350101,8438.347739
1147.781672,-2298.286494,296.082377,10066.800811
1147.781987,-3064.381992,-444.123565,11103.089130
1147.782303,-2911.162892,-814.226536,11399.171507
1147.782619,-2757.943793,-1258.350101,11843.295072
1147.782934,-3064.381992,-1554.432478,11325.150913
1147.783250,-2604.724693,-1406.391290,10732.986159
1147.783566,-2374.896044,-1258.350101,10362.883188
1147.783881,-383.047749,-1110.308913,10140.821405
1147.784197,612.876398,1036.288319,9622.677246
1147.784513,1532.190996,1998.556043,7920.203579
1147.784828,2221.676944,1702.473667,7624.121203
1147.785144,2298.286494,1850.514855,7846.182985
1147.785460,2604.724693,2442.679609,7179.997637
1147.785775,2757.943793,1924.535449,7772.162391
1147.786091,2604.724693,1406.391290,8808.450710
1147.786407,2374.896044,1184.329507,8586.388927
1147.786722,1762.019645,-518.144159,9622.677246
1147.787038,0.000000,-0.000000,9622.677246
1147.787354,-153.219100,-444.123565,10066.800811
1147.787669,76.609550,-1924.535449,11177.109724
1147.787985,0.000000,-0.000000,10510.924376
1147.788301,-842.705048,-444.123565,9622.677246
1147.788616,0.000000,-1036.288319,10288.862594
1147.788932,-689.485948,-222.061783,9844.739029
1147.789248,-995.924147,444.123565,9178.553681
1147.789563,383.047749,962.267725,9474.636058
1147.789879,306.438199,518.144159,9400.615463
1147.790195,153.219100,296.082377,9770.718434
1147.790510,459.657299,-0.000000,9252.574275
1147.790826,-153.219100,-666.185348,8808.450710
1147.791142,612.876398,-222.061783,9474.636058
1147.791457,536.266849,-0.000000,9770.718434
1147.791773,1149.143247,-740.205942,9696.697840
1147.792089,459.657299,-518.144159,9992.780217
1147.792404,306.438199,-592.164754,10140.821405
1147.792720,919.314598,-0.000000,9474.636058
1147.793036,1455.581446,148.041188,9030.512492
1147.793351,1685.410096,-0.000000,8882.471304
1147.793667,2145.067394,296.082377,9400.615463
1147.793982,1532.190996,518.144159,9104.533087
1147.794298,919.314598,370.102971,9548.656652
1147.794614,842.705048,740.205942,8882.471304
1147.794929,842.705048,1258.350101,8512.368333
1147.795245,0.000000,888.247130,9622.677246
1147.795561,-383.047749,888.247130,9770.718434
1147.795876,-766.095498,962.267725,9400.615463
1147.796192,-842.705048,-296.082377,9918.759623
1147.796508,-612.876398,-0.000000,9770.718434
1147.796823,-842.705048,-0.000000,9622.677246
1147.797139,-919.314598,-222.061783,9178.553681
1147.797455,-919.314598,-814.226536,10140.821405
1147.797770,-612.876398,-1036.288319,10658.965565
1147.798086,0.000000,-296.082377,10066.800811
1147.798402,459.657299,1332.370696,8882.471304
1147.798717,306.438199,962.267725,9252.574275
1147.799033,689.485948,222.061783,8438.347739
1147.799349,1225.752797,962.267725,8956.491898
1147.799664,995.924147,814.226536,9400.615463
1147.799980,1608.800546,148.041188,8808.450710
1147.800296,919.314598,814.226536,8956.491898
1147.800611,383.047749,-666.185348,9548.656652
1147.800927,-306.438199,-814.226536,9474.636058
1147.801243,-459.657299,-444.123565,10066.800811
1147.801558,-306.438199,-1332.370696,10658.965565
1147.801874,-153.219100,-444.123565,9844.739029
1147.802190,-536.266849,-1258.350101,10140.821405
1147.802505,-383.047749,-1258.350101,10658.965565
1147.802821,-842.705048,-1332.370696,9918.759623
1147.803137,-766.095498,-888.247130,9918.759623
1147.803452,536.266849,-592.164754,9918.759623
1147.803768,459.657299,-222.061783,9104.533087
1147.804084,459.657299,-592.164754,9400.615463
1147.804399,459.657299,-592.164754,9992.780217
1147.804715,459.657299,-888.247130,9844.739029
1147.805031,1149.143247,-370.102971,9104.533087
1147.805346,1762.019645,888.247130,8142.265362
1147.805662,1915.238745,-0.000000,8660.409521
1147.805978,1608.800546,-370.102971,9918.759623
1147.806293,995.924147,-370.102971,9474.636058
1147.806609,1302.362347,-740.205942,9178.553681
1147.806925,919.314598,-518.144159,9474.636058
1147.807240,1532.190996,-148.041188,9178.553681
1147.807556,1455.581446,-888.247130,9326.594869
1147.807872,919.314598,-888.247130,9992.780217
1147.808187,919.314598,-888.247130,9992.780217
1147.808503,1149.143247,-296.082377,9178.553681
1147.808819,1225.752797,592.164754,8882.471304
1147.809134,383.047749,148.041188,8142.265362
1147.809450,1072.533697,-0.000000,9326.594869
1147.809766,1149.143247,222.061783,9844.739029
1147.810081,612.876398,-0.000000,9548.656652
1147.810397,1455.581446,222.061783,8956.491898
1147.810713,1149.143247,222.061783,8290.306550
1147.811028,842.705048,-1036.288319,9696.697840
1147.811344,153.219100,-1258.350101,9918.759623
1147.811660,76.609550,-1110.308913,10140.821405
1147.811975,766.095498,-666.185348,9992.780217
1147.812291,1302.362347,592.164754,9474.636058
1147.812607,689.485948,1258.350101,8290.306550
1147.812922,306.438199,962.267725,8364.327145
1147.813238,-229.828649,-0.000000,9622.677246
1147.813554,0.000000,-296.082377,9992.780217
1147.813869,995.924147,888.247130,8882.471304
1147.814185,153.219100,296.082377,8586.388927
1147.814501,0.000000,-518.144159,9178.553681
1147.814816,-306.438199,-370.102971,10140.821405
1147.815132,-842.705048,-1036.288319,9844.739029
1147.815447,-766.095498,-1110.308913,10214.842000
1147.815763,-306.438199,-74.020594,10436.903782
1147.816079,-459.657299,-666.185348,9992.780217
1147.816394,-306.438199,-1036.288319,9992.780217
1147.816710,-612.876398,-888.247130,10362.883188
1147.817026,383.047749,-1258.350101,10214.842000
1147.817341,1072.533697,-296.082377,9104.533087
1147.817657,689.485948,222.061783,9622.677246
1147.817973,689.485948,-518.144159,9030.512492
1147.818288,612.876398,-296.082377,9474.636058
1147.818604,459.657299,-296.082377,9548.656652
1147.818920,1072.533697,-0.000000,9770.718434
1147.819235,1149.143247,1110.308913,8734.430116
1147.819551,383.047749,-518.144159,9030.512492
1147.819867,0.000000,592.164754,9696.697840
1147.820182,76.609550,-296.082377,10510.924376
1147.820498,306.438199,-148.041188,9622.677246
1147.820814,-153.219100,740.205942,9104.533087
1147.821129,0.000000,-740.205942,9474.636058
1147.821445,0.000000,-962.267725,9992.780217
1147.821761,-459.657299,-1258.350101,10214.842000
1147.822076,-153.219100,-814.226536,10436.903782
1147.822392,612.876398,222.061783,9992.780217
1147.822708,459.657299,962.267725,8216.285956
1147.823023,689.485948,370.102971,8956.491898
1147.823339,766.095498,814.226536,8956.491898
1147.823655,766.095498,222.061783,8956.491898
1147.823970,1455.581446,148.041188,8882.471304
1147.824286,1455.581446,666.185348,9178.553681
1147.824602,689.485948,296.082377,8364.327145
1147.824917,1149.143247,-1184.329507,9326.594869
1147.825233,0.000000,-740.205942,9548.656652
1147.825549,306.438199,-1184.329507,10658.965565
1147.825864,1149.143247,-370.102971,9696.697840
1147.826180,766.095498,666.185348,8364.327145
1147.826496,306.438199,-0.000000,8808.450710
1147.826811,689.485948,-814.226536,9400.615463
1147.827127,229.828649,222.061783,9474.636058
1147.827443,919.314598,444.123565,9844.739029
1147.827758,766.095498,1332.370696,8068.244768
1147.828074,0.000000,518.144159,8438.347739
1147.828390,76.609550,-444.123565,8734.430116
1147.828705,76.609550,-518.144159,9474.636058
1147.829021,-306.438199,-1110.308913,11177.109724
1147.829337,306.438199,-518.144159,9548.656652
1147.829652,0.000000,296.082377,9178.553681
1147.829968,-459.657299,-148.041188,9548.656652
1147.830284,-459.657299,-0.000000,9622.677246
1147.830599,-383.047749,-0.000000,9474.636058
1147.830915,-229.828649,-222.061783,10288.862594
1147.831231,229.828649,370.102971,10288.862594
1147.831546,-153.219100,-0.000000,8956.491898
1147.831862,153.219100,-74.020594,9326.594869
1147.832178,-229.828649,-296.082377,9918.759623
1147.832493,76.609550,-740.205942,9844.739029
1147.832809,459.657299,296.082377,9474.636058
1147.833125,536.266849,666.185348,9474.636058
1147.833440,536.266849,-0.000000,9622.677246
1147.833756,459.657299,296.082377,9992.780217
1147.834072,459.657299,222.061783,9622.677246
1147.834387,1225.752797,370.102971,9770.718434
1147.834703,1608.800546,518.144159,9400.615463
1147.835019,689.485948,222.061783,8956.491898
1147.835334,766.095498,-740.205942,9918.759623
1147.835650,766.095498,-370.102971,10436.903782
1147.835966,689.485948,-1110.308913,10140.821405
1147.836281,1225.752797,370.102971,9844.739029
1147.836597,919.314598,148.041188,9030.512492
1147.836912,383.047749,-148.041188,9252.574275
1147.837228,536.266849,-592.164754,10436.903782
1147.837544,229.828649,-592.164754,9696.697840
1147.837859,536.266849,-814.226536,9104.533087
1147.838175,229.828649,-0.000000,9178.553681
1147.838491,-383.047749,-1036.288319,9696.697840
1147.838806,306.438199,-1258.350101,9548.656652
1147.839122,-383.047749,-1184.329507,10140.821405
1147.839438,229.828649,-1258.350101,10066.800811
1147.839753,766.095498,-148.041188,9474.636058
1147.840069,153.219100,-0.000000,8660.409521
1147.840385,383.047749,-370.102971,9030.512492
1147.840700,842.705048,-518.144159,9178.553681
1147.841016,459.657299,-444.123565,9474.636058
1147.841332,1225.752797,-296.082377,9548.656652
1147.841647,919.314598,296.082377,8364.327145
1147.841963,229.828649,-444.123565,8882.471304
1147.842279,153.219100,-814.226536,9622.677246
1147.842594,229.828649,-444.123565,10288.862594
1147.842910,919.314598,-962.267725,9252.574275
1147.843226,689.485948,-0.000000,9178.553681
1147.843541,459.657299,-148.041188,9030.512492
1147.843857,612.876398,-1036.288319,8808.450710
1147.844173,306.438199,-296.082377,9252.574275
1147.844488,0.000000,-740.205942,9622.677246
1147.844804,1072.533697,-518.144159,9104.533087
1147.845120,383.047749,444.123565,8512.368333
1147.845435,383.047749,-222.061783,8734.430116
1147.845751,459.657299,-592.164754,9326.594869
1147.846067,229.828649,-370.102971,9252.574275
1147.846382,612.876398,-148.041188,9178.553681
1147.846698,766.095498,740.205942,9326.594869
1147.847014,76.609550,222.061783,8734.430116
1147.847329,153.219100,370.102971,9178.553681
1147.847645,0.000000,518.144159,9178.553681
1147.847961,-383.047749,-148.041188,9622.677246
1147.848276,383.047749,740.205942,9548.656652
1147.848592,153.219100,814.226536,8956.491898
1147.848908,-306.438199,-0.000000,9326.594869
1147.849223,-306.438199,-666.185348,9992.780217
1147.849539,-229.828649,-1110.308913,10510.924376
1147.849855,306.438199,-0.000000,9844.739029
1147.850170,459.657299,740.205942,9474.636058
1147.850486,612.876398,740.205942,9030.512492
1147.850802,689.485948,296.082377,8882.471304
1147.851117,229.828649,-0.000000,9770.718434
1147.851433,766.095498,-370.102971,10066.800811
1147.851749,1072.533697,222.061783,9770.718434
1147.852064,536.266849,-0.000000,9474.636058
1147.852380,153.219100,-592.164754,9104.533087
1147.852696,459.657299,-370.102971,9622.677246
1147.853011,-306.438199,-962.267725,10510.924376
1147.853327,229.828649,-296.082377,10510.924376
1147.853643,1072.533697,-222.061783,9770.718434
1147.853958,766.095498,-0.000000,9326.594869
1147.854274,689.485948,-0.000000,9104.533087
1147.854590,689.485948,-592.164754,9992.780217
1147.854905,766.095498,-1036.288319,10140.821405
1147.855221,842.705048,-518.144159,10214.842000
1147.855537,383.047749,296.082377,9474.636058
1147.855852,766.095498,-148.041188,9474.636058
1147.856168,153.219100,-740.205942,9252.574275
1147.856484,0.000000,-370.102971,10066.800811
1147.856799,1302.362347,-1110.308913,10955.047942
1147.857115,919.314598,222.061783,9326.594869
1147.857431,459.657299,370.102971,9252.574275
1147.857746,766.095498,222.061783,9400.615463
1147.858062,689.485948,-0.000000,8956.491898
1147.858377,1149.143247,-592.164754,10066.800811
1147.858693,1225.752797,518.144159,9770.718434
1147.859009,1149.143247,-0.000000,9178.553681
1147.859324,995.924147,-370.102971,8734.430116
1147.859640,919.314598,-444.123565,9696.697840
1147.859956,689.485948,-814.226536,10288.862594
1147.860271,1532.190996,-0.000000,8734.430116
1147.860587,1378.971896,518.144159,8956.491898
1147.860903,919.314598,-148.041188,8956.491898
1147.861218,1378.971896,-814.226536,8808.450710
1147.861534,689.485948,-444.123565,9104.533087
1147.861850,1149.143247,-444.123565,9326.594869
1147.862165,995.924147,444.123565,8586.388927
1147.862481,842.705048,518.144159,8364.327145
1147.862797,459.657299,-518.144159,8882.471304
1147.863112,-76.609550,-814.226536,9548.656652
1147.863428,-229.828649,-1110.308913,9030.512492
1147.863744,306.438199,-444.123565,9030.512492
1147.864059,0.000000,-0.000000,9400.615463
1147.864375,-306.438199,-888.247130,9548.656652
1147.864691,-1225.752797,-518.144159,9178.553681
1147.865006,-1149.143247,-666.185348,9474.636058
1147.865322,-536.266849,-1332.370696,10066.800811
1147.865638,0.000000,370.102971,9400.615463
1147.865953,-842.705048,222.061783,8512.368333
1147.866269,-612.876398,-962.267725,10066.800811
1147.866585,-306.438199,-1184.329507,9770.718434
1147.866900,-842.705048,-370.102971,9474.636058
1147.867216,383.047749,-222.061783,10362.883188
1147.867532,229.828649,-148.041188,8586.388927
1147.867847,0.000000,-74.020594,9178.553681
1147.868163,0.000000,-518.144159,9104.533087
1147.868479,306.438199,-666.185348,9622.677246
1147.868794,1072.533697,-518.144159,10066.800811
1147.869110,612.876398,-0.000000,8882.471304
1147.869426,76.609550,-370.102971,8882.471304
1147.869741,76.609550,-814.226536,9992.780217
1147.870057,612.876398,-666.185348,9770.718434
1147.870373,0.000000,-666.185348,9622.677246
1147.870688,919.314598,-814.226536,9992.780217
1147.871004,612.876398,-0.000000,9030.512492
1147.871320,229.828649,-444.123565,9548.656652
1147.871635,919.314598,-666.185348,9992.780217
1147.871951,612.876398,-592.164754,9622.677246
1147.872267,229.828649,-370.102971,10510.924376
1147.872582,1225.752797,148.041188,9474.636058
1147.872898,842.705048,-0.000000,8956.491898
1147.873214,766.095498,-444.123565,10362.883188
1147.873529,689.485948,222.061783,9696.697840
1147.873845,229.828649,-0.000000,9844.739029
1147.874161,1072.533697,666.185348,10140.821405
1147.874476,842.705048,1480.411884,9400.615463
1147.874792,995.924147,370.102971,9548.656652
1147.875108,612.876398,-0.000000,9770.718434
1147.875423,536.266849,-518.144159,10510.924376
1147.875739,1302.362347,-222.061783,10732.986159
1147.876055,1149.143247,222.061783,8808.450710
1147.876371,459.657299,370.102971,9252.574275
1147.876687,1149.143247,-888.247130,10362.883188
1147.877002,766.095498,148.041188,9696.697840
1147.877318,459.657299,148.041188,9918.759623
1147.877634,1762.019645,740.205942,9326.594869
1147.877950,1302.362347,518.144159,8512.368333
1147.878266,1302.362347,592.164754,9178.553681
1147.878582,1072.533697,-74.020594,8512.368333
1147.878897,306.438199,-518.144159,9326.594869
1147.879213,919.314598,-370.102971,9474.636058
1147.879529,612.876398,222.061783,8660.409521
1147.879845,229.828649,-296.082377,9474.636058
1147.880161,-306.438199,-814.226536,9548.656652
1147.880476,-536.266849,-592.164754,9252.574275
1147.880792,-536.266849,-370.102971,9622.677246
1147.881108,0.000000,-148.041188,9622.677246
1147.881424,-766.095498,222.061783,8734.430116
1147.881740,-229.828649,-444.123565,9104.533087
1147.882056,-306.438199,-74.020594,9030.512492
1147.882371,-689.485948,-370.102971,9844.739029
1147.882687,76.609550,518.144159,9178.553681
1147.883003,689.485948,814.226536,8438.347739
1147.883319,-306.438199,-296.082377,9104.533087
1147.883635,0.000000,-222.061783,9548.656652
1147.883950,306.438199,-0.000000,8882.471304
1147.884266,-306.438199,-0.000000,9474.636058
1147.884582,306.438199,370.102971,9918.759623
1147.884898,0.000000,666.185348,9178.553681
1147.885214,306.438199,-0.000000,9400.615463
1147.885529,0.000000,222.061783,9326.594869
1147.885845,-306.438199,-148.041188,9770.718434
1147.886161,383.047749,-1258.350101,9992.780217
1147.886477,153.219100,-370.102971,9548.656652
1147.886793,459.657299,-1110.308913,10288.862594
1147.887109,229.828649,-962.267725,9326.594869
1147.887424,-229.828649,-222.061783,9474.636058
1147.887740,383.047749,-740.205942,10288.862594
1147.888056,766.095498,518.144159,9400.615463
1147.888372,919.314598,370.102971,9326.594869
1147.888688,306.438199,-296.082377,9178.553681
1147.889003,612.876398,-444.123565,9992.780217
1147.889319,459.657299,-1850.514855,9622.677246
1147.889635,766.095498,-1258.350101,9770.718434
1147.889951,612.876398,-444.123565,10362.883188
1147.890267,306.438199,-1184.329507,9918.759623
1147.890583,306.438199,-370.102971,9992.780217
1147.890898,0.000000,-444.123565,9992.780217
1147.891214,459.657299,-518.144159,10140.821405
1147.891530,1225.752797,148.041188,9548.656652
1147.891846,842.705048,-0.000000,9104.533087
1147.892162,919.314598,-74.020594,9770.718434
1147.892477,689.485948,-740.205942,10436.903782
1147.892793,689.485948,-148.041188,9548.656652
1147.893109,842.705048,-74.020594,9696.697840
1147.893425,689.485948,148.041188,9030.512492
1147.893741,612.876398,-444.123565,9326.594869
1147.894056,383.047749,-370.102971,10288.862594
1147.894372,612.876398,-1184.329507,10658.965565
1147.894688,995.924147,-222.061783,9622.677246
1147.895004,1608.800546,1258.350101,8882.471304
1147.895320,1225.752797,296.082377,8586.388927
1147.895636,1302.362347,-0.000000,8734.430116
1147.895951,1149.143247,-0.000000,9622.677246
1147.896267,1302.362347,-0.000000,9178.553681
1147.896583,1838.629195,666.185348,8882.471304
1147.896899,919.314598,814.226536,8660.409521
1147.897215,842.705048,-0.000000,8734.430116
1147.897530,153.219100,-0.000000,9326.594869
1147.897846,-306.438199,-148.041188,9622.677246
1147.898162,0.000000,-74.020594,9918.759623
1147.898478,229.828649,296.082377,9252.574275
1147.898794,-306.438199,-74.020594,9030.512492
1147.899110,-536.266849,-592.164754,9400.615463
1147.899425,-689.485948,-444.123565,9696.697840
1147.899741,-153.219100,-222.061783,9326.594869
1147.900057,229.828649,518.144159,9326.594869
1147.900373,0.000000,-0.000000,9252.574275
1147.900689,0.000000,-0.000000,8660.409521
1147.901004,0.000000,-370.102971,9030.512492
1147.901320,612.876398,-666.185348,9844.739029
1147.901636,612.876398,-1036.288319,9548.656652
1147.901952,842.705048,296.082377,9104.533087
1147.902268,306.438199,-444.123565,8956.491898
1147.902583,153.219100,-740.205942,9622.677246
1147.902899,76.609550,-74.020594,9622.677246
1147.903215,76.609550,-370.102971,9178.553681
1147.903531,536.266849,-0.000000,9548.656652
1147.903847,153.219100,-296.082377,9548.656652
1147.904163,-153.219100,-1628.453072,10066.800811
1147.904478,0.000000,-1332.370696,10510.924376
1147.904794,-229.828649,-1554.432478,10362.883188
1147.905110,383.047749,-296.082377,10140.821405
1147.905426,766.095498,370.102971,9474.636058
1147.905742,-229.828649,-148.041188,8882.471304
1147.906057,536.266849,-0.000000,9844.739029
1147.906373,-383.047749,-740.205942,9770.718434
1147.906689,766.095498,-222.061783,9622.677246
1147.907005,919.314598,148.041188,9696.697840
1147.907321,1225.752797,-444.123565,8956.491898
1147.907637,383.047749,-148.041188,9400.615463
1147.907952,383.047749,-1258.350101,10288.862594
1147.908268,995.924147,-962.267725,9696.697840
1147.908584,842.705048,814.226536,9696.697840
1147.908900,612.876398,666.185348,8808.450710
1147.909216,306.438199,-0.000000,9104.533087
1147.909531,459.657299,-148.041188,9696.697840
1147.909847,306.438199,-0.000000,10214.842000
1147.910163,766.095498,296.082377,9474.636058
1147.910479,689.485948,444.123565,9400.615463
1147.910795,689.485948,-222.061783,9474.636058
1147.911111,995.924147,-1036.288319,9474.636058
1147.911426,1072.533697,-222.061783,10214.842000
1147.911742,766.095498,-0.000000,9622.677246
1147.912058,1302.362347,370.102971,9622.677246
1147.912374,2068.457845,962.267725,8882.471304
1147.912690,1378.971896,222.061783,8956.491898
1147.913005,1225.752797,444.123565,9104.533087
1147.913321,1072.533697,-0.000000,9474.636058
1147.913637,1532.190996,-148.041188,9030.512492
1147.913953,1149.143247,592.164754,8734.430116
1147.914269,1072.533697,-0.000000,9030.512492
1147.914584,1378.971896,-666.185348,9474.636058
1147.914900,842.705048,-148.041188,9696.697840
1147.915216,0.000000,-296.082377,10362.883188
1147.915532,536.266849,222.061783,9622.677246
1147.915848,-153.219100,370.102971,8660.409521
1147.916164,-383.047749,-222.061783,9252.574275
1147.916479,0.000000,-518.144159,9548.656652
1147.916795,-383.047749,-1036.288319,9770.718434
1147.917111,-153.219100,-740.205942,9770.718434
1147.917427,0.000000,-296.082377,9548.656652
1147.917743,0.000000,-370.102971,9474.636058
1147.918058,0.000000,-518.144159,8956.491898
1147.918374,-306.438199,-148.041188,9400.615463
1147.918690,0.000000,-888.247130,9992.780217
1147.919006,536.266849,-444.123565,9622.677246
1147.919322,536.266849,-0.000000,9104.533087
1147.919638,306.438199,-592.164754,9400.615463
1147.919953,306.438199,-148.041188,9030.512492
1147.920269,0.000000,-296.082377,8956.491898
1147.920585,459.657299,-518.144159,9770.718434
1147.920901,1072.533697,-666.185348,9844.739029
1147.921217,689.485948,-666.185348,9252.574275
1147.921532,0.000000,-1036.288319,9622.677246
1147.921848,-536.266849,-888.247130,9696.697840
1147.922164,459.657299,-814.226536,10066.800811
1147.922480,995.924147,148.041188,8808.450710
1147.922796,612.876398,740.205942,9178.553681
1147.923111,76.609550,-0.000000,9400.615463
1147.923427,76.609550,-296.082377,9474.636058
1147.923743,0.000000,-888.247130,9844.739029
1147.924059,766.095498,-592.164754,10362.883188
1147.924375,1225.752797,-0.000000,9474.636058
1147.924691,383.047749,370.102971,8882.471304
1147.925006,229.828649,-148.041188,10066.800811
1147.925322,536.266849,-296.082377,9992.780217
1147.925638,612.876398,-0.000000,9548.656652
1147.925954,995.924147,1628.453072,9030.512492
1147.926270,612.876398,1332.370696,8808.450710
1147.926585,1072.533697,-0.000000,9474.636058
1147.926901,919.314598,222.061783,9992.780217
1147.927217,842.705048,-444.123565,9992.780217
1147.927533,1149.143247,296.082377,9770.718434
1147.927849,1225.752797,962.267725,8808.450710
1147.928165,459.657299,148.041188,9104.533087
1147.928480,383.047749,-888.247130,10140.821405
1147.928796,689.485948,-518.144159,10362.883188
1147.929112,766.095498,-0.000000,9474.636058
1147.929428,995.924147,370.102971,9326.594869
1147.929744,842.705048,-0.000000,8956.491898
1147.930059,1072.533697,-0.000000,8956.491898
1147.930375,1302.362347,-148.041188,9918.759623
1147.930691,842.705048,-370.102971,9400.615463
1147.931007,1225.752797,-0.000000,8882.471304
1147.931323,766.095498,222.061783,8660.409521
1147.931638,1455.581446,-370.102971,8438.347739
1147.931954,229.828649,-666.185348,9622.677246
1147.932270,-229.828649,-518.144159,9696.697840
1147.932586,-229.828649,148.041188,9622.677246
1147.932902,153.219100,666.185348,9104.533087
1147.933218,306.438199,-0.000000,9030.512492
1147.933533,-306.438199,-148.041188,9030.512492
1147.933849,-766.095498,-444.123565,9918.759623
1147.934165,-766.095498,-296.082377,10066.800811
1147.934481,-306.438199,-370.102971,9326.594869
1147.934797,-459.657299,-0.000000,9696.697840
1147.935112,-383.047749,-814.226536,9696.697840
1147.935428,-383.047749,-222.061783,9326.594869
1147.935744,-612.876398,-222.061783,9474.636058
1147.936060,76.609550,-222.061783,9474.636058
1147.936376,536.266849,444.123565,8956.491898
1147.936692,383.047749,296.082377,9104.533087
1147.937007,842.705048,148.041188,9104.533087
1147.937323,229.828649,-148.041188,9104.533087
1147.937639,536.266849,-962.267725,10214.842000
1147.937955,919.314598,-148.041188,9178.553681
1147.938271,689.485948,-74.020594,9030.512492
1147.938586,612.876398,-1036.288319,9474.636058
1147.938902,229.828649,-1480.411884,10362.883188
1147.939218,76.609550,-666.185348,10140.821405
1147.939534,612.876398,-518.144159,9548.656652
1147.939850,842.705048,518.144159,9030.512492
1147.940165,766.095498,296.082377,9474.636058
1147.940481,689.485948,-666.185348,9326.594869
1147.940797,0.000000,-148.041188,9474.636058
1147.941113,0.000000,-518.144159,9400.615463
1147.941429,842.705048,-962.267725,10140.821405
1147.941745,612.876398,-740.205942,10066.800811
1147.942060,153.219100,-518.144159,9326.594869
1147.942376,0.000000,-1258.350101,10362.883188
1147.942692,-153.219100,-1406.391290,10955.047942
1147.943008,612.876398,-370.102971,10066.800811
1147.943324,1302.362347,1036.288319,8734.430116
1147.943639,766.095498,592.164754,8956.491898
1147.943955,1302.362347,-148.041188,9548.656652
1147.944271,919.314598,-518.144159,9178.553681
1147.944587,612.876398,-370.102971,9474.636058
1147.944903,1378.971896,222.061783,9474.636058
1147.945219,1378.971896,-814.226536,8956.491898
1147.945534,842.705048,-962.267725,9030.512492
1147.945850,306.438199,-740.205942,9992.780217
1147.946166,612.876398,-962.267725,10066.800811
1147.946482,689.485948,-370.102971,9474.636058
1147.946798,842.705048,444.123565,8882.471304
1147.947113,1225.752797,-0.000000,8808.450710
1147.947429,995.924147,-0.000000,8660.409521
1147.947745,306.438199,222.061783,8956.491898
1147.948061,766.095498,-444.123565,9252.574275
1147.948377,1685.410096,-222.061783,9104.533087
1147.948693,689.485948,592.164754,7994.224174
1147.949008,229.828649,-148.041188,8882.471304
1147.949324,0.000000,-814.226536,9992.780217
1147.949640,-842.705048,-814.226536,9918.759623
1147.949956,229.828649,-0.000000,9622.677246
1147.950272,0.000000,518.144159,8956.491898
1147.950587,0.000000,296.082377,9104.533087
1147.950903,-536.266849,-148.041188,9548.656652
1147.951219,-919.314598,-0.000000,10066.800811
1147.951535,306.438199,-0.000000,9992.780217
1147.951851,153.219100,962.267725,9030.512492
1147.952166,-536.266849,1110.308913,8808.450710
1147.952482,0.000000,-444.123565,9770.718434
1147.952798,229.828649,-666.185348,9696.697840
1147.953114,0.000000,-222.061783,9696.697840
1147.953430,306.438199,-0.000000,9992.780217
1147.953746,995.924147,-0.000000,9622.677246
1147.954061,689.485948,148.041188,8808.450710
1147.954377,766.095498,222.061783,9474.636058
1147.954693,459.657299,-444.123565,9844.739029
1147.955009,536.266849,-814.226536,9548.656652
1147.955325,689.485948,148.041188,9326.594869
1147.955640,689.485948,-740.205942,9030.512492
1147.955956,383.047749,-1332.370696,9696.697840
1147.956272,229.828649,-1702.473667,10140.821405
1147.956588,-229.828649,-1554.432478,10732.986159
1147.956904,459.657299,-814.226536,9622.677246
1147.957220,229.828649,222.061783,9104.533087
1147.957535,612.876398,-518.144159,9400.615463
1147.957851,306.438199,-888.247130,9696.697840
1147.958167,153.219100,-148.041188,9844.739029
1147.958483,306.438199,-222.061783,9918.759623
1147.958799,689.485948,-444.123565,9548.656652
1147.959114,689.485948,-592.164754,8734.430116
1147.959430,0.000000,-370.102971,9326.594869
1147.959746,306.438199,-814.226536,10140.821405
1147.960062,306.438199,-592.164754,9992.780217
1147.960378,1302.362347,666.185348,9622.677246
1147.960693,1149.143247,1036.288319,8512.368333
1147.961009,1225.752797,-74.020594,8882.471304
1147.961325,1072.533697,-518.144159,9104.533087
1147.961641,459.657299,-370.102971,9104.533087
1147.961957,842.705048,-370.102971,9844.739029
1147.962273,1378.971896,-148.041188,9474.636058
1147.962588,459.657299,-296.082377,8512.368333
1147.962904,766.095498,-962.267725,9770.718434
1147.963220,306.438199,-740.205942,9622.677246
1147.963536,536.266849,-740.205942,9770.718434
1147.963852,1378.971896,-814.226536,9400.615463
1147.964167,1455.581446,-0.000000,9252.574275
1147.964483,1225.752797,-0.000000,8882.471304
1147.964799,1225.752797,-0.000000,9104.533087
1147.965115,766.095498,-0.000000,9252.574275
1147.965431,1072.533697,296.082377,9178.553681
1147.965747,1532.190996,962.267725,8438.347739
1147.966062,995.924147,962.267725,8290.306550
1147.966378,306.438199,-370.102971,9178.553681
1147.966694,0.000000,-666.185348,9696.697840
1147.967010,306.438199,-888.247130,10288.862594
1147.967326,689.485948,148.041188,9252.574275
1147.967641,229.828649,592.164754,8956.491898
1147.967957,-229.828649,-0.000000,9474.636058
1147.968273,-612.876398,-148.041188,9474.636058
1147.968589,-919.314598,-888.247130,9548.656652
1147.968905,-842.705048,-148.041188,10140.821405
1147.969220,-229.828649,296.082377,9622.677246
1147.969536,-766.095498,-222.061783,8512.368333
1147.969852,-229.828649,-222.061783,9844.739029
1147.970168,-306.438199,-962.267725,9474.636058
1147.970484,76.609550,-666.185348,9918.759623
1147.970800,383.047749,666.185348,9030.512492
1147.971115,383.047749,444.123565,9030.512492
1147.971431,612.876398,-74.020594,9548.656652
1147.971747,306.438199,-0.000000,9104.533087
1147.972063,383.047749,-370.102971,10066.800811
1147.972379,842.705048,-74.020594,10362.883188
1147.972694,766.095498,666.185348,8808.450710
1147.973010,536.266849,222.061783,8586.388927
1147.973326,153.219100,-666.185348,10066.800811
1147.973642,0.000000,-1184.329507,10214.842000
1147.973958,459.657299,-148.041188,10584.944971
1147.974274,536.266849,666.185348,9400.615463
1147.974589,383.047749,222.061783,9252.574275
1147.974905,536.266849,-296.082377,9770.718434
1147.975221,612.876398,-0.000000,9622.677246
1147.975537,0.000000,-518.144159,10288.862594
1147.975853,919.314598,-0.000000,10140.821405
1147.976168,1302.362347,-0.000000,8734.430116
1147.976484,306.438199,-666.185348,8956.491898
1147.976800,459.657299,-1258.350101,10436.903782
1147.977116,306.438199,-1036.288319,9696.697840
1147.977432,383.047749,-740.205942,9474.636058
1147.977747,995.924147,-148.041188,9844.739029
1147.978063,1072.533697,-0.000000,9104.533087
1147.978379,1072.533697,148.041188,8882.471304
1147.978695,306.438199,-148.041188,8734.430116
1147.979011,995.924147,-592.164754,9844.739029
1147.979327,1378.971896,-370.102971,9474.636058
1147.979642,1072.533697,370.102971,8586.388927
1147.979958,1072.533697,-370.102971,9030.512492
1147.980274,612.876398,-1110.308913,9696.697840
1147.980590,0.000000,-962.267725,9400.615463
1147.980906,536.266849,-444.123565,9918.759623
1147.981221,842.705048,-0.000000,8734.430116
1147.981537,766.095498,-0.000000,8586.388927
1147.981853,306.438199,-444.123565,9474.636058
1147.982169,153.219100,-370.102971,9474.636058
1147.982485,76.609550,-296.082377,9770.718434
1147.982800,383.047749,296.082377,8586.388927
1147.983116,459.657299,518.144159,8586.388927
1147.983432,153.219100,-888.247130,9104.533087
1147.983748,76.609550,-1184.329507,9326.594869
1147.984064,-306.438199,-1110.308913,10288.862594
1147.984379,0.000000,-1036.288319,9992.780217
1147.984695,459.657299,814.226536,8882.471304
1147.985011,229.828649,666.185348,8438.347739
1147.985327,153.219100,148.041188,9326.594869
1147.985643,-459.657299,-148.041188,9548.656652
1147.985958,-229.828649,-370.102971,9548.656652
1147.986274,0.000000,444.123565,8956.491898
1147.986590,-306.438199,222.061783,8808.450710
1147.986906,153.219100,-740.205942,9474.636058
1147.987222,-459.657299,-666.185348,9992.780217
1147.987538,-689.485948,-592.164754,9696.697840
1147.987853,-383.047749,-518.144159,9992.780217
1147.988169,-153.219100,666.185348,9474.636058
1147.988485,153.219100,-0.000000,8882.471304
1147.988801,689.485948,-444.123565,9178.553681
1147.989117,76.609550,-370.102971,9844.739029
1147.989432,459.657299,-962.267725,9992.780217
1147.989748,1072.533697,-222.061783,9252.574275
1147.990064,612.876398,-518.144159,9696.697840
1147.990380,612.876398,-1110.308913,9844.739029
1147.990696,536.266849,-592.164754,10288.862594
1147.991011,612.876398,-0.000000,9844.739029
1147.991327,1302.362347,148.041188,9918.759623
1147.991643,1378.971896,740.205942,8882.471304
1147.991959,1072.533697,444.123565,9474.636058
1147.992275,612.876398,-296.082377,9548.656652
1147.992590,229.828649,-592.164754,10066.800811
1147.992906,612.876398,-518.144159,9844.739029
1147.993222,766.095498,-0.000000,9696.697840
1147.993538,229.828649,-0.000000,9548.656652
1147.993854,919.314598,-666.185348,9696.697840
1147.994169,536.266849,-518.144159,9696.697840
1147.994485,-459.657299,-888.247130,10510.924376
1147.994801,383.047749,-666.185348,10140.821405
1147.995117,766.095498,518.144159,8734.430116
1147.995433,76.609550,222.061783,9548.656652
1147.995749,1378.971896,-222.061783,9992.780217
1147.996064,689.485948,-0.000000,8882.471304
1147.996380,612.876398,-222.061783,9252.574275
1147.996696,1378.971896,518.144159,9474.636058
1147.997012,995.924147,-444.123565,9400.615463
1147.997328,1149.143247,-296.082377,9844.739029
1147.997643,689.485948,-518.144159,9548.656652
1147.997959,1149.143247,-592.164754,9770.718434
1147.998275,1762.019645,444.123565,9104.533087
1147.998591,1378.971896,1110.308913,8364.327145
1147.998907,1685.410096,592.164754,8956.491898
1147.999222,919.314598,-0.000000,8808.450710
1147.999538,459.657299,-0.000000,8882.471304
1147.999854,842.705048,-444.123565,9696.697840
1148.000170,1072.533697,296.082377,8882.471304
1148.000486,229.828649,888.247130,8512.368333
1148.000801,-229.828649,-1184.329507,9918.759623
1148.001117,0.000000,-740.205942,9992.780217
1148.001433,-689.485948,-888.247130,9992.780217
1148.001749,0.000000,-0.000000,9622.677246
1148.002065,229.828649,296.082377,9326.594869
1148.002380,-153.219100,-148.041188,8956.491898
1148.002696,-306.438199,-592.164754,9326.594869
1148.003012,-306.438199,-370.102971,10140.821405
1148.003328,229.828649,-222.061783,9696.697840
1148.003644,689.485948,222.061783,8512.368333
1148.003960,-229.828649,370.102971,8956.491898
1148.004275,306.438199,-222.061783,9548.656652
1148.004591,0.000000,-222.061783,9178.553681
1148.004907,-383.047749,-148.041188,9770.718434
1148.005223,459.657299,-296.082377,10510.924376
1148.005539,536.266849,-0.000000,9326.594869
1148.005854,153.219100,-74.020594,9252.574275
1148.006170,76.609550,-222.061783,9770.718434
1148.006486,0.000000,-518.144159,10214.842000
1148.006802,766.095498,-222.061783,9918.759623
1148.007118,766.095498,444.123565,9030.512492
1148.007433,229.828649,-592.164754,9474.636058
1148.007749,383.047749,-1702.473667,10140.821405
1148.008065,0.000000,-1184.329507,10362.883188
1148.008381,153.219100,-962.267725,10066.800811
1148.008697,612.876398,148.041188,9326.594869
1148.009012,842.705048,962.267725,8512.368333
1148.009328,536.266849,-0.000000,9770.718434
1148.009644,306.438199,148.041188,9622.677246
1148.009960,153.219100,-518.144159,9844.739029
1148.010276,0.000000,-1184.329507,9992.780217
1148.010592,306.438199,-0.000000,10066.800811
1148.010907,0.000000,-370.102971,9104.533087
1148.011223,153.219100,-740.205942,9844.739029
1148.011539,-919.314598,-444.123565,9918.759623
1148.011855,0.000000,-592.164754,10362.883188
1148.012171,842.705048,444.123565,9474.636058
1148.012486,919.314598,814.226536,8142.265362
1148.012802,766.095498,-444.123565,9178.553681
1148.013118,842.705048,-814.226536,9770.718434
1148.013434,459.657299,-370.102971,9696.697840
1148.013750,1532.190996,-296.082377,9326.594869
1148.014065,1378.971896,814.226536,8734.430116
1148.014381,1149.143247,148.041188,8734.430116
1148.014697,1072.533697,-74.020594,9400.615463
1148.015013,612.876398,-0.000000,9474.636058
1148.015329,536.266849,-0.000000,9326.594869
1148.015644,995.924147,444.123565,9178.553681
1148.015960,842.705048,-296.082377,9178.553681
1148.016276,536.266849,-740.205942,9622.677246
1148.016592,306.438199,-148.041188,9474.636058
1148.016908,229.828649,-370.102971,9474.636058
1148.017223,766.095498,-148.041188,9622.677246
1148.017539,842.705048,666.185348,8660.409521
1148.017855,612.876398,296.082377,8586.388927
1148.018171,612.876398,-296.082377,9400.615463
1148.018487,76.609550,-444.123565,9548.656652
1148.018803,383.047749,-0.000000,9696.697840
1148.019118,1072.533697,1110.308913,9252.574275
1148.019434,229.828649,1258.350101,8438.347739
1148.019750,0.000000,296.082377,9474.636058
1148.020066,0.000000,296.082377,8956.491898
1148.020382,0.000000,-814.226536,10362.883188
1148.020697,-306.438199,-0.000000,9622.677246
1148.021013,0.000000,740.205942,9770.718434
1148.021329,-459.657299,-370.102971,9400.615463
1148.021645,-383.047749,-592.164754,10584.944971
1148.021961,-459.657299,-370.102971,10066.800811
1148.022276,229.828649,-74.020594,9548.656652
1148.022592,995.924147,-0.000000,8808.450710
1148.022908,229.828649,-0.000000,9770.718434
1148.023224,536.266849,-888.247130,10288.862594
1148.023540,76.609550,-518.144159,9622.677246
1148.023855,0.000000,-666.185348,9918.759623
1148.024171,1072.533697,-222.061783,10140.821405
1148.024487,689.485948,370.102971,8808.450710
1148.024803,306.438199,-296.082377,9400.615463
1148.025119,612.876398,-888.247130,10510.924376
1148.025434,153.219100,-740.205942,9918.759623
1148.025750,383.047749,-962.267725,9696.697840
1148.026066,1072.533697,444.123565,9326.594869
1148.026382,1072.533697,-0.000000,8808.450710
1148.026698,842.705048,-888.247130,9474.636058
1148.027014,229.828649,-814.226536,9622.677246
1148.027329,536.266849,-666.185348,10362.883188
1148.027645,1149.143247,-740.205942,9548.656652
1148.027961,612.876398,-148.041188,9326.594869
1148.028277,153.219100,-814.226536,9548.656652
1148.028593,766.095498,-740.205942,9622.677246
1148.028908,383.047749,-444.123565,9918.759623
1148.029224,383.047749,-370.102971,10140.821405
1148.029540,1149.143247,222.061783,9104.533087
1148.029856,536.266849,-222.061783,8586.388927
1148.030172,536.266849,-962.267725,9400.615463
1148.030487,306.438199,-962.267725,9770.718434
1148.030803,612.876398,-962.267725,9844.739029
1148.031119,766.095498,-296.082377,9326.594869
1148.031435,919.314598,-148.041188,9030.512492
1148.031751,995.924147,-666.185348,8808.450710
1148.032066,689.485948,-148.041188,8956.491898
1148.032382,306.438199,-0.000000,8956.491898
1148.032698,1302.362347,148.041188,8734.430116
1148.033014,1455.581446,444.123565,8808.450710
1148.033330,995.924147,-296.082377,8882.471304
1148.033645,689.485948,-592.164754,9474.636058
1148.033961,536.266849,-518.144159,9474.636058
1148.034277,306.438199,-296.082377,8956.491898
1148.034593,766.095498,444.123565,9326.594869
1148.034909,383.047749,74.020594,8586.388927
1148.035225,306.438199,-148.041188,8882.471304
1148.035540,-153.219100,-296.082377,9548.656652
1148.035856,-689.485948,-444.123565,9474.636058
1148.036172,76.609550,-222.061783,9252.574275
1148.036488,383.047749,888.247130,9622.677246
1148.036804,-536.266849,-0.000000,9030.512492
1148.037119,0.000000,-370.102971,9178.553681
1148.037435,0.000000,-296.082377,9474.636058
1148.037751,229.828649,-518.144159,9696.697840
1148.038067,766.095498,592.164754,10214.842000
1148.038383,536.266849,962.267725,8512.368333
1148.038698,76.609550,-0.000000,9474.636058
1148.039014,153.219100,-0.000000,10288.862594
1148.039330,76.609550,-0.000000,9326.594869
1148.039646,459.657299,370.102971,9474.636058
1148.039962,689.485948,-0.000000,9622.677246
1148.040277,383.047749,-592.164754,9622.677246
1148.040593,229.828649,-814.226536,10436.903782
1148.040909,-153.219100,-666.185348,9918.759623
1148.041225,0.000000,-518.144159,9918.759623
1148.041541,766.095498,-74.020594,9918.759623
1148.041857,-153.219100,222.061783,9474.636058
1148.042172,0.000000,-370.102971,10214.842000
1148.042488,0.000000,-370.102971,10066.800811
1148.042804,-229.828649,-444.123565,10140.821405
1148.043120,229.828649,148.041188,9252.574275
1148.043436,612.876398,518.144159,9326.594869
1148.043751,153.219100,222.061783,8956.491898
1148.044067,229.828649,-74.020594,9622.677246
1148.044383,-306.438199,-222.061783,9844.739029
1148.044699,-306.438199,-740.205942,9992.780217
1148.045015,0.000000,-592.164754,10214.842000
1148.045330,-383.047749,-814.226536,9992.780217
1148.045646,-306.438199,-814.226536,10658.965565
1148.045962,-306.438199,-0.000000,9696.697840
1148.046278,76.609550,-0.000000,9474.636058
1148.046594,842.705048,222.061783,9474.636058
1148.046909,766.095498,888.247130,8734.430116
1148.047225,306.438199,-0.000000,9252.574275
1148.047541,536.266849,-740.205942,9918.759623
1148.047857,612.876398,-370.102971,9622.677246
1148.048173,459.657299,-518.144159,9770.718434
1148.048488,1072.533697,370.102971,9178.553681
1148.048804,919.314598,-222.061783,9104.533087
1148.049120,1225.752797,-296.082377,9770.718434
1148.049436,995.924147,-0.000000,9252.574275
1148.049752,1149.143247,-148.041188,8882.471304
1148.050068,1991.848295,-0.000000,9474.636058
1148.050383,1225.752797,296.082377,8660.409521
1148.050699,689.485948,-148.041188,9030.512492
1148.051015,1149.143247,-740.205942,9474.636058
1148.051331,153.219100,-0.000000,9326.594869
1148.051647,383.047749,296.082377,9326.594869
1148.051962,689.485948,296.082377,8364.327145
1148.052278,229.828649,-0.000000,9326.594869
1148.052594,0.000000,-814.226536,9696.697840
1148.052910,-229.828649,-740.205942,9474.636058
1148.053226,459.657299,-666.185348,9918.759623
1148.053541,0.000000,-148.041188,9474.636058
1148.053857,229.828649,296.082377,8512.368333
1148.054173,-383.047749,-222.061783,9030.512492
1148.054489,0.000000,-444.123565,9770.718434
1148.054805,153.219100,-222.061783,9622.677246
1148.055120,229.828649,148.041188,8882.471304
1148.055436,229.828649,666.185348,8660.409521
1148.055752,459.657299,-148.041188,9622.677246
1148.056068,689.485948,-0.000000,9178.553681
1148.056384,-229.828649,-148.041188,9178.553681
1148.056699,0.000000,-370.102971,10510.924376
1148.057015,995.924147,-370.102971,9622.677246
1148.057331,459.657299,-0.000000,9030.512492
1148.057647,383.047749,-740.205942,10066.800811
1148.057963,229.828649,-444.123565,9992.780217
1148.058279,0.000000,-148.041188,9474.636058
1148.058594,842.705048,-0.000000,9918.759623
1148.058910,1072.533697,592.164754,9992.780217
1148.059226,383.047749,-296.082377,9178.553681
1148.059542,383.047749,-518.144159,9326.594869
1148.059858,0.000000,-592.164754,10066.800811
1148.060173,995.924147,-888.247130,10510.924376
1148.060489,689.485948,-370.102971,9548.656652
1148.060805,459.657299,-148.041188,9548.656652
1148.061121,459.657299,-1036.288319,9252.574275
1148.061437,306.438199,-148.041188,9622.677246
1148.061752,-229.828649,-0.000000,9696.697840
1148.062068,459.657299,-370.102971,9770.718434
1148.062384,689.485948,-0.000000,9696.697840
1148.062700,536.266849,-518.144159,9918.759623
1148.063016,229.828649,-1184.329507,10288.862594
1148.063331,0.000000,-740.205942,9844.739029
1148.063647,229.828649,-444.123565,9844.739029
1148.063963,689.485948,-0.000000,9474.636058
1148.064279,383.047749,518.144159,9104.533087
1148.064595,383.047749,-74.020594,9622.677246
1148.064910,306.438199,444.123565,9474.636058
1148.065226,229.828649,-296.082377,9252.574275
1148.065542,919.314598,-0.000000,9400.615463
1148.065858,995.924147,888.247130,9030.512492
1148.066174,995.924147,-148.041188,8660.409521
1148.066490,306.438199,-592.164754,9622.677246
1148.066805,306.438199,-296.082377,9770.718434
1148.067121,383.047749,-222.061783,9030.512492
1148.067437,766.095498,740.205942,8882.471304
1148.067753,612.876398,296.082377,9326.594869
1148.068069,612.876398,-814.226536,9622.677246
1148.068384,383.047749,-444.123565,9696.697840
1148.068700,229.828649,-74.020594,9400.615463
1148.069016,1149.143247,222.061783,8586.388927
1148.069332,919.314598,740.205942,8068.244768
1148.069648,383.047749,-0.000000,8734.430116
1148.069963,995.924147,-296.082377,10066.800811
1148.070279,0.000000,-148.041188,8956.491898
1148.070595,229.828649,-592.164754,10140.821405
1148.070911,919.314598,370.102971,9474.636058
1148.071227,0.000000,370.102971,8364.327145
1148.071542,76.609550,-444.123565,9770.718434
1148.071858,0.000000,-444.123565,9252.574275
1148.072174,153.219100,-370.102971,9770.718434
1148.072490,536.266849,888.247130,9178.553681
1148.072806,383.047749,666.185348,8956.491898
1148.073122,0.000000,-888.247130,9548.656652
1148.073437,459.657299,-370.102971,9844.739029
1148.073753,0.000000,-0.000000,9770.718434
1148.074069,689.485948,-148.041188,9770.718434
1148.074385,919.314598,1036.288319,9178.553681
1148.074701,842.705048,-0.000000,8956.491898
1148.075016,689.485948,-296.082377,9548.656652
1148.075332,536.266849,-592.164754,9770.718434
1148.075648,153.219100,-740.205942,10066.800811
1148.075964,306.438199,-518.144159,10288.862594
1148.076279,1225.752797,-444.123565,9770.718434
1148.076595,459.657299,-888.247130,9770.718434
1148.076911,612.876398,-1036.288319,9548.656652
1148.077227,0.000000,-962.267725,9992.780217
1148.077543,459.657299,-444.123565,10066.800811
1148.077858,459.657299,-296.082377,10214.842000
1148.078174,766.095498,-0.000000,9030.512492
1148.078490,306.438199,222.061783,9696.697840
1148.078806,536.266849,-592.164754,9104.533087
1148.079122,842.705048,-814.226536,9474.636058
1148.079437,919.314598,-74.020594,9622.677246
1148.079753,536.266849,-222.061783,9844.739029
1148.080069,766.095498,-888.247130,10214.842000
1148.080385,-383.047749,-814.226536,9548.656652
1148.080700,-153.219100,-518.144159,9696.697840
1148.081016,995.924147,-296.082377,10140.821405
1148.081332,612.876398,962.267725,9326.594869
1148.081648,0.000000,518.144159,8734.430116
1148.081964,383.047749,-518.144159,9474.636058
1148.082279,0.000000,-444.123565,10140.821405
1148.082595,229.828649,-1110.308913,9622.677246
1148.082911,1072.533697,666.185348,9030.512492
1148.083227,689.485948,-370.102971,8808.450710
1148.083543,76.609550,-518.144159,9696.697840
1148.083858,383.047749,-296.082377,9696.697840
1148.084174,612.876398,-370.102971,9178.553681
1148.084490,1149.143247,148.041188,9400.615463
1148.084806,536.266849,888.247130,8364.327145
1148.085121,995.924147,-222.061783,9178.553681
1148.085437,689.485948,-740.205942,9326.594869
1148.085753,76.609550,-222.061783,8660.409521
1148.086069,919.314598,-296.082377,9474.636058
1148.086385,1225.752797,-74.020594,8660.409521
1148.086700,612.876398,-148.041188,8586.388927
1148.087016,229.828649,-148.041188,9104.533087
1148.087332,0.000000,-370.102971,9400.615463
1148.087648,-536.266849,-666.185348,9326.594869
1148.087964,76.609550,296.082377,9252.574275
1148.088279,153.219100,370.102971,8734.430116
1148.088595,-229.828649,-148.041188,9252.574275
1148.088911,0.000000,-592.164754,9844.739029
1148.089227,-153.219100,-444.123565,9326.594869
1148.089543,-229.828649,-0.000000,9474.636058
1148.089858,153.219100,518.144159,9474.636058
1148.090174,76.609550,74.020594,8882.471304
1148.090490,0.000000,-518.144159,9770.718434
1148.090806,-306.438199,-222.061783,9918.759623
1148.091121,153.219100,-370.102971,9696.697840
1148.091437,766.095498,444.123565,9400.615463
1148.091753,766.095498,1110.308913,8956.491898
1148.092069,842.705048,444.123565,9252.574275
1148.092385,1455.581446,-0.000000,9178.553681
1148.092700,842.705048,-444.123565,9622.677246
1148.093016,536.266849,-666.185348,9992.780217
1148.093332,1532.190996,-444.123565,9474.636058
1148.093648,689.485948,-592.164754,9400.615463
1148.093964,153.219100,-1406.391290,9918.759623
1148.094279,306.438199,-444.123565,10658.965565
1148.094595,689.485948,-296.082377,9622.677246
1148.094911,1225.752797,148.041188,9252.574275
1148.095227,995.924147,148.041188,9696.697840
1148.095542,459.657299,-370.102971,9400.615463
1148.095858,612.876398,-592.164754,9400.615463
1148.096174,306.438199,-814.226536,10066.800811
1148.096490,842.705048,-1480.411884,10510.924376
1148.096806,766.095498,-592.164754,9696.697840
1148.097121,76.609550,-444.123565,9474.636058
1148.097437,229.828649,-518.144159,10066.800811
1148.097753,76.609550,-0.000000,9696.697840
1148.098069,612.876398,-0.000000,9622.677246
1148.098385,1225.752797,444.123565,9696.697840
1148.098700,995.924147,814.226536,9474.636058
1148.099016,919.314598,-296.082377,9548.656652
1148.099332,612.876398,-74.020594,9326.594869
1148.099648,842.705048,-222.061783,9622.677246
1148.099963,766.095498,-296.082377,9474.636058
1148.100279,1072.533697,740.205942,8882.471304
1148.100595,383.047749,-222.061783,9326.594869
1148.100911,536.266849,-888.247130,9770.718434
1148.101227,229.828649,-1258.350101,9696.697840
1148.101542,919.314598,-592.164754,9992.780217
1148.101858,1149.143247,-74.020594,9252.574275
1148.102174,995.924147,888.247130,8216.285956
1148.102490,1072.533697,-296.082377,8512.368333
1148.102806,612.876398,-962.267725,10214.842000
1148.103121,76.609550,-888.247130,9474.636058
1148.103437,612.876398,-0.000000,9474.636058
1148.103753,536.266849,592.164754,8290.306550
1148.104069,383.047749,-888.247130,8660.409521
1148.104385,0.000000,-740.205942,9548.656652
1148.104700,-536.266849,-1036.288319,9770.718434
1148.105016,-383.047749,-666.185348,9252.574275
1148.105332,0.000000,296.082377,8882.471304
1148.105648,0.000000,518.144159,9030.512492
1148.105963,76.609550,-370.102971,9252.574275
1148.106279,-229.828649,222.061783,9178.553681
1148.106595,-306.438199,-0.000000,9400.615463
1148.106911,0.000000,-370.102971,9992.780217
1148.107227,0.000000,296.082377,9326.594869
1148.107542,-306.438199,-0.000000,8734.430116
1148.107858,0.000000,-0.000000,9992.780217
1148.108174,-766.095498,-222.061783,9844.739029
1148.108490,76.609550,-296.082377,9474.636058
1148.108806,766.095498,962.267725,9474.636058
1148.109121,76.609550,-0.000000,9252.574275
1148.109437,0.000000,-518.144159,9400.615463
1148.109753,0.000000,-666.185348,9844.739029
1148.110069,0.000000,-888.247130,9696.697840
1148.110384,612.876398,-888.247130,10066.800811
1148.110700,842.705048,222.061783,9622.677246
1148.111016,689.485948,-740.205942,9474.636058
1148.111332,919.314598,-1110.308913,9918.759623
1148.111648,536.266849,-666.185348,9474.636058
1148.111963,1455.581446,-592.164754,9992.780217
1148.112279,1838.629195,-148.041188,9548.656652
1148.112595,1149.143247,444.123565,7920.203579
1148.112911,1302.362347,-0.000000,9992.780217
1148.113227,1072.533697,-74.020594,9474.636058
1148.113542,766.095498,-296.082377,9474.636058
1148.113858,1532.190996,444.123565,9474.636058
1148.114174,766.095498,-370.102971,9474.636058
1148.114490,459.657299,-1258.350101,9844.739029
1148.114805,459.657299,-1258.350101,10807.006753
1148.115121,76.609550,-740.205942,10436.903782
1148.115437,842.705048,-222.061783,10140.821405
1148.115753,919.314598,1258.350101,9400.615463
1148.116069,306.438199,370.102971,9104.533087
1148.116384,689.485948,444.123565,9918.759623
1148.116700,536.266849,-148.041188,10362.883188
1148.117016,612.876398,-222.061783,9252.574275
1148.117332,1378.971896,-74.020594,9696.697840
1148.117648,1378.971896,148.041188,9030.512492
1148.117963,995.924147,-814.226536,10066.800811
1148.118279,842.705048,-296.082377,9474.636058
1148.118595,612.876398,-0.000000,9104.533087
1148.118911,1455.581446,-444.123565,9696.697840
1148.119227,1455.581446,444.123565,9474.636058
1148.119542,766.095498,-0.000000,9030.512492
1148.119858,766.095498,-666.185348,9104.533087
1148.120174,153.219100,148.041188,9326.594869
1148.120490,536.266849,-0.000000,8660.409521
1148.120805,919.314598,-0.000000,8364.327145
1148.121121,-229.828649,222.061783,9030.512492
1148.121437,-536.266849,-1850.514855,9992.780217
1148.121753,-689.485948,-1924.535449,9696.697840
1148.122069,-1378.971896,-1110.308913,10140.821405
1148.122384,-612.876398,-666.185348,10140.821405
1148.122700,-306.438199,592.164754,8882.471304
1148.123016,-1072.533697,370.102971,8438.347739
1148.123332,-536.266849,-74.020594,9918.759623
1148.123648,-842.705048,370.102971,9178.553681
1148.123963,-766.095498,-0.000000,8734.430116
1148.124279,76.609550,222.061783,9548.656652
1148.124595,-229.828649,-0.000000,9104.533087
1148.124911,-536.266849,-148.041188,9474.636058
1148.125226,0.000000,-0.000000,9844.739029
1148.125542,-459.657299,-296.082377,9326.594869
1148.125858,0.000000,444.123565,9844.739029
1148.126174,153.219100,1184.329507,9104.533087
1148.126490,153.219100,518.144159,9252.574275
1148.126805,383.047749,148.041188,10288.862594
1148.127121,153.219100,-0.000000,8882.471304
1148.127437,536.266849,-74.020594,9326.594869
1148.127753,612.876398,-370.102971,9992.780217
1148.128069,153.219100,-592.164754,8734.430116
1148.128384,-459.657299,-962.267725,9992.780217
1148.128700,-153.219100,-1406.391290,10881.027347
1148.129016,0.000000,-888.247130,9622.677246
1148.129332,766.095498,-0.000000,9326.594869
1148.129647,1225.752797,296.082377,9474.636058
1148.129963,766.095498,-148.041188,9326.594869
1148.130279,1378.971896,-296.082377,9474.636058
1148.130595,612.876398,296.082377,9178.553681
1148.130911,689.485948,-888.247130,10066.800811
1148.131226,1378.971896,-148.041188,9992.780217
1148.131542,612.876398,370.102971,9400.615463
1148.131858,842.705048,-592.164754,9548.656652
1148.132174,612.876398,-740.205942,10214.842000
1148.132490,306.438199,-444.123565,9622.677246
1148.132805,1378.971896,-518.144159,10140.821405
1148.133121,1455.581446,296.082377,9326.594869
1148.133437,766.095498,296.082377,9252.574275
1148.133753,1149.143247,-222.061783,9918.759623
1148.134069,1072.533697,-148.041188,9400.615463
1148.134384,1225.752797,-0.000000,9104.533087
1148.134700,1455.581446,888.247130,9326.594869
1148.135016,1072.533697,-0.000000,9030.512492
1148.135332,919.314598,-592.164754,9400.615463
1148.135647,383.047749,-74.020594,9178.553681
1148.135963,919.314598,-370.102971,9326.594869
1148.136279,1608.800546,-296.082377,9622.677246
1148.136595,842.705048,666.185348,9030.512492
1148.136911,1149.143247,-0.000000,9326.594869
1148.137226,919.314598,-444.123565,9030.512492
1148.137542,229.828649,-444.123565,9400.615463
1148.137858,536.266849,-148.041188,9548.656652
1148.138174,1685.410096,-0.000000,9178.553681
1148.138490,536.266849,296.082377,8512.368333
1148.138805,229.828649,-0.000000,9326.594869
1148.139121,76.609550,-444.123565,9474.636058
1148.139437,306.438199,-148.041188,9770.718434
1148.139753,383.047749,296.082377,9178.553681
1148.140068,229.828649,148.041188,9178.553681
1148.140384,76.609550,-666.185348,9252.574275
1148.140700,-383.047749,-518.144159,9474.636058
1148.141016,-229.828649,-888.247130,9918.759623
1148.141332,76.609550,-518.144159,9474.636058
1148.141647,-153.219100,518.144159,9178.553681
1148.141963,-459.657299,592.164754,8956.491898
1148.142279,-536.266849,-814.226536,9696.697840
1148.142595,-1072.533697,-1036.288319,9918.759623
1148.142911,-229.828649,-444.123565,10214.842000
1148.143226,229.828649,-0.000000,9104.533087
1148.143542,0.000000,-0.000000,9326.594869
1148.143858,-383.047749,-666.185348,9400.615463
1148.144174,0.000000,-222.061783,9548.656652
1148.144489,0.000000,-296.082377,9770.718434
1148.144805,76.609550,-518.144159,9474.636058
1148.145121,536.266849,148.041188,9474.636058
1148.145437,306.438199,-740.205942,9474.636058
1148.145753,-229.828649,-1184.329507,10066.800811
1148.146068,-229.828649,-666.185348,9770.718434
1148.146384,153.219100,-1110.308913,9918.759623
1148.146700,383.047749,-0.000000,9770.718434
1148.147016,306.438199,666.185348,10066.800811
1148.147332,229.828649,148.041188,8586.388927
1148.147647,459.657299,-518.144159,9474.636058
1148.147963,-306.438199,-444.123565,9918.759623
1148.148279,1072.533697,-296.082377,10140.821405
1148.148595,689.485948,-222.061783,9252.574275
1148.148911,689.485948,-518.144159,9474.636058
1148.149226,76.609550,-444.123565,9770.718434
1148.149542,612.876398,-222.061783,9104.533087
1148.149858,612.876398,-296.082377,9696.697840
1148.150174,842.705048,-0.000000,9696.697840
1148.150489,766.095498,370.102971,9474.636058
1148.150805,612.876398,-222.061783,9178.553681
1148.151121,536.266849,-74.020594,10066.800811
1148.151437,919.314598,-222.061783,9474.636058
1148.151753,612.876398,148.041188,9252.574275
1148.152068,1072.533697,666.185348,9474.636058
1148.152384,919.314598,-74.020594,9474.636058
1148.152700,1455.581446,-740.205942,9918.759623
1148.153016,842.705048,222.061783,9252.574275
1148.153332,919.314598,-74.020594,9252.574275
1148.153647,1991.848295,370.102971,9030.512492
1148.153963,1378.971896,222.061783,8882.471304
1148.154279,1149.143247,-370.102971,9178.553681
1148.154595,842.705048,-74.020594,9622.677246
1148.154910,76.609550,-296.082377,9326.594869
1148.155226,1072.533697,370.102971,9178.553681
1148.155542,995.924147,1036.288319,8882.471304
1148.155858,383.047749,-0.000000,8512.368333
1148.156174,383.047749,-370.102971,9622.677246
1148.156489,0.000000,-592.164754,9326.594869
1148.156805,76.609550,-1184.329507,9992.780217
1148.157121,0.000000,-0.000000,9326.594869
1148.157437,0.000000,-0.000000,9326.594869
1148.157753,0.000000,-222.061783,9696.697840
1148.158068,-229.828649,-0.000000,9696.697840
1148.158384,-306.438199,-74.020594,9400.615463
1148.158700,383.047749,370.102971,9474.636058
1148.159016,0.000000,-0.000000,9474.636058
1148.159331,612.876398,-0.000000,8660.409521
1148.159647,0.000000,-222.061783,9622.677246
1148.159963,0.000000,-370.102971,9622.677246
1148.160279,612.876398,-0.000000,10140.821405
1148.160595,689.485948,888.247130,8734.430116
1148.160910,0.000000,370.102971,9030.512492
1148.161226,153.219100,-1036.288319,10362.883188
1148.161542,76.609550,-740.205942,10214.842000
1148.161858,-229.828649,-0.000000,9474.636058
1148.162174,459.657299,-740.205942,10140.821405
1148.162489,229.828649,-0.000000,10140.821405
1148.162805,306.438199,-370.102971,8808.450710
1148.163121,0.000000,-740.205942,10140.821405
1148.163437,0.000000,-444.123565,10807.006753
1148.163753,766.095498,-370.102971,9844.739029
1148.164068,995.924147,814.226536,8512.368333
1148.164384,612.876398,296.082377,9104.533087
1148.164700,1225.752797,-222.061783,9696.697840
1148.165016,612.876398,-0.000000,8956.491898
1148.165331,612.876398,-592.164754,9104.533087
1148.165647,1225.752797,-888.247130,10362.883188
1148.165963,383.047749,-592.164754,9252.574275
1148.166279,459.657299,-592.164754,9326.594869
1148.166595,383.047749,-814.226536,10066.800811
1148.166910,76.609550,-666.185348,9918.759623
1148.167226,229.828649,-148.041188,9326.594869
1148.167542,306.438199,296.082377,9474.636058
1148.167858,459.657299,-1110.308913,9474.636058
1148.168174,0.000000,-370.102971,9548.656652
1148.168489,229.828649,-592.164754,9844.739029
1148.168805,612.876398,-370.102971,8808.450710
1148.169121,842.705048,296.082377,9104.533087
1148.169437,689.485948,296.082377,9252.574275
1148.169752,612.876398,-888.247130,9696.697840
1148.170068,536.266849,-222.061783,9326.594869
1148.170384,536.266849,-444.123565,9252.574275
1148.170700,1455.581446,-148.041188,9548.656652
1148.171016,1608.800546,-0.000000,9252.574275
1148.171331,1072.533697,444.123565,8586.388927
1148.171647,1072.533697,296.082377,9252.574275
1148.171963,995.924147,444.123565,8882.471304
1148.172279,1149.143247,-74.020594,9474.636058
1148.172595,919.314598,444.123565,8808.450710
1148.172910,536.266849,-0.000000,9104.533087
1148.173226,459.657299,-0.000000,8660.409521
1148.173542,-383.047749,-148.041188,9178.553681
1148.173858,-153.219100,-1184.329507,10288.862594
1148.174173,153.219100,-592.164754,9696.697840
1148.174489,0.000000,518.144159,9474.636058
1148.174805,-612.876398,-74.020594,9474.636058
1148.175121,-612.876398,-962.267725,9696.697840
1148.175437,-842.705048,-296.082377,9696.697840
1148.175752,-229.828649,222.061783,9696.697840
1148.176068,459.657299,370.102971,9696.697840
1148.176384,229.828649,296.082377,8808.450710
1148.176699,0.000000,-222.061783,9104.533087
1148.177015,153.219100,-444.123565,9474.636058
1148.177331,383.047749,-666.185348,9622.677246
1148.177646,689.485948,-0.000000,9622.677246
1148.177962,459.657299,592.164754,9474.636058
1148.178278,306.438199,-74.020594,9252.574275
1148.178593,459.657299,-222.061783,9770.718434
1148.178909,229.828649,-666.185348,9252.574275
1148.179225,536.266849,-740.205942,10066.800811
1148.179541,766.095498,-0.000000,9474.636058
1148.179856,536.266849,-0.000000,9474.636058
1148.180172,766.095498,-814.226536,9548.656652
1148.180488,536.266849,-370.102971,9548.656652
1148.180803,689.485948,-148.041188,9844.739029
1148.181119,612.876398,-0.000000,9474.636058
1148.181435,689.485948,-0.000000,8956.491898
1148.181750,459.657299,-370.102971,9252.574275
1148.182066,153.219100,-444.123565,9696.697840
1148.182382,76.609550,-370.102971,9770.718434
1148.182697,995.924147,-962.267725,9918.759623
1148.183013,612.876398,-0.000000,9918.759623
1148.183329,0.000000,-296.082377,8956.491898
1148.183645,766.095498,-1110.308913,9474.636058
1148.183960,612.876398,-444.123565,9844.739029
1148.184276,459.657299,-148.041188,9770.718434
1148.184592,766.095498,-148.041188,9474.636058
1148.184907,842.705048,740.205942,9030.512492
1148.185223,1149.143247,-0.000000,9326.594869
1148.185539,842.705048,-222.061783,9252.574275
1148.185854,689.485948,-0.000000,9622.677246
1148.186170,612.876398,-444.123565,9992.780217
1148.186486,995.924147,-518.144159,10140.821405
1148.186801,612.876398,-592.164754,9104.533087
1148.187117,612.876398,-666.185348,9844.739029
1148.187433,459.657299,-740.205942,10214.842000
1148.187749,842.705048,-740.205942,9696.697840
1148.188064,1225.752797,296.082377,9548.656652
1148.188380,1072.533697,-0.000000,8882.471304
1148.188696,1149.143247,-148.041188,9326.594869
1148.189011,1072.533697,-444.123565,9252.574275
1148.189327,612.876398,-148.041188,9326.594869
1148.189643,1455.581446,-148.041188,9474.636058
1148.189958,1455.581446,148.041188,8586.388927
1148.190274,1149.143247,888.247130,8142.265362
1148.190590,842.705048,-74.020594,8956.491898
1148.190905,229.828649,-666.185348,8956.491898
1148.191221,229.828649,-370.102971,9400.615463
1148.191537,306.438199,-148.041188,9400.615463
1148.191853,0.000000,-0.000000,9326.594869
1148.192168,-229.828649,-518.144159,9178.553681
1148.192484,-995.924147,-222.061783,9030.512492
1148.192800,-766.095498,-592.164754,9844.739029
1148.193115,-383.047749,-962.267725,9400.615463
1148.193431,-459.657299,-148.041188,9178.553681
1148.193747,-919.314598,-666.185348,9844.739029
1148.194062,-1072.533697,-962.267725,10140.821405
1148.194378,-459.657299,-444.123565,9918.759623
1148.194694,0.000000,-74.020594,9252.574275
1148.195009,0.000000,666.185348,8882.471304
1148.195325,306.438199,-0.000000,9326.594869
1148.195641,459.657299,-370.102971,9030.512492
1148.195957,76.609550,-444.123565,9400.615463
1148.196272,0.000000,-148.041188,9992.780217
1148.196588,1149.143247,-74.020594,9178.553681
1148.196904,536.266849,444.123565,8438.347739
1148.197219,459.657299,-370.102971,10362.883188
1148.197535,383.047749,-1110.308913,10436.903782
1148.197851,-229.828649,-518.144159,9918.759623
1148.198166,153.219100,-444.123565,9696.697840
1148.198482,842.705048,-222.061783,9696.697840
1148.198798,919.314598,-222.061783,9252.574275
1148.199114,153.219100,-222.061783,9696.697840
1148.199429,306.438199,-888.247130,10436.903782
1148.199745,459.657299,-296.082377,9918.759623
1148.200061,689.485948,-0.000000,9474.636058
1148.200376,306.438199,-0.000000,9326.594869
1148.200692,766.095498,-370.102971,9918.759623
1148.201008,612.876398,-740.205942,10732.986159
1148.201323,536.266849,-222.061783,10362.883188
1148.201639,689.485948,-148.041188,9844.739029
1148.201955,1302.362347,1036.288319,9400.615463
1148.202270,1378.971896,296.082377,8808.450710
1148.202586,1072.533697,-0.000000,9252.574275
1148.202902,919.314598,592.164754,10584.944971
1148.203218,1149.143247,296.082377,9474.636058
1148.203533,1302.362347,1258.350101,9104.533087
1148.203849,1149.143247,740.205942,9030.512492
1148.204165,1149.143247,-222.061783,9622.677246
1148.204480,689.485948,-0.000000,9474.636058
1148.204796,459.657299,-0.000000,9696.697840
1148.205112,689.485948,-296.082377,9474.636058
1148.205427,919.314598,-74.020594,9548.656652
1148.205743,306.438199,-370.102971,9326.594869
1148.206059,459.657299,-444.123565,9548.656652
1148.206374,536.266849,-222.061783,8808.450710
1148.206690,536.266849,-666.185348,9474.636058
1148.207006,689.485948,-0.000000,9178.553681
1148.207322,1149.143247,148.041188,8808.450710
1148.207637,689.485948,-296.082377,8216.285956
1148.207953,153.219100,-296.082377,8882.471304
1148.208269,0.000000,-814.226536,9622.677246
1148.208584,1072.533697,-518.144159,9474.636058
1148.208900,153.219100,666.185348,8734.430116
1148.209216,0.000000,370.102971,8882.471304
1148.209531,0.000000,-666.185348,9326.594869
1148.209847,-459.657299,-518.144159,9178.553681
1148.210163,153.219100,-222.061783,9992.780217
1148.210478,76.609550,296.082377,9326.594869
1148.210794,-306.438199,-0.000000,8438.347739
1148.211110,-459.657299,-296.082377,9770.718434
1148.211426,-229.828649,-518.144159,9918.759623
1148.211741,-383.047749,-592.164754,9030.512492
1148.212057,229.828649,-0.000000,9770.718434
1148.212373,-153.219100,740.205942,8956.491898
1148.212688,153.219100,222.061783,8586.388927
1148.213004,229.828649,-0.000000,9770.718434
1148.213320,0.000000,-888.247130,9696.697840
1148.213635,306.438199,-962.267725,9770.718434
1148.213951,229.828649,-0.000000,9252.574275
1148.214267,153.219100,-222.061783,8734.430116
1148.214582,383.047749,-888.247130,9696.697840
1148.214898,306.438199,-1036.288319,9992.780217
1148.215214,0.000000,-592.164754,9696.697840
1148.215530,536.266849,-962.267725,9474.636058
1148.215845,612.876398,-370.102971,8808.450710
1148.216161,919.314598,-370.102971,9178.553681
1148.216477,842.705048,-1036.288319,9992.780217
1148.216792,383.047749,-444.123565,9770.718434
1148.217108,689.485948,-370.102971,9696.697840
1148.217424,995.924147,-296.082377,9178.553681
1148.217739,612.876398,-222.061783,9178.553681
1148.218055,306.438199,-888.247130,10510.924376
1148.218371,229.828649,-518.144159,9770.718434
1148.218686,-229.828649,-444.123565,9548.656652
1148.219002,383.047749,-370.102971,9918.759623
1148.219318,536.266849,370.102971,10066.800811
1148.219634,689.485948,-0.000000,9104.533087
1148.219949,612.876398,-0.000000,9992.780217
1148.220265,459.657299,222.061783,9474.636058
1148.220581,1072.533697,148.041188,9770.718434
1148.220896,1532.190996,370.102971,9992.780217
1148.221212,1302.362347,518.144159,9030.512492
1148.221528,1378.971896,370.102971,9770.718434
1148.221843,1455.581446,-0.000000,9326.594869
1148.222159,919.314598,-74.020594,9474.636058
1148.222475,1455.581446,148.041188,9992.780217
1148.222790,1149.143247,814.226536,9178.553681
1148.223106,1149.143247,518.144159,9252.574275
1148.223422,1378.971896,370.102971,9474.636058
1148.223738,536.266849,518.144159,8364.327145
1148.224053,1149.143247,-0.000000,9326.594869
1148.224369,842.705048,-0.000000,9178.553681
1148.224685,76.609550,-0.000000,9178.553681
1148.225000,383.047749,-0.000000,9548.656652
1148.225316,0.000000,-222.061783,9030.512492
1148.225632,306.438199,-74.020594,9622.677246
1148.225947,0.000000,-518.144159,10066.800811
1148.226263,-306.438199,148.041188,9104.533087
1148.226579,-229.828649,-0.000000,9400.615463
1148.226894,-229.828649,-74.020594,9696.697840
1148.227210,-842.705048,-74.020594,9400.615463
1148.227526,-459.657299,-0.000000,9548.656652
1148.227842,0.000000,592.164754,9178.553681
1148.228157,229.828649,592.164754,8808.450710
1148.228473,0.000000,148.041188,9474.636058
1148.228789,0.000000,-592.164754,9548.656652
1148.229104,-459.657299,-444.123565,9474.636058
1148.229420,306.438199,592.164754,9622.677246
1148.229736,0.000000,814.226536,8956.491898
1148.230051,306.438199,518.144159,8882.471304
1148.230367,153.219100,-296.082377,9474.636058
1148.230683,-536.266849,-518.144159,9400.615463
1148.230998,0.000000,-888.247130,9992.780217
1148.231314,153.219100,-518.144159,9622.677246
1148.231630,76.609550,-0.000000,9548.656652
1148.231946,0.000000,-592.164754,9696.697840
1148.232261,-459.657299,-1184.329507,9548.656652
1148.232577,0.000000,-1110.308913,9992.780217
1148.232893,459.657299,-666.185348,10510.924376
1148.233208,766.095498,-0.000000,9326.594869
1148.233524,153.219100,-444.123565,9326.594869
1148.233840,842.705048,-74.020594,9548.656652
1148.234155,766.095498,-296.082377,9178.553681
1148.234471,919.314598,-74.020594,9326.594869
1148.234787,1149.143247,296.082377,9474.636058
1148.235102,1072.533697,-592.164754,9326.594869
1148.235418,536.266849,-666.185348,9844.739029
1148.235734,0.000000,-740.205942,9918.759623
1148.236050,766.095498,-666.185348,9030.512492
1148.236365,919.314598,370.102971,9770.718434
1148.236681,919.314598,-0.000000,9326.594869
1148.236997,459.657299,-222.061783,9918.759623
1148.237312,229.828649,-148.041188,9844.739029
1148.237628,76.609550,-74.020594,9252.574275
1148.237944,842.705048,-370.102971,9770.718434
1148.238259,766.095498,-0.000000,9104.533087
1148.238575,995.924147,-370.102971,9548.656652
1148.238891,689.485948,-1110.308913,9770.718434
1148.239206,842.705048,-814.226536,10214.842000
1148.239522,612.876398,-962.267725,9696.697840
1148.239838,1608.800546,-74.020594,9770.718434
1148.240154,1455.581446,1036.288319,8290.306550
1148.240469,1072.533697,370.102971,9326.594869
1148.240785,1915.238745,-0.000000,10066.800811
1148.241101,1225.752797,444.123565,8216.285956
1148.241416,1685.410096,888.247130,8290.306550
1148.241732,1455.581446,-0.000000,8586.388927
1148.242048,919.314598,-1184.329507,9770.718434
1148.242363,766.095498,-1554.432478,10732.986159
1148.242679,153.219100,-740.205942,9696.697840
1148.242995,0.000000,-148.041188,9918.759623
1148.243311,0.000000,666.185348,9474.636058
1148.243626,0.000000,444.123565,8882.471304
1148.243942,76.609550,-148.041188,9770.718434
1148.244258,-766.095498,-296.082377,9474.636058
1148.244573,-306.438199,-444.123565,9326.594869
1148.244889,0.000000,-592.164754,9622.677246
1148.245205,0.000000,-0.000000,9252.574275
1148.245520,-229.828649,-296.082377,9326.594869
1148.245836,76.609550,-370.102971,9770.718434
1148.246152,-536.266849,-0.000000,8956.491898
1148.246467,76.609550,-0.000000,9696.697840
1148.246783,459.657299,296.082377,9030.512492
1148.247099,229.828649,296.082377,9030.512492
1148.247415,459.657299,-518.144159,9770.718434
1148.247730,0.000000,-1036.288319,9548.656652
1148.248046,76.609550,-148.041188,9474.636058
1148.248362,995.924147,-0.000000,9622.677246
1148.248677,306.438199,-74.020594,8438.347739
1148.248993,229.828649,-592.164754,9844.739029
1148.249309,0.000000,-1036.288319,10362.883188
1148.249624,-766.095498,-518.144159,9696.697840
1148.249940,306.438199,-666.185348,9918.759623
1148.250256,689.485948,-74.020594,9104.533087
1148.250571,383.047749,-148.041188,9548.656652
1148.250887,919.314598,-148.041188,9918.759623
1148.251203,459.657299,-222.061783,9622.677246
1148.251519,536.266849,-0.000000,9252.574275
1148.251834,842.705048,-0.000000,9474.636058
1148.252150,842.705048,-0.000000,8734.430116
1148.252466,306.438199,-444.123565,9326.594869
1148.252781,229.828649,-1258.350101,11251.130318
1148.253097,0.000000,-1332.370696,10510.924376
1148.253413,612.876398,-0.000000,10140.821405
1148.253728,536.266849,814.226536,8364.327145
1148.254044,306.438199,518.144159,8660.409521
1148.254360,919.314598,-296.082377,9918.759623
1148.254675,536.266849,-0.000000,8956.491898
1148.254991,383.047749,444.123565,9474.636058
1148.255307,995.924147,-666.185348,9992.780217
1148.255623,995.924147,-148.041188,8882.471304
1148.255938,536.266849,-592.164754,9474.636058
1148.256254,612.876398,-444.123565,10584.944971
1148.256570,459.657299,-518.144159,9844.739029
1148.256885,612.876398,-0.000000,10140.821405
1148.257201,995.924147,814.226536,9178.553681
1148.257517,1149.143247,370.102971,8734.430116
1148.257832,842.705048,-370.102971,9030.512492
1148.258148,995.924147,148.041188,9474.636058
1148.258464,1302.362347,-518.144159,9548.656652
1148.258779,1762.019645,222.061783,9400.615463
1148.259095,766.095498,222.061783,8660.409521
1148.259411,766.095498,-740.205942,10362.883188
1148.259727,459.657299,-74.020594,9474.636058
1148.260042,76.609550,592.164754,8808.450710
1148.260358,1072.533697,-0.000000,9844.739029
1148.260674,459.657299,148.041188,9770.718434
1148.260989,153.219100,666.185348,9252.574275
1148.261305,306.438199,518.144159,9252.574275
1148.261621,-383.047749,-0.000000,9548.656652
1148.261936,153.219100,-0.000000,9474.636058
1148.262252,306.438199,296.082377,9474.636058
1148.262568,229.828649,-296.082377,9326.594869
1148.262883,-383.047749,-1036.288319,10214.842000
1148.263199,-229.828649,-1036.288319,9918.759623
1148.263515,0.000000,-148.041188,9474.636058
1148.263831,153.219100,148.041188,9696.697840
1148.264146,383.047749,444.123565,9104.533087
1148.264462,153.219100,-0.000000,8956.491898
1148.264778,0.000000,-814.226536,9696.697840
1148.265093,76.609550,-888.247130,9178.553681
1148.265409,383.047749,-1184.329507,9696.697840
1148.265725,153.219100,-1406.391290,9326.594869
1148.266040,383.047749,-740.205942,9548.656652
1148.266356,536.266849,-1258.350101,10066.800811
1148.266672,153.219100,-444.123565,9030.512492
1148.266987,0.000000,-222.061783,9400.615463
1148.267303,842.705048,-740.205942,9548.656652
1148.267619,612.876398,148.041188,8290.306550
1148.267935,306.438199,-444.123565,9844.739029
1148.268250,229.828649,-814.226536,9918.759623
1148.268566,-612.876398,-296.082377,9326.594869
1148.268882,-229.828649,-444.123565,9104.533087
1148.269197,383.047749,74.020594,8956.491898
1148.269513,-306.438199,-666.185348,9400.615463
1148.269829,-153.219100,-1110.308913,10436.903782
1148.270144,-229.828649,-1332.370696,10140.821405
1148.270460,-229.828649,-148.041188,9770.718434
1148.270776,842.705048,518.144159,9474.636058
1148.271091,919.314598,1036.288319,8808.450710
1148.271407,1072.533697,1036.288319,8438.347739
1148.271723,995.924147,518.144159,9326.594869
1148.272039,306.438199,-0.000000,9104.533087
1148.272354,842.705048,-0.000000,9844.739029
1148.272670,1072.533697,-0.000000,9474.636058
1148.272986,612.876398,-222.061783,9030.512492
1148.273301,842.705048,-592.164754,10362.883188
1148.273617,459.657299,-370.102971,9918.759623
1148.273933,536.266849,-0.000000,9992.780217
1148.274248,1072.533697,444.123565,9400.615463
1148.274564,383.047749,370.102971,8586.388927
1148.274880,766.095498,-592.164754,9992.780217
1148.275195,995.924147,-1036.288319,10436.903782
1148.275511,306.438199,-0.000000,8808.450710
1148.275827,1072.533697,222.061783,9326.594869
1148.276143,1378.971896,-0.000000,8956.491898
1148.276458,995.924147,-296.082377,9104.533087
1148.276774,612.876398,-370.102971,9844.739029
1148.277090,76.609550,-592.164754,9178.553681
1148.277405,153.219100,-444.123565,9770.718434
1148.277721,1072.533697,-0.000000,9992.780217
1148.278037,383.047749,1036.288319,8512.368333
1148.278353,536.266849,-74.020594,9400.615463
1148.278668,0.000000,-148.041188,9696.697840
1148.278984,-383.047749,-296.082377,9474.636058
1148.279300,229.828649,-0.000000,9548.656652
1148.279615,306.438199,-148.041188,9474.636058
1148.279931,-459.657299,-0.000000,9104.533087
1148.280247,-383.047749,-740.205942,9548.656652
1148.280563,-1072.533697,-1258.350101,9992.780217
1148.280878,-612.876398,-962.267725,10955.047942
1148.281194,689.485948,-592.164754,10214.842000
1148.281510,229.828649,222.061783,8808.450710
1148.281825,76.609550,370.102971,9696.697840
1148.282141,153.219100,-222.061783,9474.636058
1148.282457,842.705048,-0.000000,9548.656652
1148.282773,2068.457845,-0.000000,9622.677246
1148.283088,689.485948,-0.000000,9030.512492
1148.283404,1072.533697,-518.144159,9252.574275
1148.283720,919.314598,-370.102971,9030.512492
1148.284035,229.828649,-814.226536,9622.677246
1148.284351,842.705048,-148.041188,9844.739029
1148.284667,1608.800546,666.185348,9252.574275
1148.284983,383.047749,518.144159,8290.306550
1148.285298,229.828649,-740.205942,9770.718434
1148.285614,0.000000,-888.247130,9844.739029
1148.285930,76.609550,-1184.329507,9696.697840
1148.286245,76.609550,-962.267725,9622.677246
1148.286561,-153.219100,-666.185348,9474.636058
1148.286877,-229.828649,-1332.370696,9474.636058
1148.287193,-612.876398,-1628.453072,10140.821405
1148.287508,-919.314598,-1332.370696,9992.780217
1148.287824,306.438199,-370.102971,10214.842000
1148.288140,536.266849,-74.020594,9030.512492
1148.288455,536.266849,-148.041188,8734.430116
1148.288771,1149.143247,-592.164754,9992.780217
1148.289087,1302.362347,-296.082377,9030.512492
1148.289403,919.314598,296.082377,8438.347739
1148.289718,1532.190996,-296.082377,9474.636058
1148.290034,1608.800546,-222.061783,8882.471304
1148.290350,1455.581446,-518.144159,9104.533087
1148.290665,842.705048,-962.267725,9992.780217
1148.290981,383.047749,-666.185348,9844.739029
1148.291297,1762.019645,-370.102971,10066.800811
1148.291613,1302.362347,666.185348,8438.347739
1148.291928,1072.533697,814.226536,8882.471304
1148.292244,766.095498,222.061783,9548.656652
1148.292560,766.095498,222.061783,8882.471304
1148.292875,153.219100,-74.020594,9770.718434
1148.293191,536.266849,-592.164754,9918.759623
1148.293507,76.609550,-148.041188,9178.553681
1148.293823,0.000000,-962.267725,10140.821405
1148.294138,-689.485948,-814.226536,9992.780217
1148.294454,-229.828649,-0.000000,9474.636058
1148.294770,306.438199,518.144159,9622.677246
1148.295085,0.000000,1332.370696,8808.450710
1148.295401,229.828649,1258.350101,8882.471304
1148.295717,689.485948,222.061783,9104.533087
1148.296033,153.219100,-370.102971,9030.512492
1148.296348,0.000000,-74.020594,10140.821405
1148.296664,153.219100,-296.082377,9844.739029
1148.296980,76.609550,518.144159,9326.594869
1148.297295,0.000000,222.061783,9030.512492
1148.297611,229.828649,222.061783,10066.800811
1148.297927,-383.047749,148.041188,9622.677246
1148.298243,76.609550,-148.041188,10362.883188
1148.298558,383.047749,-296.082377,9918.759623
1148.298874,459.657299,-0.000000,9548.656652
1148.299190,383.047749,296.082377,9696.697840
1148.299505,229.828649,-222.061783,9474.636058
1148.299821,0.000000,-148.041188,9770.718434
1148.300137,842.705048,-296.082377,10066.800811
1148.300453,536.266849,296.082377,9104.533087
1148.300768,383.047749,-518.144159,9770.718434
1148.301084,76.609550,-444.123565,9844.739029
1148.301400,76.609550,-444.123565,9548.656652
1148.301715,766.095498,-74.020594,10066.800811
1148.302031,383.047749,592.164754,9252.574275
1148.302347,0.000000,370.102971,9030.512492
1148.302663,689.485948,-444.123565,9252.574275
1148.302978,-459.657299,-814.226536,9400.615463
1148.303294,0.000000,-296.082377,10066.800811
1148.303610,76.609550,-666.185348,9696.697840
1148.303925,-153.219100,-444.123565,9252.574275
1148.304241,0.000000,-740.205942,9622.677246
1148.304557,-153.219100,-444.123565,9770.718434
1148.304873,-229.828649,-592.164754,9252.574275
1148.305188,689.485948,-222.061783,10362.883188
1148.305504,1072.533697,444.123565,8586.388927
1148.305820,1149.143247,296.082377,8364.327145
1148.306135,842.705048,-592.164754,10140.821405
1148.306451,995.924147,-370.102971,9474.636058
1148.306767,1072.533697,296.082377,9104.533087
1148.307083,1225.752797,370.102971,9104.533087
1148.307398,995.924147,-0.000000,9030.512492
1148.307714,995.924147,-148.041188,9252.574275
1148.308030,459.657299,-222.061783,9252.574275
1148.308345,919.314598,-666.185348,10066.800811
1148.308661,995.924147,-444.123565,9918.759623
1148.308977,1225.752797,148.041188,9326.594869
1148.309293,612.876398,-74.020594,8882.471304
1148.309608,919.314598,-370.102971,9844.739029
1148.309924,842.705048,-74.020594,9400.615463
1148.310240,536.266849,-222.061783,9474.636058
1148.310555,1225.752797,-0.000000,9474.636058
1148.310871,536.266849,-0.000000,7994.224174
1148.311187,766.095498,-666.185348,9548.656652
1148.311503,153.219100,-1332.370696,10362.883188
1148.311818,0.000000,-444.123565,8956.491898
1148.312134,459.657299,-0.000000,9252.574275
1148.312450,306.438199,-370.102971,8364.327145
1148.312766,306.438199,-592.164754,9844.739029
1148.313081,306.438199,-666.185348,10214.842000
1148.313397,-689.485948,-518.144159,9844.739029
1148.313713,0.000000,-0.000000,9770.718434
1148.314028,153.219100,-148.041188,9474.636058
1148.314344,229.828649,-74.020594,9104.533087
1148.314660,-229.828649,-962.267725,9844.739029
1148.314976,153.219100,-1036.288319,9918.759623
1148.315291,76.609550,-370.102971,9918.759623
1148.315607,153.219100,-0.000000,9770.718434
1148.315923,536.266849,666.185348,8808.450710
1148.316238,1225.752797,-0.000000,9104.533087
1148.316554,612.876398,-592.164754,9696.697840
1148.316870,0.000000,-296.082377,9918.759623
1148.317186,459.657299,-592.164754,9918.759623
1148.317501,1072.533697,-370.102971,9474.636058
1148.317817,612.876398,-296.082377,8660.409521
1148.318133,229.828649,-592.164754,9844.739029
1148.318448,153.219100,-518.144159,9770.718434
1148.318764,383.047749,-740.205942,9178.553681
1148.319080,842.705048,-296.082377,9992.780217
1148.319396,-153.219100,148.041188,9326.594869
1148.319711,229.828649,-0.000000,9030.512492
1148.320027,536.266849,-0.000000,9178.553681
1148.320343,383.047749,-296.082377,9400.615463
1148.320658,612.876398,-222.061783,10584.944971
1148.320974,1455.581446,-296.082377,9030.512492
1148.321290,153.219100,-148.041188,9030.512492
1148.321606,153.219100,-518.144159,9548.656652
1148.321921,0.000000,-1332.370696,9474.636058
1148.322237,306.438199,-296.082377,10510.924376
1148.322553,229.828649,-148.041188,10584.944971
1148.322868,229.828649,370.102971,8364.327145
1148.323184,612.876398,666.185348,9770.718434
1148.323500,689.485948,-74.020594,9696.697840
1148.323816,612.876398,-0.000000,9030.512492
1148.324131,1149.143247,148.041188,10066.800811
1148.324447,995.924147,-0.000000,8808.450710
1148.324763,842.705048,-444.123565,9474.636058
1148.325078,842.705048,-888.247130,9622.677246
1148.325394,766.095498,-666.185348,9252.574275
1148.325710,766.095498,148.041188,9326.594869
1148.326026,1302.362347,-0.000000,9104.533087
1148.326341,995.924147,518.144159,8660.409521
1148.326657,536.266849,518.144159,9178.553681
1148.326973,842.705048,-296.082377,8808.450710
1148.327288,-536.266849,296.082377,9770.718434
1148.327604,306.438199,-222.061783,10658.965565
1148.327920,459.657299,-1036.288319,9178.553681
1148.328236,0.000000,148.041188,9178.553681
1148.328551,0.000000,-666.185348,9474.636058
1148.328867,0.000000,-1332.370696,10066.800811
1148.329183,153.219100,-444.123565,9918.759623
1148.329498,76.609550,-0.000000,9178.553681
1148.329814,383.047749,666.185348,8586.388927
1148.330130,919.314598,-370.102971,10214.842000
1148.330446,383.047749,-740.205942,9622.677246
1148.330761,306.438199,-74.020594,9548.656652
1148.331077,612.876398,-0.000000,9030.512492
1148.331393,536.266849,296.082377,9252.574275
1148.331708,76.609550,518.144159,8586.388927
1148.332024,0.000000,-0.000000,9326.594869
1148.332340,-842.705048,-0.000000,9548.656652
1148.332656,-995.924147,-74.020594,9696.697840
1148.332971,-766.095498,-370.102971,10288.862594
1148.333287,-1455.581446,-1480.411884,10066.800811
1148.333603,-1532.190996,-2368.659014,10881.027347
1148.333918,-1608.800546,-1924.535449,10881.027347
1148.334234,-1225.752797,-2146.597232,10288.862594
1148.334550,-842.705048,-2146.597232,10510.924376
1148.334866,-306.438199,-1184.329507,10214.842000
1148.335181,229.828649,-1036.288319,9622.677246
1148.335497,766.095498,-1184.329507,9992.780217
1148.335813,689.485948,-1036.288319,9252.574275
1148.336128,1302.362347,-1480.411884,8438.347739
1148.336444,2681.334243,-1480.411884,8956.491898
1148.336760,2298.286494,-1554.432478,8660.409521
1148.337076,2221.676944,-2590.720797,9622.677246
1148.337391,2528.115143,-2442.679609,9326.594869
1148.337707,1838.629195,-2220.617826,9400.615463
1148.338023,2068.457845,-2146.597232,9474.636058
1148.338338,1762.019645,-2146.597232,9474.636058
1148.338654,1608.800546,-1332.370696,9104.533087
1148.338970,1762.019645,-1924.535449,9770.718434
1148.339286,1225.752797,-1924.535449,9400.615463
1148.339601,1455.581446,-1776.494261,9770.718434
1148.339917,2068.457845,-1776.494261,9326.594869
1148.340233,1991.848295,-1332.370696,8808.450710
1148.340548,2451.505594,-1628.453072,9474.636058
1148.340864,2221.676944,-2072.576638,9474.636058
1148.341180,2374.896044,-2146.597232,9844.739029
1148.341496,2834.553343,-1850.514855,9474.636058
1148.341811,3753.867940,-2072.576638,8660.409521
1148.342127,3753.867940,-1850.514855,9474.636058
1148.342443,4366.744339,-1628.453072,10066.800811
1148.342758,4519.963438,-1776.494261,8956.491898
1148.343074,4290.134789,-1036.288319,8068.244768
1148.343390,4519.963438,-1036.288319,8808.450710
1148.343706,4826.401637,-888.247130,8142.265362
1148.344021,4366.744339,-1184.329507,8364.327145
1148.344337,3600.648841,-1628.453072,8956.491898
1148.344653,3677.258390,-1924.535449,9252.574275
1148.344968,2834.553343,-1924.535449,8586.388927
1148.345284,2221.676944,-1480.411884,9030.512492
1148.345600,1685.410096,-2220.617826,9548.656652
1148.345916,2145.067394,-2368.659014,10214.842000
1148.346231,1762.019645,-1998.556043,9918.759623
1148.346547,1378.971896,-2368.659014,10214.842000
1148.346863,1072.533697,-3330.926739,9992.780217
1148.347178,1378.971896,-3182.885551,9918.759623
1148.347494,1302.362347,-2368.659014,10066.800811
1148.347810,1838.629195,-2146.597232,10066.800811
1148.348126,2374.896044,-888.247130,9548.656652
1148.348441,2681.334243,-666.185348,9178.553681
1148.348757,2987.772442,-1628.453072,9030.512492
1148.349073,3370.820191,-1332.370696,9178.553681
1148.349388,3370.820191,-962.267725,9030.512492
1148.349704,3983.696590,-1332.370696,9474.636058
1148.350020,4213.525239,-1184.329507,9918.759623
1148.350336,3830.477490,-592.164754,8882.471304
1148.350651,3140.991542,-592.164754,8512.368333
1148.350967,3140.991542,-1258.350101,9252.574275
1148.351283,2221.676944,-1554.432478,9844.739029
1148.351598,1838.629195,-1480.411884,10362.883188
1148.351914,1378.971896,-1776.494261,10658.965565
1148.352230,842.705048,-2368.659014,10436.903782
1148.352546,612.876398,-2368.659014,10362.883188
1148.352861,306.438199,-2664.741391,10881.027347
1148.353177,842.705048,-3034.844362,10881.027347
1148.353493,1532.190996,-1850.514855,10288.862594
1148.353808,995.924147,-1850.514855,9622.677246
1148.354124,1608.800546,-1998.556043,10288.862594
1148.354440,2298.286494,-2516.700203,10214.842000
1148.354756,2374.896044,-2146.597232,9400.615463
1148.355071,2681.334243,-1924.535449,9474.636058
1148.355387,3217.601092,-1998.556043,9030.512492
1148.355703,3447.429741,-1924.535449,8808.450710
1148.356018,3907.087040,-1850.514855,9252.574275
1148.356334,3524.039291,-2072.576638,9178.553681
1148.356650,2987.772442,-2072.576638,9178.553681
1148.356966,3064.381992,-2220.617826,9474.636058
1148.357281,2757.943793,-1998.556043,9326.594869
1148.357597,2145.067394,-2072.576638,9326.594869
1148.357913,1608.800546,-2220.617826,9770.718434
1148.358228,1608.800546,-2738.761985,10140.821405
1148.358544,1302.362347,-3182.885551,9622.677246
1148.358860,919.314598,-2886.803174,9622.677246
1148.359176,995.924147,-3775.050304,9918.759623
1148.359491,1532.190996,-4145.153275,10362.883188
1148.359807,2068.457845,-3701.029710,10214.842000
1148.360123,1915.238745,-2960.823768,9474.636058
1148.360438,2604.724693,-2442.679609,9178.553681
1148.360754,2834.553343,-2072.576638,8808.450710
1148.361070,3677.258390,-1554.432478,8438.347739
1148.361386,3753.867940,-1406.391290,8438.347739
1148.361701,3524.039291,-1850.514855,8660.409521
1148.362017,3447.429741,-2516.700203,9474.636058
1148.362333,4060.306139,-3627.009116,9400.615463
1148.362648,4213.525239,-3034.844362,9030.512492
1148.362964,4136.915689,-2516.700203,8364.327145
1148.363280,3907.087040,-2516.700203,8586.388927
1148.363596,4213.525239,-1998.556043,9252.574275
1148.363911,4060.306139,-2072.576638,9030.512492
1148.364227,3294.210641,-1776.494261,8512.368333
1148.364543,2834.553343,-2368.659014,9400.615463
1148.364858,2604.724693,-2812.782580,9400.615463
1148.365174,2528.115143,-3404.947333,10288.862594
1148.365490,2911.162892,-3552.988522,10066.800811
1148.365806,3064.381992,-2664.741391,9474.636058
1148.366121,2834.553343,-2220.617826,8586.388927
1148.366437,2528.115143,-1554.432478,8660.409521
1148.366753,3447.429741,-1554.432478,8882.471304
1148.367068,3217.601092,-962.267725,9030.512492
1148.367384,3140.991542,-518.144159,8956.491898
1148.367700,2681.334243,-1258.350101,9400.615463
1148.368016,1991.848295,-2368.659014,9844.739029
1148.368331,2068.457845,-3330.926739,10288.862594
1148.368647,2374.896044,-3478.967927,10658.965565
1148.368963,2451.505594,-2812.782580,10362.883188
1148.369279,2451.505594,-2294.638420,9992.780217
1148.369594,2298.286494,-1776.494261,9992.780217
1148.369910,2451.505594,-1554.432478,10066.800811
1148.370226,2451.505594,-888.247130,9696.697840
1148.370541,2145.067394,-296.082377,9548.656652
1148.370857,2221.676944,-666.185348,9252.574275
1148.371173,2298.286494,-1554.432478,9548.656652
1148.371489,2451.505594,-2072.576638,10140.821405
1148.371804,2374.896044,-3182.885551,10436.903782
1148.372120,2451.505594,-3552.988522,10584.944971
1148.372436,2451.505594,-3627.009116,10362.883188
1148.372751,2451.505594,-3330.926739,10732.986159
1148.373067,2145.067394,-2886.803174,10436.903782
1148.373383,2145.067394,-1776.494261,9992.780217
1148.373699,2298.286494,-962.267725,9326.594869
1148.374014,2298.286494,-740.205942,8882.471304
1148.374330,2068.457845,-518.144159,8882.471304
1148.374646,2145.067394,-740.205942,8734.430116
1148.374961,2221.676944,-1332.370696,9178.553681
1148.375277,2068.457845,-2664.741391,9696.697840
1148.375593,1378.971896,-3923.091493,9992.780217
1148.375909,1608.800546,-4737.318029,10955.047942
1148.376224,1225.752797,-4663.297435,11177.109724
1148.376540,1838.629195,-4145.153275,10955.047942
1148.376856,2451.505594,-3108.864956,10362.883188
1148.377171,2911.162892,-2072.576638,9696.697840
1148.377487,3830.477490,-1406.391290,8808.450710
1148.377803,4136.915689,-740.205942,8290.306550
1148.378119,4673.182538,-148.041188,7254.018232
1148.378435,4366.744339,-0.000000,6661.853478
1148.378750,4519.963438,-0.000000,7105.977043
1148.379066,2911.162892,-1036.288319,7624.121203
1148.379382,2451.505594,-1332.370696,8364.327145
1148.379698,1532.190996,-2072.576638,9030.512492
1148.380014,0.000000,-2812.782580,9696.697840
1148.380329,-459.657299,-3701.029710,10807.006753
1148.380645,-689.485948,-4589.276840,11399.171507
1148.380961,-383.047749,-4663.297435,11695.253884
1148.381277,383.047749,-4219.173869,11325.150913
1148.381592,1225.752797,-3997.112087,10584.944971
1148.381908,2451.505594,-3552.988522,10288.862594
1148.382224,3370.820191,-2738.761985,9474.636058
1148.382540,4749.792088,-1480.411884,8142.265362
1148.382856,4979.620737,-444.123565,7476.080014
1148.383171,5592.497135,592.164754,6957.935855
1148.383487,5515.887586,518.144159,7031.956449
1148.383803,5056.230287,222.061783,7402.059420
1148.384119,4826.401637,-592.164754,8142.265362
1148.384435,4060.306139,-1924.535449,8882.471304
1148.384750,2834.553343,-3108.864956,9992.780217
1148.385066,1915.238745,-4441.235652,11103.089130
1148.385382,1532.190996,-4737.318029,11547.212695
1148.385698,306.438199,-4367.215058,11621.233289
1148.386014,306.438199,-3701.029710,11399.171507
1148.386329,153.219100,-3108.864956,10881.027347
1148.386645,766.095498,-2812.782580,10584.944971
1148.386961,1149.143247,-2368.659014,9622.677246
1148.387277,2145.067394,-1554.432478,9178.553681
1148.387593,2528.115143,-1110.308913,8586.388927
1148.387908,3753.867940,-1184.329507,8512.368333
1148.388224,3983.696590,-1110.308913,8956.491898
1148.388540,3907.087040,-1776.494261,9104.533087
1148.388856,3753.867940,-2368.659014,9252.574275
1148.389172,3140.991542,-2368.659014,9770.718434
1148.389487,2987.772442,-2516.700203,9844.739029
1148.389803,2604.724693,-1924.535449,10140.821405
1148.390119,2374.896044,-1628.453072,10066.800811
1148.390435,2068.457845,-1110.308913,10066.800811
1148.390751,1991.848295,-1258.350101,9622.677246
1148.391066,2374.896044,-1628.453072,9326.594869
1148.391382,1762.019645,-2294.638420,9696.697840
1148.391698,2374.896044,-2442.679609,9622.677246
1148.392014,2221.676944,-2664.741391,9474.636058
1148.392329,2298.286494,-2146.597232,9400.615463
1148.392645,2298.286494,-2368.659014,9400.615463
1148.392961,2068.457845,-1998.556043,9696.697840
1148.393277,1378.971896,-1924.535449,9770.718434
1148.393593,1532.190996,-1924.535449,9844.739029
1148.393908,1378.971896,-1776.494261,9474.636058
1148.394224,1455.581446,-1332.370696,9252.574275
1148.394540,1455.581446,-962.267725,9400.615463
1148.394856,1455.581446,-740.205942,8882.471304
1148.395172,1608.800546,-1036.288319,8512.368333
1148.395487,1685.410096,-888.247130,8808.450710
1148.395803,919.314598,-1406.391290,8808.450710
1148.396119,995.924147,-1406.391290,9178.553681
1148.396435,766.095498,-1406.391290,9326.594869
1148.396751,919.314598,-1480.411884,9326.594869
1148.397066,995.924147,-1924.535449,9992.780217
1148.397382,1608.800546,-2146.597232,10140.821405
1148.397698,1838.629195,-2590.720797,9844.739029
1148.398014,1838.629195,-2516.700203,10066.800811
1148.398330,2374.896044,-2590.720797,9844.739029
1148.398645,2757.943793,-2072.576638,10066.800811
1148.398961,3064.381992,-1332.370696,9400.615463
1148.399277,3370.820191,-666.185348,9252.574275
1148.399593,3447.429741,-370.102971,8882.471304
1148.399909,3294.210641,-666.185348,9030.512492
1148.400224,3830.477490,-592.164754,9326.594869
1148.400540,3907.087040,-1332.370696,9252.574275
1148.400856,3983.696590,-1998.556043,9104.533087
1148.401172,4443.353888,-2442.679609,9844.739029
1148.401487,4290.134789,-3330.926739,10066.800811
1148.401803,3907.087040,-3923.091493,10510.924376
1148.402119,3753.867940,-3552.988522,10436.903782
1148.402435,3524.039291,-3256.906145,10510.924376
1148.402751,3217.601092,-3108.864956,10362.883188
1148.403066,2757.943793,-2960.823768,10436.903782
1148.403382,2757.943793,-2516.700203,9918.759623
1148.403698,2987.772442,-2590.720797,9474.636058
1148.404014,3294.210641,-2516.700203,9474.636058
1148.404330,3447.429741,-2812.782580,9104.533087
1148.404645,3753.867940,-3034.844362,9104.533087
1148.404961,3447.429741,-3256.906145,9178.553681
1148.405277,3217.601092,-3701.029710,9252.574275
1148.405593,2911.162892,-3775.050304,9844.739029
1148.405909,2681.334243,-4219.173869,9918.759623
1148.406224,2374.896044,-4145.153275,10288.862594
1148.406540,2298.286494,-4145.153275,10288.862594
1148.406856,2451.505594,-3775.050304,9844.739029
1148.407172,2068.457845,-3478.967927,9622.677246
1148.407488,2374.896044,-2886.803174,9474.636058
1148.407803,2757.943793,-2442.679609,9104.533087
1148.408119,2681.334243,-2738.761985,8512.368333
1148.408435,2528.115143,-2886.803174,8734.430116
1148.408751,2681.334243,-3330.926739,9252.574275
1148.409067,1991.848295,-3775.050304,9104.533087
1148.409382,2911.162892,-3775.050304,9622.677246
1148.409698,2987.772442,-3627.009116,9696.697840
1148.410014,3064.381992,-3775.050304,9326.594869
1148.410330,3294.210641,-3478.967927,9326.594869
1148.410646,3600.648841,-2960.823768,9104.533087
1148.410961,3677.258390,-2516.700203,8290.306550
1148.411277,3294.210641,-1554.432478,8068.244768
1148.411593,2911.162892,-1036.288319,7698.141797
1148.411909,2451.505594,-888.247130,7846.182985
1148.412224,1991.848295,-1258.350101,8364.327145
1148.412540,1072.533697,-1036.288319,8142.265362
1148.412856,536.266849,-1924.535449,8734.430116
1148.413172,0.000000,-2812.782580,9400.615463
1148.413488,0.000000,-3775.050304,10436.903782
1148.413803,383.047749,-4589.276840,10584.944971
1148.414119,536.266849,-4589.276840,11251.130318
1148.414435,1302.362347,-5255.462188,11029.068536
1148.414751,1608.800546,-3849.070898,10807.006753
1148.415067,2681.334243,-2442.679609,10288.862594
1148.415382,3447.429741,-1554.432478,9474.636058
1148.415698,4519.963438,370.102971,8438.347739
1148.416014,4596.572988,962.267725,7328.038826
1148.416330,4903.011187,1628.453072,6735.874072
1148.416646,4903.011187,1554.432478,7031.956449
1148.416961,3753.867940,1332.370696,7105.977043
1148.417277,2911.162892,962.267725,7846.182985
1148.417593,1915.238745,-370.102971,8882.471304
1148.417909,612.876398,-1702.473667,10732.986159
1148.418225,-383.047749,-3034.844362,11695.253884
1148.418540,-1149.143247,-4737.318029,12435.459826
1148.418856,-1302.362347,-4811.338623,13397.727550
1148.419172,-995.924147,-4737.318029,13323.706956
1148.419488,0.000000,-4071.132681,12435.459826
1148.419804,995.924147,-3034.844362,11621.233289
1148.420119,2374.896044,-1480.411884,10140.821405
1148.420435,3907.087040,-74.020594,9474.636058
1148.420751,5132.839837,444.123565,8068.244768
1148.421067,6281.983084,2146.597232,7254.018232
1148.421382,6818.249932,2664.741391,7105.977043
1148.421698,6741.640382,2442.679609,7105.977043
1148.422014,5975.544884,1258.350101,7846.182985
1148.422330,4903.011187,-148.041188,8808.450710
1148.422646,3983.696590,-1850.514855,10140.821405
1148.422961,2681.334243,-3552.988522,11399.171507
1148.423277,1762.019645,-3997.112087,12065.356855
1148.423593,689.485948,-4071.132681,11991.336260
1148.423909,0.000000,-3182.885551,11843.295072
1148.424225,459.657299,-2294.638420,11695.253884
1148.424540,995.924147,-2220.617826,11029.068536
1148.424856,1455.581446,-1702.473667,10214.842000
1148.425172,1915.238745,-1998.556043,9474.636058
1148.425488,2834.553343,-2516.700203,9178.553681
1148.425804,3600.648841,-2664.741391,9474.636058
1148.426119,4903.011187,-2368.659014,8956.491898
1148.426435,5132.839837,-2516.700203,8808.450710
1148.426751,5056.230287,-2738.761985,8586.388927
1148.427067,4979.620737,-3330.926739,8956.491898
1148.427383,5132.839837,-3256.906145,8660.409521
1148.427698,4749.792088,-2368.659014,8660.409521
1148.428014,4136.915689,-1628.453072,8068.244768
1148.428330,3294.210641,-1776.494261,8290.306550
1148.428646,3064.381992,-2294.638420,8734.430116
1148.428962,2451.505594,-3330.926739,9030.512492
1148.429277,1225.752797,-3849.070898,8586.388927
1148.429593,383.047749,-4811.338623,8956.491898
1148.429909,536.266849,-5255.462188,9622.677246
1148.430225,1225.752797,-4885.359217,9548.656652
1148.430541,1149.143247,-4071.132681,9252.574275
1148.430856,689.485948,-3627.009116,9622.677246
1148.431172,766.095498,-3775.050304,9548.656652
1148.431488,1302.362347,-3701.029710,9252.574275
1148.431804,2298.286494,-3775.050304,9474.636058
1148.432119,1455.581446,-3923.091493,9400.615463
1148.432435,2374.896044,-3256.906145,9326.594869
1148.432751,3524.039291,-2442.679609,8364.327145
1148.433067,3830.477490,-2294.638420,7624.121203
1148.433383,3753.867940,-1776.494261,8364.327145
1148.433698,3447.429741,-1924.535449,8290.306550
1148.434014,3524.039291,-1554.432478,8142.265362
1148.434330,3600.648841,-1036.288319,8216.285956
1148.434646,3370.820191,-1406.391290,8438.347739
1148.434962,2987.772442,-1776.494261,8364.327145
1148.435277,2604.724693,-2368.659014,8882.471304
1148.435593,1532.190996,-2442.679609,9252.574275
1148.435909,1149.143247,-3182.885551,10288.862594
1148.436225,229.828649,-3182.885551,10584.944971
1148.436541,-306.438199,-3256.906145,11103.089130
1148.436856,-766.095498,-3478.967927,11177.109724
1148.437172,-383.047749,-3849.070898,11103.089130
1148.437488,153.219100,-3404.947333,11177.109724
1148.437804,1225.752797,-2664.741391,10807.006753
1148.438120,2068.457845,-1998.556043,9992.780217
1148.438435,2911.162892,-1184.329507,9178.553681
1148.438751,4136.915689,-518.144159,8364.327145
1148.439067,4673.182538,-296.082377,8438.347739
1148.439383,4826.401637,-222.061783,8290.306550
1148.439699,5132.839837,-0.000000,8364.327145
1148.440014,4673.182538,-592.164754,8734.430116
1148.440330,4519.963438,-962.267725,9400.615463
1148.440646,3524.039291,-1036.288319,9918.759623
1148.440962,2911.162892,-814.226536,10362.883188
1148.441277,2068.457845,-888.247130,10732.986159
1148.441593,1532.190996,-888.247130,10584.944971
1148.441909,842.705048,-666.185348,10955.047942
1148.442225,842.705048,-962.267725,11251.130318
1148.442541,383.047749,-1554.432478,11251.130318
1148.442856,383.047749,-1406.391290,11399.171507
1148.443172,1225.752797,-1702.473667,10955.047942
1148.443488,1685.410096,-1924.535449,9992.780217
1148.443804,1991.848295,-592.164754,9696.697840
1148.444120,2374.896044,-0.000000,9622.677246
1148.444435,3064.381992,-518.144159,9252.574275
1148.444751,3447.429741,-0.000000,9548.656652
1148.445067,3907.087040,296.082377,9030.512492
1148.445383,3983.696590,222.061783,9030.512492
1148.445699,3370.820191,-0.000000,8512.368333
1148.446014,2757.943793,74.020594,8956.491898
1148.446330,3217.601092,-444.123565,9104.533087
1148.446646,2834.553343,222.061783,9104.533087
1148.446962,2298.286494,222.061783,9252.574275
1148.447278,2068.457845,-1036.288319,9474.636058
1148.447593,1302.362347,-1850.514855,9326.594869
1148.447909,919.314598,-1850.514855,9548.656652
1148.448225,689.485948,-2368.659014,9696.697840
1148.448541,153.219100,-1184.329507,9696.697840
1148.448857,1302.362347,-1628.453072,10658.965565
1148.449172,306.438199,-1332.370696,9400.615463
1148.449488,-153.219100,-666.185348,8882.471304
1148.449804,306.438199,-2146.597232,9252.574275
1148.450120,536.266849,-1554.432478,8734.430116
1148.450436,76.609550,-592.164754,9548.656652
1148.450751,383.047749,-740.205942,9252.574275
1148.451067,612.876398,-444.123565,8290.306550
1148.451383,383.047749,-962.267725,8882.471304
1148.451699,995.924147,-1480.411884,8660.409521
1148.452014,1072.533697,-518.144159,8142.265362
1148.452330,1532.190996,-814.226536,8734.430116
1148.452646,2068.457845,-1184.329507,9696.697840
1148.452962,766.095498,-740.205942,8290.306550
1148.453278,842.705048,-666.185348,9474.636058
1148.453593,459.657299,-1036.288319,9326.594869
1148.453909,-153.219100,-148.041188,9178.553681
1148.454225,229.828649,370.102971,9548.656652
1148.454541,-306.438199,-148.041188,9326.594869
1148.454857,-536.266849,-518.144159,9770.718434
1148.455172,-766.095498,-1850.514855,10658.965565
1148.455488,-612.876398,-2590.720797,10510.924376
1148.455804,-306.438199,-1924.535449,10584.944971
1148.456120,306.438199,-1036.288319,10436.903782
1148.456436,306.438199,-444.123565,9252.574275
1148.456751,383.047749,-0.000000,9548.656652
1148.457067,1072.533697,-0.000000,9548.656652
1148.457383,1225.752797,370.102971,8216.285956
1148.457699,2221.676944,-0.000000,9252.574275
1148.458015,919.314598,-148.041188,9104.533087
1148.458330,919.314598,-0.000000,8956.491898
1148.458646,1072.533697,-740.205942,9622.677246
1148.458962,459.657299,-1258.350101,9622.677246
1148.459278,-689.485948,-1480.411884,10288.862594
1148.459594,-459.657299,-1924.535449,11251.130318
1148.459909,-842.705048,-1850.514855,10955.047942
1148.460225,-1378.971896,-1924.535449,11251.130318
1148.460541,-1225.752797,-1776.494261,10584.944971
1148.460857,-766.095498,-1480.411884,10436.903782
1148.461172,0.000000,-962.267725,10658.965565
1148.461488,536.266849,-666.185348,9326.594869
1148.461804,766.095498,148.041188,9252.574275
1148.462120,1149.143247,148.041188,8586.388927
1148.462436,1762.019645,-0.000000,8882.471304
1148.462751,1838.629195,444.123565,8438.347739
1148.463067,1991.848295,222.061783,8808.450710
1148.463383,995.924147,148.041188,8734.430116
1148.463699,383.047749,-296.082377,9474.636058
1148.464015,-229.828649,-222.061783,10140.821405
1148.464330,-229.828649,-0.000000,9400.615463
1148.464646,0.000000,-296.082377,9770.718434
1148.464962,0.000000,-888.247130,10214.842000
1148.465278,-459.657299,-1110.308913,9844.739029
1148.465594,-153.219100,-1924.535449,9992.780217
1148.465909,0.000000,-1480.411884,9622.677246
1148.466225,153.219100,-888.247130,9548.656652
1148.466541,1149.143247,-370.102971,9548.656652
1148.466857,1072.533697,518.144159,8512.368333
1148.467173,1149.143247,-0.000000,8512.368333
1148.467488,1225.752797,666.185348,8142.265362
1148.467804,2145.067394,1850.514855,7772.162391
1148.468120,2145.067394,1332.370696,7698.141797
1148.468436,1991.848295,592.164754,7994.224174
1148.468752,1225.752797,-0.000000,8438.347739
1148.469067,383.047749,-1036.288319,9178.553681
1148.469383,153.219100,-666.185348,9252.574275
1148.469699,-153.219100,-0.000000,9992.780217
1148.470015,-153.219100,-296.082377,10066.800811
1148.470331,-919.314598,-296.082377,10066.800811
1148.470646,-1378.971896,-592.164754,10584.944971
1148.470962,-536.266849,-148.041188,10066.800811
1148.471278,-229.828649,1036.288319,9400.615463
1148.471594,229.828649,814.226536,8512.368333
1148.471909,306.438199,370.102971,8956.491898
1148.472225,229.828649,444.123565,9696.697840
1148.472541,459.657299,-0.000000,9918.759623
1148.472857,612.876398,962.267725,8882.471304
1148.473173,459.657299,1480.411884,9474.636058
1148.473488,766.095498,666.185348,9474.636058
1148.473804,536.266849,370.102971,10140.821405
1148.474120,459.657299,1110.308913,9252.574275
1148.474436,919.314598,666.185348,9770.718434
1148.474752,689.485948,370.102971,9252.574275
1148.475067,1225.752797,148.041188,9992.780217
1148.475383,1072.533697,444.123565,9992.780217
1148.475699,76.609550,444.123565,9622.677246
1148.476015,229.828649,-296.082377,10436.903782
1148.476331,76.609550,-0.000000,10658.965565
1148.476646,153.219100,296.082377,10140.821405
1148.476962,306.438199,-296.082377,10214.842000
1148.477278,-383.047749,-814.226536,10362.883188
1148.477594,-536.266849,-888.247130,10658.965565
1148.477910,76.609550,-666.185348,10510.924376
1148.478225,0.000000,-74.020594,9622.677246
1148.478541,459.657299,-222.061783,10066.800811
1148.478857,76.609550,-592.164754,10140.821405
1148.479172,-383.047749,-222.061783,9104.533087
1148.479488,383.047749,-222.061783,9770.718434
1148.479804,536.266849,-222.061783,9326.594869
1148.480119,459.657299,-0.000000,8956.491898
1148.480435,995.924147,-888.247130,10436.903782
1148.480751,0.000000,-1406.391290,9252.574275
1148.481066,383.047749,-1406.391290,9400.615463
1148.481382,612.876398,-1110.308913,10140.821405
1148.481698,229.828649,-148.041188,8956.491898
1148.482014,306.438199,-148.041188,9844.739029
1148.482329,153.219100,-814.226536,9696.697840
1148.482645,-383.047749,-296.082377,9178.553681
1148.482961,-229.828649,-370.102971,9030.512492
1148.483276,0.000000,-518.144159,8882.471304
1148.483592,-536.266849,-1036.288319,9104.533087
1148.483908,306.438199,-1850.514855,9918.759623
1148.484223,-689.485948,-2220.617826,8808.450710
1148.484539,-306.438199,-2072.576638,9918.759623
1148.484855,766.095498,-1998.556043,9696.697840
1148.485170,919.314598,-1258.350101,8956.491898
1148.485486,1149.143247,-148.041188,8586.388927
1148.485802,1762.019645,-0.000000,8808.450710
1148.486117,1302.362347,148.041188,7772.162391
1148.486433,1378.971896,518.144159,8512.368333
1148.486749,1915.238745,-222.061783,8438.347739
1148.487064,1915.238745,-0.000000,8142.265362
1148.487380,1532.190996,-666.185348,9104.533087
1148.487696,153.219100,-1110.308913,9030.512492
1148.488011,383.047749,-1406.391290,9844.739029
1148.488327,612.876398,-962.267725,10436.903782
1148.488643,0.000000,370.102971,9400.615463
1148.488959,459.657299,592.164754,8956.491898
1148.489274,0.000000,148.041188,9104.533087
1148.489590,0.000000,-0.000000,9474.636058
1148.489906,612.876398,-666.185348,10510.924376
1148.490221,612.876398,-0.000000,9252.574275
1148.490537,153.219100,-222.061783,9030.512492
1148.490853,689.485948,-296.082377,9622.677246
1148.491168,842.705048,-888.247130,9992.780217
1148.491484,919.314598,-444.123565,9918.759623
1148.491800,842.705048,-0.000000,10066.800811
1148.492115,919.314598,888.247130,9178.553681
1148.492431,1608.800546,1184.329507,9400.615463
1148.492747,1302.362347,1332.370696,8956.491898
1148.493062,919.314598,962.267725,9030.512492
1148.493378,689.485948,222.061783,9770.718434
1148.493694,383.047749,666.185348,9622.677246
1148.494009,459.657299,-0.000000,10066.800811
1148.494325,153.219100,-370.102971,10140.821405
1148.494641,-842.705048,-740.205942,9696.697840
1148.494956,-1072.533697,-1036.288319,11103.089130
1148.495272,-995.924147,-370.102971,10436.903782
1148.495588,-306.438199,962.267725,9918.759623
1148.495904,0.000000,1110.308913,9548.656652
1148.496219,-306.438199,740.205942,9548.656652
1148.496535,-766.095498,444.123565,9770.718434
1148.496851,0.000000,222.061783,10362.883188
1148.497166,76.609550,444.123565,9326.594869
1148.497482,0.000000,-222.061783,9400.615463
1148.497798,0.000000,-444.123565,10288.862594
1148.498113,-612.876398,-444.123565,9474.636058
1148.498429,0.000000,-814.226536,10288.862594
1148.498745,0.000000,148.041188,10288.862594
1148.499060,0.000000,1258.350101,9548.656652
1148.499376,612.876398,666.185348,9178.553681
1148.499692,306.438199,1110.308913,8660.409521
1148.500007,153.219100,296.082377,9548.656652
1148.500323,689.485948,-444.123565,9548.656652
1148.500639,536.266849,148.041188,8956.491898
1148.500954,842.705048,-222.061783,9178.553681
1148.501270,842.705048,-2368.659014,10140.821405
1148.501586,229.828649,-1258.350101,9252.574275
1148.501902,0.000000,-666.185348,9622.677246
1148.502217,995.924147,-962.267725,9844.739029
1148.502533,1149.143247,-0.000000,9400.615463
1148.502849,842.705048,148.041188,8734.430116
1148.503164,689.485948,370.102971,8808.450710
1148.503480,1225.752797,-296.082377,9326.594869
1148.503796,1455.581446,-296.082377,8660.409521
1148.504111,1532.190996,-0.000000,8586.388927
1148.504427,1225.752797,-592.164754,8882.471304
1148.504743,1378.971896,-666.185348,8808.450710
1148.505058,612.876398,-518.144159,9178.553681
1148.505374,383.047749,-1184.329507,9622.677246
1148.505690,229.828649,-74.020594,9474.636058
1148.506005,689.485948,370.102971,8882.471304
1148.506321,842.705048,-0.000000,9252.574275
1148.506637,689.485948,-148.041188,8882.471304
1148.506952,76.609550,-222.061783,9326.594869
1148.507268,766.095498,-888.247130,9696.697840
1148.507584,612.876398,-444.123565,8734.430116
1148.507899,1302.362347,-296.082377,9178.553681
1148.508215,842.705048,-518.144159,8734.430116
1148.508531,459.657299,-888.247130,9474.636058
1148.508847,459.657299,-1406.391290,9696.697840
1148.509162,1225.752797,-148.041188,9844.739029
1148.509478,1072.533697,592.164754,8734.430116
1148.509794,1149.143247,-0.000000,8438.347739
1148.510109,919.314598,-222.061783,9252.574275
1148.510425,1378.971896,-518.144159,9474.636058
1148.510741,1378.971896,-148.041188,8734.430116
1148.511056,1378.971896,-148.041188,9178.553681
1148.511372,689.485948,-888.247130,9770.718434
1148.511688,995.924147,-1110.308913,10658.965565
1148.512003,-306.438199,-1628.453072,10140.821405
1148.512319,0.000000,-1184.329507,11325.150913
1148.512635,306.438199,-444.123565,9918.759623
1148.512950,306.438199,740.205942,8734.430116
1148.513266,842.705048,-148.041188,9844.739029
1148.513582,-153.219100,-592.164754,10214.842000
1148.513897,-306.438199,-296.082377,9992.780217
1148.514213,306.438199,-0.000000,9770.718434
1148.514529,153.219100,148.041188,9326.594869
1148.514844,-536.266849,-444.123565,9770.718434
1148.515160,-536.266849,-888.247130,10140.821405
1148.515476,-689.485948,-962.267725,9770.718434
1148.515792,-995.924147,-1628.453072,10955.047942
1148.516107,-229.828649,-740.205942,9992.780217
1148.516423,459.657299,296.082377,9622.677246
1148.516739,153.219100,888.247130,9104.533087
1148.517054,153.219100,740.205942,8734.430116
1148.517370,536.266849,-74.020594,9104.533087
1148.517686,766.095498,-518.144159,9474.636058
1148.518001,306.438199,-222.061783,9622.677246
1148.518317,229.828649,-740.205942,9548.656652
1148.518633,0.000000,-592.164754,8956.491898
1148.518948,-612.876398,-1110.308913,10362.883188
