#time,accel_x,accel_y,accel_z
524.140371,153.219100,-592.164754,10066.800811
524.140687,0.000000,-74.020594,9918.759623
524.141003,306.438199,370.102971,9770.718434
524.141319,919.314598,444.123565,9474.636058
524.141635,1072.533697,962.267725,9030.512492
524.141950,919.314598,1036.288319,8882.471304
524.142266,1455.581446,888.247130,9030.512492
524.142582,1378.971896,888.247130,9252.574275
524.142898,1225.752797,962.267725,9474.636058
524.143214,1532.190996,1110.308913,9104.533087
524.143529,1378.971896,1036.288319,9326.594869
524.143845,1149.143247,814.226536,9252.574275
524.144161,1225.752797,444.123565,9252.574275
524.144477,1072.533697,-222.061783,9400.615463
524.144793,689.485948,-592.164754,9548.656652
524.145108,459.657299,-518.144159,9622.677246
524.145424,536.266849,-814.226536,9844.739029
524.145740,459.657299,-1036.288319,10140.821405
524.146056,229.828649,-666.185348,9696.697840
524.146371,689.485948,-222.061783,10214.842000
524.146687,842.705048,-518.144159,9548.656652
524.147003,842.705048,-148.041188,9474.636058
524.147319,842.705048,222.061783,9326.594869
524.147635,1685.410096,592.164754,8734.430116
524.147950,1991.848295,518.144159,8216.285956
524.148266,2068.457845,444.123565,8882.471304
524.148582,2374.896044,296.082377,8956.491898
524.148898,2451.505594,-0.000000,9178.553681
524.149214,2221.676944,-74.020594,9400.615463
524.149529,2374.896044,-296.082377,9400.615463
524.149845,2145.067394,-222.061783,9548.656652
524.150161,1991.848295,-296.082377,9622.677246
524.150477,1455.581446,-148.041188,9474.636058
524.150793,1455.581446,-0.000000,9844.739029
524.151108,1302.362347,-0.000000,9622.677246
524.151424,1072.533697,296.082377,9474.636058
524.151740,1225.752797,518.144159,9252.574275
524.152056,842.705048,814.226536,8882.471304
524.152372,1532.190996,888.247130,9326.594869
524.152687,1302.362347,518.144159,9326.594869
524.153003,1378.971896,148.041188,9326.594869
524.153319,1302.362347,296.082377,9252.574275
524.153635,1302.362347,-0.000000,9326.594869
524.153950,1302.362347,-0.000000,9400.615463
524.154266,1072.533697,148.041188,9474.636058
524.154582,766.095498,-0.000000,9474.636058
524.154898,459.657299,370.102971,9548.656652
524.155214,536.266849,370.102971,9770.718434
524.155529,-153.219100,592.164754,9622.677246
524.155845,-612.876398,444.123565,9844.739029
524.156161,-842.705048,222.061783,9548.656652
524.156477,-1072.533697,444.123565,9696.697840
524.156793,-766.095498,370.102971,9622.677246
524.157108,-689.485948,666.185348,9696.697840
524.157424,-689.485948,370.102971,9844.739029
524.157740,-459.657299,518.144159,9770.718434
524.158056,0.000000,592.164754,9844.739029
524.158372,76.609550,296.082377,9844.739029
524.158687,536.266849,370.102971,9844.739029
524.159003,919.314598,592.164754,9474.636058
524.159319,919.314598,740.205942,9474.636058
524.159635,1149.143247,814.226536,9400.615463
524.159950,1149.143247,1184.329507,9178.553681
524.160266,1072.533697,1184.329507,9326.594869
524.160582,919.314598,1258.350101,9178.553681
524.160898,612.876398,1184.329507,9400.615463
524.161214,229.828649,740.205942,9326.594869
524.161529,306.438199,370.102971,9474.636058
524.161845,-153.219100,-0.000000,9844.739029
524.162161,0.000000,-148.041188,10140.821405
524.162477,153.219100,-740.205942,9992.780217
524.162793,229.828649,-740.205942,10140.821405
524.163108,229.828649,-296.082377,9992.780217
524.163424,459.657299,-222.061783,9770.718434
524.163740,766.095498,-0.000000,9696.697840
524.164056,995.924147,222.061783,9548.656652
524.164372,1302.362347,444.123565,9252.574275
524.164687,1378.971896,592.164754,9104.533087
524.165003,1608.800546,444.123565,9030.512492
524.165319,1149.143247,444.123565,8956.491898
524.165635,1149.143247,148.041188,9178.553681
524.165951,995.924147,-0.000000,9104.533087
524.166267,536.266849,-0.000000,9548.656652
524.166583,459.657299,-148.041188,9474.636058
524.166898,229.828649,-444.123565,9474.636058
524.167214,0.000000,-370.102971,9548.656652
524.167530,153.219100,-592.164754,9622.677246
524.167845,-536.266849,-814.226536,9918.759623
524.168161,-536.266849,-814.226536,9696.697840
524.168477,-229.828649,-888.247130,9918.759623
524.168792,-383.047749,-814.226536,9696.697840
524.169108,-306.438199,-962.267725,9548.656652
524.169424,0.000000,-1036.288319,9622.677246
524.169739,0.000000,-888.247130,9474.636058
524.170055,0.000000,-740.205942,9548.656652
524.170371,153.219100,-888.247130,9326.594869
524.170686,459.657299,-666.185348,9326.594869
524.171002,919.314598,-518.144159,9252.574275
524.171318,842.705048,-740.205942,9326.594869
524.171633,842.705048,-444.123565,8956.491898
524.171949,1072.533697,-518.144159,8956.491898
524.172265,1072.533697,-370.102971,9030.512492
524.172580,1149.143247,-518.144159,9252.574275
524.172896,459.657299,-814.226536,9104.533087
524.173212,383.047749,-814.226536,9400.615463
524.173527,459.657299,-1184.329507,9622.677246
524.173843,229.828649,-1184.329507,9918.759623
524.174159,306.438199,-1110.308913,9844.739029
524.174474,153.219100,-1110.308913,9844.739029
524.174790,0.000000,-888.247130,9844.739029
524.175106,306.438199,-592.164754,9622.677246
524.175421,383.047749,-296.082377,9474.636058
524.175737,459.657299,-296.082377,8438.347739
524.176053,612.876398,-0.000000,9030.512492
524.176368,919.314598,-0.000000,8808.450710
524.176684,842.705048,148.041188,8956.491898
524.177000,919.314598,-0.000000,9104.533087
524.177315,536.266849,-74.020594,9400.615463
524.177631,229.828649,-0.000000,9474.636058
524.177947,153.219100,-296.082377,9326.594869
524.178262,0.000000,-444.123565,9622.677246
524.178578,-766.095498,-518.144159,9622.677246
524.178894,-1072.533697,-444.123565,9770.718434
524.179209,-1225.752797,-222.061783,9918.759623
524.179525,-1378.971896,-592.164754,9770.718434
524.179841,-1532.190996,-444.123565,9770.718434
524.180156,-1838.629195,-518.144159,9918.759623
524.180472,-1532.190996,-518.144159,9992.780217
524.180788,-1378.971896,-370.102971,9770.718434
524.181103,-1225.752797,-74.020594,9992.780217
524.181419,-689.485948,-222.061783,9696.697840
524.181735,-383.047749,-0.000000,10066.800811
524.182050,153.219100,296.082377,9548.656652
524.182366,306.438199,222.061783,9326.594869
524.182682,766.095498,370.102971,9178.553681
524.182997,1072.533697,592.164754,9178.553681
524.183313,1225.752797,962.267725,9252.574275
524.183629,1225.752797,592.164754,9326.594869
524.183944,1225.752797,444.123565,9178.553681
524.184260,1149.143247,370.102971,9548.656652
524.184576,1072.533697,-0.000000,9474.636058
524.184891,1072.533697,-148.041188,9770.718434
524.185207,919.314598,-74.020594,9770.718434
524.185523,919.314598,-148.041188,9844.739029
524.185838,842.705048,-0.000000,9992.780217
524.186154,1149.143247,-148.041188,9992.780217
524.186470,766.095498,370.102971,9622.677246
524.186785,1225.752797,148.041188,9400.615463
524.187101,1455.581446,370.102971,9400.615463
524.187416,1991.848295,518.144159,9252.574275
524.187732,2068.457845,666.185348,9400.615463
524.188048,2068.457845,444.123565,8956.491898
524.188363,2068.457845,370.102971,8956.491898
524.188679,2221.676944,666.185348,9178.553681
524.188995,1991.848295,592.164754,9030.512492
524.189310,1915.238745,518.144159,9030.512492
524.189626,1608.800546,740.205942,9474.636058
524.189942,1149.143247,592.164754,9548.656652
524.190257,842.705048,518.144159,9548.656652
524.190573,536.266849,296.082377,9474.636058
524.190889,306.438199,-296.082377,9400.615463
524.191204,0.000000,-0.000000,9844.739029
524.191520,-153.219100,-0.000000,9696.697840
524.191836,-383.047749,-74.020594,9844.739029
524.192151,-689.485948,-222.061783,9844.739029
524.192467,-459.657299,-296.082377,9992.780217
524.192783,-459.657299,-148.041188,9622.677246
524.193098,-306.438199,-0.000000,9696.697840
524.193414,0.000000,-74.020594,9548.656652
524.193730,153.219100,-148.041188,9400.615463
524.194045,459.657299,-0.000000,9326.594869
524.194361,459.657299,-0.000000,9178.553681
524.194677,689.485948,-0.000000,9326.594869
524.194992,612.876398,-148.041188,9178.553681
524.195308,536.266849,-222.061783,9474.636058
524.195624,459.657299,-222.061783,9178.553681
524.195939,229.828649,-444.123565,9474.636058
524.196255,0.000000,-666.185348,9770.718434
524.196571,-153.219100,-666.185348,9696.697840
524.196886,-306.438199,-814.226536,9844.739029
524.197202,-229.828649,-962.267725,9992.780217
524.197518,-306.438199,-1036.288319,9770.718434
524.197833,-306.438199,-814.226536,9844.739029
524.198149,229.828649,-888.247130,9474.636058
524.198465,153.219100,-962.267725,9696.697840
524.198780,459.657299,-296.082377,9548.656652
524.199096,842.705048,-370.102971,9326.594869
524.199412,842.705048,-518.144159,9400.615463
524.199727,1378.971896,-444.123565,9326.594869
524.200043,1532.190996,-296.082377,8808.450710
524.200359,1225.752797,-148.041188,9030.512492
524.200674,995.924147,-444.123565,9030.512492
524.200990,919.314598,-370.102971,9252.574275
524.201306,536.266849,-814.226536,9474.636058
524.201621,153.219100,-666.185348,9400.615463
524.201937,0.000000,-740.205942,9474.636058
524.202253,-229.828649,-444.123565,9474.636058
524.202568,-383.047749,-814.226536,9474.636058
524.202884,-612.876398,-888.247130,10066.800811
524.203200,-766.095498,-1036.288319,9400.615463
524.203515,-1302.362347,-1480.411884,9548.656652
524.203831,-766.095498,-1480.411884,9770.718434
524.204147,-842.705048,-1332.370696,9918.759623
524.204462,-612.876398,-1554.432478,9770.718434
524.204778,0.000000,-1110.308913,9474.636058
524.205094,0.000000,-814.226536,9474.636058
524.205409,536.266849,-666.185348,9178.553681
524.205725,919.314598,-444.123565,9030.512492
524.206041,1072.533697,148.041188,8956.491898
524.206356,1302.362347,-0.000000,8660.409521
524.206672,1072.533697,-296.082377,8808.450710
524.206988,1225.752797,-222.061783,8956.491898
524.207303,1302.362347,-444.123565,9104.533087
524.207619,1149.143247,-518.144159,9104.533087
524.207935,1225.752797,-518.144159,9400.615463
524.208250,919.314598,-518.144159,9548.656652
524.208566,919.314598,-666.185348,9622.677246
524.208882,612.876398,-296.082377,9918.759623
524.209197,1072.533697,-592.164754,10140.821405
524.209513,1072.533697,-148.041188,9474.636058
524.209829,995.924147,-0.000000,9696.697840
524.210144,1455.581446,222.061783,9622.677246
524.210460,1378.971896,296.082377,9252.574275
524.210776,1608.800546,444.123565,9104.533087
524.211091,2068.457845,666.185348,8882.471304
524.211407,1915.238745,814.226536,9030.512492
524.211723,2145.067394,888.247130,9104.533087
524.212038,1915.238745,1332.370696,9400.615463
524.212354,2145.067394,1036.288319,9400.615463
524.212670,1685.410096,1258.350101,9104.533087
524.212985,1378.971896,1184.329507,9474.636058
524.213301,1302.362347,1110.308913,9474.636058
524.213617,536.266849,1258.350101,9474.636058
524.213932,536.266849,1184.329507,9548.656652
524.214248,0.000000,888.247130,9770.718434
524.214564,-229.828649,740.205942,9770.718434
524.214879,-459.657299,666.185348,9992.780217
524.215195,-612.876398,444.123565,9844.739029
524.215510,-536.266849,888.247130,10510.924376
524.215826,-612.876398,592.164754,10214.842000
524.216142,-995.924147,444.123565,10140.821405
524.216457,-766.095498,592.164754,9992.780217
524.216773,-842.705048,444.123565,9992.780217
524.217089,-306.438199,518.144159,9770.718434
524.217404,-306.438199,592.164754,9548.656652
524.217720,0.000000,370.102971,9474.636058
524.218036,0.000000,444.123565,9252.574275
524.218351,153.219100,148.041188,9104.533087
524.218667,229.828649,666.185348,9770.718434
524.218983,0.000000,-0.000000,9252.574275
524.219298,76.609550,-0.000000,9548.656652
524.219614,76.609550,-148.041188,9548.656652
524.219930,-229.828649,-592.164754,9548.656652
524.220245,-229.828649,-962.267725,9918.759623
524.220561,0.000000,-962.267725,9992.780217
524.220877,0.000000,-888.247130,9918.759623
524.221192,-306.438199,-962.267725,9992.780217
524.221508,-306.438199,-814.226536,9918.759623
524.221824,229.828649,-814.226536,9622.677246
524.222139,459.657299,-370.102971,9474.636058
524.222455,612.876398,-370.102971,9252.574275
524.222771,919.314598,-370.102971,9030.512492
524.223086,1532.190996,-0.000000,9030.512492
524.223402,1225.752797,-370.102971,8808.450710
524.223718,1455.581446,-370.102971,8882.471304
524.224033,1378.971896,-444.123565,8956.491898
524.224349,1378.971896,-592.164754,8956.491898
524.224665,766.095498,-740.205942,9178.553681
524.224980,612.876398,-962.267725,9400.615463
524.225296,76.609550,-592.164754,9474.636058
524.225612,0.000000,-888.247130,9400.615463
524.225927,-229.828649,-888.247130,9326.594869
524.226243,-306.438199,-1258.350101,9326.594869
524.226559,-842.705048,-1258.350101,9252.574275
524.226874,-919.314598,-1258.350101,9400.615463
524.227190,-919.314598,-1628.453072,9474.636058
524.227506,-459.657299,-1776.494261,9696.697840
524.227821,-536.266849,-1776.494261,9548.656652
524.228137,-383.047749,-1332.370696,9474.636058
524.228453,-306.438199,-1628.453072,9178.553681
524.228768,0.000000,-1332.370696,9104.533087
524.229084,306.438199,-888.247130,9252.574275
524.229400,536.266849,-592.164754,9030.512492
524.229715,612.876398,-814.226536,8660.409521
524.230031,766.095498,-518.144159,8808.450710
524.230347,995.924147,-740.205942,8882.471304
524.230662,919.314598,-592.164754,9252.574275
524.230978,842.705048,-814.226536,9104.533087
524.231294,459.657299,-740.205942,9400.615463
524.231609,536.266849,-1110.308913,9548.656652
524.231925,306.438199,-1036.288319,9696.697840
524.232241,306.438199,-814.226536,9992.780217
524.232556,459.657299,-962.267725,9770.718434
524.232872,229.828649,-962.267725,9622.677246
524.233188,536.266849,-444.123565,9696.697840
524.233503,612.876398,-296.082377,9696.697840
524.233819,919.314598,-592.164754,9474.636058
524.234135,1455.581446,296.082377,9474.636058
524.234450,1378.971896,370.102971,9030.512492
524.234766,1685.410096,592.164754,9104.533087
524.235082,2068.457845,592.164754,9252.574275
524.235397,1991.848295,962.267725,9178.553681
524.235713,2068.457845,962.267725,9104.533087
524.236029,1762.019645,1184.329507,9178.553681
524.236344,1838.629195,1184.329507,9252.574275
524.236660,1991.848295,1110.308913,9474.636058
524.236976,1149.143247,1406.391290,9918.759623
524.237291,766.095498,1406.391290,9696.697840
524.237607,459.657299,1258.350101,9696.697840
524.237923,229.828649,888.247130,9770.718434
524.238238,383.047749,962.267725,9918.759623
524.238554,-229.828649,962.267725,10066.800811
524.238870,-459.657299,814.226536,9992.780217
524.239185,-229.828649,814.226536,9770.718434
524.239501,0.000000,814.226536,10214.842000
524.239817,0.000000,962.267725,10066.800811
524.240132,-76.609550,1036.288319,9844.739029
524.240448,0.000000,962.267725,9770.718434
524.240764,153.219100,1036.288319,9992.780217
524.241079,306.438199,962.267725,9696.697840
524.241395,612.876398,1036.288319,9844.739029
524.241711,306.438199,1036.288319,9548.656652
524.242026,459.657299,666.185348,9326.594869
524.242342,536.266849,814.226536,9474.636058
524.242658,536.266849,666.185348,9474.636058
524.242973,153.219100,444.123565,9548.656652
524.243289,306.438199,-74.020594,9474.636058
524.243604,0.000000,-74.020594,9770.718434
524.243920,0.000000,-518.144159,9992.780217
524.244236,-229.828649,-666.185348,10066.800811
524.244551,0.000000,-740.205942,9918.759623
524.244867,0.000000,-666.185348,9992.780217
524.245183,229.828649,-222.061783,9918.759623
524.245498,459.657299,-444.123565,9770.718434
524.245814,536.266849,-444.123565,9326.594869
524.246130,919.314598,-74.020594,9252.574275
524.246445,1072.533697,-296.082377,8956.491898
524.246761,1302.362347,-222.061783,8956.491898
524.247077,1685.410096,-370.102971,8808.450710
524.247392,1455.581446,-370.102971,8882.471304
524.247708,1378.971896,-370.102971,8882.471304
524.248024,1072.533697,-148.041188,9030.512492
524.248339,1149.143247,-296.082377,9178.553681
524.248655,229.828649,-666.185348,9474.636058
524.248971,459.657299,-666.185348,9326.594869
524.249286,0.000000,-740.205942,9252.574275
524.249602,0.000000,-814.226536,9400.615463
524.249918,-689.485948,-1036.288319,9474.636058
524.250233,-612.876398,-1554.432478,9474.636058
524.250549,-689.485948,-1702.473667,9548.656652
524.250865,-919.314598,-1776.494261,9622.677246
524.251180,-689.485948,-1850.514855,9844.739029
524.251496,-612.876398,-1702.473667,9770.718434
524.251812,76.609550,-1110.308913,10140.821405
524.252127,-153.219100,-1480.411884,9326.594869
524.252443,0.000000,-1184.329507,9326.594869
524.252759,459.657299,-1110.308913,9252.574275
524.253074,459.657299,-888.247130,8734.430116
524.253390,919.314598,-1036.288319,8808.450710
524.253706,1072.533697,-814.226536,8956.491898
524.254021,1455.581446,-888.247130,8734.430116
524.254337,1072.533697,-1258.350101,8956.491898
524.254653,842.705048,-1258.350101,9178.553681
524.254968,766.095498,-1406.391290,9474.636058
524.255284,536.266849,-1184.329507,9622.677246
524.255600,536.266849,-1332.370696,9770.718434
524.255915,153.219100,-1110.308913,9696.697840
524.256231,459.657299,-1184.329507,9844.739029
524.256547,306.438199,-1406.391290,9474.636058
524.256862,612.876398,-962.267725,9696.697840
524.257178,689.485948,-740.205942,9622.677246
524.257494,1149.143247,-370.102971,9474.636058
524.257809,1302.362347,-74.020594,9178.553681
524.258125,1838.629195,148.041188,9252.574275
524.258441,1915.238745,370.102971,8956.491898
524.258756,2068.457845,370.102971,8956.491898
524.259072,2068.457845,666.185348,9030.512492
524.259388,2451.505594,962.267725,8956.491898
524.259703,1915.238745,962.267725,9030.512492
524.260019,1915.238745,1258.350101,9252.574275
524.260335,1608.800546,1110.308913,9474.636058
524.260650,1149.143247,1110.308913,9474.636058
524.260966,689.485948,740.205942,9770.718434
524.261282,689.485948,1332.370696,9844.739029
524.261597,306.438199,888.247130,9548.656652
524.261913,0.000000,814.226536,9696.697840
524.262229,-153.219100,666.185348,9992.780217
524.262544,-459.657299,518.144159,10066.800811
524.262860,-459.657299,666.185348,10140.821405
524.263176,-536.266849,740.205942,10140.821405
524.263491,-536.266849,888.247130,9918.759623
524.263807,-383.047749,962.267725,9844.739029
524.264123,-383.047749,518.144159,9844.739029
524.264438,-153.219100,740.205942,9548.656652
524.264754,153.219100,1110.308913,9622.677246
524.265070,306.438199,1036.288319,9548.656652
524.265385,229.828649,1036.288319,9474.636058
524.265701,0.000000,370.102971,9548.656652
524.266017,0.000000,518.144159,9622.677246
524.266332,0.000000,666.185348,9918.759623
524.266648,0.000000,-0.000000,9770.718434
524.266964,-229.828649,-0.000000,9622.677246
524.267279,0.000000,-296.082377,9770.718434
524.267595,-383.047749,-370.102971,9918.759623
524.267910,-536.266849,-444.123565,9844.739029
524.268226,-536.266849,-296.082377,9918.759623
524.268541,0.000000,-592.164754,9918.759623
524.268857,-229.828649,-666.185348,10066.800811
524.269172,153.219100,-222.061783,9844.739029
524.269488,383.047749,-74.020594,9474.636058
524.269803,383.047749,-222.061783,9326.594869
524.270119,536.266849,-222.061783,9252.574275
524.270434,766.095498,-444.123565,8882.471304
524.270750,1149.143247,-296.082377,8882.471304
524.271065,1149.143247,-74.020594,8882.471304
524.271381,1225.752797,-222.061783,8734.430116
524.271696,1455.581446,-296.082377,9104.533087
524.272012,1225.752797,-592.164754,9178.553681
524.272327,612.876398,-296.082377,9326.594869
524.272643,0.000000,-666.185348,9400.615463
524.272958,76.609550,-1036.288319,9252.574275
524.273274,-306.438199,-1110.308913,9474.636058
524.273589,-229.828649,-1332.370696,9178.553681
524.273905,-612.876398,-1480.411884,9474.636058
524.274220,-842.705048,-1406.391290,9548.656652
524.274536,-459.657299,-1850.514855,9622.677246
524.274851,-229.828649,-1480.411884,9844.739029
524.275167,-459.657299,-2294.638420,9474.636058
524.275482,-383.047749,-1702.473667,9548.656652
524.275798,-229.828649,-1554.432478,9326.594869
524.276113,0.000000,-1332.370696,9252.574275
524.276429,306.438199,-1258.350101,9030.512492
524.276745,689.485948,-1258.350101,8882.471304
524.277060,766.095498,-1110.308913,8586.388927
524.277376,1149.143247,-1036.288319,8734.430116
524.277691,919.314598,-1036.288319,9030.512492
524.278007,689.485948,-1332.370696,9252.574275
524.278322,612.876398,-1628.453072,9400.615463
524.278638,383.047749,-1628.453072,9326.594869
524.278953,459.657299,-1332.370696,9474.636058
524.279269,383.047749,-1480.411884,9696.697840
524.279584,383.047749,-1998.556043,9770.718434
524.279900,306.438199,-1480.411884,9696.697840
524.280215,383.047749,-1110.308913,9770.718434
524.280531,383.047749,-962.267725,9770.718434
524.280846,766.095498,-666.185348,9622.677246
524.281162,1072.533697,-370.102971,9252.574275
524.281477,1378.971896,-74.020594,8956.491898
524.281793,1302.362347,-0.000000,8956.491898
524.282108,1838.629195,148.041188,8956.491898
524.282424,1915.238745,444.123565,9030.512492
524.282739,2145.067394,296.082377,9104.533087
524.283055,1685.410096,888.247130,8882.471304
524.283370,1685.410096,1110.308913,9178.553681
524.283686,1302.362347,1110.308913,9178.553681
524.284001,1455.581446,1110.308913,9400.615463
524.284317,842.705048,1406.391290,9548.656652
524.284632,612.876398,1406.391290,9474.636058
524.284948,383.047749,962.267725,9548.656652
524.285263,153.219100,1036.288319,9770.718434
524.285579,-229.828649,888.247130,9770.718434
524.285894,-229.828649,814.226536,9918.759623
524.286210,-229.828649,888.247130,10066.800811
524.286526,-383.047749,962.267725,10066.800811
524.286841,-383.047749,1258.350101,10140.821405
524.287157,-459.657299,888.247130,10214.842000
524.287472,-306.438199,1184.329507,9844.739029
524.287788,153.219100,1036.288319,9474.636058
524.288103,76.609550,1332.370696,9696.697840
524.288419,459.657299,1480.411884,9474.636058
524.288734,229.828649,1554.432478,9474.636058
524.289050,766.095498,1184.329507,9400.615463
524.289365,459.657299,1184.329507,9474.636058
524.289681,229.828649,962.267725,9326.594869
524.289996,229.828649,592.164754,9696.697840
524.290312,229.828649,444.123565,9918.759623
524.290627,0.000000,370.102971,9918.759623
524.290943,-76.609550,222.061783,9992.780217
524.291258,-229.828649,-0.000000,10214.842000
524.291574,0.000000,-74.020594,10140.821405
524.291889,-306.438199,-222.061783,10066.800811
524.292205,0.000000,-74.020594,10066.800811
524.292520,0.000000,-74.020594,9918.759623
524.292836,153.219100,-0.000000,9770.718434
524.293151,1225.752797,-0.000000,9844.739029
524.293467,842.705048,-0.000000,9400.615463
524.293782,1072.533697,-0.000000,9400.615463
524.294098,1149.143247,-74.020594,9326.594869
524.294413,1455.581446,-0.000000,9030.512492
524.294729,1302.362347,-222.061783,9104.533087
524.295044,1455.581446,-0.000000,9104.533087
524.295360,1225.752797,-74.020594,9326.594869
524.295675,919.314598,-148.041188,9326.594869
524.295991,383.047749,-444.123565,9844.739029
524.296306,153.219100,-666.185348,9326.594869
524.296622,0.000000,-888.247130,9252.574275
524.296938,-229.828649,-1258.350101,9474.636058
524.297253,-383.047749,-1332.370696,9548.656652
524.297569,-229.828649,-1554.432478,9696.697840
524.297884,-766.095498,-1924.535449,9474.636058
524.298200,-766.095498,-2072.576638,9918.759623
524.298515,-689.485948,-2072.576638,9770.718434
524.298831,-459.657299,-1702.473667,9548.656652
524.299146,-306.438199,-1776.494261,9844.739029
524.299462,0.000000,-1924.535449,9252.574275
524.299777,229.828649,-1628.453072,9178.553681
524.300093,383.047749,-1480.411884,9030.512492
524.300408,766.095498,-1406.391290,8734.430116
524.300724,1072.533697,-1554.432478,8808.450710
524.301039,1225.752797,-1480.411884,8586.388927
524.301355,1072.533697,-1332.370696,8734.430116
524.301670,995.924147,-1850.514855,9178.553681
524.301986,919.314598,-1702.473667,9326.594869
524.302301,459.657299,-2146.597232,9252.574275
524.302617,536.266849,-1998.556043,9474.636058
524.302932,459.657299,-1776.494261,9548.656652
524.303248,459.657299,-1850.514855,9696.697840
524.303563,76.609550,-1776.494261,9548.656652
524.303879,459.657299,-1628.453072,9474.636058
524.304194,459.657299,-1628.453072,9622.677246
524.304510,842.705048,-1110.308913,9622.677246
524.304825,1455.581446,-666.185348,9252.574275
524.305141,1455.581446,-444.123565,9178.553681
524.305456,1685.410096,-222.061783,9104.533087
524.305772,1838.629195,-74.020594,8808.450710
524.306087,1991.848295,-0.000000,8734.430116
524.306403,1762.019645,222.061783,8882.471304
524.306718,1149.143247,518.144159,9030.512492
524.307034,1532.190996,444.123565,9178.553681
524.307350,1378.971896,740.205942,9400.615463
524.307665,919.314598,814.226536,9400.615463
524.307981,842.705048,1110.308913,9622.677246
524.308296,459.657299,1036.288319,9548.656652
524.308612,153.219100,1036.288319,9622.677246
524.308927,0.000000,888.247130,9622.677246
524.309243,0.000000,962.267725,9844.739029
524.309558,-153.219100,888.247130,10140.821405
524.309874,-689.485948,592.164754,9918.759623
524.310189,-1072.533697,814.226536,10214.842000
524.310505,-536.266849,666.185348,9770.718434
524.310820,-306.438199,962.267725,10214.842000
524.311136,76.609550,1332.370696,10140.821405
524.311451,0.000000,1332.370696,9992.780217
524.311767,153.219100,1480.411884,9992.780217
524.312082,76.609550,1480.411884,9696.697840
524.312398,536.266849,1258.350101,9474.636058
524.312713,383.047749,1406.391290,9696.697840
524.313029,459.657299,1036.288319,9696.697840
524.313344,536.266849,1110.308913,9548.656652
524.313660,459.657299,1036.288319,9622.677246
524.313975,306.438199,814.226536,9844.739029
524.314291,229.828649,296.082377,9918.759623
524.314606,-229.828649,370.102971,10066.800811
524.314922,0.000000,-0.000000,10214.842000
524.315237,-229.828649,-0.000000,9992.780217
524.315553,-229.828649,-0.000000,9992.780217
524.315868,-229.828649,222.061783,10066.800811
524.316184,0.000000,-148.041188,9918.759623
524.316499,0.000000,-0.000000,9548.656652
524.316815,306.438199,296.082377,9622.677246
524.317130,612.876398,-0.000000,9178.553681
524.317446,766.095498,148.041188,9178.553681
524.317762,995.924147,444.123565,9030.512492
524.318077,1072.533697,222.061783,9104.533087
524.318393,1072.533697,-0.000000,9030.512492
524.318708,995.924147,148.041188,9030.512492
524.319024,919.314598,-0.000000,9178.553681
524.319339,766.095498,-222.061783,9178.553681
524.319655,229.828649,-518.144159,9252.574275
524.319970,153.219100,-370.102971,9252.574275
524.320286,-383.047749,-666.185348,9400.615463
524.320601,-383.047749,-888.247130,9474.636058
524.320917,-919.314598,-1036.288319,9474.636058
524.321232,-536.266849,-1406.391290,9696.697840
524.321548,-689.485948,-1850.514855,9548.656652
524.321863,-536.266849,-1776.494261,9696.697840
524.322179,-842.705048,-1776.494261,9622.677246
524.322494,-459.657299,-1924.535449,9474.636058
524.322810,-306.438199,-1850.514855,9474.636058
524.323125,0.000000,-1628.453072,9104.533087
524.323441,229.828649,-1480.411884,8956.491898
524.323756,459.657299,-1480.411884,8956.491898
524.324072,766.095498,-1480.411884,9030.512492
524.324387,842.705048,-1406.391290,8734.430116
524.324703,919.314598,-1702.473667,8808.450710
524.325018,842.705048,-1628.453072,8956.491898
524.325334,612.876398,-1628.453072,9252.574275
524.325649,919.314598,-1776.494261,9104.533087
524.325965,459.657299,-1924.535449,9252.574275
524.326280,612.876398,-1776.494261,9326.594869
524.326596,383.047749,-1924.535449,9548.656652
524.326911,383.047749,-1776.494261,9770.718434
524.327227,766.095498,-1850.514855,9474.636058
524.327543,689.485948,-1776.494261,9474.636058
524.327858,612.876398,-1258.350101,9474.636058
524.328174,919.314598,-1036.288319,9474.636058
524.328489,612.876398,-888.247130,9178.553681
524.328805,1455.581446,-370.102971,9252.574275
524.329120,1532.190996,-148.041188,8956.491898
524.329436,1532.190996,-74.020594,9104.533087
524.329751,1762.019645,148.041188,8956.491898
524.330067,1608.800546,370.102971,8882.471304
524.330382,1838.629195,666.185348,8956.491898
524.330698,1455.581446,666.185348,9104.533087
524.331013,1302.362347,814.226536,9400.615463
524.331329,995.924147,888.247130,9474.636058
524.331644,842.705048,962.267725,9400.615463
524.331960,459.657299,1110.308913,9474.636058
524.332275,766.095498,1110.308913,9622.677246
524.332591,153.219100,1036.288319,9770.718434
524.332906,153.219100,962.267725,9622.677246
524.333222,383.047749,1036.288319,9918.759623
524.333537,-306.438199,888.247130,9844.739029
524.333853,-229.828649,1184.329507,10288.862594
524.334168,-229.828649,1258.350101,10066.800811
524.334484,-306.438199,1258.350101,9918.759623
524.334799,0.000000,1110.308913,9770.718434
524.335115,0.000000,1332.370696,9992.780217
524.335430,383.047749,1480.411884,9992.780217
524.335746,536.266849,1628.453072,9622.677246
524.336061,536.266849,1628.453072,9548.656652
524.336377,689.485948,1184.329507,9918.759623
524.336692,689.485948,1332.370696,9474.636058
524.337008,306.438199,1258.350101,9548.656652
524.337323,306.438199,888.247130,9770.718434
524.337639,229.828649,814.226536,9918.759623
524.337955,-229.828649,444.123565,10066.800811
524.338270,0.000000,518.144159,10140.821405
524.338586,76.609550,148.041188,10066.800811
524.338901,0.000000,-0.000000,10066.800811
524.339217,0.000000,148.041188,10140.821405
524.339532,-153.219100,-0.000000,10066.800811
524.339848,0.000000,222.061783,9918.759623
524.340163,459.657299,296.082377,9770.718434
524.340479,766.095498,370.102971,9474.636058
524.340794,842.705048,444.123565,9622.677246
524.341110,1072.533697,444.123565,9326.594869
524.341425,1225.752797,-0.000000,9178.553681
524.341741,1608.800546,-0.000000,9030.512492
524.342056,1378.971896,-0.000000,9178.553681
524.342372,1225.752797,-74.020594,9104.533087
524.342687,766.095498,-0.000000,9178.553681
524.343003,536.266849,-148.041188,9252.574275
524.343318,229.828649,-370.102971,9326.594869
524.343634,0.000000,-444.123565,9400.615463
524.343949,76.609550,-740.205942,9474.636058
524.344265,-383.047749,-1258.350101,9400.615463
524.344580,-842.705048,-1184.329507,9548.656652
524.344896,-612.876398,-1554.432478,9474.636058
524.345211,-536.266849,-1924.535449,9696.697840
524.345527,-842.705048,-2368.659014,9770.718434
524.345842,-842.705048,-1924.535449,9622.677246
524.346158,-766.095498,-1702.473667,9696.697840
524.346473,-383.047749,-1924.535449,9326.594869
524.346789,0.000000,-1850.514855,9178.553681
524.347104,0.000000,-1480.411884,9400.615463
524.347420,459.657299,-1776.494261,8808.450710
524.347735,766.095498,-1332.370696,8734.430116
524.348051,766.095498,-1628.453072,8808.450710
524.348367,919.314598,-1480.411884,8808.450710
524.348682,1072.533697,-1850.514855,8882.471304
524.348998,842.705048,-1998.556043,9178.553681
524.349313,919.314598,-1924.535449,9178.553681
524.349629,766.095498,-2072.576638,9474.636058
524.349944,1072.533697,-2146.597232,9104.533087
524.350260,612.876398,-2072.576638,9622.677246
524.350575,536.266849,-1628.453072,9548.656652
524.350891,842.705048,-1702.473667,9474.636058
524.351206,1072.533697,-1628.453072,9696.697840
524.351522,612.876398,-1628.453072,9548.656652
524.351837,1072.533697,-1258.350101,9400.615463
524.352153,1378.971896,-1110.308913,8882.471304
524.352468,1532.190996,-740.205942,9104.533087
524.352784,1608.800546,-518.144159,8956.491898
524.353099,1838.629195,-370.102971,8882.471304
524.353415,2068.457845,-74.020594,8882.471304
524.353730,1915.238745,-0.000000,8956.491898
524.354046,2068.457845,148.041188,8882.471304
524.354361,1685.410096,148.041188,8882.471304
524.354677,1225.752797,666.185348,9178.553681
524.354992,1072.533697,814.226536,9400.615463
524.355308,766.095498,740.205942,9178.553681
524.355623,306.438199,962.267725,9696.697840
524.355939,383.047749,444.123565,9622.677246
524.356254,153.219100,740.205942,9622.677246
524.356570,0.000000,666.185348,9548.656652
524.356885,-306.438199,962.267725,9918.759623
524.357201,-383.047749,888.247130,10066.800811
524.357516,-153.219100,814.226536,10214.842000
524.357832,-459.657299,1036.288319,10288.862594
524.358148,-383.047749,1554.432478,10140.821405
524.358463,0.000000,1480.411884,9992.780217
524.358779,0.000000,1554.432478,9770.718434
524.359094,0.000000,1332.370696,9918.759623
524.359410,459.657299,1480.411884,9474.636058
524.359725,306.438199,1480.411884,9474.636058
524.360041,536.266849,1554.432478,9548.656652
524.360356,536.266849,1332.370696,9770.718434
524.360672,459.657299,1258.350101,9770.718434
524.360987,0.000000,1110.308913,9918.759623
524.361303,0.000000,962.267725,9918.759623
524.361618,0.000000,666.185348,9992.780217
524.361934,-229.828649,592.164754,10140.821405
524.362249,-306.438199,370.102971,10288.862594
524.362565,-306.438199,222.061783,10066.800811
524.362880,-229.828649,296.082377,10214.842000
524.363196,0.000000,370.102971,10140.821405
524.363511,229.828649,370.102971,10066.800811
524.363827,536.266849,222.061783,9622.677246
524.364142,459.657299,444.123565,9696.697840
524.364458,612.876398,370.102971,9474.636058
524.364773,919.314598,518.144159,9474.636058
524.365089,1149.143247,592.164754,9400.615463
524.365404,1149.143247,444.123565,9178.553681
524.365720,1532.190996,148.041188,9326.594869
524.366035,919.314598,370.102971,9326.594869
524.366351,689.485948,-0.000000,9252.574275
524.366666,612.876398,-0.000000,9474.636058
524.366982,76.609550,-296.082377,9400.615463
524.367297,153.219100,-148.041188,9326.594869
524.367613,-306.438199,-518.144159,9622.677246
524.367928,-459.657299,-592.164754,9474.636058
524.368244,0.000000,-1110.308913,9622.677246
524.368560,-536.266849,-1406.391290,9844.739029
524.368876,-919.314598,-1702.473667,9622.677246
524.369191,-995.924147,-1850.514855,9622.677246
524.369507,-689.485948,-1850.514855,9622.677246
524.369823,-536.266849,-1776.494261,9474.636058
524.370138,0.000000,-1332.370696,9548.656652
524.370454,0.000000,-1554.432478,9178.553681
524.370770,153.219100,-1554.432478,8956.491898
524.371085,842.705048,-1332.370696,8734.430116
524.371401,995.924147,-1332.370696,8734.430116
524.371717,1149.143247,-1480.411884,8808.450710
524.372033,995.924147,-1554.432478,8808.450710
524.372348,919.314598,-1628.453072,8882.471304
524.372664,919.314598,-1628.453072,9178.553681
524.372980,766.095498,-2072.576638,8956.491898
524.373295,536.266849,-2220.617826,9104.533087
524.373611,612.876398,-2072.576638,9400.615463
524.373927,612.876398,-2072.576638,9474.636058
524.374243,536.266849,-1924.535449,9696.697840
524.374558,842.705048,-1776.494261,9474.636058
524.374874,612.876398,-1628.453072,9548.656652
524.375190,766.095498,-1554.432478,9400.615463
524.375505,995.924147,-1184.329507,9104.533087
524.375821,1149.143247,-888.247130,9030.512492
524.376137,1455.581446,-962.267725,8734.430116
524.376452,1608.800546,-444.123565,8734.430116
524.376768,1685.410096,-296.082377,8882.471304
524.377084,1838.629195,-148.041188,8956.491898
524.377400,1762.019645,-0.000000,8882.471304
524.377715,1762.019645,148.041188,9104.533087
524.378031,1149.143247,296.082377,9178.553681
524.378347,1302.362347,444.123565,9252.574275
524.378662,919.314598,814.226536,9178.553681
524.378978,536.266849,518.144159,9400.615463
524.379294,842.705048,592.164754,9474.636058
524.379609,153.219100,666.185348,9548.656652
524.379925,229.828649,740.205942,9622.677246
524.380241,-229.828649,370.102971,9696.697840
524.380557,-229.828649,814.226536,9844.739029
524.380872,-612.876398,592.164754,10288.862594
524.381188,-536.266849,962.267725,10066.800811
524.381504,-383.047749,1184.329507,10066.800811
524.381819,-459.657299,1258.350101,10066.800811
524.382135,-383.047749,1184.329507,9992.780217
524.382451,-306.438199,1554.432478,9918.759623
524.382766,383.047749,1406.391290,9696.697840
524.383082,229.828649,1332.370696,9474.636058
524.383398,383.047749,1406.391290,9622.677246
524.383714,766.095498,1554.432478,9918.759623
524.384029,153.219100,1258.350101,9770.718434
524.384345,229.828649,1110.308913,9844.739029
524.384661,153.219100,1184.329507,9992.780217
524.384976,0.000000,592.164754,9918.759623
524.385292,383.047749,592.164754,9918.759623
524.385608,76.609550,370.102971,10288.862594
524.385923,76.609550,370.102971,10066.800811
524.386239,0.000000,222.061783,10214.842000
524.386555,-76.609550,370.102971,9992.780217
524.386871,76.609550,296.082377,10066.800811
524.387186,383.047749,296.082377,9844.739029
524.387502,459.657299,296.082377,9548.656652
524.387818,995.924147,592.164754,9548.656652
524.388133,1072.533697,296.082377,9474.636058
524.388449,1302.362347,740.205942,9400.615463
524.388765,1532.190996,444.123565,9252.574275
524.389080,1302.362347,370.102971,9104.533087
524.389396,1302.362347,518.144159,9178.553681
524.389712,1378.971896,222.061783,9178.553681
524.390028,919.314598,222.061783,9326.594869
524.390343,689.485948,-0.000000,9178.553681
524.390659,306.438199,-0.000000,9326.594869
524.390975,0.000000,-148.041188,9326.594869
524.391290,76.609550,-370.102971,9252.574275
524.391606,-306.438199,-1036.288319,9474.636058
524.391922,-536.266849,-1036.288319,9474.636058
524.392238,-689.485948,-1480.411884,9474.636058
524.392553,-689.485948,-1628.453072,9770.718434
524.392869,-689.485948,-1776.494261,9770.718434
524.393185,-536.266849,-1702.473667,9548.656652
524.393500,-383.047749,-1702.473667,9622.677246
524.393816,0.000000,-1554.432478,9326.594869
524.394132,229.828649,-1480.411884,9178.553681
524.394447,536.266849,-1406.391290,8882.471304
524.394763,612.876398,-1258.350101,8660.409521
524.395079,842.705048,-1258.350101,8438.347739
524.395395,1072.533697,-1406.391290,8734.430116
524.395710,1149.143247,-1628.453072,8882.471304
524.396026,919.314598,-1628.453072,8882.471304
524.396342,1072.533697,-1850.514855,9104.533087
524.396657,689.485948,-1702.473667,9104.533087
524.396973,612.876398,-2146.597232,9252.574275
524.397289,612.876398,-1998.556043,9548.656652
524.397604,536.266849,-1850.514855,9474.636058
524.397920,459.657299,-1776.494261,9474.636058
524.398236,536.266849,-1776.494261,9474.636058
524.398552,689.485948,-1554.432478,9474.636058
524.398867,689.485948,-1480.411884,9400.615463
524.399183,995.924147,-1258.350101,9252.574275
524.399499,1455.581446,-814.226536,8956.491898
524.399814,1685.410096,-666.185348,8956.491898
524.400130,1762.019645,-518.144159,9104.533087
524.400446,1915.238745,-222.061783,8956.491898
524.400761,1915.238745,-74.020594,8734.430116
524.401077,1838.629195,222.061783,9030.512492
524.401393,1532.190996,222.061783,9178.553681
524.401709,2221.676944,296.082377,9030.512492
524.402024,842.705048,370.102971,9252.574275
524.402340,689.485948,740.205942,9474.636058
524.402656,383.047749,444.123565,9326.594869
524.402971,306.438199,444.123565,9474.636058
524.403287,-459.657299,518.144159,9696.697840
524.403603,0.000000,296.082377,9770.718434
524.403918,-153.219100,370.102971,9770.718434
524.404234,-459.657299,518.144159,10066.800811
524.404550,-306.438199,592.164754,9992.780217
524.404866,-383.047749,962.267725,10140.821405
524.405181,-536.266849,1036.288319,10288.862594
524.405497,-153.219100,1036.288319,9622.677246
524.405813,-383.047749,1036.288319,9918.759623
524.406128,0.000000,1184.329507,9622.677246
524.406444,-153.219100,1332.370696,9770.718434
524.406760,76.609550,1406.391290,9696.697840
524.407075,306.438199,1184.329507,9548.656652
524.407391,536.266849,1332.370696,9622.677246
524.407707,76.609550,1332.370696,10066.800811
524.408023,229.828649,740.205942,9992.780217
524.408338,153.219100,814.226536,9844.739029
524.408654,0.000000,518.144159,9844.739029
524.408970,0.000000,296.082377,10066.800811
524.409285,-229.828649,222.061783,10140.821405
524.409601,-229.828649,-0.000000,9844.739029
524.409917,0.000000,-0.000000,9992.780217
524.410233,-153.219100,222.061783,10066.800811
524.410548,229.828649,370.102971,9992.780217
524.410864,306.438199,444.123565,9770.718434
524.411180,536.266849,-0.000000,9474.636058
524.411495,919.314598,518.144159,9326.594869
524.411811,1072.533697,518.144159,9400.615463
524.412127,1149.143247,592.164754,9474.636058
524.412442,1685.410096,518.144159,9252.574275
524.412758,1225.752797,444.123565,9104.533087
524.413074,995.924147,370.102971,9178.553681
524.413390,995.924147,148.041188,9030.512492
524.413705,689.485948,-0.000000,9326.594869
524.414021,383.047749,-0.000000,9400.615463
524.414337,153.219100,-74.020594,9474.636058
524.414652,-153.219100,-222.061783,9474.636058
524.414968,-306.438199,-592.164754,9548.656652
524.415284,-383.047749,-814.226536,9400.615463
524.415599,-919.314598,-1332.370696,9326.594869
524.415915,-536.266849,-1258.350101,9548.656652
524.416231,-766.095498,-1406.391290,9696.697840
524.416547,-766.095498,-1480.411884,9622.677246
524.416862,-689.485948,-1480.411884,9770.718434
524.417178,-229.828649,-1406.391290,9548.656652
524.417494,153.219100,-1258.350101,9252.574275
524.417809,153.219100,-1406.391290,9178.553681
524.418125,383.047749,-1258.350101,8808.450710
524.418441,842.705048,-1332.370696,8660.409521
524.418756,1072.533697,-1258.350101,8734.430116
524.419072,1149.143247,-1258.350101,8734.430116
524.419388,1072.533697,-1332.370696,8882.471304
524.419704,919.314598,-1480.411884,8956.491898
524.420019,766.095498,-1776.494261,9178.553681
524.420335,919.314598,-1628.453072,9474.636058
524.420651,76.609550,-1776.494261,9622.677246
524.420966,153.219100,-1924.535449,9696.697840
524.421282,459.657299,-1850.514855,9622.677246
524.421598,383.047749,-1554.432478,9548.656652
524.421913,612.876398,-1702.473667,9770.718434
524.422229,459.657299,-1628.453072,9548.656652
524.422545,842.705048,-1184.329507,9400.615463
524.422861,919.314598,-888.247130,9178.553681
524.423176,995.924147,-888.247130,9104.533087
524.423492,1838.629195,-888.247130,8882.471304
524.423808,2068.457845,-222.061783,8882.471304
524.424123,2068.457845,-0.000000,8586.388927
524.424439,1685.410096,-0.000000,8956.491898
524.424755,1455.581446,222.061783,9030.512492
524.425070,1685.410096,222.061783,8956.491898
524.425386,1225.752797,444.123565,9178.553681
524.425702,689.485948,740.205942,9326.594869
524.426018,842.705048,814.226536,9474.636058
524.426333,536.266849,888.247130,9696.697840
524.426649,306.438199,592.164754,9474.636058
524.426965,0.000000,370.102971,9844.739029
524.427280,-306.438199,-0.000000,9696.697840
524.427596,-536.266849,518.144159,9844.739029
524.427912,-229.828649,370.102971,9918.759623
524.428228,-459.657299,666.185348,10140.821405
524.428543,-229.828649,740.205942,9918.759623
524.428859,-459.657299,962.267725,9992.780217
524.429175,-229.828649,962.267725,9696.697840
524.429490,0.000000,1184.329507,9844.739029
524.429806,153.219100,1110.308913,9844.739029
524.430122,76.609550,1406.391290,9622.677246
524.430437,383.047749,1258.350101,9326.594869
524.430753,383.047749,1110.308913,9474.636058
524.431069,383.047749,962.267725,9622.677246
524.431385,229.828649,1036.288319,9548.656652
524.431700,153.219100,666.185348,9696.697840
524.432016,306.438199,592.164754,9844.739029
524.432332,76.609550,592.164754,10066.800811
524.432647,0.000000,222.061783,9992.780217
524.432963,0.000000,296.082377,10066.800811
524.433279,153.219100,-0.000000,9918.759623
524.433594,0.000000,222.061783,10066.800811
524.433910,76.609550,296.082377,10066.800811
524.434226,0.000000,222.061783,9844.739029
524.434542,459.657299,296.082377,9696.697840
524.434857,459.657299,370.102971,9474.636058
524.435173,842.705048,518.144159,9474.636058
524.435489,1378.971896,296.082377,9474.636058
524.435804,1225.752797,518.144159,9400.615463
524.436120,1455.581446,222.061783,9326.594869
524.436436,1532.190996,518.144159,8956.491898
524.436751,1149.143247,-0.000000,9178.553681
524.437067,689.485948,-0.000000,9474.636058
524.437383,766.095498,-0.000000,9400.615463
524.437699,383.047749,-0.000000,9326.594869
524.438014,76.609550,-74.020594,9326.594869
524.438330,0.000000,-296.082377,9326.594869
524.438646,0.000000,-888.247130,9252.574275
524.438961,-383.047749,-1036.288319,9474.636058
524.439277,-612.876398,-1184.329507,9696.697840
524.439593,-536.266849,-1332.370696,9474.636058
524.439908,-689.485948,-1554.432478,9770.718434
524.440224,-995.924147,-1332.370696,9918.759623
524.440540,-383.047749,-1332.370696,9474.636058
524.440856,-383.047749,-1184.329507,9548.656652
524.441171,153.219100,-1110.308913,9326.594869
524.441487,459.657299,-1184.329507,9104.533087
524.441803,306.438199,-962.267725,9178.553681
524.442118,766.095498,-1184.329507,8586.388927
524.442434,995.924147,-1184.329507,8808.450710
524.442750,1072.533697,-1184.329507,8956.491898
524.443065,842.705048,-1480.411884,9252.574275
524.443381,689.485948,-1702.473667,9178.553681
524.443697,612.876398,-1702.473667,9474.636058
524.444013,536.266849,-1702.473667,9548.656652
524.444328,536.266849,-1702.473667,9474.636058
524.444644,612.876398,-2146.597232,9548.656652
524.444960,766.095498,-1850.514855,9326.594869
524.445275,612.876398,-1702.473667,9548.656652
524.445591,842.705048,-1628.453072,9696.697840
524.445907,689.485948,-888.247130,9474.636058
524.446223,919.314598,-1258.350101,9326.594869
524.446538,1378.971896,-1036.288319,9178.553681
524.446854,1302.362347,-740.205942,8956.491898
524.447170,1608.800546,-518.144159,8882.471304
524.447485,1991.848295,-592.164754,8808.450710
524.447801,1838.629195,-74.020594,8808.450710
524.448117,1762.019645,-0.000000,9030.512492
524.448432,1762.019645,296.082377,9030.512492
524.448748,1685.410096,296.082377,9326.594869
524.449064,1455.581446,-0.000000,9326.594869
524.449380,766.095498,592.164754,9474.636058
524.449695,766.095498,740.205942,9178.553681
524.450011,766.095498,592.164754,9400.615463
524.450327,459.657299,370.102971,9400.615463
524.450642,0.000000,296.082377,9770.718434
524.450958,-153.219100,222.061783,9548.656652
524.451274,-306.438199,444.123565,9696.697840
524.451589,-306.438199,666.185348,9844.739029
524.451905,-689.485948,592.164754,10066.800811
524.452221,-612.876398,592.164754,9844.739029
524.452537,-612.876398,592.164754,10066.800811
524.452852,0.000000,1036.288319,9844.739029
524.453168,-306.438199,1036.288319,9770.718434
524.453484,306.438199,1184.329507,9622.677246
524.453799,229.828649,1332.370696,9696.697840
524.454115,153.219100,1258.350101,9474.636058
524.454431,383.047749,1258.350101,9622.677246
524.454746,459.657299,1036.288319,9548.656652
524.455062,766.095498,592.164754,9474.636058
524.455378,536.266849,962.267725,9918.759623
524.455694,0.000000,740.205942,9844.739029
524.456009,0.000000,518.144159,9918.759623
524.456325,76.609550,296.082377,10214.842000
524.456641,-153.219100,444.123565,10066.800811
524.456956,0.000000,74.020594,10140.821405
524.457272,0.000000,148.041188,10140.821405
524.457588,0.000000,222.061783,9992.780217
524.457903,306.438199,296.082377,9992.780217
524.458219,306.438199,518.144159,9770.718434
524.458535,612.876398,222.061783,9548.656652
524.458851,459.657299,296.082377,9400.615463
524.459166,1149.143247,592.164754,9474.636058
524.459482,995.924147,370.102971,9252.574275
524.459798,1072.533697,370.102971,9178.553681
524.460113,1072.533697,296.082377,9178.553681
524.460429,1225.752797,296.082377,9474.636058
524.460745,612.876398,296.082377,9252.574275
524.461060,383.047749,-0.000000,9178.553681
524.461376,383.047749,-0.000000,9252.574275
524.461692,229.828649,-222.061783,9474.636058
524.462008,229.828649,-370.102971,9178.553681
524.462323,0.000000,-666.185348,9548.656652
524.462639,-383.047749,-1036.288319,9326.594869
524.462955,-536.266849,-1258.350101,9770.718434
524.463270,-536.266849,-1480.411884,9696.697840
524.463586,-689.485948,-1406.391290,9696.697840
524.463902,-459.657299,-1480.411884,9696.697840
524.464217,-536.266849,-1332.370696,9474.636058
524.464533,0.000000,-1332.370696,9474.636058
524.464849,0.000000,-1110.308913,9252.574275
524.465165,689.485948,-1480.411884,9252.574275
524.465480,689.485948,-1258.350101,8882.471304
524.465796,689.485948,-1184.329507,8808.450710
524.466112,1302.362347,-1628.453072,8438.347739
524.466427,766.095498,-1332.370696,9030.512492
524.466743,689.485948,-1480.411884,9104.533087
524.467059,766.095498,-1554.432478,9252.574275
524.467375,536.266849,-1776.494261,9178.553681
524.467690,689.485948,-1332.370696,9548.656652
524.468006,459.657299,-1776.494261,9622.677246
524.468322,229.828649,-1850.514855,9548.656652
524.468637,229.828649,-1628.453072,9400.615463
524.468953,459.657299,-1628.453072,9326.594869
524.469269,0.000000,-1702.473667,9622.677246
524.469585,766.095498,-1406.391290,9326.594869
524.469900,842.705048,-1036.288319,9178.553681
524.470216,1072.533697,-740.205942,9104.533087
524.470532,1225.752797,-592.164754,8882.471304
524.470848,1608.800546,-740.205942,9104.533087
524.471163,1991.848295,-148.041188,8808.450710
524.471479,1685.410096,-222.061783,8808.450710
524.471795,1838.629195,222.061783,8956.491898
524.472111,1838.629195,-0.000000,8882.471304
524.472426,1838.629195,888.247130,9252.574275
524.472742,995.924147,444.123565,9030.512492
524.473058,842.705048,592.164754,9400.615463
524.473374,536.266849,518.144159,9252.574275
524.473690,766.095498,518.144159,9104.533087
524.474005,229.828649,518.144159,9326.594869
524.474321,229.828649,814.226536,9918.759623
524.474637,153.219100,518.144159,9474.636058
524.474953,-306.438199,740.205942,9844.739029
524.475268,0.000000,592.164754,9918.759623
524.475584,-153.219100,814.226536,9992.780217
524.475900,-536.266849,1184.329507,10140.821405
524.476216,-306.438199,1184.329507,9844.739029
524.476531,-153.219100,1258.350101,9696.697840
524.476847,0.000000,1110.308913,9918.759623
524.477163,0.000000,1480.411884,9918.759623
524.477479,153.219100,1406.391290,9622.677246
524.477794,76.609550,1184.329507,9696.697840
524.478110,76.609550,1480.411884,9622.677246
524.478426,306.438199,1258.350101,9844.739029
524.478742,76.609550,962.267725,9844.739029
524.479058,0.000000,740.205942,9918.759623
524.479373,153.219100,666.185348,9918.759623
524.479689,0.000000,518.144159,10214.842000
524.480005,153.219100,444.123565,10362.883188
524.480321,0.000000,222.061783,10362.883188
524.480636,0.000000,-0.000000,9918.759623
524.480952,0.000000,-0.000000,10066.800811
524.481268,229.828649,296.082377,10214.842000
524.481584,306.438199,222.061783,9992.780217
524.481899,383.047749,296.082377,9770.718434
524.482215,766.095498,148.041188,9474.636058
524.482531,1225.752797,-0.000000,9400.615463
524.482847,1455.581446,-74.020594,9400.615463
524.483163,995.924147,222.061783,9400.615463
524.483478,995.924147,370.102971,9326.594869
524.483794,1455.581446,296.082377,9178.553681
524.484110,919.314598,-0.000000,9326.594869
524.484426,1072.533697,-0.000000,9400.615463
524.484741,612.876398,148.041188,9400.615463
524.485057,306.438199,-74.020594,9252.574275
524.485373,0.000000,-444.123565,9178.553681
524.485689,0.000000,-592.164754,9400.615463
524.486004,-153.219100,-1184.329507,9770.718434
524.486320,-306.438199,-1258.350101,9474.636058
524.486636,-459.657299,-1406.391290,9622.677246
524.486952,-536.266849,-1702.473667,9918.759623
524.487267,-612.876398,-1554.432478,9696.697840
524.487583,-766.095498,-1924.535449,9696.697840
524.487899,-153.219100,-1554.432478,9474.636058
524.488215,0.000000,-1480.411884,9178.553681
524.488531,76.609550,-1406.391290,9178.553681
524.488846,536.266849,-1332.370696,8882.471304
524.489162,842.705048,-1036.288319,8734.430116
524.489478,842.705048,-1332.370696,8808.450710
524.489794,1302.362347,-1258.350101,8882.471304
524.490109,1072.533697,-1554.432478,8808.450710
524.490425,842.705048,-1776.494261,8882.471304
524.490741,766.095498,-1924.535449,9178.553681
524.491057,766.095498,-1924.535449,9104.533087
524.491372,766.095498,-1924.535449,9400.615463
524.491688,536.266849,-1776.494261,9474.636058
524.492004,612.876398,-1998.556043,9992.780217
524.492320,459.657299,-1702.473667,9474.636058
524.492635,536.266849,-1628.453072,9474.636058
524.492951,612.876398,-1480.411884,9548.656652
524.493267,689.485948,-1184.329507,9326.594869
524.493583,842.705048,-1406.391290,9252.574275
524.493899,1378.971896,-592.164754,9030.512492
524.494214,1378.971896,-666.185348,8956.491898
524.494530,1378.971896,-444.123565,9030.512492
524.494846,1762.019645,-222.061783,8956.491898
524.495162,1838.629195,-74.020594,9178.553681
524.495477,1762.019645,-0.000000,9252.574275
524.495793,1455.581446,370.102971,9326.594869
524.496109,1378.971896,592.164754,9178.553681
524.496425,1072.533697,814.226536,9548.656652
524.496740,766.095498,666.185348,9548.656652
524.497056,383.047749,666.185348,9474.636058
524.497372,153.219100,740.205942,9474.636058
524.497688,76.609550,444.123565,9770.718434
524.498004,-306.438199,592.164754,9918.759623
524.498319,0.000000,592.164754,9844.739029
524.498635,-306.438199,740.205942,9918.759623
524.498951,-459.657299,666.185348,9992.780217
524.499267,-383.047749,814.226536,10140.821405
524.499582,-383.047749,740.205942,9992.780217
524.499898,-459.657299,1184.329507,9770.718434
524.500214,-383.047749,1184.329507,9992.780217
524.500530,76.609550,1332.370696,9770.718434
524.500845,153.219100,1480.411884,9622.677246
524.501161,229.828649,1406.391290,9770.718434
524.501477,383.047749,1184.329507,9622.677246
524.501793,383.047749,1258.350101,9696.697840
524.502108,383.047749,1036.288319,9696.697840
524.502424,459.657299,962.267725,9992.780217
524.502740,153.219100,666.185348,9696.697840
524.503056,459.657299,518.144159,9622.677246
524.503372,153.219100,370.102971,9992.780217
524.503687,0.000000,222.061783,10140.821405
524.504003,383.047749,-0.000000,10140.821405
524.504319,0.000000,-0.000000,9992.780217
524.504635,0.000000,222.061783,10140.821405
524.504950,76.609550,296.082377,9918.759623
524.505266,383.047749,296.082377,9770.718434
524.505582,612.876398,444.123565,9474.636058
524.505898,842.705048,296.082377,9548.656652
524.506213,995.924147,370.102971,9400.615463
524.506529,1149.143247,296.082377,9104.533087
524.506845,1072.533697,-0.000000,9178.553681
524.507161,1455.581446,-0.000000,9252.574275
524.507477,1072.533697,-0.000000,9104.533087
524.507792,919.314598,148.041188,9326.594869
524.508108,459.657299,-0.000000,9178.553681
524.508424,689.485948,-0.000000,9400.615463
524.508740,0.000000,-148.041188,9400.615463
524.509055,-153.219100,-592.164754,9252.574275
524.509371,-383.047749,-740.205942,9400.615463
524.509687,-459.657299,-1110.308913,9326.594869
524.510003,-689.485948,-1406.391290,9474.636058
524.510318,-689.485948,-1554.432478,9548.656652
524.510634,-612.876398,-1628.453072,9696.697840
524.510950,-612.876398,-1480.411884,9474.636058
524.511266,-229.828649,-1480.411884,9400.615463
524.511581,-459.657299,-1332.370696,9400.615463
524.511897,306.438199,-1110.308913,9474.636058
524.512213,306.438199,-1110.308913,9104.533087
524.512529,383.047749,-1332.370696,8956.491898
524.512845,459.657299,-1332.370696,8882.471304
524.513160,919.314598,-1406.391290,8734.430116
524.513476,1072.533697,-1332.370696,8734.430116
524.513792,842.705048,-1406.391290,9030.512492
524.514108,842.705048,-1406.391290,9104.533087
524.514423,459.657299,-1628.453072,9178.553681
524.514739,612.876398,-1850.514855,9548.656652
524.515055,153.219100,-2072.576638,9770.718434
524.515371,383.047749,-1850.514855,9770.718434
524.515686,76.609550,-1850.514855,9548.656652
524.516002,536.266849,-1702.473667,9548.656652
524.516318,229.828649,-962.267725,9918.759623
524.516634,612.876398,-1258.350101,9548.656652
524.516950,842.705048,-1258.350101,9326.594869
524.517265,1072.533697,-740.205942,9326.594869
524.517581,1225.752797,-814.226536,9178.553681
524.517897,1378.971896,-444.123565,8956.491898
524.518213,1685.410096,-296.082377,8808.450710
524.518528,1838.629195,-148.041188,8882.471304
524.518844,1532.190996,-0.000000,9104.533087
524.519160,1608.800546,370.102971,9178.553681
524.519476,1378.971896,222.061783,9326.594869
524.519791,1072.533697,518.144159,9326.594869
524.520107,612.876398,740.205942,9400.615463
524.520423,689.485948,814.226536,9400.615463
524.520739,612.876398,592.164754,9622.677246
524.521054,459.657299,370.102971,9548.656652
524.521370,0.000000,518.144159,9696.697840
524.521686,-459.657299,592.164754,9918.759623
524.522002,-153.219100,518.144159,9844.739029
524.522318,0.000000,740.205942,9918.759623
524.522633,-229.828649,740.205942,9992.780217
524.522949,0.000000,1184.329507,9770.718434
524.523265,-229.828649,962.267725,9696.697840
524.523581,-229.828649,1036.288319,9770.718434
524.523896,383.047749,1406.391290,9622.677246
524.524212,76.609550,1184.329507,9696.697840
524.524528,536.266849,1406.391290,9622.677246
524.524844,536.266849,1332.370696,9474.636058
524.525159,459.657299,1184.329507,9400.615463
524.525475,689.485948,962.267725,9474.636058
524.525791,306.438199,962.267725,9696.697840
524.526107,229.828649,666.185348,9844.739029
524.526422,0.000000,518.144159,9770.718434
524.526738,0.000000,296.082377,10066.800811
524.527054,306.438199,296.082377,10140.821405
524.527370,0.000000,148.041188,10510.924376
524.527686,153.219100,148.041188,9992.780217
524.528001,-229.828649,-0.000000,10066.800811
524.528317,229.828649,296.082377,9918.759623
524.528633,0.000000,222.061783,9844.739029
524.528949,612.876398,592.164754,9622.677246
524.529264,689.485948,296.082377,9474.636058
524.529580,1072.533697,444.123565,9326.594869
524.529896,1302.362347,592.164754,9030.512492
524.530212,995.924147,444.123565,9400.615463
524.530527,1072.533697,222.061783,9326.594869
524.530843,1149.143247,148.041188,9252.574275
524.531159,995.924147,148.041188,9252.574275
524.531475,536.266849,-0.000000,9326.594869
524.531791,306.438199,-0.000000,9474.636058
524.532106,153.219100,-148.041188,9326.594869
524.532422,153.219100,-222.061783,9474.636058
524.532738,-153.219100,-222.061783,9474.636058
524.533054,-536.266849,-740.205942,9696.697840
524.533369,-536.266849,-1258.350101,9622.677246
524.533685,-919.314598,-1628.453072,9622.677246
524.534001,-689.485948,-1702.473667,9622.677246
524.534317,-612.876398,-1850.514855,9770.718434
524.534632,-612.876398,-1406.391290,9622.677246
524.534948,-306.438199,-1554.432478,9474.636058
524.535264,-229.828649,-1332.370696,9474.636058
524.535580,383.047749,-1258.350101,9178.553681
524.535895,766.095498,-1110.308913,9104.533087
524.536211,459.657299,-1258.350101,8734.430116
524.536527,919.314598,-1184.329507,8808.450710
524.536843,1149.143247,-1332.370696,8660.409521
524.537159,919.314598,-1480.411884,8882.471304
524.537474,766.095498,-1924.535449,8956.491898
524.537790,1149.143247,-1702.473667,9178.553681
524.538106,842.705048,-1998.556043,9326.594869
524.538422,689.485948,-1776.494261,9400.615463
524.538737,536.266849,-1924.535449,9548.656652
524.539053,383.047749,-1924.535449,9474.636058
524.539369,459.657299,-1850.514855,9474.636058
524.539685,689.485948,-1554.432478,9474.636058
524.540000,842.705048,-1332.370696,9548.656652
524.540316,919.314598,-1184.329507,9474.636058
524.540632,1072.533697,-814.226536,9252.574275
524.540948,1072.533697,-962.267725,9252.574275
524.541264,1685.410096,-296.082377,9104.533087
524.541579,1762.019645,-296.082377,8808.450710
524.541895,1915.238745,-222.061783,8882.471304
524.542211,1991.848295,-74.020594,9178.553681
524.542527,1838.629195,-0.000000,9104.533087
524.542842,1608.800546,-0.000000,9030.512492
524.543158,1302.362347,444.123565,9326.594869
524.543474,1149.143247,296.082377,9178.553681
524.543790,842.705048,740.205942,9252.574275
524.544105,612.876398,814.226536,9696.697840
524.544421,536.266849,740.205942,9474.636058
524.544737,0.000000,444.123565,9622.677246
524.545053,0.000000,444.123565,9918.759623
524.545368,-383.047749,666.185348,9696.697840
524.545684,-306.438199,518.144159,9918.759623
524.546000,-459.657299,666.185348,10066.800811
524.546316,-536.266849,814.226536,10066.800811
524.546632,-153.219100,814.226536,9992.780217
524.546947,-229.828649,592.164754,9844.739029
524.547263,0.000000,1184.329507,10066.800811
524.547579,306.438199,1480.411884,9474.636058
524.547895,229.828649,1480.411884,9696.697840
524.548210,306.438199,1332.370696,9548.656652
524.548526,383.047749,1258.350101,9696.697840
524.548842,153.219100,1332.370696,9622.677246
524.549158,0.000000,1036.288319,9474.636058
524.549473,0.000000,888.247130,9770.718434
524.549789,0.000000,592.164754,9696.697840
524.550105,-229.828649,222.061783,10140.821405
524.550421,-76.609550,444.123565,10140.821405
524.550736,-612.876398,222.061783,10214.842000
524.551052,-229.828649,296.082377,10140.821405
524.551368,0.000000,222.061783,10140.821405
524.551684,0.000000,-0.000000,10214.842000
524.552000,76.609550,370.102971,10214.842000
524.552315,153.219100,222.061783,9992.780217
524.552631,689.485948,518.144159,9548.656652
524.552947,1225.752797,518.144159,9548.656652
524.553263,1608.800546,370.102971,9474.636058
524.553578,1302.362347,666.185348,9326.594869
524.553894,1149.143247,444.123565,9178.553681
524.554210,1072.533697,296.082377,9326.594869
524.554526,1072.533697,-0.000000,9252.574275
524.554841,842.705048,222.061783,9326.594869
524.555157,766.095498,-0.000000,9400.615463
524.555473,536.266849,-296.082377,9252.574275
524.555789,0.000000,-518.144159,9252.574275
524.556105,0.000000,-370.102971,9326.594869
524.556420,0.000000,-888.247130,9474.636058
524.556736,-306.438199,-962.267725,9474.636058
524.557052,-612.876398,-1110.308913,9622.677246
524.557368,-766.095498,-1554.432478,9696.697840
524.557683,-919.314598,-1628.453072,9770.718434
524.557999,-459.657299,-1776.494261,9770.718434
524.558315,-612.876398,-1628.453072,9548.656652
524.558631,0.000000,-1332.370696,9474.636058
524.558946,229.828649,-1332.370696,9104.533087
524.559262,383.047749,-1406.391290,9178.553681
524.559578,459.657299,-1702.473667,8512.368333
524.559894,459.657299,-1480.411884,8512.368333
524.560209,995.924147,-1258.350101,8512.368333
524.560525,1149.143247,-1110.308913,8808.450710
524.560841,1532.190996,-1776.494261,9104.533087
524.561157,766.095498,-1702.473667,8882.471304
524.561473,689.485948,-1924.535449,9104.533087
524.561788,612.876398,-1776.494261,9326.594869
524.562104,536.266849,-1998.556043,9474.636058
524.562420,536.266849,-2072.576638,9548.656652
524.562736,306.438199,-1702.473667,9696.697840
524.563051,306.438199,-1702.473667,9696.697840
524.563367,306.438199,-1480.411884,9474.636058
524.563683,459.657299,-1184.329507,9474.636058
524.563999,995.924147,-1258.350101,9252.574275
524.564314,1302.362347,-740.205942,9030.512492
524.564630,1378.971896,-518.144159,9030.512492
524.564946,1762.019645,-370.102971,8956.491898
524.565262,1762.019645,-222.061783,8882.471304
524.565578,1838.629195,-148.041188,8808.450710
524.565893,1838.629195,-0.000000,9030.512492
524.566209,1685.410096,518.144159,8882.471304
524.566525,1225.752797,518.144159,9030.512492
524.566841,1072.533697,592.164754,9252.574275
524.567156,919.314598,814.226536,9252.574275
524.567472,766.095498,740.205942,9474.636058
524.567788,383.047749,740.205942,9622.677246
524.568104,153.219100,740.205942,9622.677246
524.568419,153.219100,444.123565,9696.697840
524.568735,-612.876398,296.082377,9770.718434
524.569051,-306.438199,666.185348,9696.697840
524.569367,-383.047749,666.185348,10066.800811
524.569682,-306.438199,1036.288319,10140.821405
524.569998,-306.438199,1110.308913,9992.780217
524.570314,-306.438199,962.267725,9992.780217
524.570630,-76.609550,1332.370696,9918.759623
524.570945,0.000000,1480.411884,9918.759623
524.571261,153.219100,1480.411884,9844.739029
524.571577,0.000000,1480.411884,9696.697840
524.571893,383.047749,1332.370696,9696.697840
524.572208,153.219100,1184.329507,9770.718434
524.572524,229.828649,1184.329507,9622.677246
524.572840,153.219100,1184.329507,9918.759623
524.573155,76.609550,592.164754,9992.780217
524.573471,153.219100,666.185348,10066.800811
524.573787,76.609550,444.123565,9918.759623
524.574103,-229.828649,296.082377,10140.821405
524.574418,76.609550,-0.000000,10214.842000
524.574734,-153.219100,-0.000000,10140.821405
524.575050,0.000000,-0.000000,10288.862594
524.575365,0.000000,296.082377,10140.821405
524.575681,153.219100,-0.000000,9992.780217
524.575997,612.876398,296.082377,9770.718434
524.576313,1072.533697,-148.041188,9622.677246
524.576628,919.314598,296.082377,9252.574275
524.576944,1072.533697,370.102971,9326.594869
524.577260,1072.533697,148.041188,9104.533087
524.577575,1685.410096,370.102971,9326.594869
524.577891,995.924147,296.082377,9326.594869
524.578207,1072.533697,222.061783,9178.553681
524.578523,766.095498,-74.020594,9474.636058
524.578838,459.657299,-74.020594,9326.594869
524.579154,153.219100,-74.020594,9252.574275
524.579470,76.609550,-444.123565,9400.615463
524.579786,0.000000,-518.144159,9400.615463
524.580101,-306.438199,-888.247130,9474.636058
524.580417,-536.266849,-1332.370696,9400.615463
524.580733,-612.876398,-1332.370696,9474.636058
524.581048,-306.438199,-1554.432478,9918.759623
524.581364,-536.266849,-1480.411884,9474.636058
524.581680,-842.705048,-1554.432478,9622.677246
524.581996,-612.876398,-1776.494261,9548.656652
524.582311,-536.266849,-1628.453072,9252.574275
524.582627,0.000000,-1406.391290,9104.533087
524.582943,229.828649,-1332.370696,9030.512492
524.583258,459.657299,-1258.350101,8808.450710
524.583574,689.485948,-1110.308913,8660.409521
524.583890,1225.752797,-1406.391290,9030.512492
524.584206,1302.362347,-1406.391290,8734.430116
524.584521,995.924147,-1554.432478,8956.491898
524.584837,459.657299,-1702.473667,9104.533087
524.585153,612.876398,-1776.494261,9326.594869
524.585468,-229.828649,-1628.453072,9400.615463
524.585784,383.047749,-2146.597232,9474.636058
524.586100,383.047749,-1924.535449,9770.718434
524.586416,383.047749,-1776.494261,9770.718434
524.586731,612.876398,-1554.432478,9622.677246
524.587047,995.924147,-1110.308913,9770.718434
524.587363,1072.533697,-1036.288319,9474.636058
524.587678,1225.752797,-1036.288319,9178.553681
524.587994,1378.971896,-814.226536,9178.553681
524.588310,1455.581446,-666.185348,9030.512492
524.588626,1762.019645,-518.144159,8882.471304
524.588941,2068.457845,-296.082377,8882.471304
524.589257,1991.848295,-222.061783,8882.471304
524.589573,1915.238745,-0.000000,8956.491898
524.589889,1991.848295,222.061783,9400.615463
524.590204,1302.362347,444.123565,9178.553681
524.590520,1072.533697,444.123565,9548.656652
524.590836,919.314598,740.205942,9474.636058
524.591151,689.485948,518.144159,9474.636058
524.591467,306.438199,666.185348,9326.594869
524.591783,0.000000,740.205942,9474.636058
524.592099,153.219100,518.144159,9548.656652
524.592414,-76.609550,444.123565,9474.636058
524.592730,-229.828649,592.164754,9918.759623
524.593046,-229.828649,814.226536,9992.780217
524.593361,-229.828649,962.267725,9918.759623
524.593677,-459.657299,888.247130,9992.780217
524.593993,229.828649,1184.329507,9844.739029
524.594309,-153.219100,1036.288319,9696.697840
524.594624,153.219100,1184.329507,9474.636058
524.594940,76.609550,1554.432478,9844.739029
524.595256,459.657299,1258.350101,9548.656652
524.595571,536.266849,1406.391290,9474.636058
524.595887,612.876398,1480.411884,9696.697840
524.596203,153.219100,1110.308913,9548.656652
524.596519,153.219100,814.226536,9622.677246
524.596834,0.000000,740.205942,9696.697840
524.597150,229.828649,518.144159,10140.821405
524.597466,0.000000,222.061783,9918.759623
524.597781,-306.438199,148.041188,10066.800811
524.598097,0.000000,-0.000000,9918.759623
524.598413,-153.219100,148.041188,10066.800811
524.598729,0.000000,-0.000000,9918.759623
524.599044,229.828649,-0.000000,9918.759623
524.599360,383.047749,296.082377,9770.718434
524.599676,689.485948,148.041188,9622.677246
524.599992,766.095498,444.123565,9548.656652
524.600307,766.095498,296.082377,9400.615463
524.600623,1149.143247,814.226536,9474.636058
524.600939,1149.143247,370.102971,9252.574275
524.601254,1455.581446,518.144159,9178.553681
524.601570,1225.752797,222.061783,9178.553681
524.601886,995.924147,222.061783,9326.594869
524.602202,842.705048,-0.000000,9474.636058
524.602517,459.657299,-0.000000,9474.636058
524.602833,306.438199,-0.000000,9400.615463
524.603149,0.000000,-296.082377,9178.553681
524.603464,-306.438199,-666.185348,9548.656652
524.603780,-153.219100,-962.267725,9474.636058
524.604096,-306.438199,-1036.288319,9326.594869
524.604412,-766.095498,-1406.391290,9770.718434
524.604727,-612.876398,-1628.453072,9622.677246
524.605043,-306.438199,-1480.411884,9696.697840
524.605359,-536.266849,-1628.453072,9696.697840
524.605674,-306.438199,-1258.350101,9400.615463
524.605990,0.000000,-1258.350101,9326.594869
524.606306,229.828649,-962.267725,9252.574275
524.606622,536.266849,-1258.350101,8882.471304
524.606937,842.705048,-814.226536,8808.450710
524.607253,766.095498,-1184.329507,8734.430116
524.607569,919.314598,-1332.370696,8808.450710
524.607884,1072.533697,-1480.411884,9030.512492
524.608200,536.266849,-1480.411884,9178.553681
524.608516,689.485948,-1628.453072,9252.574275
524.608832,612.876398,-1924.535449,9326.594869
524.609147,383.047749,-1850.514855,9474.636058
524.609463,459.657299,-2072.576638,9548.656652
524.609779,995.924147,-1924.535449,9622.677246
524.610094,229.828649,-1776.494261,9548.656652
524.610410,612.876398,-1702.473667,9548.656652
524.610726,689.485948,-1628.453072,9474.636058
524.611042,842.705048,-1332.370696,9400.615463
524.611357,1072.533697,-962.267725,9326.594869
524.611673,1302.362347,-888.247130,9178.553681
524.611989,1455.581446,-592.164754,9030.512492
524.612305,1685.410096,-222.061783,8808.450710
524.612620,1608.800546,-0.000000,8882.471304
524.612936,1991.848295,-148.041188,8956.491898
524.613252,1532.190996,-0.000000,8956.491898
524.613567,1455.581446,370.102971,9252.574275
524.613883,1149.143247,370.102971,9252.574275
524.614199,1225.752797,592.164754,9474.636058
524.614515,689.485948,148.041188,9400.615463
524.614830,536.266849,444.123565,9474.636058
524.615146,153.219100,518.144159,9622.677246
524.615462,76.609550,518.144159,9622.677246
524.615777,-306.438199,592.164754,9918.759623
524.616093,-153.219100,592.164754,9696.697840
524.616409,-536.266849,296.082377,9918.759623
524.616725,-229.828649,814.226536,10066.800811
524.617040,-383.047749,1110.308913,9992.780217
524.617356,-536.266849,1184.329507,9844.739029
524.617672,0.000000,1184.329507,9696.697840
524.617987,0.000000,1258.350101,9622.677246
524.618303,0.000000,1110.308913,9622.677246
524.618619,229.828649,1332.370696,9548.656652
524.618935,306.438199,1184.329507,9844.739029
524.619250,229.828649,888.247130,9474.636058
524.619566,383.047749,1110.308913,9696.697840
524.619882,306.438199,1036.288319,9474.636058
524.620197,153.219100,888.247130,9770.718434
524.620513,306.438199,814.226536,10362.883188
524.620829,0.000000,592.164754,9992.780217
524.621145,-306.438199,370.102971,9918.759623
524.621460,0.000000,148.041188,10214.842000
524.621776,0.000000,-0.000000,10140.821405
524.622092,0.000000,-0.000000,9992.780217
524.622408,-229.828649,296.082377,10288.862594
524.622723,0.000000,296.082377,10066.800811
524.623039,612.876398,444.123565,9696.697840
524.623355,612.876398,148.041188,9622.677246
524.623670,1378.971896,444.123565,9622.677246
524.623986,995.924147,592.164754,9252.574275
524.624302,1149.143247,444.123565,9252.574275
524.624618,1302.362347,370.102971,9178.553681
524.624933,1302.362347,296.082377,9252.574275
524.625249,995.924147,370.102971,9178.553681
524.625565,1149.143247,296.082377,9178.553681
524.625880,766.095498,-0.000000,9178.553681
524.626196,383.047749,-0.000000,9400.615463
524.626512,0.000000,-296.082377,9474.636058
524.626828,0.000000,-370.102971,9622.677246
524.627143,-383.047749,-740.205942,9696.697840
524.627459,-306.438199,-1036.288319,9696.697840
524.627775,-689.485948,-1258.350101,9696.697840
524.628090,-842.705048,-1406.391290,9918.759623
524.628406,-919.314598,-1776.494261,9622.677246
524.628722,-689.485948,-1628.453072,9992.780217
524.629038,-383.047749,-1480.411884,9474.636058
524.629353,-229.828649,-1332.370696,9326.594869
524.629669,-383.047749,-1110.308913,9400.615463
524.629985,536.266849,-1110.308913,8956.491898
524.630300,612.876398,-1110.308913,8956.491898
524.630616,919.314598,-1036.288319,8512.368333
524.630932,766.095498,-1036.288319,8808.450710
524.631248,995.924147,-1036.288319,8660.409521
524.631563,612.876398,-1554.432478,9104.533087
524.631879,842.705048,-1628.453072,9400.615463
524.632195,919.314598,-1850.514855,9326.594869
524.632511,153.219100,-1850.514855,9474.636058
524.632826,766.095498,-2220.617826,9474.636058
524.633142,383.047749,-1998.556043,9622.677246
524.633458,383.047749,-1850.514855,9696.697840
524.633773,383.047749,-1628.453072,9770.718434
524.634089,919.314598,-1406.391290,9622.677246
524.634405,612.876398,-1702.473667,9548.656652
524.634721,919.314598,-1406.391290,8956.491898
524.635036,1378.971896,-814.226536,8956.491898
524.635352,1532.190996,-814.226536,8808.450710
524.635668,1762.019645,-666.185348,8734.430116
524.635983,2068.457845,-296.082377,8808.450710
524.636299,2145.067394,-0.000000,8956.491898
524.636615,1915.238745,-0.000000,8882.471304
524.636931,1838.629195,-0.000000,9104.533087
524.637246,1685.410096,148.041188,9030.512492
524.637562,1072.533697,370.102971,9474.636058
524.637878,766.095498,592.164754,9400.615463
524.638193,383.047749,592.164754,9474.636058
524.638509,229.828649,-148.041188,9548.656652
524.638825,0.000000,370.102971,9474.636058
524.639141,-153.219100,370.102971,9696.697840
524.639456,-229.828649,370.102971,9770.718434
524.639772,-536.266849,148.041188,9770.718434
524.640088,0.000000,814.226536,10140.821405
524.640403,-306.438199,888.247130,9844.739029
524.640719,-306.438199,814.226536,9918.759623
524.641035,-306.438199,814.226536,9622.677246
524.641351,0.000000,1110.308913,9622.677246
524.641666,459.657299,1258.350101,9548.656652
524.641982,383.047749,1406.391290,9622.677246
524.642298,383.047749,1110.308913,9252.574275
524.642614,459.657299,1258.350101,9326.594869
524.642929,306.438199,1184.329507,9474.636058
524.643245,229.828649,1184.329507,9696.697840
524.643561,153.219100,1036.288319,9622.677246
524.643876,0.000000,814.226536,9918.759623
524.644192,-229.828649,296.082377,9918.759623
524.644508,-229.828649,222.061783,9844.739029
524.644824,-229.828649,148.041188,10510.924376
524.645139,-383.047749,222.061783,10436.903782
524.645455,-536.266849,-0.000000,10066.800811
524.645771,0.000000,296.082377,10288.862594
524.646086,229.828649,296.082377,10214.842000
524.646402,0.000000,296.082377,9844.739029
524.646718,459.657299,370.102971,9696.697840
524.647034,689.485948,518.144159,9326.594869
524.647349,995.924147,592.164754,9252.574275
524.647665,1762.019645,518.144159,9400.615463
524.647981,1608.800546,740.205942,9252.574275
524.648296,1762.019645,592.164754,9104.533087
524.648612,1302.362347,518.144159,9178.553681
524.648928,995.924147,370.102971,9178.553681
524.649244,919.314598,-0.000000,9548.656652
524.649559,612.876398,-0.000000,9326.594869
524.649875,153.219100,-148.041188,9474.636058
524.650191,76.609550,-222.061783,9474.636058
524.650506,-153.219100,-444.123565,9474.636058
524.650822,-383.047749,-740.205942,9770.718434
524.651138,-536.266849,-1110.308913,9844.739029
524.651454,-842.705048,-1036.288319,9770.718434
524.651769,-766.095498,-1332.370696,9844.739029
524.652085,-766.095498,-1406.391290,9622.677246
524.652401,0.000000,-1332.370696,9474.636058
524.652717,0.000000,-1332.370696,9474.636058
524.653032,0.000000,-962.267725,9400.615463
524.653348,459.657299,-814.226536,9178.553681
524.653664,459.657299,-962.267725,8956.491898
524.653979,1225.752797,-1184.329507,8734.430116
524.654295,842.705048,-814.226536,8956.491898
524.654611,1149.143247,-1332.370696,8290.306550
524.654927,842.705048,-1406.391290,8586.388927
524.655242,689.485948,-1406.391290,9104.533087
524.655558,689.485948,-1776.494261,9326.594869
524.655874,459.657299,-1702.473667,9474.636058
524.656189,229.828649,-1702.473667,9622.677246
524.656505,459.657299,-2072.576638,9696.697840
524.656821,306.438199,-2072.576638,9622.677246
524.657137,536.266849,-2294.638420,9844.739029
524.657452,459.657299,-1776.494261,9622.677246
524.657768,536.266849,-1406.391290,9474.636058
524.658084,842.705048,-1332.370696,9474.636058
524.658399,995.924147,-1110.308913,9326.594869
524.658715,1225.752797,-814.226536,9030.512492
524.659031,1838.629195,-518.144159,8734.430116
524.659347,1915.238745,-222.061783,8734.430116
524.659662,1838.629195,-148.041188,8956.491898
524.659978,2145.067394,-74.020594,8734.430116
524.660294,2145.067394,-0.000000,9104.533087
524.660609,1838.629195,-0.000000,9030.512492
524.660925,1302.362347,148.041188,9252.574275
524.661241,1149.143247,296.082377,9326.594869
524.661557,1072.533697,-0.000000,9326.594869
524.661872,306.438199,444.123565,9548.656652
524.662188,229.828649,296.082377,9474.636058
524.662504,0.000000,222.061783,9622.677246
524.662819,-306.438199,-0.000000,9696.697840
524.663135,-612.876398,296.082377,9622.677246
524.663451,-459.657299,148.041188,9548.656652
524.663767,-536.266849,518.144159,9918.759623
524.664082,-229.828649,740.205942,9770.718434
524.664398,0.000000,962.267725,9622.677246
524.664714,0.000000,666.185348,9770.718434
524.665030,0.000000,1332.370696,9622.677246
524.665345,76.609550,1480.411884,9474.636058
524.665661,383.047749,1332.370696,9474.636058
524.665977,459.657299,1110.308913,9400.615463
524.666292,919.314598,1110.308913,9474.636058
524.666608,459.657299,1258.350101,9696.697840
524.666924,76.609550,1184.329507,9474.636058
524.667240,0.000000,962.267725,9696.697840
524.667555,0.000000,666.185348,10066.800811
524.667871,-153.219100,370.102971,10066.800811
524.668187,-383.047749,518.144159,10066.800811
524.668502,-383.047749,222.061783,10288.862594
524.668818,-383.047749,148.041188,10288.862594
524.669134,-306.438199,-0.000000,10362.883188
524.669450,0.000000,444.123565,10066.800811
524.669765,229.828649,370.102971,9844.739029
524.670081,229.828649,518.144159,9770.718434
524.670397,689.485948,666.185348,9622.677246
524.670712,1225.752797,296.082377,9548.656652
524.671028,1302.362347,592.164754,9252.574275
524.671344,1302.362347,518.144159,9178.553681
524.671660,1455.581446,666.185348,9178.553681
524.671975,1378.971896,444.123565,9104.533087
524.672291,1378.971896,148.041188,9104.533087
524.672607,842.705048,444.123565,9474.636058
524.672923,842.705048,222.061783,9474.636058
524.673238,383.047749,-0.000000,9548.656652
524.673554,153.219100,-74.020594,9622.677246
524.673870,0.000000,-444.123565,9918.759623
524.674185,-306.438199,-592.164754,9474.636058
524.674501,-306.438199,-962.267725,9622.677246
524.674817,-842.705048,-1184.329507,9622.677246
524.675133,-995.924147,-1332.370696,9918.759623
524.675448,-842.705048,-1554.432478,9844.739029
524.675764,-612.876398,-1628.453072,9770.718434
524.676080,-383.047749,-1480.411884,9548.656652
524.676396,0.000000,-1110.308913,9400.615463
524.676711,229.828649,-1184.329507,9326.594869
524.677027,383.047749,-1110.308913,9178.553681
524.677343,689.485948,-1036.288319,8956.491898
524.677658,1149.143247,-1036.288319,8660.409521
524.677974,842.705048,-1036.288319,8512.368333
524.678290,842.705048,-1480.411884,8882.471304
524.678606,842.705048,-1406.391290,8808.450710
524.678921,536.266849,-1480.411884,9178.553681
524.679237,536.266849,-1702.473667,9474.636058
524.679553,383.047749,-1998.556043,9474.636058
524.679869,689.485948,-1924.535449,9696.697840
524.680184,306.438199,-2220.617826,9622.677246
524.680500,229.828649,-2146.597232,9696.697840
524.680816,306.438199,-1924.535449,9474.636058
524.681131,842.705048,-1554.432478,9474.636058
524.681447,842.705048,-1628.453072,9400.615463
524.681763,1378.971896,-1110.308913,9252.574275
524.682079,1225.752797,-1258.350101,8882.471304
524.682394,1532.190996,-592.164754,8882.471304
524.682710,2068.457845,-666.185348,8438.347739
524.683026,1762.019645,-444.123565,8808.450710
524.683342,1991.848295,-296.082377,8660.409521
524.683657,1838.629195,-74.020594,9030.512492
524.683973,1685.410096,148.041188,9104.533087
524.684289,1608.800546,-0.000000,9178.553681
524.684604,1378.971896,148.041188,9400.615463
524.684920,995.924147,296.082377,9400.615463
524.685236,383.047749,370.102971,9400.615463
524.685552,153.219100,148.041188,9548.656652
524.685867,383.047749,518.144159,9622.677246
524.686183,0.000000,222.061783,9992.780217
524.686499,0.000000,222.061783,9770.718434
524.686815,-229.828649,296.082377,9770.718434
524.687130,-306.438199,740.205942,9770.718434
524.687446,-229.828649,740.205942,9992.780217
524.687762,-229.828649,814.226536,9770.718434
524.688077,-229.828649,962.267725,9844.739029
524.688393,0.000000,1258.350101,9844.739029
524.688709,0.000000,1332.370696,9770.718434
524.689025,459.657299,1184.329507,9844.739029
524.689340,459.657299,1480.411884,9548.656652
524.689656,536.266849,1406.391290,9326.594869
524.689972,306.438199,1184.329507,9622.677246
524.690288,306.438199,1332.370696,9474.636058
524.690603,306.438199,1036.288319,9622.677246
524.690919,0.000000,740.205942,9992.780217
524.691235,-153.219100,740.205942,10140.821405
524.691550,-229.828649,444.123565,10214.842000
524.691866,0.000000,148.041188,10288.862594
524.692182,-229.828649,222.061783,10288.862594
524.692498,-153.219100,-0.000000,10140.821405
524.692813,0.000000,-0.000000,10510.924376
524.693129,-153.219100,296.082377,10140.821405
524.693445,229.828649,370.102971,10066.800811
524.693761,229.828649,592.164754,9844.739029
524.694076,766.095498,592.164754,9548.656652
524.694392,1302.362347,666.185348,9326.594869
524.694708,1072.533697,518.144159,9178.553681
524.695024,1302.362347,666.185348,9178.553681
524.695339,1072.533697,148.041188,9252.574275
524.695655,1149.143247,370.102971,9252.574275
524.695971,1149.143247,444.123565,9474.636058
524.696286,842.705048,296.082377,9474.636058
524.696602,459.657299,-0.000000,9548.656652
524.696918,153.219100,-222.061783,9622.677246
524.697234,-306.438199,-222.061783,9548.656652
524.697549,-459.657299,-444.123565,9474.636058
524.697865,-459.657299,-518.144159,9770.718434
524.698181,-689.485948,-814.226536,9622.677246
524.698497,-842.705048,-1036.288319,9622.677246
524.698812,-689.485948,-1184.329507,9474.636058
524.699128,-612.876398,-1332.370696,9622.677246
524.699444,-383.047749,-1258.350101,9548.656652
524.699759,-229.828649,-1184.329507,9400.615463
524.700075,0.000000,-1258.350101,9252.574275
524.700391,383.047749,-1184.329507,9030.512492
524.700707,689.485948,-888.247130,8882.471304
524.701022,995.924147,-888.247130,8660.409521
524.701338,1455.581446,-1184.329507,8660.409521
524.701654,995.924147,-1184.329507,8956.491898
524.701970,919.314598,-1036.288319,8882.471304
524.702285,766.095498,-1332.370696,9030.512492
524.702601,612.876398,-1702.473667,9178.553681
524.702917,612.876398,-2072.576638,9326.594869
524.703232,306.438199,-1998.556043,9400.615463
524.703548,229.828649,-2072.576638,9474.636058
524.703864,153.219100,-1850.514855,9696.697840
524.704180,153.219100,-1850.514855,9696.697840
524.704495,536.266849,-1850.514855,9474.636058
524.704811,766.095498,-1480.411884,9474.636058
524.705127,919.314598,-1406.391290,9326.594869
524.705443,1149.143247,-1036.288319,9252.574275
524.705758,1225.752797,-888.247130,8882.471304
524.706074,1838.629195,-814.226536,8882.471304
524.706390,1762.019645,-518.144159,8660.409521
524.706705,1762.019645,-296.082377,8808.450710
524.707021,2068.457845,-148.041188,8882.471304
524.707337,1685.410096,-0.000000,8808.450710
524.707653,1532.190996,-0.000000,8956.491898
524.707968,1378.971896,296.082377,9252.574275
524.708284,1302.362347,-0.000000,9474.636058
524.708600,689.485948,148.041188,9474.636058
524.708916,306.438199,444.123565,9474.636058
524.709231,229.828649,222.061783,9622.677246
524.709547,153.219100,-0.000000,9548.656652
524.709863,0.000000,296.082377,9696.697840
524.710178,-536.266849,296.082377,9770.718434
524.710494,0.000000,296.082377,9770.718434
524.710810,-689.485948,148.041188,9992.780217
524.711126,0.000000,740.205942,9992.780217
524.711441,-306.438199,962.267725,9844.739029
524.711757,-153.219100,888.247130,9844.739029
524.712073,0.000000,1184.329507,9622.677246
524.712389,153.219100,1258.350101,9770.718434
524.712704,229.828649,1480.411884,9474.636058
524.713020,383.047749,1406.391290,9474.636058
524.713336,306.438199,1332.370696,9474.636058
524.713651,612.876398,814.226536,9622.677246
524.713967,229.828649,1184.329507,9474.636058
524.714283,153.219100,962.267725,9622.677246
524.714599,0.000000,518.144159,9770.718434
524.714914,0.000000,444.123565,9992.780217
524.715230,-536.266849,370.102971,10288.862594
524.715546,-383.047749,296.082377,10214.842000
524.715862,-153.219100,-0.000000,10066.800811
524.716177,-229.828649,148.041188,10066.800811
524.716493,0.000000,296.082377,10066.800811
524.716809,0.000000,-0.000000,9696.697840
524.717124,383.047749,148.041188,9622.677246
524.717440,612.876398,518.144159,9622.677246
524.717756,1149.143247,592.164754,9326.594869
524.718072,1532.190996,518.144159,9178.553681
524.718387,1455.581446,296.082377,9326.594869
524.718703,1532.190996,518.144159,9104.533087
524.719019,1378.971896,518.144159,9104.533087
524.719335,1302.362347,444.123565,9030.512492
524.719650,1149.143247,296.082377,9326.594869
524.719966,766.095498,-0.000000,9326.594869
524.720282,459.657299,-296.082377,9326.594869
524.720597,0.000000,-74.020594,9474.636058
524.720913,0.000000,-296.082377,9400.615463
524.721229,-229.828649,-666.185348,9696.697840
524.721545,-459.657299,-814.226536,9622.677246
524.721860,-536.266849,-888.247130,9696.697840
524.722176,-689.485948,-1406.391290,9548.656652
524.722492,-536.266849,-1480.411884,9770.718434
524.722808,-766.095498,-1776.494261,9918.759623
524.723123,-536.266849,-1480.411884,9696.697840
524.723439,0.000000,-962.267725,9326.594869
524.723755,0.000000,-1184.329507,9030.512492
524.724070,153.219100,-888.247130,9178.553681
524.724386,766.095498,-1406.391290,9104.533087
524.724702,766.095498,-962.267725,8734.430116
524.725018,919.314598,-1036.288319,8660.409521
524.725333,1072.533697,-1258.350101,8586.388927
524.725649,919.314598,-1406.391290,8808.450710
524.725965,995.924147,-1776.494261,9178.553681
524.726281,842.705048,-1554.432478,9030.512492
524.726596,459.657299,-1924.535449,9252.574275
524.726912,306.438199,-1702.473667,9474.636058
524.727228,76.609550,-1776.494261,9696.697840
524.727543,612.876398,-2072.576638,9844.739029
524.727859,383.047749,-1702.473667,9696.697840
524.728175,536.266849,-1628.453072,9548.656652
524.728491,459.657299,-1406.391290,9548.656652
524.728806,842.705048,-1332.370696,9474.636058
524.729122,1225.752797,-888.247130,9252.574275
524.729438,1072.533697,-666.185348,9104.533087
524.729754,1608.800546,-592.164754,9104.533087
524.730069,1838.629195,-592.164754,8882.471304
524.730385,1991.848295,-370.102971,8882.471304
524.730701,1685.410096,-74.020594,8882.471304
524.731016,1685.410096,-74.020594,8956.491898
524.731332,1608.800546,-0.000000,9030.512492
524.731648,1455.581446,518.144159,9104.533087
524.731964,995.924147,592.164754,9400.615463
524.732279,766.095498,518.144159,9326.594869
524.732595,306.438199,592.164754,9474.636058
524.732911,459.657299,518.144159,9474.636058
524.733227,229.828649,370.102971,9400.615463
524.733542,-383.047749,296.082377,9844.739029
524.733858,-536.266849,444.123565,10066.800811
524.734174,-459.657299,444.123565,9844.739029
524.734490,-306.438199,666.185348,10140.821405
524.734805,-383.047749,444.123565,9844.739029
524.735121,-459.657299,814.226536,9844.739029
524.735437,-153.219100,1184.329507,9992.780217
524.735752,-153.219100,1110.308913,9770.718434
524.736068,0.000000,1406.391290,10066.800811
524.736384,612.876398,1110.308913,9400.615463
524.736700,0.000000,1110.308913,9622.677246
524.737015,383.047749,1258.350101,9548.656652
524.737331,383.047749,1036.288319,9474.636058
524.737647,383.047749,1036.288319,9696.697840
524.737963,229.828649,740.205942,9474.636058
524.738278,0.000000,444.123565,9770.718434
524.738594,229.828649,296.082377,9844.739029
524.738910,0.000000,444.123565,10140.821405
524.739225,0.000000,222.061783,10066.800811
524.739541,459.657299,370.102971,10510.924376
524.739857,76.609550,222.061783,10214.842000
524.740173,0.000000,-0.000000,9918.759623
524.740488,229.828649,222.061783,9918.759623
524.740804,536.266849,-148.041188,9770.718434
524.741120,536.266849,370.102971,9548.656652
524.741436,842.705048,370.102971,9548.656652
524.741751,1149.143247,592.164754,9400.615463
524.742067,1378.971896,518.144159,9178.553681
524.742383,1149.143247,444.123565,9252.574275
524.742698,1072.533697,370.102971,9400.615463
524.743014,1149.143247,296.082377,9326.594869
524.743330,919.314598,-0.000000,9252.574275
524.743646,689.485948,-0.000000,9326.594869
524.743961,689.485948,-148.041188,9474.636058
524.744277,306.438199,-148.041188,9474.636058
524.744593,0.000000,-296.082377,9400.615463
524.744909,-153.219100,-444.123565,9474.636058
524.745224,-383.047749,-814.226536,9696.697840
524.745540,-919.314598,-888.247130,9918.759623
524.745856,-766.095498,-1332.370696,9696.697840
524.746171,-919.314598,-1480.411884,9696.697840
524.746487,-536.266849,-1554.432478,9696.697840
524.746803,-383.047749,-1258.350101,9696.697840
524.747119,0.000000,-1702.473667,9326.594869
524.747434,76.609550,-1036.288319,9400.615463
524.747750,306.438199,-1036.288319,9252.574275
524.748066,612.876398,-1110.308913,9104.533087
524.748382,919.314598,-888.247130,8882.471304
524.748697,1225.752797,-1036.288319,8586.388927
524.749013,995.924147,-1332.370696,8586.388927
524.749329,842.705048,-1332.370696,9104.533087
524.749644,536.266849,-1628.453072,9326.594869
524.749960,306.438199,-1924.535449,9252.574275
524.750276,383.047749,-1924.535449,9252.574275
524.750592,306.438199,-1998.556043,9400.615463
524.750907,0.000000,-1998.556043,9696.697840
524.751223,153.219100,-1850.514855,9770.718434
524.751539,153.219100,-1924.535449,9548.656652
524.751855,689.485948,-1776.494261,9696.697840
524.752170,612.876398,-1406.391290,9474.636058
524.752486,459.657299,-1258.350101,9252.574275
524.752802,919.314598,-1036.288319,9104.533087
524.753117,1532.190996,-740.205942,9178.553681
524.753433,1225.752797,-370.102971,8956.491898
524.753749,1302.362347,-444.123565,8808.450710
524.754065,1608.800546,-222.061783,8808.450710
524.754380,1608.800546,-74.020594,8882.471304
524.754696,1608.800546,-0.000000,9252.574275
524.755012,995.924147,-74.020594,9030.512492
524.755328,995.924147,370.102971,9326.594869
524.755643,612.876398,518.144159,9400.615463
524.755959,689.485948,592.164754,9400.615463
524.756275,383.047749,222.061783,9548.656652
524.756590,153.219100,592.164754,9622.677246
524.756906,0.000000,518.144159,9770.718434
524.757222,-383.047749,592.164754,9844.739029
524.757538,-383.047749,370.102971,9770.718434
524.757853,-306.438199,666.185348,9918.759623
524.758169,-229.828649,666.185348,9770.718434
524.758485,-383.047749,814.226536,9992.780217
524.758801,-153.219100,1110.308913,9918.759623
524.759116,0.000000,1110.308913,9770.718434
524.759432,306.438199,740.205942,9918.759623
524.759748,383.047749,1258.350101,9548.656652
524.760063,383.047749,1332.370696,9474.636058
524.760379,612.876398,1480.411884,9474.636058
524.760695,306.438199,1406.391290,9548.656652
524.761011,842.705048,962.267725,9104.533087
524.761326,306.438199,1110.308913,9622.677246
524.761642,76.609550,1036.288319,9992.780217
524.761958,153.219100,962.267725,9992.780217
524.762274,0.000000,666.185348,9992.780217
524.762589,0.000000,296.082377,10066.800811
524.762905,0.000000,222.061783,10288.862594
524.763221,0.000000,148.041188,10214.842000
524.763536,0.000000,222.061783,10066.800811
524.763852,229.828649,222.061783,10288.862594
524.764168,76.609550,296.082377,9992.780217
524.764484,459.657299,518.144159,9696.697840
524.764799,536.266849,370.102971,9326.594869
524.765115,842.705048,592.164754,9548.656652
524.765431,1149.143247,518.144159,9178.553681
524.765747,1302.362347,370.102971,9030.512492
524.766062,1455.581446,370.102971,9178.553681
524.766378,1378.971896,222.061783,9104.533087
524.766694,1072.533697,370.102971,9178.553681
524.767009,766.095498,296.082377,9474.636058
524.767325,536.266849,-0.000000,9474.636058
524.767641,76.609550,-0.000000,9474.636058
524.767957,0.000000,-222.061783,9474.636058
524.768272,-229.828649,-518.144159,9474.636058
524.768588,-536.266849,-814.226536,9548.656652
524.768904,-689.485948,-962.267725,9696.697840
524.769220,-612.876398,-1258.350101,9548.656652
524.769535,-766.095498,-1554.432478,9622.677246
524.769851,-1149.143247,-1628.453072,10066.800811
524.770167,-766.095498,-1628.453072,9770.718434
524.770482,-459.657299,-1332.370696,9548.656652
524.770798,0.000000,-1110.308913,9400.615463
524.771114,-153.219100,-1184.329507,9326.594869
524.771430,536.266849,-1258.350101,9474.636058
524.771745,536.266849,-1184.329507,8956.491898
524.772061,612.876398,-1110.308913,8808.450710
524.772377,766.095498,-1110.308913,8660.409521
524.772693,919.314598,-1332.370696,8808.450710
524.773008,919.314598,-1480.411884,9104.533087
524.773324,689.485948,-1628.453072,9104.533087
524.773640,306.438199,-1702.473667,9326.594869
524.773956,383.047749,-1924.535449,9400.615463
524.774271,229.828649,-1998.556043,9326.594869
524.774587,306.438199,-1998.556043,9696.697840
524.774903,306.438199,-1776.494261,9548.656652
524.775218,306.438199,-1702.473667,9622.677246
524.775534,306.438199,-1628.453072,9474.636058
524.775850,689.485948,-1554.432478,9400.615463
524.776166,766.095498,-1110.308913,9178.553681
524.776481,1149.143247,-888.247130,8956.491898
524.776797,1532.190996,-592.164754,9030.512492
524.777113,1608.800546,-444.123565,8882.471304
524.777429,2221.676944,-222.061783,9030.512492
524.777744,1915.238745,-444.123565,8660.409521
524.778060,1915.238745,-0.000000,8808.450710
524.778376,1762.019645,-0.000000,8956.491898
524.778691,1762.019645,296.082377,9178.553681
524.779007,1378.971896,370.102971,9326.594869
524.779323,995.924147,444.123565,9474.636058
524.779639,689.485948,592.164754,9548.656652
524.779954,459.657299,592.164754,9474.636058
524.780270,229.828649,444.123565,9474.636058
524.780586,0.000000,370.102971,9844.739029
524.780902,-612.876398,296.082377,9844.739029
524.781217,-306.438199,444.123565,9844.739029
524.781533,0.000000,592.164754,9918.759623
524.781849,0.000000,666.185348,9992.780217
524.782165,-459.657299,814.226536,9918.759623
524.782480,-306.438199,962.267725,9770.718434
524.782796,0.000000,1258.350101,9992.780217
524.783112,76.609550,1184.329507,9770.718434
524.783427,689.485948,1258.350101,9696.697840
524.783743,229.828649,814.226536,9252.574275
524.784059,536.266849,1406.391290,9474.636058
524.784375,459.657299,1110.308913,9474.636058
524.784690,383.047749,1110.308913,9622.677246
524.785006,0.000000,666.185348,9622.677246
524.785322,306.438199,814.226536,9918.759623
524.785638,0.000000,666.185348,9992.780217
524.785953,0.000000,370.102971,10140.821405
524.786269,0.000000,-0.000000,10214.842000
524.786585,-153.219100,-148.041188,10140.821405
524.786900,-306.438199,-0.000000,10140.821405
524.787216,0.000000,222.061783,10066.800811
524.787532,0.000000,370.102971,10140.821405
524.787848,76.609550,296.082377,9918.759623
524.788163,919.314598,222.061783,9696.697840
524.788479,689.485948,296.082377,9474.636058
524.788795,842.705048,518.144159,9326.594869
524.789111,1072.533697,296.082377,9326.594869
524.789426,1378.971896,370.102971,9252.574275
524.789742,1762.019645,592.164754,9474.636058
524.790058,1762.019645,370.102971,9104.533087
524.790374,1378.971896,296.082377,9030.512492
524.790689,766.095498,-0.000000,9326.594869
524.791005,689.485948,-0.000000,9400.615463
524.791321,153.219100,-370.102971,9474.636058
524.791636,0.000000,-370.102971,9326.594869
524.791952,-153.219100,-518.144159,9326.594869
524.792268,-306.438199,-740.205942,9474.636058
524.792584,-383.047749,-1332.370696,9474.636058
524.792899,0.000000,-1776.494261,9696.697840
524.793215,-536.266849,-1406.391290,9622.677246
524.793531,-612.876398,-1554.432478,9622.677246
524.793847,-536.266849,-1332.370696,9548.656652
524.794162,-306.438199,-1332.370696,9548.656652
524.794478,0.000000,-1184.329507,9252.574275
524.794794,0.000000,-1184.329507,9104.533087
524.795110,536.266849,-1332.370696,8808.450710
524.795425,842.705048,-1258.350101,8956.491898
524.795741,995.924147,-1110.308913,8586.388927
524.796057,1225.752797,-1036.288319,8734.430116
524.796372,919.314598,-1480.411884,8734.430116
524.796688,842.705048,-1406.391290,9030.512492
524.797004,919.314598,-1554.432478,9104.533087
524.797320,995.924147,-1998.556043,9252.574275
524.797635,536.266849,-1924.535449,9474.636058
524.797951,459.657299,-1924.535449,9622.677246
524.798267,306.438199,-1850.514855,9696.697840
524.798583,459.657299,-1776.494261,9548.656652
524.798898,612.876398,-1850.514855,9474.636058
524.799214,766.095498,-1258.350101,9474.636058
524.799530,1149.143247,-1184.329507,9252.574275
524.799845,995.924147,-962.267725,9104.533087
524.800161,1378.971896,-592.164754,9178.553681
524.800477,1762.019645,-592.164754,8956.491898
524.800793,1838.629195,-370.102971,8808.450710
524.801108,1838.629195,-74.020594,8808.450710
524.801424,2145.067394,148.041188,9104.533087
524.801740,1532.190996,148.041188,9030.512492
524.802056,2145.067394,296.082377,9400.615463
524.802371,1608.800546,740.205942,9326.594869
524.802687,1149.143247,814.226536,9326.594869
524.803003,766.095498,740.205942,9474.636058
524.803319,689.485948,666.185348,9622.677246
524.803634,0.000000,518.144159,9696.697840
524.803950,0.000000,518.144159,9696.697840
524.804266,-229.828649,592.164754,9918.759623
524.804581,-229.828649,370.102971,9844.739029
524.804897,-306.438199,444.123565,10214.842000
524.805213,-383.047749,518.144159,10066.800811
524.805529,-459.657299,740.205942,10214.842000
524.805844,-306.438199,1110.308913,10066.800811
524.806160,-229.828649,814.226536,9622.677246
524.806476,459.657299,888.247130,9400.615463
524.806792,306.438199,1110.308913,9548.656652
524.807107,612.876398,1332.370696,9474.636058
524.807423,536.266849,1258.350101,9622.677246
524.807739,229.828649,1184.329507,9474.636058
524.808054,612.876398,1184.329507,9474.636058
524.808370,306.438199,962.267725,9474.636058
524.808686,383.047749,814.226536,9622.677246
524.809002,153.219100,740.205942,9918.759623
524.809317,0.000000,592.164754,10066.800811
524.809633,0.000000,370.102971,10214.842000
524.809949,0.000000,296.082377,10140.821405
524.810265,-153.219100,-0.000000,10140.821405
524.810580,0.000000,-0.000000,10066.800811
524.810896,0.000000,-0.000000,10066.800811
524.811212,0.000000,-0.000000,9770.718434
524.811528,0.000000,-0.000000,9696.697840
524.811843,689.485948,296.082377,9622.677246
524.812159,766.095498,370.102971,9326.594869
524.812475,1149.143247,370.102971,9326.594869
524.812790,1302.362347,444.123565,9104.533087
524.813106,1378.971896,296.082377,9252.574275
524.813422,1455.581446,148.041188,9104.533087
524.813738,1378.971896,296.082377,9326.594869
524.814053,1225.752797,-0.000000,9030.512492
524.814369,842.705048,-0.000000,9326.594869
524.814685,306.438199,-148.041188,9400.615463
524.815001,229.828649,-0.000000,9326.594869
524.815316,-229.828649,-370.102971,9696.697840
524.815632,-536.266849,-814.226536,9400.615463
524.815948,-383.047749,-888.247130,9548.656652
524.816263,-919.314598,-1184.329507,9548.656652
524.816579,-842.705048,-1332.370696,9770.718434
524.816895,-612.876398,-1554.432478,9474.636058
524.817211,-536.266849,-1480.411884,9696.697840
524.817526,-383.047749,-1258.350101,9474.636058
524.817842,-229.828649,-1406.391290,9548.656652
524.818158,0.000000,-1184.329507,9252.574275
524.818474,229.828649,-1184.329507,9178.553681
524.818789,76.609550,-1184.329507,9104.533087
524.819105,919.314598,-1036.288319,8734.430116
524.819421,842.705048,-1110.308913,8660.409521
524.819737,919.314598,-1184.329507,8808.450710
524.820052,1378.971896,-1702.473667,8808.450710
524.820368,766.095498,-1480.411884,9030.512492
524.820684,459.657299,-1702.473667,9326.594869
524.820999,536.266849,-1850.514855,9474.636058
524.821315,383.047749,-1850.514855,9474.636058
524.821631,0.000000,-1776.494261,9696.697840
524.821947,153.219100,-1480.411884,9770.718434
524.822262,229.828649,-1702.473667,9474.636058
524.822578,306.438199,-1554.432478,9326.594869
524.822894,612.876398,-1332.370696,9474.636058
524.823210,919.314598,-666.185348,9326.594869
524.823525,1072.533697,-666.185348,9252.574275
524.823841,1378.971896,-740.205942,9104.533087
524.824157,1685.410096,-296.082377,8882.471304
524.824472,2298.286494,-74.020594,8734.430116
524.824788,2145.067394,-222.061783,8882.471304
524.825104,1915.238745,-222.061783,8882.471304
524.825420,1838.629195,222.061783,9178.553681
524.825735,1532.190996,296.082377,9178.553681
524.826051,1378.971896,666.185348,9326.594869
524.826367,1225.752797,592.164754,9178.553681
524.826683,919.314598,518.144159,9326.594869
524.826998,612.876398,592.164754,9474.636058
524.827314,229.828649,518.144159,9622.677246
524.827630,0.000000,444.123565,9696.697840
524.827946,76.609550,444.123565,9770.718434
524.828261,-383.047749,666.185348,9844.739029
524.828577,-76.609550,518.144159,9844.739029
524.828893,-306.438199,518.144159,9918.759623
524.829208,-383.047749,888.247130,9918.759623
524.829524,76.609550,888.247130,9696.697840
524.829840,76.609550,1036.288319,9844.739029
524.830156,306.438199,962.267725,9548.656652
524.830471,536.266849,1258.350101,9696.697840
524.830787,76.609550,1184.329507,9548.656652
524.831103,612.876398,1110.308913,9474.636058
524.831419,459.657299,1110.308913,9474.636058
524.831734,153.219100,888.247130,9844.739029
524.832050,383.047749,740.205942,9474.636058
524.832366,229.828649,444.123565,9770.718434
524.832682,153.219100,370.102971,9992.780217
524.832997,0.000000,370.102971,9918.759623
524.833313,-383.047749,-0.000000,10140.821405
524.833629,-229.828649,-0.000000,10214.842000
524.833944,-229.828649,-148.041188,9992.780217
524.834260,0.000000,-0.000000,9696.697840
524.834576,-153.219100,-0.000000,10214.842000
524.834892,153.219100,222.061783,9918.759623
524.835207,459.657299,444.123565,9622.677246
524.835523,689.485948,148.041188,9326.594869
524.835839,1302.362347,444.123565,9178.553681
524.836155,1149.143247,444.123565,9104.533087
524.836470,1149.143247,444.123565,9178.553681
524.836786,1378.971896,444.123565,8956.491898
524.837102,1302.362347,222.061783,9178.553681
524.837417,1378.971896,444.123565,9030.512492
524.837733,919.314598,-0.000000,9326.594869
524.838049,766.095498,-0.000000,9252.574275
524.838365,229.828649,-148.041188,9474.636058
524.838680,0.000000,-222.061783,9326.594869
524.838996,-306.438199,-148.041188,9548.656652
524.839312,0.000000,-592.164754,9548.656652
524.839628,-536.266849,-962.267725,9548.656652
524.839943,-689.485948,-1110.308913,9622.677246
524.840259,-766.095498,-1332.370696,9622.677246
524.840575,-536.266849,-1332.370696,9918.759623
524.840891,-842.705048,-1702.473667,9696.697840
524.841206,-306.438199,-1110.308913,9622.677246
524.841522,0.000000,-1184.329507,9252.574275
524.841838,306.438199,-1110.308913,8808.450710
524.842153,383.047749,-888.247130,9030.512492
524.842469,612.876398,-888.247130,8956.491898
524.842785,919.314598,-1110.308913,8660.409521
524.843101,995.924147,-1184.329507,8882.471304
524.843416,1225.752797,-814.226536,8882.471304
524.843732,1072.533697,-1110.308913,9252.574275
524.844048,766.095498,-1332.370696,9178.553681
524.844364,459.657299,-1702.473667,9474.636058
524.844679,229.828649,-1776.494261,9548.656652
524.844995,-306.438199,-1776.494261,9992.780217
524.845311,229.828649,-1702.473667,9622.677246
524.845626,306.438199,-1850.514855,9696.697840
524.845942,383.047749,-1702.473667,9696.697840
524.846258,612.876398,-1480.411884,9548.656652
524.846574,919.314598,-1036.288319,9548.656652
524.846889,995.924147,-740.205942,9474.636058
524.847205,1685.410096,-592.164754,8882.471304
524.847521,1532.190996,-592.164754,9030.512492
524.847837,1838.629195,-518.144159,8808.450710
524.848152,1685.410096,-370.102971,8882.471304
524.848468,2068.457845,-74.020594,8882.471304
524.848784,2068.457845,74.020594,8956.491898
524.849100,1608.800546,296.082377,9326.594869
524.849415,1608.800546,148.041188,9178.553681
524.849731,1838.629195,592.164754,9474.636058
524.850047,689.485948,666.185348,9400.615463
524.850362,842.705048,740.205942,9474.636058
524.850678,383.047749,444.123565,9474.636058
524.850994,153.219100,592.164754,9622.677246
524.851310,153.219100,518.144159,9844.739029
524.851625,-459.657299,370.102971,9770.718434
524.851941,-306.438199,444.123565,9844.739029
524.852257,-383.047749,444.123565,9918.759623
524.852573,-229.828649,666.185348,9844.739029
524.852888,-383.047749,740.205942,9992.780217
524.853204,-306.438199,962.267725,9696.697840
524.853520,0.000000,1036.288319,9696.697840
524.853835,0.000000,1184.329507,9622.677246
524.854151,0.000000,1110.308913,9548.656652
524.854467,306.438199,1184.329507,9474.636058
524.854783,459.657299,1332.370696,9548.656652
524.855098,383.047749,888.247130,9474.636058
524.855414,229.828649,1184.329507,9474.636058
524.855730,153.219100,1110.308913,9844.739029
524.856046,-306.438199,518.144159,9844.739029
524.856361,76.609550,592.164754,9844.739029
524.856677,-229.828649,296.082377,9992.780217
524.856993,0.000000,-0.000000,10066.800811
524.857309,-229.828649,-0.000000,10436.903782
524.857624,-306.438199,-0.000000,10066.800811
524.857940,0.000000,296.082377,10066.800811
524.858256,0.000000,-0.000000,9992.780217
524.858571,536.266849,-148.041188,9844.739029
524.858887,459.657299,222.061783,9696.697840
524.859203,612.876398,222.061783,9326.594869
524.859519,995.924147,370.102971,9252.574275
524.859834,1072.533697,518.144159,9326.594869
524.860150,1608.800546,518.144159,9252.574275
524.860466,1225.752797,370.102971,9178.553681
524.860782,1225.752797,370.102971,9178.553681
524.861097,995.924147,296.082377,9104.533087
524.861413,919.314598,148.041188,9474.636058
524.861729,536.266849,-74.020594,9474.636058
524.862044,76.609550,-222.061783,9474.636058
524.862360,0.000000,-0.000000,9696.697840
524.862676,0.000000,-370.102971,9548.656652
524.862992,-229.828649,-888.247130,9548.656652
524.863307,-306.438199,-1110.308913,9770.718434
524.863623,-536.266849,-1184.329507,9474.636058
524.863939,-689.485948,-1332.370696,9622.677246
524.864255,-766.095498,-1628.453072,9844.739029
524.864570,-459.657299,-1480.411884,9696.697840
524.864886,-229.828649,-1258.350101,9326.594869
524.865202,0.000000,-1184.329507,9326.594869
524.865518,459.657299,-1110.308913,8956.491898
524.865833,383.047749,-1184.329507,8956.491898
524.866149,766.095498,-1110.308913,8734.430116
524.866465,842.705048,-1110.308913,8586.388927
524.866780,919.314598,-1184.329507,8808.450710
524.867096,1149.143247,-1184.329507,8808.450710
524.867412,995.924147,-1406.391290,9104.533087
524.867728,919.314598,-1628.453072,9178.553681
524.868043,76.609550,-1776.494261,9326.594869
524.868359,459.657299,-1924.535449,9548.656652
524.868675,689.485948,-1776.494261,9548.656652
524.868991,76.609550,-1924.535449,9622.677246
524.869306,612.876398,-1702.473667,10066.800811
524.869622,383.047749,-1554.432478,9622.677246
524.869938,766.095498,-1480.411884,9474.636058
524.870254,919.314598,-1258.350101,9400.615463
524.870569,919.314598,-740.205942,9030.512492
524.870885,1455.581446,-666.185348,8956.491898
524.871201,1455.581446,-666.185348,8956.491898
524.871516,1608.800546,-444.123565,8956.491898
524.871832,1915.238745,-296.082377,8882.471304
524.872148,1685.410096,-74.020594,9252.574275
524.872464,1762.019645,-0.000000,8956.491898
524.872779,1685.410096,-0.000000,9030.512492
524.873095,1608.800546,296.082377,9252.574275
524.873411,1072.533697,296.082377,9400.615463
524.873726,842.705048,370.102971,9400.615463
524.874042,612.876398,370.102971,9474.636058
524.874358,76.609550,518.144159,9474.636058
524.874673,0.000000,370.102971,9548.656652
524.874989,0.000000,370.102971,9696.697840
524.875305,-459.657299,370.102971,9844.739029
524.875620,-459.657299,444.123565,9770.718434
524.875936,-612.876398,592.164754,9770.718434
524.876252,-306.438199,740.205942,9770.718434
524.876567,-383.047749,888.247130,9992.780217
524.876883,-229.828649,888.247130,9696.697840
524.877199,-153.219100,1110.308913,9770.718434
524.877514,-306.438199,1184.329507,9696.697840
524.877830,0.000000,1184.329507,9474.636058
524.878146,153.219100,1258.350101,9400.615463
524.878461,76.609550,1258.350101,9696.697840
524.878777,229.828649,1406.391290,9548.656652
524.879093,306.438199,1036.288319,9474.636058
524.879408,0.000000,1036.288319,9770.718434
524.879724,153.219100,518.144159,9918.759623
524.880040,-306.438199,444.123565,10066.800811
524.880355,-229.828649,296.082377,10214.842000
524.880671,0.000000,296.082377,10436.903782
524.880987,-459.657299,148.041188,10288.862594
524.881302,-153.219100,-0.000000,10066.800811
524.881618,-76.609550,-0.000000,10140.821405
524.881934,229.828649,296.082377,9770.718434
524.882249,306.438199,296.082377,9918.759623
524.882565,689.485948,444.123565,9548.656652
524.882880,919.314598,74.020594,9548.656652
524.883196,1225.752797,518.144159,9474.636058
524.883512,1225.752797,518.144159,9326.594869
524.883827,1455.581446,592.164754,9400.615463
524.884143,1532.190996,222.061783,9326.594869
524.884459,1378.971896,222.061783,9178.553681
524.884774,1685.410096,370.102971,9178.553681
524.885090,995.924147,-0.000000,9326.594869
524.885406,459.657299,-148.041188,9326.594869
524.885721,229.828649,-148.041188,9326.594869
524.886037,0.000000,-148.041188,9474.636058
524.886353,-153.219100,-666.185348,9474.636058
524.886668,-306.438199,-814.226536,9548.656652
524.886984,-536.266849,-1110.308913,9474.636058
524.887300,-689.485948,-1480.411884,9474.636058
524.887615,-689.485948,-1332.370696,9918.759623
524.887931,-612.876398,-1332.370696,9770.718434
524.888247,-229.828649,-1184.329507,9474.636058
524.888562,-229.828649,-1332.370696,9474.636058
524.888878,0.000000,-1184.329507,9252.574275
524.889194,229.828649,-1406.391290,9326.594869
524.889509,612.876398,-1110.308913,8808.450710
524.889825,995.924147,-888.247130,8734.430116
524.890141,919.314598,-888.247130,8660.409521
524.890456,306.438199,-1110.308913,8660.409521
524.890772,766.095498,-1480.411884,8660.409521
524.891088,919.314598,-1554.432478,9326.594869
524.891403,536.266849,-1628.453072,9178.553681
524.891719,536.266849,-1702.473667,9400.615463
524.892035,306.438199,-1776.494261,9474.636058
524.892350,76.609550,-1924.535449,9548.656652
524.892666,306.438199,-1850.514855,9622.677246
524.892982,0.000000,-1776.494261,9548.656652
524.893297,383.047749,-1554.432478,9622.677246
524.893613,383.047749,-1406.391290,9548.656652
524.893929,1072.533697,-1110.308913,9252.574275
524.894244,919.314598,-740.205942,9252.574275
524.894560,1072.533697,-814.226536,9178.553681
524.894875,1608.800546,-518.144159,8808.450710
524.895191,1762.019645,-444.123565,8734.430116
524.895507,1762.019645,-74.020594,8882.471304
524.895822,1762.019645,-0.000000,8808.450710
524.896138,1685.410096,-0.000000,8956.491898
524.896454,1455.581446,370.102971,9252.574275
524.896769,1225.752797,370.102971,9400.615463
524.897085,919.314598,592.164754,9474.636058
524.897401,689.485948,370.102971,9696.697840
524.897716,612.876398,518.144159,9548.656652
524.898032,229.828649,592.164754,9622.677246
524.898348,229.828649,222.061783,9400.615463
524.898663,0.000000,370.102971,9770.718434
524.898979,-383.047749,518.144159,9918.759623
524.899295,-229.828649,444.123565,9918.759623
524.899610,-459.657299,592.164754,10066.800811
524.899926,383.047749,814.226536,9992.780217
524.900242,-383.047749,962.267725,10140.821405
524.900557,229.828649,1258.350101,9844.739029
524.900873,0.000000,1036.288319,9770.718434
524.901189,153.219100,1258.350101,9622.677246
524.901504,153.219100,1258.350101,9548.656652
524.901820,383.047749,1258.350101,9400.615463
524.902136,383.047749,1110.308913,9474.636058
524.902451,536.266849,1110.308913,9548.656652
524.902767,459.657299,888.247130,9844.739029
524.903083,0.000000,592.164754,9918.759623
524.903398,0.000000,666.185348,9918.759623
524.903714,0.000000,444.123565,9918.759623
524.904030,0.000000,518.144159,10214.842000
524.904345,-229.828649,-0.000000,10436.903782
524.904661,-229.828649,148.041188,10140.821405
524.904977,0.000000,-0.000000,9918.759623
524.905292,-153.219100,148.041188,9992.780217
524.905608,76.609550,296.082377,9918.759623
524.905924,459.657299,444.123565,9622.677246
524.906239,459.657299,222.061783,9474.636058
524.906555,766.095498,148.041188,9178.553681
524.906871,1225.752797,370.102971,9104.533087
524.907186,1302.362347,370.102971,9178.553681
524.907502,1378.971896,-0.000000,9178.553681
524.907817,1302.362347,296.082377,9030.512492
524.908133,1225.752797,148.041188,9252.574275
524.908449,1072.533697,-0.000000,9252.574275
524.908764,766.095498,-0.000000,9178.553681
524.909080,612.876398,-0.000000,9548.656652
524.909396,76.609550,-296.082377,9326.594869
524.909711,0.000000,-148.041188,9696.697840
524.910027,-459.657299,-740.205942,9326.594869
524.910343,0.000000,-1332.370696,9474.636058
524.910658,-842.705048,-1184.329507,9548.656652
524.910974,-919.314598,-1332.370696,9696.697840
524.911290,-612.876398,-1776.494261,9770.718434
524.911605,-919.314598,-1480.411884,9844.739029
524.911921,-383.047749,-1184.329507,9696.697840
524.912237,-229.828649,-1184.329507,9474.636058
524.912552,76.609550,-1258.350101,9178.553681
524.912868,229.828649,-1184.329507,8882.471304
524.913184,153.219100,-1184.329507,8882.471304
524.913499,919.314598,-1110.308913,8882.471304
524.913815,919.314598,-1184.329507,8734.430116
524.914131,689.485948,-1406.391290,8882.471304
524.914446,919.314598,-1184.329507,9104.533087
524.914762,766.095498,-1628.453072,9104.533087
524.915078,612.876398,-1480.411884,9326.594869
524.915393,459.657299,-1776.494261,9474.636058
524.915709,229.828649,-1850.514855,9548.656652
524.916025,536.266849,-2072.576638,9400.615463
524.916340,919.314598,-1628.453072,9770.718434
524.916656,459.657299,-1554.432478,9770.718434
524.916972,689.485948,-1332.370696,9474.636058
524.917287,536.266849,-1406.391290,9326.594869
524.917603,995.924147,-962.267725,9400.615463
524.917919,1072.533697,-888.247130,9252.574275
524.918234,1302.362347,-518.144159,9030.512492
524.918550,1762.019645,-296.082377,8956.491898
524.918866,1685.410096,-222.061783,8808.450710
524.919181,1915.238745,-370.102971,9030.512492
524.919497,1991.848295,-74.020594,9178.553681
524.919812,1915.238745,-0.000000,8808.450710
524.920128,1378.971896,148.041188,9104.533087
524.920444,1378.971896,444.123565,9326.594869
524.920759,1072.533697,592.164754,9400.615463
524.921075,459.657299,592.164754,9474.636058
524.921391,306.438199,592.164754,9548.656652
524.921706,306.438199,592.164754,9400.615463
524.922022,0.000000,666.185348,9696.697840
524.922338,76.609550,592.164754,9770.718434
524.922653,-306.438199,740.205942,9918.759623
524.922969,-383.047749,592.164754,9918.759623
524.923285,-459.657299,740.205942,9992.780217
524.923600,-383.047749,592.164754,9992.780217
524.923916,0.000000,962.267725,9844.739029
524.924232,-229.828649,962.267725,9918.759623
524.924547,0.000000,1184.329507,9548.656652
524.924863,0.000000,1184.329507,9548.656652
524.925179,229.828649,1406.391290,9474.636058
524.925494,153.219100,1036.288319,9252.574275
524.925810,383.047749,1184.329507,10066.800811
524.926126,306.438199,962.267725,9474.636058
524.926441,229.828649,888.247130,9474.636058
524.926757,76.609550,666.185348,9696.697840
524.927073,0.000000,296.082377,9770.718434
524.927388,0.000000,444.123565,10066.800811
524.927704,0.000000,370.102971,10288.862594
524.928020,0.000000,296.082377,10140.821405
524.928335,0.000000,-0.000000,10214.842000
524.928651,0.000000,-0.000000,10214.842000
524.928967,0.000000,-0.000000,10140.821405
524.929282,383.047749,296.082377,9770.718434
524.929598,536.266849,370.102971,9696.697840
524.929914,459.657299,370.102971,9474.636058
524.930229,919.314598,222.061783,9178.553681
524.930545,1149.143247,370.102971,9178.553681
524.930861,1608.800546,222.061783,9104.533087
524.931176,1302.362347,444.123565,9400.615463
524.931492,1302.362347,222.061783,8956.491898
524.931807,842.705048,-0.000000,9252.574275
524.932123,612.876398,-0.000000,9400.615463
524.932439,689.485948,222.061783,9474.636058
524.932754,459.657299,-74.020594,9474.636058
524.933070,0.000000,-296.082377,9326.594869
524.933386,0.000000,-592.164754,9770.718434
524.933701,-383.047749,-740.205942,9622.677246
524.934017,-536.266849,-888.247130,9548.656652
524.934333,-766.095498,-1110.308913,9548.656652
524.934648,-1072.533697,-1332.370696,9696.697840
524.934964,-383.047749,-1702.473667,9474.636058
524.935280,-689.485948,-1258.350101,9770.718434
524.935595,-459.657299,-1480.411884,9474.636058
524.935911,0.000000,-1332.370696,9252.574275
524.936227,306.438199,-1184.329507,8882.471304
524.936542,459.657299,-1110.308913,8956.491898
524.936858,536.266849,-1110.308913,8882.471304
524.937174,842.705048,-1110.308913,8660.409521
524.937489,1149.143247,-1110.308913,8660.409521
524.937805,766.095498,-1184.329507,8882.471304
524.938121,689.485948,-1406.391290,8956.491898
524.938436,842.705048,-1332.370696,9252.574275
524.938752,383.047749,-1702.473667,9326.594869
524.939068,536.266849,-1776.494261,9474.636058
524.939383,536.266849,-1702.473667,9770.718434
524.939699,229.828649,-1850.514855,9622.677246
524.940015,383.047749,-1776.494261,9622.677246
524.940330,383.047749,-1628.453072,9474.636058
524.940646,383.047749,-1480.411884,9548.656652
524.940962,612.876398,-1480.411884,9474.636058
524.941277,995.924147,-962.267725,9252.574275
524.941593,1302.362347,-814.226536,9326.594869
524.941909,1532.190996,-592.164754,8956.491898
524.942224,1378.971896,-370.102971,8734.430116
524.942540,2221.676944,-296.082377,8882.471304
524.942856,1762.019645,-74.020594,9104.533087
524.943171,1685.410096,296.082377,9030.512492
524.943487,1608.800546,-0.000000,9178.553681
524.943803,1378.971896,-0.000000,9400.615463
524.944118,1072.533697,222.061783,9622.677246
524.944434,536.266849,666.185348,9548.656652
524.944749,766.095498,444.123565,9474.636058
524.945065,153.219100,444.123565,9548.656652
524.945381,0.000000,666.185348,9548.656652
524.945696,0.000000,370.102971,9548.656652
524.946012,0.000000,370.102971,9844.739029
524.946328,-459.657299,444.123565,9844.739029
524.946643,-306.438199,814.226536,9992.780217
524.946959,-383.047749,888.247130,10066.800811
524.947275,-229.828649,888.247130,10066.800811
524.947590,0.000000,1184.329507,9770.718434
524.947906,0.000000,1110.308913,9622.677246
524.948222,153.219100,1110.308913,9548.656652
524.948537,0.000000,962.267725,9918.759623
524.948853,153.219100,1480.411884,9474.636058
524.949169,306.438199,1332.370696,9548.656652
524.949484,306.438199,1110.308913,9548.656652
524.949800,229.828649,1184.329507,9548.656652
524.950116,0.000000,740.205942,9844.739029
524.950431,0.000000,592.164754,9992.780217
524.950747,-153.219100,296.082377,9992.780217
524.951063,0.000000,296.082377,10140.821405
524.951378,0.000000,-74.020594,10140.821405
524.951694,-153.219100,222.061783,10214.842000
524.952010,0.000000,-0.000000,10140.821405
524.952325,0.000000,-0.000000,10140.821405
524.952641,0.000000,296.082377,10066.800811
524.952957,383.047749,-0.000000,9992.780217
524.953272,689.485948,296.082377,9696.697840
524.953588,612.876398,148.041188,9252.574275
524.953904,919.314598,444.123565,9400.615463
524.954219,1378.971896,296.082377,9326.594869
524.954535,1302.362347,296.082377,9252.574275
524.954851,1302.362347,370.102971,9104.533087
524.955166,1225.752797,148.041188,9178.553681
524.955482,1072.533697,-0.000000,9178.553681
524.955798,919.314598,-74.020594,9474.636058
524.956113,536.266849,-0.000000,9326.594869
524.956429,153.219100,-148.041188,9474.636058
524.956744,0.000000,-370.102971,9474.636058
524.957060,-153.219100,-814.226536,9474.636058
524.957376,-1072.533697,-1332.370696,9474.636058
524.957691,-536.266849,-1110.308913,9622.677246
524.958007,-1072.533697,-1628.453072,9696.697840
524.958323,-919.314598,-1480.411884,9622.677246
524.958638,-766.095498,-1702.473667,9696.697840
524.958954,0.000000,-1480.411884,9548.656652
524.959270,-306.438199,-1554.432478,9474.636058
524.959585,-306.438199,-1406.391290,9252.574275
524.959901,76.609550,-1332.370696,9178.553681
524.960217,459.657299,-1258.350101,8734.430116
524.960532,842.705048,-1332.370696,9104.533087
524.960848,919.314598,-1258.350101,8438.347739
524.961164,995.924147,-1480.411884,8512.368333
524.961479,919.314598,-1332.370696,8882.471304
524.961795,766.095498,-1554.432478,8956.491898
524.962111,842.705048,-1554.432478,9474.636058
524.962426,459.657299,-1628.453072,9252.574275
524.962742,229.828649,-1850.514855,9400.615463
524.963058,459.657299,-1850.514855,9474.636058
