#time,accel_x,accel_y,accel_z
1008.888672,-1685.410096,814.226536,10288.862594
1008.888988,-1915.238745,740.205942,10214.842000
1008.889304,-1302.362347,740.205942,10214.842000
1008.889619,-1378.971896,1332.370696,10214.842000
1008.889935,-1072.533697,1850.514855,9548.656652
1008.890251,-766.095498,1406.391290,9326.594869
1008.890566,-536.266849,1110.308913,10140.821405
1008.890882,-536.266849,1332.370696,9474.636058
1008.891198,0.000000,1036.288319,9844.739029
1008.891513,383.047749,1406.391290,9400.615463
1008.891829,459.657299,1258.350101,9178.553681
1008.892145,153.219100,1480.411884,9326.594869
1008.892460,306.438199,1850.514855,9326.594869
1008.892776,76.609550,2146.597232,9252.574275
1008.893091,0.000000,2368.659014,9474.636058
1008.893407,0.000000,2368.659014,9252.574275
1008.893723,-153.219100,2294.638420,9252.574275
1008.894038,-1149.143247,1924.535449,9326.594869
1008.894354,-1149.143247,1702.473667,9474.636058
1008.894670,-1455.581446,1554.432478,9696.697840
1008.894985,-1608.800546,1332.370696,10066.800811
1008.895301,-2451.505594,1036.288319,9844.739029
1008.895617,-2757.943793,1332.370696,10140.821405
1008.895932,-2681.334243,1628.453072,10066.800811
1008.896248,-2604.724693,1850.514855,9548.656652
1008.896564,-2068.457845,1850.514855,9178.553681
1008.896879,-2451.505594,2294.638420,8808.450710
1008.897195,-2451.505594,2738.761985,8438.347739
1008.897511,-2221.676944,2664.741391,8586.388927
1008.897826,-2298.286494,2812.782580,8364.327145
1008.898142,-2604.724693,2664.741391,8290.306550
1008.898458,-2911.162892,2664.741391,8882.471304
1008.898773,-3217.601092,2368.659014,9030.512492
1008.899089,-3370.820191,2294.638420,9400.615463
1008.899405,-3753.867940,1776.494261,9400.615463
1008.899720,-3830.477490,2146.597232,9474.636058
1008.900036,-4213.525239,1850.514855,9548.656652
1008.900352,-4060.306139,1776.494261,9844.739029
1008.900667,-3907.087040,1776.494261,9992.780217
1008.900983,-3294.210641,1332.370696,9844.739029
1008.901299,-3140.991542,1628.453072,9918.759623
1008.901614,-2681.334243,1850.514855,9474.636058
1008.901930,-2145.067394,2368.659014,9400.615463
1008.902246,-1915.238745,2960.823768,9178.553681
1008.902561,-1225.752797,3034.844362,8808.450710
1008.902877,-1072.533697,3701.029710,8364.327145
1008.903193,-1225.752797,3627.009116,8512.368333
1008.903508,-995.924147,3775.050304,8512.368333
1008.903824,-1149.143247,3330.926739,9326.594869
1008.904140,-1378.971896,2664.741391,9622.677246
1008.904455,-1838.629195,2368.659014,9992.780217
1008.904771,-1915.238745,1998.556043,10214.842000
1008.905087,-1685.410096,1628.453072,10510.924376
1008.905402,-1532.190996,1850.514855,10732.986159
1008.905718,-1915.238745,2146.597232,10362.883188
1008.906033,-2068.457845,2442.679609,9918.759623
1008.906349,-1838.629195,2886.803174,9696.697840
1008.906665,-1608.800546,3108.864956,9178.553681
1008.906980,-1225.752797,3182.885551,8882.471304
1008.907296,-1532.190996,3034.844362,9326.594869
1008.907612,-1915.238745,2590.720797,9252.574275
1008.907927,-1915.238745,1480.411884,9548.656652
1008.908243,-1991.848295,814.226536,10436.903782
1008.908559,-2068.457845,296.082377,10955.047942
1008.908874,-1915.238745,-222.061783,11177.109724
1008.909190,-1608.800546,-296.082377,11029.068536
1008.909506,-1225.752797,-740.205942,11103.089130
1008.909821,-229.828649,-592.164754,10510.924376
1008.910137,0.000000,370.102971,9992.780217
1008.910453,229.828649,814.226536,9548.656652
1008.910768,995.924147,1258.350101,8734.430116
1008.911084,1532.190996,1776.494261,8586.388927
1008.911400,1149.143247,2220.617826,8068.244768
1008.911715,842.705048,2220.617826,7920.203579
1008.912031,383.047749,1776.494261,7994.224174
1008.912347,-536.266849,740.205942,8734.430116
1008.912662,-1532.190996,-148.041188,9474.636058
1008.912978,-2451.505594,-1776.494261,10288.862594
1008.913294,-2834.553343,-2146.597232,11177.109724
1008.913609,-2911.162892,-2738.761985,11547.212695
1008.913925,-2374.896044,-3478.967927,11695.253884
1008.914241,-1378.971896,-3404.947333,11473.192101
1008.914556,-459.657299,-2664.741391,10214.842000
1008.914872,842.705048,-2368.659014,9622.677246
1008.915188,2145.067394,-1776.494261,8512.368333
1008.915503,2834.553343,-444.123565,7550.100608
1008.915819,3524.039291,1184.329507,6735.874072
1008.916134,3983.696590,2368.659014,5773.606348
1008.916450,3677.258390,2960.823768,5921.647536
1008.916766,3140.991542,3108.864956,6143.709319
1008.917081,2068.457845,2220.617826,6587.832884
1008.917397,153.219100,1258.350101,7328.038826
1008.917713,-1225.752797,-0.000000,8956.491898
1008.918028,-2757.943793,-2294.638420,10362.883188
1008.918344,-3907.087040,-3256.906145,11621.233289
1008.918660,-4519.963438,-4219.173869,12509.480420
1008.918975,-4596.572988,-4441.235652,12509.480420
1008.919291,-3447.429741,-3923.091493,12065.356855
1008.919606,-2911.162892,-3330.926739,11473.192101
1008.919922,-1378.971896,-1776.494261,10288.862594
1008.920238,459.657299,-0.000000,8586.388927
1008.920553,1838.629195,1702.473667,7179.997637
1008.920869,2834.553343,3627.009116,5699.585753
1008.921185,3753.867940,4293.194464,5255.462188
1008.921500,3447.429741,4367.215058,5921.647536
1008.921816,2604.724693,3627.009116,6661.853478
1008.922132,1608.800546,1406.391290,7920.203579
1008.922447,76.609550,296.082377,9252.574275
1008.922763,-1072.533697,-1554.432478,10732.986159
1008.923078,-1838.629195,-3256.906145,12139.377449
1008.923394,-2451.505594,-3775.050304,12879.583391
1008.923710,-2604.724693,-3404.947333,12805.562797
1008.924025,-2068.457845,-2442.679609,12509.480420
1008.924341,-919.314598,-1480.411884,11843.295072
1008.924657,0.000000,-370.102971,10362.883188
1008.924972,1225.752797,1332.370696,8734.430116
1008.925288,2298.286494,3256.906145,7328.038826
1008.925604,3217.601092,4737.318029,6439.791695
1008.925919,3294.210641,5551.544565,6291.750507
1008.926235,3217.601092,4663.297435,6957.935855
1008.926550,2681.334243,3034.844362,8216.285956
1008.926866,1762.019645,1406.391290,9178.553681
1008.927182,536.266849,-888.247130,10881.027347
1008.927497,0.000000,-2368.659014,12435.459826
1008.927813,-766.095498,-2812.782580,13249.686362
1008.928129,-612.876398,-2220.617826,13397.727550
1008.928444,-459.657299,-518.144159,12731.542202
1008.928760,0.000000,518.144159,11251.130318
1008.929076,766.095498,1184.329507,10066.800811
1008.929391,1838.629195,2146.597232,8660.409521
1008.929707,2528.115143,3330.926739,7624.121203
1008.930022,2604.724693,5107.421000,6439.791695
1008.930338,2604.724693,5329.482782,6365.771101
1008.930654,2221.676944,4367.215058,7328.038826
1008.930969,1532.190996,2294.638420,8956.491898
1008.931285,459.657299,-592.164754,10288.862594
1008.931601,-995.924147,-2886.803174,11547.212695
1008.931916,-1532.190996,-3552.988522,12805.562797
1008.932232,-1608.800546,-3552.988522,13101.645173
1008.932548,-1149.143247,-2812.782580,13175.665768
1008.932863,-995.924147,-1110.308913,11695.253884
1008.933179,-536.266849,-0.000000,10362.883188
1008.933495,306.438199,-0.000000,9400.615463
1008.933810,995.924147,592.164754,8216.285956
1008.934126,2221.676944,1406.391290,7105.977043
1008.934441,2681.334243,2146.597232,6365.771101
1008.934757,2987.772442,2442.679609,6143.709319
1008.935073,3294.210641,1406.391290,6957.935855
1008.935388,2221.676944,-0.000000,8142.265362
1008.935704,842.705048,-2220.617826,9326.594869
1008.936020,-229.828649,-3775.050304,10881.027347
1008.936335,-919.314598,-3997.112087,11769.274478
1008.936651,-1225.752797,-3330.926739,12065.356855
1008.936967,-1225.752797,-1998.556043,11547.212695
1008.937282,-919.314598,-1184.329507,10510.924376
1008.937598,-995.924147,-592.164754,9622.677246
1008.937913,-229.828649,-592.164754,9104.533087
1008.938229,0.000000,-222.061783,7772.162391
1008.938545,1225.752797,-296.082377,7254.018232
1008.938860,1072.533697,-0.000000,7698.141797
1008.939176,1149.143247,148.041188,7476.080014
1008.939492,1149.143247,-518.144159,7920.203579
1008.939807,842.705048,-1332.370696,8660.409521
1008.940123,536.266849,-2072.576638,9770.718434
1008.940439,153.219100,-2294.638420,9770.718434
1008.940754,0.000000,-1776.494261,9992.780217
1008.941070,-153.219100,-888.247130,9696.697840
1008.941385,-153.219100,-74.020594,9400.615463
1008.941701,-306.438199,296.082377,8808.450710
1008.942017,-689.485948,222.061783,8734.430116
1008.942332,-766.095498,-74.020594,8882.471304
1008.942648,-536.266849,-370.102971,8956.491898
1008.942964,-612.876398,-1184.329507,9326.594869
1008.943279,-306.438199,-1480.411884,9326.594869
1008.943595,0.000000,-1702.473667,9400.615463
1008.943911,76.609550,-1702.473667,9696.697840
1008.944226,229.828649,-2072.576638,10288.862594
1008.944542,536.266849,-1480.411884,10584.944971
1008.944857,1072.533697,-740.205942,10436.903782
1008.945173,1149.143247,518.144159,9474.636058
1008.945489,1149.143247,1184.329507,8734.430116
1008.945804,995.924147,1776.494261,8734.430116
1008.946120,766.095498,1776.494261,8512.368333
1008.946436,536.266849,1480.411884,8734.430116
1008.946751,459.657299,814.226536,9326.594869
1008.947067,153.219100,-148.041188,9696.697840
1008.947383,-536.266849,-1332.370696,10362.883188
1008.947698,0.000000,-1776.494261,11325.150913
1008.948014,-153.219100,-2664.741391,11621.233289
1008.948329,153.219100,-2442.679609,11399.171507
1008.948645,919.314598,-1110.308913,11547.212695
1008.948961,1455.581446,296.082377,10658.965565
1008.949276,1455.581446,1554.432478,9696.697840
1008.949592,1762.019645,2516.700203,8364.327145
1008.949908,1762.019645,3256.906145,8068.244768
1008.950223,1532.190996,3478.967927,7920.203579
1008.950539,1072.533697,2442.679609,8364.327145
1008.950855,842.705048,1332.370696,9030.512492
1008.951170,76.609550,222.061783,9622.677246
1008.951486,0.000000,-1036.288319,10510.924376
1008.951802,-383.047749,-1924.535449,11251.130318
1008.952117,-536.266849,-2294.638420,11843.295072
1008.952433,-229.828649,-1702.473667,11769.274478
1008.952748,536.266849,-814.226536,11473.192101
1008.953064,842.705048,666.185348,10362.883188
1008.953380,1455.581446,1702.473667,9030.512492
1008.953695,1991.848295,2516.700203,7476.080014
1008.954011,1302.362347,3034.844362,7476.080014
1008.954327,1378.971896,3404.947333,7476.080014
1008.954642,1225.752797,2960.823768,7698.141797
1008.954958,306.438199,1924.535449,8216.285956
1008.955274,-306.438199,444.123565,8956.491898
1008.955589,-459.657299,-1110.308913,9992.780217
1008.955905,-1455.581446,-2294.638420,10881.027347
1008.956220,-1532.190996,-2812.782580,11399.171507
1008.956536,-1302.362347,-2812.782580,11843.295072
1008.956852,-536.266849,-1998.556043,11547.212695
1008.957167,153.219100,-1110.308913,10362.883188
1008.957483,306.438199,-0.000000,8808.450710
1008.957799,1072.533697,1258.350101,7772.162391
1008.958114,1455.581446,2368.659014,6957.935855
1008.958430,1378.971896,2516.700203,6809.894666
1008.958746,1149.143247,1924.535449,7105.977043
1008.959061,612.876398,962.267725,7550.100608
1008.959377,-153.219100,-148.041188,8438.347739
1008.959692,-842.705048,-1776.494261,9622.677246
1008.960008,-1149.143247,-2812.782580,10732.986159
1008.960324,-1302.362347,-3108.864956,11547.212695
1008.960639,-1455.581446,-3108.864956,11695.253884
1008.960955,-1072.533697,-2590.720797,11473.192101
1008.961271,-689.485948,-1332.370696,10362.883188
1008.961586,0.000000,-370.102971,9104.533087
1008.961902,459.657299,370.102971,8142.265362
1008.962218,842.705048,1332.370696,7698.141797
1008.962533,842.705048,1702.473667,7402.059420
1008.962849,1149.143247,1554.432478,7402.059420
1008.963164,1302.362347,1258.350101,7846.182985
1008.963480,76.609550,-0.000000,8660.409521
1008.963796,0.000000,-1110.308913,9474.636058
1008.964111,-306.438199,-2368.659014,10807.006753
1008.964427,-612.876398,-2516.700203,11325.150913
1008.964743,-229.828649,-2368.659014,11769.274478
1008.965058,153.219100,-1628.453072,11325.150913
1008.965374,383.047749,-814.226536,10510.924376
1008.965690,383.047749,222.061783,9474.636058
1008.966005,919.314598,888.247130,8808.450710
1008.966321,1378.971896,1258.350101,8068.244768
1008.966636,1072.533697,1480.411884,8068.244768
1008.966952,1455.581446,1036.288319,8290.306550
1008.967268,1608.800546,370.102971,8734.430116
1008.967583,995.924147,-814.226536,9400.615463
1008.967899,919.314598,-2072.576638,10214.842000
1008.968215,842.705048,-2294.638420,10955.047942
1008.968530,689.485948,-2146.597232,11473.192101
1008.968846,689.485948,-1628.453072,11399.171507
1008.969162,919.314598,-592.164754,11029.068536
1008.969477,1302.362347,-0.000000,9770.718434
1008.969793,1378.971896,666.185348,8882.471304
1008.970109,1532.190996,1258.350101,8512.368333
1008.970424,1608.800546,1110.308913,8216.285956
1008.970740,1762.019645,1036.288319,8364.327145
1008.971055,1608.800546,370.102971,8734.430116
1008.971371,766.095498,-222.061783,9030.512492
1008.971687,536.266849,-740.205942,9474.636058
1008.972002,306.438199,-2368.659014,10288.862594
1008.972318,383.047749,-2294.638420,11103.089130
1008.972634,0.000000,-2072.576638,11325.150913
1008.972949,689.485948,-1184.329507,11029.068536
1008.973265,919.314598,-592.164754,9992.780217
1008.973581,766.095498,-0.000000,9252.574275
1008.973896,919.314598,962.267725,8290.306550
1008.974212,1072.533697,1480.411884,7698.141797
1008.974527,842.705048,1554.432478,8068.244768
1008.974843,919.314598,962.267725,8438.347739
1008.975159,536.266849,518.144159,8512.368333
1008.975474,229.828649,-296.082377,8956.491898
1008.975790,0.000000,-1184.329507,9548.656652
1008.976106,-383.047749,-1998.556043,10066.800811
1008.976421,-383.047749,-2072.576638,10510.924376
1008.976737,0.000000,-1258.350101,10807.006753
1008.977053,229.828649,-888.247130,10510.924376
1008.977368,383.047749,222.061783,9548.656652
1008.977684,459.657299,1036.288319,8734.430116
1008.977999,689.485948,1332.370696,7846.182985
1008.978315,919.314598,1998.556043,8068.244768
1008.978631,306.438199,1924.535449,7698.141797
1008.978946,76.609550,1480.411884,7920.203579
1008.979262,0.000000,814.226536,8882.471304
1008.979578,-689.485948,-148.041188,9326.594869
1008.979893,-1225.752797,-1332.370696,10214.842000
1008.980209,-1302.362347,-1998.556043,10881.027347
1008.980525,-1149.143247,-1998.556043,11029.068536
1008.980840,-842.705048,-1850.514855,11473.192101
1008.981156,-229.828649,-1036.288319,10807.006753
1008.981471,229.828649,-0.000000,10140.821405
1008.981787,76.609550,814.226536,9178.553681
1008.982103,995.924147,1628.453072,8142.265362
1008.982418,612.876398,1850.514855,7624.121203
1008.982734,536.266849,1998.556043,7846.182985
1008.983050,383.047749,1776.494261,8956.491898
1008.983365,383.047749,888.247130,8808.450710
1008.983681,0.000000,-444.123565,9400.615463
1008.983997,-612.876398,-1480.411884,10288.862594
1008.984312,-383.047749,-2294.638420,11399.171507
1008.984628,-383.047749,-2368.659014,11547.212695
1008.984944,-229.828649,-1850.514855,11621.233289
1008.985259,0.000000,-1110.308913,11029.068536
1008.985575,612.876398,-222.061783,9918.759623
1008.985890,1685.410096,666.185348,9104.533087
1008.986206,1072.533697,1110.308913,8364.327145
1008.986522,1455.581446,1850.514855,7772.162391
1008.986837,1225.752797,2072.576638,8142.265362
1008.987153,1149.143247,1480.411884,8438.347739
1008.987469,766.095498,592.164754,9030.512492
1008.987784,383.047749,-592.164754,9326.594869
1008.988100,306.438199,-1924.535449,10214.842000
1008.988416,0.000000,-2146.597232,11103.089130
1008.988731,153.219100,-2590.720797,11547.212695
1008.989047,306.438199,-1554.432478,11621.233289
1008.989362,612.876398,-888.247130,10510.924376
1008.989678,1149.143247,222.061783,9548.656652
1008.989994,1608.800546,592.164754,8660.409521
1008.990309,1838.629195,888.247130,8216.285956
1008.990625,2068.457845,1480.411884,7698.141797
1008.990941,2068.457845,1480.411884,8068.244768
1008.991256,1915.238745,962.267725,8364.327145
1008.991572,1685.410096,-0.000000,8512.368333
1008.991888,536.266849,-962.267725,9474.636058
1008.992203,229.828649,-2220.617826,9992.780217
1008.992519,76.609550,-2516.700203,11103.089130
1008.992834,0.000000,-2664.741391,11251.130318
1008.993150,306.438199,-1850.514855,11103.089130
1008.993466,459.657299,-1184.329507,10066.800811
1008.993781,995.924147,-296.082377,9474.636058
1008.994097,919.314598,-0.000000,8512.368333
1008.994413,1225.752797,666.185348,8068.244768
1008.994728,1302.362347,1332.370696,7476.080014
1008.995044,1302.362347,1184.329507,7846.182985
1008.995360,1149.143247,592.164754,8290.306550
1008.995675,919.314598,-222.061783,8142.265362
1008.995991,76.609550,-1332.370696,9030.512492
1008.996306,0.000000,-2220.617826,10288.862594
1008.996622,-766.095498,-2516.700203,11103.089130
1008.996938,-536.266849,-2072.576638,11103.089130
1008.997253,-229.828649,-1406.391290,10658.965565
1008.997569,-153.219100,-444.123565,10066.800811
1008.997885,76.609550,-0.000000,9252.574275
1008.998200,-383.047749,814.226536,8734.430116
1008.998516,0.000000,1110.308913,7994.224174
1008.998832,0.000000,1184.329507,8068.244768
1008.999147,-229.828649,962.267725,7920.203579
1008.999463,0.000000,-0.000000,8438.347739
1008.999778,-383.047749,-148.041188,9178.553681
1009.000094,-536.266849,-1184.329507,9696.697840
1009.000410,-766.095498,-1850.514855,10288.862594
1009.000725,-842.705048,-2072.576638,10881.027347
1009.001041,-459.657299,-1554.432478,11177.109724
1009.001357,383.047749,-666.185348,10584.944971
1009.001672,383.047749,296.082377,9474.636058
1009.001988,536.266849,1184.329507,8660.409521
1009.002304,383.047749,1480.411884,8068.244768
1009.002619,919.314598,1850.514855,7624.121203
1009.002935,383.047749,2146.597232,8142.265362
1009.003251,306.438199,1480.411884,8512.368333
1009.003566,0.000000,888.247130,8956.491898
1009.003882,-229.828649,-222.061783,9696.697840
1009.004197,-612.876398,-1480.411884,10288.862594
1009.004513,-766.095498,-1554.432478,10955.047942
1009.004829,-689.485948,-1406.391290,11251.130318
1009.005144,-459.657299,-740.205942,11473.192101
1009.005460,-153.219100,-296.082377,10807.006753
1009.005776,383.047749,370.102971,9770.718434
1009.006091,766.095498,1036.288319,9252.574275
1009.006407,1149.143247,1776.494261,8512.368333
1009.006723,1455.581446,2072.576638,8290.306550
1009.007038,1685.410096,2146.597232,7994.224174
1009.007354,1072.533697,1998.556043,8808.450710
1009.007669,1225.752797,962.267725,8586.388927
1009.007985,842.705048,-0.000000,9474.636058
1009.008301,153.219100,-1258.350101,10362.883188
1009.008616,689.485948,-1776.494261,10807.006753
1009.008932,229.828649,-1776.494261,11399.171507
1009.009248,306.438199,-1406.391290,11621.233289
1009.009563,995.924147,-592.164754,10584.944971
1009.009879,995.924147,370.102971,9844.739029
1009.010195,1149.143247,740.205942,8956.491898
1009.010510,1225.752797,1258.350101,8586.388927
1009.010826,1302.362347,1850.514855,8290.306550
1009.011141,919.314598,1776.494261,7994.224174
1009.011457,1302.362347,1036.288319,8586.388927
1009.011773,842.705048,-222.061783,9252.574275
1009.012088,383.047749,-1332.370696,9474.636058
1009.012404,306.438199,-2146.597232,10362.883188
1009.012720,76.609550,-2516.700203,10955.047942
1009.013035,229.828649,-2146.597232,10881.027347
1009.013351,536.266849,-1184.329507,10732.986159
1009.013667,1149.143247,-592.164754,9992.780217
1009.013982,1072.533697,74.020594,9252.574275
1009.014298,1378.971896,666.185348,8438.347739
1009.014613,1455.581446,1184.329507,7920.203579
1009.014929,1302.362347,1406.391290,7402.059420
1009.015245,1225.752797,1258.350101,7846.182985
1009.015560,995.924147,296.082377,8216.285956
1009.015876,383.047749,-518.144159,9030.512492
1009.016192,229.828649,-1998.556043,9474.636058
1009.016508,-459.657299,-2886.803174,10066.800811
1009.016823,-995.924147,-2886.803174,11029.068536
1009.017139,-536.266849,-2738.761985,11473.192101
1009.017455,0.000000,-1998.556043,10881.027347
1009.017770,306.438199,-814.226536,10288.862594
1009.018086,459.657299,-0.000000,8882.471304
1009.018402,536.266849,740.205942,8290.306550
1009.018717,919.314598,1184.329507,7328.038826
1009.019033,766.095498,1480.411884,7402.059420
1009.019349,995.924147,666.185348,7550.100608
1009.019664,842.705048,518.144159,8068.244768
1009.019980,-76.609550,-370.102971,8808.450710
1009.020296,-612.876398,-1702.473667,9326.594869
1009.020612,-766.095498,-2368.659014,10362.883188
1009.020927,-689.485948,-2590.720797,11399.171507
1009.021243,-612.876398,-2442.679609,11695.253884
1009.021559,-383.047749,-1480.411884,10807.006753
1009.021874,-229.828649,-444.123565,9992.780217
1009.022190,0.000000,370.102971,9400.615463
1009.022506,306.438199,1036.288319,8882.471304
1009.022821,536.266849,2146.597232,8068.244768
1009.023137,919.314598,1924.535449,7920.203579
1009.023453,612.876398,1332.370696,8438.347739
1009.023768,459.657299,518.144159,8660.409521
1009.024084,536.266849,-222.061783,9400.615463
1009.024400,229.828649,-1258.350101,9844.739029
1009.024715,76.609550,-1776.494261,10362.883188
1009.025031,0.000000,-1554.432478,10955.047942
1009.025347,536.266849,-1628.453072,11547.212695
1009.025663,612.876398,-666.185348,10807.006753
1009.025978,766.095498,222.061783,10214.842000
1009.026294,612.876398,814.226536,9104.533087
1009.026610,1225.752797,1480.411884,8586.388927
1009.026925,1302.362347,1924.535449,8142.265362
1009.027241,1149.143247,1850.514855,8068.244768
1009.027557,995.924147,1480.411884,8586.388927
1009.027872,766.095498,1036.288319,8956.491898
1009.028188,536.266849,-74.020594,9474.636058
1009.028504,0.000000,-1258.350101,10288.862594
1009.028819,0.000000,-2294.638420,11029.068536
1009.029135,76.609550,-2072.576638,11621.233289
1009.029451,766.095498,-1776.494261,11251.130318
1009.029766,919.314598,-740.205942,10807.006753
1009.030082,1072.533697,518.144159,9992.780217
1009.030398,1608.800546,1554.432478,9104.533087
1009.030714,1762.019645,2220.617826,7994.224174
1009.031029,1838.629195,2368.659014,7772.162391
1009.031345,1762.019645,2072.576638,8142.265362
1009.031661,1532.190996,1184.329507,8290.306550
1009.031976,1302.362347,222.061783,9030.512492
1009.032292,842.705048,-962.267725,9548.656652
1009.032608,306.438199,-2072.576638,10510.924376
1009.032923,0.000000,-2220.617826,10955.047942
1009.033239,-229.828649,-2442.679609,11473.192101
1009.033555,153.219100,-1406.391290,11547.212695
1009.033870,536.266849,-814.226536,10362.883188
1009.034186,842.705048,222.061783,9548.656652
1009.034502,995.924147,518.144159,8586.388927
1009.034818,842.705048,1036.288319,7994.224174
1009.035133,1149.143247,1628.453072,7846.182985
1009.035449,995.924147,1406.391290,7920.203579
1009.035765,689.485948,518.144159,8216.285956
1009.036080,612.876398,-592.164754,8956.491898
1009.036396,0.000000,-1628.453072,9178.553681
1009.036712,-306.438199,-2516.700203,9918.759623
1009.037027,-383.047749,-2812.782580,11029.068536
1009.037343,0.000000,-2738.761985,11103.089130
1009.037659,0.000000,-1850.514855,10658.965565
1009.037974,383.047749,-962.267725,10066.800811
1009.038290,689.485948,444.123565,9474.636058
1009.038606,459.657299,1036.288319,8142.265362
1009.038921,536.266849,1702.473667,7846.182985
1009.039237,689.485948,1184.329507,7920.203579
1009.039553,229.828649,666.185348,8142.265362
1009.039869,306.438199,370.102971,8512.368333
1009.040184,-459.657299,-962.267725,8956.491898
1009.040500,-459.657299,-1628.453072,9622.677246
1009.040816,-536.266849,-3034.844362,10288.862594
1009.041131,-612.876398,-2072.576638,11029.068536
1009.041447,-459.657299,-1776.494261,11177.109724
1009.041763,0.000000,-1554.432478,10658.965565
1009.042078,842.705048,-296.082377,9548.656652
1009.042394,76.609550,-0.000000,9104.533087
1009.042710,459.657299,1184.329507,8068.244768
1009.043025,842.705048,1628.453072,7846.182985
1009.043341,766.095498,1776.494261,7846.182985
1009.043657,842.705048,1258.350101,8438.347739
1009.043973,153.219100,740.205942,8364.327145
1009.044288,0.000000,-666.185348,9252.574275
1009.044604,-383.047749,-1554.432478,9992.780217
1009.044920,-689.485948,-2590.720797,10807.006753
1009.045235,-459.657299,-2368.659014,11769.274478
1009.045551,-459.657299,-2294.638420,11769.274478
1009.045867,229.828649,-1184.329507,11473.192101
1009.046182,536.266849,-0.000000,10066.800811
1009.046498,995.924147,1036.288319,9104.533087
1009.046814,919.314598,1628.453072,8068.244768
1009.047129,1378.971896,2294.638420,7772.162391
1009.047445,1685.410096,2442.679609,7550.100608
1009.047761,1532.190996,1998.556043,7772.162391
1009.048076,1225.752797,1258.350101,9326.594869
1009.048392,995.924147,-518.144159,9252.574275
1009.048708,612.876398,-1480.411884,10066.800811
1009.049024,-76.609550,-2146.597232,11251.130318
1009.049339,76.609550,-1850.514855,11769.274478
1009.049655,306.438199,-1554.432478,11621.233289
1009.049971,536.266849,-444.123565,11399.171507
1009.050286,383.047749,444.123565,9992.780217
1009.050602,1072.533697,1258.350101,9252.574275
1009.050918,995.924147,2220.617826,8512.368333
1009.051233,842.705048,2368.659014,7698.141797
1009.051549,1532.190996,1924.535449,8142.265362
1009.051865,1532.190996,1702.473667,8142.265362
1009.052180,612.876398,740.205942,9030.512492
1009.052496,383.047749,-666.185348,9770.718434
1009.052812,766.095498,-1850.514855,9770.718434
1009.053127,-306.438199,-1998.556043,10584.944971
1009.053443,76.609550,-1480.411884,11473.192101
1009.053759,383.047749,-1184.329507,11103.089130
1009.054075,612.876398,-0.000000,10436.903782
1009.054390,919.314598,814.226536,9326.594869
1009.054706,995.924147,1036.288319,8660.409521
1009.055022,995.924147,1480.411884,8068.244768
1009.055337,995.924147,1628.453072,7846.182985
1009.055653,995.924147,1258.350101,8142.265362
1009.055969,459.657299,592.164754,8734.430116
1009.056284,153.219100,-222.061783,9030.512492
1009.056600,0.000000,-1480.411884,9992.780217
1009.056916,-229.828649,-2368.659014,10362.883188
1009.057231,-153.219100,-2738.761985,11103.089130
1009.057547,-383.047749,-2072.576638,11251.130318
1009.057863,0.000000,-1480.411884,11177.109724
1009.058179,229.828649,-740.205942,10140.821405
1009.058494,383.047749,222.061783,8956.491898
1009.058810,153.219100,444.123565,8438.347739
1009.059126,536.266849,1110.308913,7994.224174
1009.059441,459.657299,1406.391290,7772.162391
1009.059757,383.047749,1036.288319,7994.224174
1009.060073,229.828649,518.144159,8438.347739
1009.060388,0.000000,-518.144159,9030.512492
1009.060704,-383.047749,-1776.494261,9844.739029
1009.061020,-612.876398,-2442.679609,10658.965565
1009.061335,-842.705048,-2294.638420,10807.006753
1009.061651,-459.657299,-2072.576638,11325.150913
1009.061967,-153.219100,-1554.432478,10658.965565
1009.062282,229.828649,-444.123565,9844.739029
1009.062598,459.657299,444.123565,8808.450710
1009.062914,536.266849,888.247130,8216.285956
1009.063230,383.047749,962.267725,7994.224174
1009.063545,536.266849,1258.350101,7698.141797
1009.063861,919.314598,888.247130,8142.265362
1009.064177,612.876398,148.041188,8438.347739
1009.064492,229.828649,-814.226536,9548.656652
1009.064808,0.000000,-2368.659014,9474.636058
1009.065124,-153.219100,-2368.659014,10362.883188
1009.065439,-229.828649,-2146.597232,10955.047942
1009.065755,76.609550,-1776.494261,11029.068536
1009.066071,459.657299,-888.247130,10436.903782
1009.066386,689.485948,-148.041188,9696.697840
1009.066702,1072.533697,222.061783,8734.430116
1009.067018,766.095498,1110.308913,8290.306550
1009.067333,995.924147,1628.453072,7994.224174
1009.067649,1378.971896,1554.432478,7920.203579
1009.067965,995.924147,1036.288319,8290.306550
1009.068281,536.266849,222.061783,8660.409521
1009.068596,383.047749,-1036.288319,9622.677246
1009.068912,0.000000,-1998.556043,10362.883188
1009.069228,0.000000,-2368.659014,11103.089130
1009.069543,0.000000,-1998.556043,11251.130318
1009.069859,689.485948,-1332.370696,11103.089130
1009.070175,842.705048,-370.102971,10510.924376
1009.070490,1149.143247,518.144159,9548.656652
1009.070806,1532.190996,814.226536,8808.450710
1009.071122,995.924147,1554.432478,8216.285956
1009.071437,1532.190996,2220.617826,7698.141797
1009.071753,1838.629195,2072.576638,7846.182985
1009.072069,1149.143247,1184.329507,8512.368333
1009.072385,612.876398,444.123565,8956.491898
1009.072700,229.828649,-1110.308913,9844.739029
1009.073016,0.000000,-2072.576638,10510.924376
1009.073332,0.000000,-2368.659014,11325.150913
1009.073647,153.219100,-2220.617826,11843.295072
1009.073963,229.828649,-1184.329507,11547.212695
1009.074279,842.705048,-296.082377,10658.965565
1009.074594,842.705048,666.185348,9622.677246
1009.074910,995.924147,1406.391290,8660.409521
1009.075226,1072.533697,1850.514855,7994.224174
1009.075541,1072.533697,2072.576638,7772.162391
1009.075857,1302.362347,1702.473667,8068.244768
1009.076173,995.924147,1184.329507,8364.327145
1009.076488,229.828649,-74.020594,9104.533087
1009.076804,0.000000,-1554.432478,9992.780217
1009.077120,-536.266849,-2664.741391,10807.006753
1009.077436,-612.876398,-2442.679609,11325.150913
1009.077751,-689.485948,-1924.535449,11325.150913
1009.078067,0.000000,-1332.370696,11251.130318
1009.078383,383.047749,-592.164754,10510.924376
1009.078698,459.657299,888.247130,9326.594869
1009.079014,383.047749,1036.288319,8290.306550
1009.079330,536.266849,1776.494261,7994.224174
1009.079645,612.876398,1776.494261,7698.141797
1009.079961,766.095498,1036.288319,7994.224174
1009.080277,536.266849,888.247130,8512.368333
1009.080592,76.609550,-222.061783,8956.491898
1009.080908,0.000000,-1554.432478,10214.842000
1009.081224,-229.828649,-2368.659014,10510.924376
1009.081540,-689.485948,-2368.659014,10658.965565
1009.081855,-76.609550,-1554.432478,10807.006753
1009.082171,229.828649,-888.247130,10362.883188
1009.082487,459.657299,148.041188,9622.677246
1009.082802,612.876398,962.267725,8734.430116
1009.083118,536.266849,1110.308913,8290.306550
1009.083434,459.657299,1628.453072,8216.285956
1009.083749,612.876398,1554.432478,7772.162391
1009.084065,766.095498,1184.329507,8068.244768
1009.084381,306.438199,518.144159,8660.409521
1009.084696,-153.219100,-740.205942,9252.574275
1009.085012,-383.047749,-1998.556043,9992.780217
1009.085328,-383.047749,-2220.617826,10881.027347
1009.085643,-536.266849,-1924.535449,11103.089130
1009.085959,0.000000,-1110.308913,11103.089130
1009.086275,459.657299,-370.102971,10584.944971
1009.086591,1072.533697,370.102971,9326.594869
1009.086906,1072.533697,962.267725,8882.471304
1009.087222,1072.533697,1332.370696,8216.285956
1009.087538,1149.143247,1702.473667,8364.327145
1009.087853,1302.362347,1554.432478,8142.265362
1009.088169,1608.800546,962.267725,8586.388927
1009.088485,995.924147,444.123565,8808.450710
1009.088800,689.485948,-666.185348,9622.677246
1009.089116,459.657299,-1554.432478,10362.883188
1009.089432,766.095498,-1702.473667,10658.965565
1009.089747,459.657299,-1406.391290,11103.089130
1009.090063,689.485948,-1036.288319,11251.130318
1009.090379,919.314598,-518.144159,10584.944971
1009.090694,919.314598,518.144159,9918.759623
1009.091010,1072.533697,814.226536,8882.471304
1009.091326,919.314598,1480.411884,8438.347739
1009.091642,919.314598,1776.494261,8290.306550
1009.091957,1455.581446,1258.350101,8586.388927
1009.092273,1149.143247,888.247130,8438.347739
1009.092589,612.876398,-0.000000,9030.512492
1009.092904,153.219100,-1036.288319,9696.697840
1009.093220,0.000000,-1850.514855,10732.986159
1009.093536,0.000000,-2516.700203,11103.089130
1009.093851,0.000000,-1998.556043,11399.171507
1009.094167,0.000000,-1406.391290,10807.006753
1009.094483,306.438199,-518.144159,10140.821405
1009.094798,766.095498,-0.000000,9326.594869
1009.095114,766.095498,444.123565,8808.450710
1009.095430,842.705048,1184.329507,8142.265362
1009.095746,536.266849,1554.432478,7624.121203
1009.096061,919.314598,1184.329507,8290.306550
1009.096377,766.095498,666.185348,8512.368333
1009.096693,689.485948,-148.041188,8882.471304
1009.097008,0.000000,-1480.411884,9696.697840
1009.097324,-229.828649,-2368.659014,10510.924376
1009.097640,-153.219100,-2738.761985,11029.068536
1009.097955,0.000000,-2294.638420,11177.109724
1009.098271,153.219100,-1184.329507,10955.047942
1009.098587,306.438199,-444.123565,9696.697840
1009.098902,536.266849,518.144159,8882.471304
1009.099218,306.438199,1036.288319,8364.327145
1009.099534,229.828649,1480.411884,7920.203579
1009.099849,306.438199,1776.494261,7846.182985
1009.100165,536.266849,1036.288319,8142.265362
1009.100481,229.828649,370.102971,8586.388927
1009.100797,0.000000,-518.144159,9178.553681
1009.101112,-459.657299,-1776.494261,9992.780217
1009.101428,-1072.533697,-2590.720797,10584.944971
1009.101744,-842.705048,-2220.617826,11029.068536
1009.102059,-536.266849,-1628.453072,10807.006753
1009.102375,76.609550,-1036.288319,10658.965565
1009.102691,229.828649,296.082377,9622.677246
1009.103006,612.876398,888.247130,8734.430116
1009.103322,842.705048,1110.308913,8216.285956
1009.103638,995.924147,1628.453072,7846.182985
1009.103953,766.095498,1406.391290,8142.265362
1009.104269,919.314598,962.267725,8216.285956
1009.104585,536.266849,222.061783,8734.430116
1009.104900,306.438199,-518.144159,9252.574275
1009.105216,-229.828649,-1554.432478,10214.842000
1009.105532,-766.095498,-2368.659014,10732.986159
1009.105848,-153.219100,-2294.638420,11029.068536
1009.106163,0.000000,-1332.370696,11251.130318
1009.106479,229.828649,-740.205942,10955.047942
1009.106795,766.095498,-0.000000,9992.780217
1009.107110,766.095498,592.164754,8660.409521
1009.107426,995.924147,1332.370696,8364.327145
1009.107742,1225.752797,1702.473667,8290.306550
1009.108057,1072.533697,1776.494261,8142.265362
1009.108373,1455.581446,1332.370696,8438.347739
1009.108689,919.314598,666.185348,9104.533087
1009.109004,0.000000,-814.226536,9918.759623
1009.109320,76.609550,-1998.556043,10288.862594
1009.109636,0.000000,-2368.659014,10807.006753
1009.109952,306.438199,-2294.638420,11547.212695
1009.110267,153.219100,-1628.453072,11547.212695
1009.110583,612.876398,-444.123565,10658.965565
1009.110899,689.485948,-0.000000,9844.739029
1009.111214,1225.752797,1184.329507,8956.491898
1009.111530,1149.143247,1924.535449,8290.306550
1009.111846,1072.533697,1776.494261,7846.182985
1009.112161,1149.143247,1184.329507,8068.244768
1009.112477,1225.752797,814.226536,8586.388927
1009.112793,995.924147,-222.061783,9104.533087
1009.113108,76.609550,-1406.391290,9918.759623
1009.113424,0.000000,-2442.679609,10288.862594
1009.113740,76.609550,-2590.720797,11251.130318
1009.114055,153.219100,-2146.597232,11325.150913
1009.114371,536.266849,-1110.308913,11103.089130
1009.114687,689.485948,-296.082377,10214.842000
1009.115003,1072.533697,518.144159,9178.553681
1009.115318,1072.533697,814.226536,8512.368333
1009.115634,842.705048,1110.308913,7920.203579
1009.115950,995.924147,1332.370696,7698.141797
1009.116265,1149.143247,666.185348,8068.244768
1009.116581,842.705048,370.102971,8512.368333
1009.116897,153.219100,-444.123565,9178.553681
1009.117212,-153.219100,-1628.453072,9918.759623
1009.117528,-229.828649,-2590.720797,10510.924376
1009.117844,459.657299,-2516.700203,11177.109724
1009.118159,-459.657299,-2220.617826,11029.068536
1009.118475,0.000000,-1702.473667,10732.986159
1009.118791,153.219100,-666.185348,9770.718434
1009.119106,536.266849,222.061783,8882.471304
1009.119422,536.266849,1036.288319,8512.368333
1009.119738,842.705048,1036.288319,7846.182985
1009.120053,995.924147,1258.350101,7698.141797
1009.120369,995.924147,740.205942,7994.224174
1009.120685,689.485948,444.123565,8364.327145
1009.121000,306.438199,-518.144159,8956.491898
1009.121316,0.000000,-1184.329507,9622.677246
1009.121632,-383.047749,-2294.638420,10436.903782
1009.121947,-459.657299,-2294.638420,10881.027347
1009.122263,-306.438199,-1628.453072,11177.109724
1009.122579,0.000000,-1036.288319,10584.944971
1009.122894,459.657299,-0.000000,9622.677246
1009.123210,612.876398,592.164754,8808.450710
1009.123526,842.705048,1184.329507,8438.347739
1009.123841,919.314598,1406.391290,8290.306550
1009.124157,995.924147,1998.556043,7994.224174
1009.124473,612.876398,1258.350101,8216.285956
1009.124788,536.266849,592.164754,8734.430116
1009.125104,306.438199,-0.000000,9474.636058
1009.125420,76.609550,-1184.329507,10288.862594
1009.125735,-229.828649,-1702.473667,10807.006753
1009.126051,-306.438199,-1850.514855,11029.068536
1009.126367,0.000000,-1480.411884,11103.089130
1009.126682,76.609550,-666.185348,10807.006753
1009.126998,536.266849,-0.000000,10066.800811
1009.127314,306.438199,962.267725,9252.574275
1009.127630,842.705048,1776.494261,8364.327145
1009.127945,536.266849,1924.535449,8142.265362
1009.128261,689.485948,1776.494261,8438.347739
1009.128577,766.095498,814.226536,8512.368333
1009.128892,612.876398,444.123565,8882.471304
1009.129208,229.828649,-740.205942,9622.677246
1009.129524,0.000000,-1850.514855,10510.924376
1009.129839,153.219100,-2368.659014,11547.212695
1009.130155,0.000000,-2072.576638,11547.212695
1009.130471,383.047749,-888.247130,11251.130318
1009.130786,689.485948,-0.000000,10510.924376
1009.131102,995.924147,814.226536,9400.615463
1009.131418,1378.971896,1184.329507,8586.388927
1009.131733,1072.533697,1628.453072,8142.265362
1009.132049,1149.143247,1998.556043,8142.265362
1009.132365,1302.362347,1628.453072,8364.327145
1009.132680,919.314598,1110.308913,8290.306550
1009.132996,459.657299,518.144159,8956.491898
1009.133312,76.609550,-1110.308913,9844.739029
1009.133627,-383.047749,-1850.514855,10658.965565
1009.133943,-383.047749,-2072.576638,11399.171507
1009.134259,-459.657299,-1998.556043,11325.150913
1009.134574,153.219100,-888.247130,11621.233289
1009.134890,153.219100,-296.082377,10510.924376
1009.135206,689.485948,444.123565,9252.574275
1009.135521,1072.533697,1110.308913,8660.409521
1009.135837,1225.752797,1480.411884,7846.182985
1009.136153,1685.410096,1850.514855,7624.121203
1009.136468,1225.752797,1406.391290,8216.285956
1009.136784,1455.581446,740.205942,8216.285956
1009.137100,536.266849,148.041188,8808.450710
1009.137415,306.438199,-1480.411884,9326.594869
1009.137731,306.438199,-2146.597232,10288.862594
1009.138047,76.609550,-2812.782580,11103.089130
1009.138362,229.828649,-2294.638420,11177.109724
1009.138678,229.828649,-1628.453072,10807.006753
1009.138994,383.047749,-592.164754,10140.821405
1009.139309,612.876398,222.061783,9030.512492
1009.139625,459.657299,740.205942,8438.347739
1009.139941,536.266849,1406.391290,8142.265362
1009.140256,1302.362347,1332.370696,7624.121203
1009.140572,766.095498,1184.329507,7846.182985
1009.140888,383.047749,222.061783,8216.285956
1009.141203,0.000000,-962.267725,8882.471304
1009.141519,-536.266849,-2294.638420,9918.759623
1009.141835,-1149.143247,-2812.782580,10732.986159
1009.142150,-689.485948,-2664.741391,11103.089130
1009.142466,-459.657299,-2146.597232,10955.047942
1009.142782,-229.828649,-1184.329507,10584.944971
1009.143098,76.609550,-296.082377,9548.656652
1009.143413,153.219100,-0.000000,8512.368333
1009.143729,153.219100,1258.350101,8068.244768
1009.144045,76.609550,1480.411884,7772.162391
1009.144360,383.047749,1406.391290,7624.121203
1009.144676,306.438199,814.226536,8142.265362
1009.144992,0.000000,-74.020594,8882.471304
1009.145307,-383.047749,-1036.288319,9548.656652
1009.145623,-766.095498,-2368.659014,9992.780217
1009.145939,-689.485948,-2738.761985,10955.047942
1009.146254,-306.438199,-2516.700203,11251.130318
1009.146570,229.828649,-1554.432478,10955.047942
1009.146886,383.047749,-444.123565,10436.903782
1009.147201,536.266849,592.164754,9474.636058
1009.147517,689.485948,1184.329507,8586.388927
1009.147833,919.314598,1702.473667,8216.285956
1009.148148,1072.533697,1850.514855,8142.265362
1009.148464,1149.143247,1776.494261,7920.203579
1009.148780,1302.362347,1184.329507,8290.306550
1009.149095,536.266849,444.123565,9030.512492
1009.149411,153.219100,-1184.329507,9548.656652
1009.149727,-612.876398,-2146.597232,10732.986159
1009.150042,-229.828649,-2072.576638,11251.130318
1009.150358,-383.047749,-1924.535449,11547.212695
1009.150674,0.000000,-1406.391290,11325.150913
1009.150989,76.609550,-518.144159,10584.944971
1009.151305,459.657299,296.082377,9770.718434
1009.151621,1225.752797,1036.288319,8956.491898
1009.151936,1149.143247,1776.494261,8586.388927
1009.152252,1302.362347,2072.576638,8512.368333
1009.152568,1302.362347,1776.494261,8660.409521
1009.152883,1608.800546,1258.350101,8882.471304
1009.153199,1072.533697,444.123565,8808.450710
1009.153515,919.314598,-518.144159,9844.739029
1009.153830,689.485948,-1628.453072,10436.903782
1009.154146,842.705048,-2294.638420,11325.150913
1009.154462,612.876398,-1998.556043,11473.192101
1009.154777,919.314598,-1406.391290,11029.068536
1009.155093,995.924147,-592.164754,10214.842000
1009.155409,1302.362347,148.041188,9400.615463
1009.155724,1302.362347,592.164754,8734.430116
1009.156040,1225.752797,1110.308913,8216.285956
1009.156356,1072.533697,1628.453072,7920.203579
1009.156671,766.095498,1184.329507,7920.203579
1009.156987,689.485948,592.164754,8364.327145
1009.157303,0.000000,-518.144159,8956.491898
1009.157618,0.000000,-1628.453072,9918.759623
1009.157934,-383.047749,-2886.803174,10584.944971
1009.158250,-766.095498,-2664.741391,11029.068536
1009.158565,-459.657299,-2516.700203,11473.192101
1009.158881,459.657299,-1332.370696,11029.068536
1009.159197,383.047749,-222.061783,9918.759623
1009.159513,689.485948,962.267725,9178.553681
1009.159828,842.705048,1406.391290,8142.265362
1009.160144,995.924147,1924.535449,7550.100608
1009.160460,1225.752797,1850.514855,7476.080014
1009.160775,1302.362347,1332.370696,7846.182985
1009.161091,842.705048,370.102971,8438.347739
1009.161407,536.266849,-592.164754,9030.512492
1009.161722,306.438199,-2146.597232,9474.636058
1009.162038,0.000000,-2812.782580,10881.027347
1009.162354,-689.485948,-2664.741391,11103.089130
1009.162669,-306.438199,-1776.494261,11103.089130
1009.162985,0.000000,-1332.370696,10658.965565
1009.163301,76.609550,-370.102971,9474.636058
1009.163616,306.438199,740.205942,8734.430116
1009.163932,153.219100,1184.329507,8142.265362
1009.164248,383.047749,1480.411884,8068.244768
1009.164563,383.047749,1628.453072,7698.141797
1009.164879,536.266849,592.164754,7994.224174
1009.165195,0.000000,-0.000000,8660.409521
1009.165510,-459.657299,-1110.308913,9474.636058
1009.165826,-536.266849,-1924.535449,10140.821405
1009.166142,-459.657299,-2368.659014,10881.027347
1009.166457,-153.219100,-2368.659014,11177.109724
1009.166773,-153.219100,-1258.350101,11029.068536
1009.167089,76.609550,-592.164754,10362.883188
1009.167404,383.047749,592.164754,9770.718434
1009.167720,612.876398,1184.329507,8660.409521
1009.168036,76.609550,1924.535449,8290.306550
1009.168351,612.876398,2146.597232,8216.285956
1009.168667,1378.971896,1998.556043,7994.224174
1009.168983,1378.971896,1258.350101,8438.347739
1009.169298,459.657299,518.144159,9104.533087
1009.169614,842.705048,-962.267725,9844.739029
1009.169930,229.828649,-1702.473667,10658.965565
1009.170245,0.000000,-2220.617826,11547.212695
1009.170561,229.828649,-1850.514855,11695.253884
1009.170877,766.095498,-1110.308913,11621.233289
1009.171192,842.705048,-296.082377,10584.944971
1009.171508,1225.752797,888.247130,9178.553681
1009.171824,1378.971896,1406.391290,8512.368333
1009.172139,1608.800546,1998.556043,8290.306550
1009.172455,1608.800546,2368.659014,7994.224174
1009.172771,1455.581446,1776.494261,8142.265362
1009.173086,1302.362347,1110.308913,8586.388927
1009.173402,842.705048,148.041188,9400.615463
1009.173718,383.047749,-1258.350101,9696.697840
1009.174033,229.828649,-2146.597232,10658.965565
1009.174349,0.000000,-2146.597232,11547.212695
1009.174665,306.438199,-1628.453072,11103.089130
1009.174980,459.657299,-1110.308913,10881.027347
1009.175296,612.876398,-148.041188,10140.821405
1009.175612,995.924147,296.082377,9326.594869
1009.175928,1072.533697,1184.329507,8512.368333
1009.176243,1302.362347,1702.473667,8142.265362
1009.176559,995.924147,1850.514855,8068.244768
1009.176875,1302.362347,1406.391290,8142.265362
1009.177190,1302.362347,740.205942,8364.327145
1009.177506,842.705048,-74.020594,8956.491898
1009.177822,689.485948,-1332.370696,9548.656652
1009.178137,153.219100,-2442.679609,10436.903782
1009.178453,0.000000,-2146.597232,11029.068536
1009.178769,-153.219100,-1850.514855,11029.068536
1009.179084,76.609550,-962.267725,10881.027347
1009.179400,306.438199,-148.041188,9696.697840
1009.179716,383.047749,444.123565,9104.533087
1009.180031,766.095498,518.144159,8068.244768
1009.180347,459.657299,1258.350101,8068.244768
1009.180663,383.047749,1332.370696,7846.182985
1009.180978,459.657299,1036.288319,7920.203579
1009.181294,76.609550,296.082377,8438.347739
1009.181610,-383.047749,-814.226536,9326.594869
1009.181925,-766.095498,-1702.473667,9844.739029
1009.182241,-1072.533697,-2368.659014,10658.965565
1009.182557,-1149.143247,-2442.679609,10881.027347
1009.182872,-689.485948,-2590.720797,10955.047942
1009.183188,-383.047749,-1184.329507,10658.965565
1009.183504,-383.047749,-518.144159,9622.677246
1009.183819,306.438199,370.102971,8808.450710
1009.184135,306.438199,1258.350101,8068.244768
1009.184451,229.828649,1628.453072,7698.141797
1009.184766,536.266849,1776.494261,7698.141797
1009.185082,536.266849,1332.370696,7846.182985
1009.185398,229.828649,518.144159,8586.388927
1009.185713,0.000000,-518.144159,9252.574275
1009.186029,0.000000,-1776.494261,10140.821405
1009.186345,-153.219100,-2368.659014,10807.006753
1009.186660,-306.438199,-2442.679609,11325.150913
1009.186976,153.219100,-1850.514855,11325.150913
1009.187292,459.657299,-888.247130,10584.944971
1009.187607,689.485948,222.061783,9770.718434
1009.187923,995.924147,888.247130,8808.450710
1009.188239,919.314598,1554.432478,8438.347739
1009.188554,766.095498,2146.597232,8142.265362
1009.188870,1072.533697,1776.494261,8142.265362
1009.189186,1149.143247,1110.308913,8512.368333
1009.189501,612.876398,-0.000000,9178.553681
1009.189817,153.219100,-1406.391290,10066.800811
1009.190133,229.828649,-2368.659014,10584.944971
1009.190448,153.219100,-2294.638420,11399.171507
1009.190764,0.000000,-2146.597232,11547.212695
1009.191080,612.876398,-1184.329507,11399.171507
1009.191395,842.705048,-296.082377,10362.883188
1009.191711,1455.581446,666.185348,9400.615463
1009.192027,1762.019645,1258.350101,8290.306550
1009.192343,1608.800546,1776.494261,7994.224174
1009.192658,1378.971896,1702.473667,7994.224174
1009.192974,1762.019645,1184.329507,8068.244768
1009.193290,1225.752797,518.144159,8586.388927
1009.193605,1072.533697,-444.123565,9400.615463
1009.193921,689.485948,-1776.494261,10288.862594
1009.194237,229.828649,-2516.700203,11029.068536
1009.194552,76.609550,-2516.700203,11399.171507
1009.194868,383.047749,-1924.535449,11399.171507
1009.195184,1149.143247,-1184.329507,11029.068536
1009.195499,1072.533697,-148.041188,10140.821405
1009.195815,1149.143247,518.144159,8808.450710
1009.196131,1149.143247,1110.308913,8068.244768
1009.196446,1072.533697,1406.391290,8068.244768
1009.196762,1455.581446,1258.350101,7846.182985
1009.197078,1225.752797,888.247130,7994.224174
1009.197393,766.095498,592.164754,8586.388927
1009.197709,459.657299,-592.164754,8956.491898
1009.198025,76.609550,-1776.494261,9918.759623
1009.198340,0.000000,-2664.741391,10658.965565
1009.198656,-383.047749,-2368.659014,10881.027347
1009.198972,-229.828649,-1924.535449,11103.089130
1009.199287,76.609550,-1332.370696,10658.965565
1009.199603,0.000000,-296.082377,9474.636058
1009.199919,689.485948,296.082377,8808.450710
1009.200234,306.438199,1036.288319,8290.306550
1009.200550,459.657299,1628.453072,7994.224174
1009.200866,306.438199,1406.391290,7920.203579
1009.201181,229.828649,962.267725,8068.244768
1009.201497,306.438199,296.082377,8808.450710
1009.201813,-459.657299,-666.185348,9252.574275
1009.202128,-612.876398,-1998.556043,9992.780217
1009.202444,-612.876398,-2516.700203,10584.944971
1009.202760,-459.657299,-2368.659014,11103.089130
1009.203075,-306.438199,-1702.473667,11029.068536
1009.203391,76.609550,-592.164754,10510.924376
1009.203707,76.609550,444.123565,9770.718434
1009.204022,306.438199,814.226536,8734.430116
1009.204338,459.657299,1628.453072,8364.327145
1009.204654,536.266849,1850.514855,7994.224174
1009.204969,536.266849,1998.556043,7846.182985
1009.205285,383.047749,1110.308913,8290.306550
1009.205601,0.000000,518.144159,8882.471304
1009.205916,-306.438199,-888.247130,9474.636058
1009.206232,-536.266849,-2368.659014,10436.903782
1009.206548,-383.047749,-2220.617826,10955.047942
1009.206863,-842.705048,-1702.473667,11251.130318
1009.207179,-459.657299,-1036.288319,11399.171507
1009.207495,-229.828649,-518.144159,10658.965565
1009.207810,0.000000,444.123565,9326.594869
1009.208126,689.485948,1258.350101,8956.491898
1009.208442,842.705048,1702.473667,8438.347739
1009.208758,1149.143247,1998.556043,8068.244768
1009.209073,1378.971896,1554.432478,8216.285956
1009.209389,1302.362347,1332.370696,8882.471304
1009.209705,842.705048,518.144159,9400.615463
1009.210020,766.095498,-222.061783,9622.677246
1009.210336,536.266849,-1110.308913,10288.862594
1009.210652,306.438199,-1480.411884,11251.130318
1009.210967,536.266849,-1406.391290,11251.130318
1009.211283,766.095498,-888.247130,11251.130318
1009.211599,995.924147,-148.041188,10436.903782
1009.211914,1455.581446,370.102971,9326.594869
1009.212230,1838.629195,814.226536,8882.471304
1009.212546,1378.971896,1406.391290,8364.327145
1009.212861,1072.533697,1554.432478,7920.203579
1009.213177,1455.581446,1258.350101,8290.306550
1009.213493,1072.533697,1036.288319,8734.430116
1009.213808,766.095498,296.082377,9030.512492
1009.214124,383.047749,-962.267725,9622.677246
1009.214440,0.000000,-2072.576638,10510.924376
1009.214755,0.000000,-2442.679609,11029.068536
1009.215071,229.828649,-2368.659014,11251.130318
1009.215387,612.876398,-1480.411884,10955.047942
1009.215702,383.047749,-1036.288319,10288.862594
1009.216018,536.266849,-0.000000,9400.615463
1009.216334,766.095498,666.185348,8660.409521
1009.216649,995.924147,1184.329507,8438.347739
1009.216965,1302.362347,1776.494261,7550.100608
1009.217281,1225.752797,1554.432478,7920.203579
1009.217596,1072.533697,814.226536,8216.285956
1009.217912,612.876398,-370.102971,8808.450710
1009.218228,306.438199,-1406.391290,9474.636058
1009.218543,0.000000,-2368.659014,10140.821405
1009.218859,-536.266849,-2368.659014,11103.089130
1009.219175,-153.219100,-2294.638420,11251.130318
1009.219491,0.000000,-1480.411884,10807.006753
1009.219806,0.000000,-592.164754,9844.739029
1009.220122,306.438199,370.102971,9030.512492
1009.220438,306.438199,1184.329507,8216.285956
1009.220753,383.047749,1480.411884,7920.203579
1009.221069,459.657299,1036.288319,7772.162391
1009.221385,536.266849,592.164754,7920.203579
1009.221700,306.438199,74.020594,8290.306550
1009.222016,0.000000,-1036.288319,8882.471304
1009.222332,-153.219100,-2294.638420,9918.759623
1009.222647,-383.047749,-2590.720797,10510.924376
1009.222963,-689.485948,-2368.659014,11029.068536
1009.223279,-306.438199,-1924.535449,11029.068536
1009.223594,0.000000,-740.205942,10584.944971
1009.223910,153.219100,370.102971,9474.636058
1009.224226,229.828649,666.185348,8512.368333
1009.224542,459.657299,1036.288319,8364.327145
1009.224857,536.266849,1480.411884,7846.182985
1009.225173,536.266849,1258.350101,8068.244768
1009.225489,766.095498,740.205942,8290.306550
1009.225804,0.000000,-0.000000,8808.450710
1009.226120,-153.219100,-1036.288319,9548.656652
1009.226436,-153.219100,-2072.576638,10288.862594
1009.226751,-229.828649,-2368.659014,10807.006753
1009.227067,-459.657299,-2072.576638,11103.089130
1009.227383,153.219100,-1480.411884,11103.089130
1009.227698,306.438199,-740.205942,10288.862594
1009.228014,536.266849,370.102971,9474.636058
1009.228330,842.705048,962.267725,8660.409521
1009.228645,1149.143247,1776.494261,8290.306550
1009.228961,1072.533697,1628.453072,8142.265362
1009.229277,1302.362347,1554.432478,8364.327145
1009.229593,1225.752797,1406.391290,8290.306550
1009.229908,842.705048,370.102971,8956.491898
1009.230224,612.876398,-814.226536,9622.677246
1009.230540,153.219100,-2146.597232,10658.965565
1009.230855,0.000000,-2072.576638,11399.171507
1009.231171,153.219100,-1850.514855,11325.150913
1009.231487,306.438199,-1554.432478,11325.150913
1009.231802,995.924147,-444.123565,10288.862594
1009.232118,1225.752797,518.144159,9474.636058
1009.232434,1455.581446,1258.350101,8808.450710
1009.232749,1378.971896,1554.432478,8290.306550
1009.233065,1225.752797,2146.597232,8068.244768
1009.233381,1762.019645,1628.453072,8364.327145
1009.233696,1378.971896,1110.308913,8586.388927
1009.234012,1149.143247,148.041188,9178.553681
1009.234328,459.657299,-962.267725,9696.697840
1009.234644,229.828649,-2294.638420,10658.965565
1009.234959,-229.828649,-2442.679609,11547.212695
1009.235275,229.828649,-2220.617826,11325.150913
1009.235591,459.657299,-1480.411884,11325.150913
1009.235906,766.095498,-296.082377,10214.842000
1009.236222,919.314598,518.144159,9104.533087
1009.236538,1378.971896,1184.329507,8364.327145
1009.236853,1149.143247,1924.535449,7846.182985
1009.237169,1302.362347,1776.494261,7920.203579
1009.237485,1378.971896,1258.350101,7772.162391
1009.237800,1072.533697,962.267725,8586.388927
1009.238116,689.485948,-814.226536,9326.594869
1009.238432,0.000000,-1850.514855,9696.697840
1009.238747,0.000000,-2368.659014,10510.924376
1009.239063,-306.438199,-2368.659014,11251.130318
1009.239379,-383.047749,-1998.556043,11325.150913
1009.239695,-306.438199,-1480.411884,10807.006753
1009.240010,0.000000,-370.102971,9992.780217
1009.240326,0.000000,740.205942,8956.491898
1009.240642,229.828649,888.247130,8364.327145
1009.240957,153.219100,1554.432478,8068.244768
1009.241273,383.047749,1258.350101,7994.224174
1009.241589,459.657299,962.267725,8216.285956
1009.241904,153.219100,518.144159,8438.347739
1009.242220,0.000000,-814.226536,9178.553681
1009.242536,-229.828649,-2220.617826,9918.759623
1009.242851,-536.266849,-2664.741391,10510.924376
1009.243167,-689.485948,-2220.617826,11029.068536
1009.243483,0.000000,-1998.556043,11103.089130
1009.243798,-229.828649,-1110.308913,10436.903782
1009.244114,0.000000,-370.102971,9474.636058
1009.244430,306.438199,444.123565,8734.430116
1009.244746,153.219100,814.226536,8364.327145
1009.245061,383.047749,1776.494261,7772.162391
1009.245377,306.438199,1850.514855,7772.162391
1009.245693,536.266849,1184.329507,8290.306550
1009.246008,0.000000,296.082377,8512.368333
1009.246324,-153.219100,-1036.288319,9400.615463
1009.246640,-689.485948,-1850.514855,9992.780217
1009.246955,-459.657299,-2146.597232,10955.047942
1009.247271,-536.266849,-1776.494261,11473.192101
1009.247587,-153.219100,-1332.370696,11177.109724
1009.247902,0.000000,-666.185348,10584.944971
1009.248218,229.828649,370.102971,9770.718434
1009.248534,536.266849,1184.329507,8734.430116
1009.248849,842.705048,2146.597232,8290.306550
1009.249165,842.705048,2294.638420,8068.244768
1009.249481,1302.362347,2294.638420,7920.203579
1009.249796,1225.752797,1776.494261,8438.347739
1009.250112,766.095498,740.205942,8734.430116
1009.250428,536.266849,-888.247130,9548.656652
1009.250744,383.047749,-1776.494261,10214.842000
1009.251059,306.438199,-2294.638420,11251.130318
1009.251375,306.438199,-1554.432478,11399.171507
1009.251691,383.047749,-1036.288319,11473.192101
1009.252006,766.095498,-74.020594,10362.883188
1009.252322,842.705048,666.185348,9548.656652
1009.252638,1302.362347,1110.308913,8956.491898
1009.252953,1302.362347,1554.432478,8068.244768
1009.253269,1455.581446,2072.576638,8068.244768
1009.253585,1532.190996,2072.576638,7994.224174
1009.253900,995.924147,1258.350101,8364.327145
1009.254216,919.314598,148.041188,8956.491898
1009.254532,459.657299,-1110.308913,9696.697840
1009.254847,383.047749,-1998.556043,10362.883188
1009.255163,76.609550,-2220.617826,11103.089130
1009.255479,0.000000,-2146.597232,11177.109724
1009.255795,536.266849,-1554.432478,11251.130318
1009.256110,383.047749,-518.144159,10510.924376
1009.256426,995.924147,222.061783,8956.491898
1009.256742,1149.143247,1258.350101,8512.368333
1009.257057,919.314598,1998.556043,7994.224174
1009.257373,842.705048,1998.556043,7994.224174
1009.257689,995.924147,1776.494261,7994.224174
1009.258004,536.266849,444.123565,8364.327145
1009.258320,383.047749,-518.144159,9400.615463
1009.258636,306.438199,-1924.535449,9918.759623
1009.258951,0.000000,-2738.761985,10510.924376
1009.259267,-229.828649,-2664.741391,11177.109724
1009.259583,0.000000,-1924.535449,11769.274478
1009.259898,0.000000,-1184.329507,10807.006753
1009.260214,306.438199,-0.000000,9770.718434
1009.260530,689.485948,888.247130,8808.450710
1009.260846,1149.143247,1258.350101,8142.265362
1009.261161,612.876398,1554.432478,7772.162391
1009.261477,689.485948,1406.391290,7772.162391
1009.261793,689.485948,962.267725,7994.224174
1009.262108,459.657299,296.082377,8438.347739
1009.262424,76.609550,-1184.329507,9400.615463
1009.262740,-306.438199,-2368.659014,9992.780217
1009.263055,-612.876398,-2738.761985,10658.965565
1009.263371,-995.924147,-2590.720797,11177.109724
1009.263687,-689.485948,-2368.659014,11251.130318
1009.264002,-459.657299,-1628.453072,10658.965565
1009.264318,76.609550,-296.082377,9696.697840
1009.264634,0.000000,666.185348,8734.430116
1009.264949,76.609550,1258.350101,7994.224174
1009.265265,306.438199,1628.453072,7846.182985
1009.265581,306.438199,1554.432478,7994.224174
1009.265897,306.438199,592.164754,8364.327145
1009.266212,459.657299,-74.020594,8882.471304
1009.266528,0.000000,-1184.329507,9474.636058
1009.266844,0.000000,-2886.803174,10214.842000
1009.267159,-306.438199,-2442.679609,10955.047942
1009.267475,-383.047749,-2294.638420,11325.150913
1009.267791,0.000000,-1406.391290,11177.109724
1009.268106,459.657299,-444.123565,10510.924376
1009.268422,766.095498,444.123565,9252.574275
1009.268738,842.705048,1332.370696,8512.368333
1009.269053,1149.143247,1776.494261,7920.203579
1009.269369,995.924147,1924.535449,7920.203579
1009.269685,1149.143247,1628.453072,8068.244768
1009.270000,842.705048,1036.288319,8364.327145
1009.270316,459.657299,-0.000000,9326.594869
1009.270632,76.609550,-1036.288319,9992.780217
1009.270948,0.000000,-2146.597232,10436.903782
1009.271263,-153.219100,-2072.576638,11399.171507
1009.271579,-153.219100,-1924.535449,11769.274478
1009.271895,383.047749,-1258.350101,11325.150913
1009.272210,995.924147,-148.041188,9992.780217
1009.272526,766.095498,148.041188,9030.512492
1009.272842,1532.190996,888.247130,8660.409521
1009.273157,1378.971896,1702.473667,8142.265362
1009.273473,1685.410096,2072.576638,7994.224174
1009.273789,1685.410096,1998.556043,8290.306550
1009.274104,1608.800546,962.267725,8512.368333
1009.274420,1455.581446,222.061783,8956.491898
1009.274736,842.705048,-1406.391290,9770.718434
1009.275051,306.438199,-2072.576638,10658.965565
1009.275367,0.000000,-2294.638420,11103.089130
1009.275683,536.266849,-2072.576638,11473.192101
1009.275999,536.266849,-814.226536,11103.089130
1009.276314,1072.533697,-74.020594,10214.842000
1009.276630,1072.533697,518.144159,9252.574275
1009.276946,919.314598,1110.308913,8586.388927
1009.277261,1072.533697,1628.453072,8216.285956
1009.277577,1302.362347,1628.453072,7994.224174
1009.277893,1149.143247,1110.308913,8364.327145
1009.278208,1149.143247,518.144159,8882.471304
1009.278524,612.876398,-148.041188,8956.491898
1009.278840,383.047749,-1628.453072,9474.636058
1009.279155,306.438199,-2368.659014,10807.006753
1009.279471,0.000000,-2590.720797,11103.089130
1009.279787,76.609550,-1776.494261,11029.068536
1009.280102,76.609550,-1036.288319,10510.924376
1009.280418,229.828649,-222.061783,9770.718434
1009.280734,536.266849,370.102971,8956.491898
1009.281050,536.266849,1332.370696,8364.327145
1009.281365,306.438199,1628.453072,7994.224174
1009.281681,459.657299,1554.432478,7846.182985
1009.281997,689.485948,1184.329507,8142.265362
1009.282312,306.438199,-0.000000,8290.306550
1009.282628,-306.438199,-888.247130,9400.615463
1009.282944,-383.047749,-1924.535449,9770.718434
1009.283259,-536.266849,-2738.761985,10584.944971
1009.283575,-306.438199,-2442.679609,11177.109724
1009.283891,-383.047749,-1924.535449,11029.068536
1009.284206,-153.219100,-1036.288319,10362.883188
1009.284522,0.000000,-0.000000,9474.636058
1009.284838,229.828649,888.247130,8512.368333
1009.285153,383.047749,1628.453072,8142.265362
1009.285469,766.095498,2072.576638,7624.121203
1009.285785,536.266849,1998.556043,7624.121203
1009.286101,612.876398,1406.391290,8142.265362
1009.286416,229.828649,222.061783,8660.409521
1009.286732,153.219100,-1258.350101,9326.594869
1009.287048,-459.657299,-1924.535449,10140.821405
1009.287363,-689.485948,-2368.659014,10955.047942
1009.287679,-612.876398,-1850.514855,11177.109724
1009.287995,-383.047749,-1406.391290,11325.150913
1009.288310,0.000000,-222.061783,10732.986159
1009.288626,0.000000,222.061783,9252.574275
1009.288942,383.047749,962.267725,8808.450710
1009.289257,612.876398,1628.453072,8142.265362
1009.289573,842.705048,1702.473667,8290.306550
1009.289889,1302.362347,1406.391290,8290.306550
1009.290204,919.314598,1110.308913,8364.327145
1009.290520,612.876398,370.102971,9104.533087
1009.290836,383.047749,-444.123565,9548.656652
1009.291152,612.876398,-1702.473667,10362.883188
1009.291467,229.828649,-2072.576638,11177.109724
1009.291783,383.047749,-1480.411884,11325.150913
1009.292099,612.876398,-1110.308913,10955.047942
1009.292414,995.924147,-148.041188,10288.862594
1009.292730,919.314598,518.144159,9474.636058
1009.293046,1225.752797,1184.329507,8586.388927
1009.293361,1149.143247,1924.535449,8142.265362
1009.293677,995.924147,1998.556043,8216.285956
1009.293993,1149.143247,1702.473667,8512.368333
1009.294308,1149.143247,888.247130,8882.471304
1009.294624,766.095498,-222.061783,9622.677246
1009.294940,76.609550,-1480.411884,10140.821405
1009.295255,229.828649,-2294.638420,11177.109724
1009.295571,0.000000,-2220.617826,11325.150913
1009.295887,153.219100,-1702.473667,11547.212695
1009.296203,536.266849,-1036.288319,11029.068536
1009.296518,1072.533697,-148.041188,9992.780217
1009.296834,1072.533697,740.205942,9400.615463
1009.297150,1225.752797,962.267725,8438.347739
1009.297465,1685.410096,1406.391290,8142.265362
1009.297781,842.705048,1702.473667,7920.203579
1009.298097,1378.971896,1406.391290,7920.203579
1009.298412,1225.752797,666.185348,8512.368333
1009.298728,766.095498,-444.123565,9104.533087
1009.299044,536.266849,-1924.535449,9992.780217
1009.299359,-153.219100,-2516.700203,10510.924376
1009.299675,0.000000,-2738.761985,11399.171507
1009.299991,0.000000,-2294.638420,11325.150913
1009.300306,306.438199,-1554.432478,10881.027347
1009.300622,76.609550,-370.102971,9918.759623
1009.300938,306.438199,-0.000000,9252.574275
1009.301254,229.828649,888.247130,8438.347739
1009.301569,536.266849,1184.329507,7698.141797
1009.301885,612.876398,1184.329507,7846.182985
1009.302201,612.876398,888.247130,8068.244768
1009.302516,612.876398,-0.000000,8364.327145
1009.302832,76.609550,-1036.288319,9178.553681
1009.303148,-306.438199,-1998.556043,9770.718434
1009.303463,-536.266849,-2812.782580,10436.903782
1009.303779,-995.924147,-2368.659014,11103.089130
1009.304095,-383.047749,-1924.535449,10881.027347
1009.304410,-229.828649,-1184.329507,10362.883188
1009.304726,0.000000,-0.000000,9400.615463
1009.305042,0.000000,592.164754,8956.491898
1009.305357,0.000000,1184.329507,8142.265362
1009.305673,0.000000,1406.391290,8216.285956
1009.305989,383.047749,1628.453072,8216.285956
1009.306305,306.438199,1554.432478,8142.265362
1009.306620,383.047749,222.061783,8734.430116
1009.306936,-306.438199,-1036.288319,9474.636058
1009.307252,-689.485948,-2220.617826,10288.862594
1009.307567,-536.266849,-2368.659014,11029.068536
1009.307883,-383.047749,-2146.597232,11251.130318
1009.308199,0.000000,-1480.411884,11325.150913
1009.308514,306.438199,-518.144159,10140.821405
1009.308830,689.485948,592.164754,9252.574275
1009.309146,1072.533697,1554.432478,8512.368333
1009.309461,1072.533697,1998.556043,7846.182985
1009.309777,1149.143247,2146.597232,7920.203579
1009.310093,1225.752797,1776.494261,7920.203579
1009.310408,1302.362347,1258.350101,8438.347739
1009.310724,766.095498,-74.020594,9400.615463
1009.311040,229.828649,-1258.350101,9844.739029
1009.311356,383.047749,-2072.576638,10584.944971
1009.311671,0.000000,-2220.617826,11251.130318
1009.311987,153.219100,-1850.514855,11547.212695
1009.312303,383.047749,-1406.391290,11177.109724
1009.312618,612.876398,-296.082377,10436.903782
1009.312934,919.314598,592.164754,9326.594869
1009.313250,1149.143247,1258.350101,8586.388927
1009.313565,1149.143247,1406.391290,8216.285956
1009.313881,1302.362347,1554.432478,8290.306550
1009.314197,1302.362347,1258.350101,8586.388927
1009.314512,1225.752797,814.226536,8734.430116
1009.314828,1149.143247,-222.061783,9252.574275
1009.315144,766.095498,-1554.432478,9696.697840
1009.315459,306.438199,-2146.597232,10288.862594
1009.315775,306.438199,-2368.659014,11029.068536
1009.316091,306.438199,-1628.453072,11325.150913
1009.316407,689.485948,-1036.288319,10807.006753
1009.316722,1685.410096,-222.061783,10140.821405
1009.317038,1072.533697,592.164754,9400.615463
1009.317354,1455.581446,1036.288319,8512.368333
1009.317669,1149.143247,1554.432478,8364.327145
1009.317985,1149.143247,1406.391290,8290.306550
1009.318301,1072.533697,1184.329507,8216.285956
1009.318617,689.485948,740.205942,8438.347739
1009.318932,459.657299,-444.123565,9178.553681
1009.319248,229.828649,-1702.473667,9696.697840
1009.319564,-229.828649,-2368.659014,10658.965565
1009.319880,0.000000,-2294.638420,10584.944971
1009.320196,229.828649,-1998.556043,10955.047942
1009.320512,306.438199,-1480.411884,10510.924376
1009.320827,536.266849,-444.123565,9918.759623
1009.321143,383.047749,148.041188,8956.491898
1009.321459,306.438199,814.226536,8438.347739
1009.321775,383.047749,1554.432478,7846.182985
1009.322091,536.266849,1554.432478,7772.162391
1009.322406,766.095498,1036.288319,8068.244768
1009.322722,612.876398,-0.000000,8586.388927
1009.323038,-229.828649,-888.247130,9326.594869
1009.323354,-229.828649,-2294.638420,9548.656652
1009.323670,-842.705048,-2886.803174,10362.883188
1009.323985,-536.266849,-2368.659014,10881.027347
1009.324301,-536.266849,-1850.514855,10732.986159
1009.324617,-306.438199,-1258.350101,10510.924376
1009.324933,0.000000,-0.000000,9252.574275
1009.325249,76.609550,962.267725,8586.388927
1009.325565,229.828649,1110.308913,8216.285956
1009.325880,153.219100,1554.432478,7846.182985
1009.326196,689.485948,1554.432478,7920.203579
1009.326512,306.438199,814.226536,7994.224174
1009.326828,0.000000,-0.000000,9104.533087
1009.327144,0.000000,-814.226536,9696.697840
1009.327459,-306.438199,-1850.514855,9992.780217
1009.327775,-383.047749,-1998.556043,10658.965565
1009.328091,-612.876398,-1776.494261,11325.150913
1009.328407,0.000000,-1110.308913,11177.109724
1009.328723,229.828649,-148.041188,10140.821405
1009.329039,383.047749,518.144159,9622.677246
1009.329354,766.095498,1258.350101,8586.388927
1009.329670,689.485948,1998.556043,8512.368333
1009.329986,995.924147,2294.638420,7994.224174
1009.330302,995.924147,2072.576638,8438.347739
1009.330618,995.924147,1332.370696,8586.388927
1009.330933,612.876398,518.144159,9326.594869
1009.331249,153.219100,-666.185348,9992.780217
1009.331565,0.000000,-1702.473667,10658.965565
1009.331881,0.000000,-1998.556043,11251.130318
1009.332197,153.219100,-1406.391290,11547.212695
1009.332513,536.266849,-814.226536,11399.171507
1009.332828,383.047749,-0.000000,10362.883188
1009.333144,995.924147,592.164754,9474.636058
1009.333460,1072.533697,1480.411884,8734.430116
1009.333776,842.705048,1924.535449,8660.409521
1009.334092,1302.362347,2146.597232,7994.224174
1009.334407,1302.362347,1924.535449,8142.265362
1009.334723,1072.533697,1184.329507,8512.368333
1009.335039,612.876398,222.061783,9400.615463
1009.335355,536.266849,-814.226536,9992.780217
1009.335671,306.438199,-1850.514855,10732.986159
1009.335987,0.000000,-1924.535449,11325.150913
1009.336302,76.609550,-1702.473667,11547.212695
1009.336618,383.047749,-888.247130,11177.109724
1009.336934,459.657299,-296.082377,10510.924376
1009.337250,612.876398,444.123565,9474.636058
1009.337566,689.485948,962.267725,8660.409521
1009.337881,842.705048,1776.494261,8216.285956
1009.338197,1072.533697,1332.370696,7994.224174
1009.338513,1378.971896,888.247130,8142.265362
1009.338829,766.095498,148.041188,8512.368333
1009.339145,306.438199,-666.185348,9400.615463
1009.339461,0.000000,-2072.576638,9548.656652
1009.339776,306.438199,-2960.823768,10732.986159
1009.340092,0.000000,-2368.659014,10955.047942
1009.340408,306.438199,-1998.556043,11029.068536
1009.340724,536.266849,-1184.329507,10436.903782
1009.341040,689.485948,-74.020594,9474.636058
1009.341355,689.485948,740.205942,8882.471304
1009.341671,919.314598,592.164754,8216.285956
1009.341987,842.705048,1184.329507,7476.080014
1009.342303,459.657299,1184.329507,7698.141797
1009.342619,229.828649,222.061783,8216.285956
1009.342934,229.828649,-592.164754,9030.512492
1009.343250,-229.828649,-1554.432478,9400.615463
1009.343566,-383.047749,-2590.720797,9696.697840
1009.343882,-612.876398,-2664.741391,10510.924376
1009.344198,-536.266849,-2220.617826,10955.047942
1009.344514,0.000000,-2146.597232,11103.089130
1009.344829,153.219100,-1036.288319,10510.924376
1009.345145,919.314598,-222.061783,9104.533087
1009.345461,536.266849,222.061783,8586.388927
1009.345777,766.095498,666.185348,7920.203579
1009.346093,995.924147,1110.308913,7550.100608
1009.346408,689.485948,1258.350101,7624.121203
1009.346724,842.705048,740.205942,8216.285956
1009.347040,459.657299,-0.000000,8808.450710
1009.347356,0.000000,-1110.308913,9474.636058
1009.347672,-229.828649,-1998.556043,9770.718434
1009.347988,-919.314598,-2812.782580,10881.027347
1009.348303,-383.047749,-2368.659014,11399.171507
1009.348619,0.000000,-1850.514855,11177.109724
1009.348935,0.000000,-962.267725,10362.883188
1009.349251,153.219100,296.082377,9696.697840
1009.349567,306.438199,1110.308913,8734.430116
1009.349882,612.876398,1702.473667,8438.347739
1009.350198,766.095498,2220.617826,8660.409521
1009.350514,919.314598,1702.473667,8216.285956
1009.350830,842.705048,1110.308913,8512.368333
1009.351146,459.657299,222.061783,9030.512492
1009.351462,536.266849,-1258.350101,10066.800811
1009.351777,76.609550,-1850.514855,10955.047942
1009.352093,0.000000,-2146.597232,11103.089130
1009.352409,153.219100,-1406.391290,11325.150913
1009.352725,383.047749,-962.267725,11177.109724
1009.353041,689.485948,-74.020594,10436.903782
1009.353356,995.924147,740.205942,9474.636058
1009.353672,1225.752797,1332.370696,8586.388927
1009.353988,1302.362347,1850.514855,8290.306550
1009.354304,1225.752797,1998.556043,7994.224174
1009.354620,1225.752797,1702.473667,8068.244768
1009.354936,1378.971896,814.226536,8586.388927
1009.355251,536.266849,-148.041188,9474.636058
1009.355567,229.828649,-1258.350101,10066.800811
1009.355883,0.000000,-2368.659014,10807.006753
1009.356199,0.000000,-2516.700203,11399.171507
1009.356515,0.000000,-1776.494261,11473.192101
1009.356830,459.657299,-962.267725,11029.068536
1009.357146,766.095498,222.061783,10066.800811
1009.357462,1072.533697,962.267725,8882.471304
1009.357778,1149.143247,1702.473667,8586.388927
1009.358094,1685.410096,1406.391290,7772.162391
1009.358410,1302.362347,2072.576638,7698.141797
1009.358725,1378.971896,1702.473667,8216.285956
1009.359041,919.314598,740.205942,8438.347739
1009.359357,459.657299,-592.164754,9252.574275
1009.359673,0.000000,-1776.494261,10288.862594
1009.359989,-306.438199,-2516.700203,10955.047942
1009.360304,-383.047749,-2368.659014,11177.109724
1009.360620,0.000000,-1480.411884,11399.171507
1009.360936,0.000000,-1184.329507,10732.986159
1009.361252,536.266849,-148.041188,9770.718434
1009.361568,229.828649,444.123565,8808.450710
1009.361883,612.876398,1332.370696,8068.244768
1009.362199,919.314598,1702.473667,7772.162391
1009.362515,1302.362347,1332.370696,7550.100608
1009.362831,1072.533697,1184.329507,7920.203579
1009.363147,536.266849,518.144159,8438.347739
1009.363463,229.828649,-888.247130,9400.615463
1009.363778,0.000000,-2072.576638,9696.697840
1009.364094,-459.657299,-2294.638420,10807.006753
1009.364410,-459.657299,-2442.679609,10881.027347
1009.364726,0.000000,-1776.494261,10881.027347
1009.365042,76.609550,-814.226536,10362.883188
1009.365357,229.828649,-0.000000,9474.636058
1009.365673,76.609550,296.082377,8734.430116
1009.365989,76.609550,1036.288319,8290.306550
1009.366305,383.047749,1258.350101,7772.162391
1009.366621,383.047749,1036.288319,8364.327145
1009.366937,459.657299,666.185348,8808.450710
1009.367252,153.219100,222.061783,9326.594869
1009.367568,229.828649,-1110.308913,9474.636058
1009.367884,-153.219100,-1850.514855,9992.780217
1009.368200,-383.047749,-2368.659014,10732.986159
1009.368516,0.000000,-1924.535449,11177.109724
1009.368831,612.876398,-1332.370696,10881.027347
1009.369147,766.095498,-222.061783,10362.883188
1009.369463,766.095498,740.205942,9326.594869
1009.369779,919.314598,1110.308913,8438.347739
1009.370095,1378.971896,1628.453072,7994.224174
1009.370411,1608.800546,2072.576638,8068.244768
1009.370726,1149.143247,1998.556043,8290.306550
1009.371042,919.314598,1184.329507,8290.306550
1009.371358,459.657299,148.041188,9252.574275
1009.371674,153.219100,-1184.329507,9844.739029
1009.371990,-153.219100,-2368.659014,10658.965565
1009.372305,0.000000,-2442.679609,11473.192101
1009.372621,0.000000,-2072.576638,11251.130318
1009.372937,306.438199,-1258.350101,10955.047942
1009.373253,689.485948,-74.020594,10658.965565
1009.373569,1072.533697,518.144159,9548.656652
1009.373885,919.314598,1554.432478,8512.368333
1009.374200,842.705048,2146.597232,8068.244768
1009.374516,1378.971896,2368.659014,7624.121203
1009.374832,1225.752797,1702.473667,8142.265362
1009.375148,1455.581446,1036.288319,8660.409521
1009.375464,536.266849,-148.041188,9178.553681
1009.375779,306.438199,-1406.391290,9844.739029
1009.376095,-229.828649,-2516.700203,10881.027347
1009.376411,76.609550,-2442.679609,11399.171507
1009.376727,229.828649,-1924.535449,11177.109724
1009.377043,766.095498,-1036.288319,10881.027347
1009.377359,689.485948,-0.000000,9918.759623
1009.377674,766.095498,888.247130,8956.491898
1009.377990,1225.752797,1776.494261,8882.471304
1009.378306,1302.362347,1850.514855,7846.182985
1009.378622,1225.752797,1776.494261,7698.141797
1009.378938,995.924147,1480.411884,8142.265362
1009.379253,689.485948,444.123565,8734.430116
1009.379569,766.095498,-814.226536,9548.656652
1009.379885,153.219100,-1480.411884,9770.718434
1009.380201,-153.219100,-2664.741391,10732.986159
1009.380517,0.000000,-2516.700203,11177.109724
1009.380832,76.609550,-1924.535449,11029.068536
1009.381148,153.219100,-962.267725,10658.965565
1009.381464,689.485948,-0.000000,9696.697840
1009.381780,536.266849,666.185348,8586.388927
1009.382096,612.876398,1184.329507,7772.162391
1009.382412,612.876398,1406.391290,7624.121203
1009.382727,612.876398,1480.411884,7772.162391
1009.383043,612.876398,1110.308913,8068.244768
1009.383359,76.609550,-0.000000,8660.409521
1009.383675,-153.219100,-1258.350101,9474.636058
1009.383991,-689.485948,-2664.741391,10362.883188
1009.384306,-1149.143247,-2442.679609,10955.047942
1009.384622,-689.485948,-2442.679609,11103.089130
1009.384938,-229.828649,-1998.556043,11103.089130
1009.385254,-229.828649,-592.164754,10362.883188
1009.385570,153.219100,-0.000000,9474.636058
1009.385886,383.047749,592.164754,8586.388927
1009.386201,536.266849,1258.350101,7772.162391
1009.386517,612.876398,1332.370696,7920.203579
1009.386833,766.095498,1184.329507,7920.203579
1009.387149,612.876398,888.247130,8216.285956
1009.387465,383.047749,222.061783,8882.471304
1009.387780,0.000000,-1406.391290,9326.594869
1009.388096,-383.047749,-2146.597232,10214.842000
1009.388412,-612.876398,-2886.803174,11103.089130
1009.388728,-153.219100,-2442.679609,11177.109724
1009.389044,153.219100,-1628.453072,11029.068536
1009.389360,76.609550,-740.205942,10288.862594
1009.389675,459.657299,370.102971,9252.574275
1009.389991,459.657299,888.247130,8734.430116
1009.390307,842.705048,1554.432478,8216.285956
1009.390623,689.485948,1850.514855,7920.203579
1009.390939,919.314598,1332.370696,8142.265362
1009.391254,1072.533697,296.082377,8882.471304
1009.391570,459.657299,-0.000000,9474.636058
1009.391886,536.266849,-1480.411884,9992.780217
1009.392202,153.219100,-1850.514855,10732.986159
1009.392518,229.828649,-2220.617826,11103.089130
1009.392834,-229.828649,-1554.432478,11473.192101
1009.393149,459.657299,-814.226536,11029.068536
1009.393465,1149.143247,-148.041188,10066.800811
1009.393781,1225.752797,888.247130,9178.553681
1009.394097,1225.752797,1332.370696,8512.368333
1009.394413,1532.190996,1702.473667,8586.388927
1009.394728,1455.581446,2072.576638,7994.224174
1009.395044,1378.971896,1332.370696,8364.327145
1009.395360,919.314598,592.164754,8586.388927
1009.395676,383.047749,-888.247130,9548.656652
1009.395992,76.609550,-1998.556043,10436.903782
1009.396308,153.219100,-2590.720797,10732.986159
1009.396623,-459.657299,-2294.638420,11473.192101
1009.396939,76.609550,-1702.473667,11399.171507
1009.397255,383.047749,-740.205942,10732.986159
1009.397571,689.485948,222.061783,9918.759623
1009.397887,689.485948,740.205942,8882.471304
1009.398202,1072.533697,1110.308913,8142.265362
1009.398518,1302.362347,1406.391290,7994.224174
1009.398834,1225.752797,1554.432478,7624.121203
1009.399150,995.924147,740.205942,8068.244768
1009.399466,612.876398,296.082377,8734.430116
1009.399781,306.438199,-666.185348,9400.615463
1009.400097,153.219100,-1628.453072,9696.697840
1009.400413,-153.219100,-2220.617826,10436.903782
1009.400729,-383.047749,-2294.638420,11029.068536
1009.401045,-229.828649,-1924.535449,11103.089130
1009.401361,0.000000,-1036.288319,10658.965565
1009.401676,76.609550,-74.020594,9548.656652
1009.401992,229.828649,666.185348,8660.409521
1009.402308,229.828649,1480.411884,7920.203579
1009.402624,306.438199,1776.494261,7698.141797
1009.402940,459.657299,1258.350101,7624.121203
1009.403255,306.438199,814.226536,8216.285956
1009.403571,0.000000,-0.000000,8808.450710
1009.403887,-153.219100,-1184.329507,9252.574275
1009.404203,0.000000,-1850.514855,10214.842000
1009.404519,-383.047749,-2368.659014,10584.944971
1009.404835,-383.047749,-2072.576638,10955.047942
1009.405150,0.000000,-1776.494261,10658.965565
1009.405466,383.047749,-592.164754,10436.903782
1009.405782,383.047749,-0.000000,9326.594869
1009.406098,306.438199,1036.288319,8586.388927
1009.406414,766.095498,1554.432478,7994.224174
1009.406729,995.924147,2146.597232,7846.182985
1009.407045,919.314598,1924.535449,7846.182985
1009.407361,536.266849,1184.329507,8364.327145
1009.407677,383.047749,444.123565,8734.430116
1009.407993,0.000000,-740.205942,9474.636058
1009.408309,-306.438199,-1998.556043,10436.903782
1009.408624,-306.438199,-2146.597232,10807.006753
1009.408940,-612.876398,-2146.597232,11251.130318
1009.409256,-229.828649,-1184.329507,11695.253884
1009.409572,153.219100,-444.123565,10510.924376
1009.409888,459.657299,-0.000000,9474.636058
1009.410203,612.876398,1258.350101,8734.430116
1009.410519,919.314598,1776.494261,8290.306550
1009.410835,995.924147,2220.617826,8068.244768
1009.411151,1302.362347,1776.494261,8142.265362
1009.411467,1532.190996,1036.288319,8364.327145
1009.411783,995.924147,-0.000000,9030.512492
1009.412098,612.876398,-592.164754,9548.656652
1009.412414,383.047749,-1924.535449,10288.862594
1009.412730,229.828649,-2146.597232,11177.109724
1009.413046,306.438199,-1628.453072,11177.109724
1009.413362,766.095498,-962.267725,10732.986159
1009.413677,842.705048,-222.061783,10288.862594
1009.413993,995.924147,592.164754,9178.553681
1009.414309,689.485948,1258.350101,8660.409521
1009.414625,1225.752797,1406.391290,8660.409521
1009.414941,919.314598,1776.494261,8216.285956
1009.415257,1149.143247,1480.411884,8290.306550
1009.415572,536.266849,962.267725,8586.388927
1009.415888,306.438199,-296.082377,9326.594869
1009.416204,153.219100,-1480.411884,10140.821405
1009.416520,0.000000,-2368.659014,10807.006753
1009.416836,-153.219100,-2368.659014,11399.171507
1009.417151,76.609550,-1850.514855,11621.233289
1009.417467,306.438199,-1406.391290,10807.006753
1009.417783,459.657299,-370.102971,9696.697840
1009.418099,919.314598,666.185348,8734.430116
1009.418415,1225.752797,1406.391290,8068.244768
1009.418730,1225.752797,1850.514855,7624.121203
1009.419046,1378.971896,1406.391290,7920.203579
1009.419362,1225.752797,1036.288319,7846.182985
1009.419678,766.095498,296.082377,8586.388927
1009.419994,612.876398,-592.164754,9252.574275
1009.420310,0.000000,-2220.617826,9992.780217
1009.420625,-153.219100,-2812.782580,10807.006753
1009.420941,-153.219100,-2368.659014,11251.130318
1009.421257,0.000000,-1998.556043,11251.130318
1009.421573,0.000000,-1036.288319,10510.924376
1009.421889,153.219100,-148.041188,9474.636058
1009.422205,306.438199,592.164754,8438.347739
1009.422520,689.485948,1036.288319,8216.285956
1009.422836,689.485948,1554.432478,7772.162391
1009.423152,766.095498,1480.411884,7624.121203
1009.423468,842.705048,740.205942,8068.244768
1009.423784,383.047749,-74.020594,8660.409521
1009.424100,0.000000,-888.247130,9622.677246
1009.424415,-459.657299,-1850.514855,9918.759623
1009.424731,-536.266849,-2368.659014,10584.944971
1009.425047,-459.657299,-2146.597232,11177.109724
1009.425363,-229.828649,-1702.473667,11029.068536
1009.425679,0.000000,-740.205942,10288.862594
1009.425995,0.000000,148.041188,9400.615463
1009.426310,306.438199,666.185348,8660.409521
1009.426626,459.657299,1036.288319,8364.327145
1009.426942,306.438199,1702.473667,8068.244768
1009.427258,306.438199,1406.391290,8068.244768
1009.427574,536.266849,814.226536,8512.368333
1009.427889,76.609550,148.041188,9104.533087
1009.428205,383.047749,-888.247130,9696.697840
1009.428521,76.609550,-1628.453072,10140.821405
1009.428837,76.609550,-2072.576638,10955.047942
1009.429153,0.000000,-1776.494261,11103.089130
1009.429469,459.657299,-1258.350101,10881.027347
1009.429784,612.876398,-74.020594,10436.903782
1009.430100,995.924147,592.164754,9474.636058
1009.430416,919.314598,888.247130,8364.327145
1009.430732,1072.533697,1702.473667,8438.347739
1009.431048,1149.143247,1776.494261,8216.285956
1009.431364,1072.533697,1554.432478,8068.244768
1009.431679,766.095498,1036.288319,8512.368333
1009.431995,459.657299,-74.020594,9326.594869
1009.432311,76.609550,-1332.370696,9918.759623
1009.432627,-306.438199,-2146.597232,10732.986159
1009.432943,-383.047749,-2220.617826,11251.130318
1009.433259,-76.609550,-1628.453072,11547.212695
1009.433574,0.000000,-1332.370696,11029.068536
1009.433890,689.485948,-370.102971,10362.883188
1009.434206,1608.800546,666.185348,9622.677246
1009.434522,1378.971896,1258.350101,8586.388927
1009.434838,1455.581446,1998.556043,8142.265362
1009.435154,1532.190996,2146.597232,7772.162391
1009.435469,1608.800546,1480.411884,8216.285956
1009.435785,1225.752797,666.185348,8586.388927
1009.436101,919.314598,-296.082377,9622.677246
1009.436417,689.485948,-1702.473667,9992.780217
1009.436733,76.609550,-2294.638420,11029.068536
1009.437048,612.876398,-2146.597232,11473.192101
1009.437364,306.438199,-1850.514855,11251.130318
1009.437680,689.485948,-888.247130,10658.965565
1009.437996,842.705048,-74.020594,9844.739029
1009.438312,842.705048,370.102971,9030.512492
1009.438628,766.095498,962.267725,8586.388927
1009.438943,1072.533697,1406.391290,7920.203579
1009.439259,919.314598,1332.370696,7994.224174
1009.439575,1149.143247,962.267725,8364.327145
1009.439891,229.828649,148.041188,8808.450710
1009.440207,689.485948,-962.267725,9326.594869
1009.440523,76.609550,-1998.556043,9770.718434
1009.440838,-229.828649,-2368.659014,10658.965565
1009.441154,-306.438199,-2368.659014,10955.047942
1009.441470,76.609550,-2146.597232,10955.047942
1009.441786,153.219100,-1110.308913,10288.862594
1009.442102,536.266849,-296.082377,9400.615463
1009.442418,536.266849,444.123565,8660.409521
1009.442733,995.924147,1332.370696,7994.224174
1009.443049,842.705048,1406.391290,7476.080014
1009.443365,995.924147,1628.453072,7328.038826
1009.443681,689.485948,962.267725,8068.244768
1009.443997,306.438199,222.061783,8438.347739
1009.444312,76.609550,-1036.288319,9326.594869
1009.444628,-383.047749,-2220.617826,9770.718434
1009.444944,-612.876398,-2664.741391,10732.986159
1009.445260,-766.095498,-2368.659014,11547.212695
1009.445576,-306.438199,-1924.535449,11103.089130
1009.445892,0.000000,-1036.288319,10436.903782
1009.446207,459.657299,-74.020594,9548.656652
1009.446523,76.609550,1036.288319,8586.388927
1009.446839,689.485948,1628.453072,8068.244768
1009.447155,459.657299,1924.535449,7698.141797
1009.447471,919.314598,1924.535449,7920.203579
1009.447787,536.266849,1258.350101,8068.244768
1009.448102,229.828649,-0.000000,8882.471304
1009.448418,0.000000,-962.267725,9474.636058
1009.448734,-459.657299,-2368.659014,10510.924376
1009.449050,-842.705048,-2516.700203,11103.089130
1009.449366,-689.485948,-1998.556043,11547.212695
1009.449682,0.000000,-1184.329507,11177.109724
1009.449997,459.657299,-222.061783,10214.842000
1009.450313,383.047749,888.247130,9252.574275
1009.450629,536.266849,1702.473667,8586.388927
1009.450945,612.876398,1924.535449,8142.265362
1009.451261,612.876398,1998.556043,7846.182985
1009.451577,766.095498,1554.432478,8142.265362
1009.451892,689.485948,1110.308913,8734.430116
1009.452208,1225.752797,-444.123565,9474.636058
1009.452524,0.000000,-1554.432478,9992.780217
1009.452840,-229.828649,-1924.535449,10881.027347
1009.453156,0.000000,-1998.556043,11473.192101
1009.453471,0.000000,-1332.370696,11473.192101
1009.453787,612.876398,-666.185348,10955.047942
1009.454103,612.876398,444.123565,10066.800811
1009.454419,1149.143247,1258.350101,9252.574275
1009.454735,1225.752797,1850.514855,8512.368333
1009.455051,1378.971896,2146.597232,8068.244768
1009.455366,1455.581446,2220.617826,7846.182985
1009.455682,1455.581446,1850.514855,8438.347739
1009.455998,1532.190996,1036.288319,8660.409521
1009.456314,689.485948,-0.000000,9548.656652
1009.456630,536.266849,-1480.411884,10140.821405
1009.456946,-229.828649,-2368.659014,10584.944971
1009.457261,0.000000,-2072.576638,11473.192101
1009.457577,76.609550,-1554.432478,11399.171507
1009.457893,536.266849,-962.267725,10881.027347
1009.458209,689.485948,-0.000000,9992.780217
1009.458525,919.314598,370.102971,8956.491898
1009.458841,919.314598,1110.308913,8290.306550
1009.459156,1072.533697,1406.391290,8364.327145
1009.459472,1302.362347,1628.453072,7698.141797
1009.459788,1225.752797,1258.350101,8068.244768
1009.460104,919.314598,370.102971,8660.409521
1009.460420,459.657299,-740.205942,9178.553681
1009.460736,153.219100,-1998.556043,9992.780217
1009.461051,-153.219100,-2516.700203,10658.965565
1009.461367,-306.438199,-2812.782580,10955.047942
1009.461683,0.000000,-2146.597232,11177.109724
1009.461999,153.219100,-962.267725,10066.800811
1009.462315,459.657299,-74.020594,9548.656652
1009.462630,383.047749,814.226536,8586.388927
1009.462946,306.438199,1332.370696,8068.244768
1009.463262,306.438199,1480.411884,7772.162391
1009.463578,229.828649,1332.370696,7920.203579
1009.463894,153.219100,666.185348,8216.285956
1009.464210,-153.219100,-296.082377,8956.491898
1009.464525,-536.266849,-1702.473667,9548.656652
1009.464841,-766.095498,-2442.679609,10362.883188
1009.465157,-766.095498,-2738.761985,10658.965565
1009.465473,-842.705048,-2516.700203,10807.006753
1009.465789,-383.047749,-1850.514855,10955.047942
1009.466105,229.828649,-814.226536,10510.924376
1009.466420,306.438199,-0.000000,9252.574275
1009.466736,612.876398,962.267725,8364.327145
1009.467052,689.485948,1406.391290,7846.182985
1009.467368,842.705048,1480.411884,7624.121203
1009.467684,1225.752797,1258.350101,7846.182985
1009.468000,1149.143247,1036.288319,8142.265362
1009.468315,842.705048,-0.000000,8882.471304
1009.468631,229.828649,-1332.370696,9844.739029
1009.468947,0.000000,-2368.659014,10436.903782
1009.469263,0.000000,-2738.761985,11325.150913
1009.469579,0.000000,-2220.617826,11399.171507
1009.469895,306.438199,-1332.370696,11325.150913
1009.470210,689.485948,-370.102971,10288.862594
1009.470526,919.314598,148.041188,9400.615463
1009.470842,1072.533697,1258.350101,8734.430116
1009.471158,1302.362347,1776.494261,7846.182985
1009.471474,1685.410096,2294.638420,7772.162391
1009.471789,1149.143247,1480.411884,7994.224174
1009.472105,1302.362347,1110.308913,8808.450710
1009.472421,766.095498,-222.061783,9400.615463
1009.472737,536.266849,-1554.432478,9918.759623
1009.473053,153.219100,-2072.576638,10807.006753
1009.473369,-536.266849,-2664.741391,11251.130318
1009.473684,153.219100,-1850.514855,11473.192101
1009.474000,76.609550,-962.267725,11251.130318
1009.474316,229.828649,-74.020594,10140.821405
1009.474632,612.876398,518.144159,9252.574275
1009.474948,766.095498,740.205942,8068.244768
1009.475264,842.705048,1480.411884,8142.265362
1009.475579,766.095498,1702.473667,8142.265362
1009.475895,766.095498,1110.308913,8512.368333
1009.476211,383.047749,592.164754,9030.512492
1009.476527,459.657299,-740.205942,9622.677246
1009.476843,229.828649,-1776.494261,10436.903782
1009.477159,0.000000,-2294.638420,10807.006753
1009.477474,76.609550,-2368.659014,11029.068536
1009.477790,766.095498,-1850.514855,11399.171507
1009.478106,919.314598,-740.205942,11029.068536
1009.478422,1302.362347,74.020594,9400.615463
1009.478738,1532.190996,1110.308913,8586.388927
1009.479054,1762.019645,1702.473667,7772.162391
1009.479369,1532.190996,2368.659014,7624.121203
1009.479685,1762.019645,2220.617826,7994.224174
1009.480001,1378.971896,1406.391290,8216.285956
1009.480317,689.485948,444.123565,8660.409521
1009.480633,153.219100,-1036.288319,9548.656652
1009.480948,0.000000,-2368.659014,10140.821405
1009.481264,-766.095498,-3034.844362,11103.089130
1009.481580,-689.485948,-2590.720797,11547.212695
1009.481896,-306.438199,-1850.514855,11473.192101
1009.482212,0.000000,-962.267725,10658.965565
1009.482528,229.828649,148.041188,9474.636058
1009.482843,612.876398,1036.288319,8438.347739
1009.483159,689.485948,1332.370696,7920.203579
1009.483475,919.314598,1776.494261,7772.162391
1009.483791,919.314598,1554.432478,7772.162391
1009.484107,1072.533697,1110.308913,7994.224174
1009.484423,459.657299,444.123565,9326.594869
1009.484738,-153.219100,-1110.308913,9252.574275
1009.485054,0.000000,-2072.576638,10140.821405
1009.485370,-306.438199,-2368.659014,10584.944971
1009.485686,-229.828649,-2146.597232,11177.109724
1009.486002,-459.657299,-1554.432478,11473.192101
1009.486318,-306.438199,-740.205942,10510.924376
1009.486633,0.000000,-0.000000,9400.615463
1009.486949,0.000000,1110.308913,8734.430116
1009.487265,383.047749,740.205942,8364.327145
1009.487581,689.485948,1554.432478,8216.285956
1009.487897,459.657299,1554.432478,7994.224174
1009.488212,229.828649,962.267725,8512.368333
1009.488528,-306.438199,-0.000000,9030.512492
1009.488844,-612.876398,-1258.350101,9474.636058
1009.489160,-536.266849,-2146.597232,10584.944971
1009.489476,-383.047749,-2146.597232,11251.130318
1009.489792,-383.047749,-1776.494261,11251.130318
1009.490107,229.828649,-1258.350101,10807.006753
1009.490423,1302.362347,-74.020594,10066.800811
1009.490739,919.314598,814.226536,9400.615463
1009.491055,1072.533697,1702.473667,8364.327145
1009.491371,995.924147,1998.556043,8216.285956
1009.491687,1149.143247,1924.535449,7994.224174
1009.492002,1225.752797,1776.494261,8142.265362
1009.492318,995.924147,962.267725,8808.450710
1009.492634,689.485948,-0.000000,9252.574275
1009.492950,229.828649,-1332.370696,9918.759623
1009.493266,306.438199,-1924.535449,10510.924376
1009.493582,306.438199,-1998.556043,11399.171507
1009.493897,0.000000,-1332.370696,11695.253884
1009.494213,689.485948,-814.226536,10881.027347
1009.494529,842.705048,148.041188,10066.800811
1009.494845,995.924147,814.226536,8956.491898
1009.495161,1072.533697,1332.370696,8512.368333
1009.495477,1302.362347,1776.494261,8438.347739
1009.495792,1455.581446,2220.617826,7994.224174
1009.496108,1455.581446,1554.432478,8142.265362
1009.496424,1378.971896,814.226536,8512.368333
1009.496740,842.705048,-444.123565,9474.636058
1009.497056,153.219100,-1332.370696,9770.718434
1009.497371,76.609550,-2220.617826,10881.027347
1009.497687,-229.828649,-2294.638420,11177.109724
1009.498003,-153.219100,-1776.494261,11695.253884
1009.498319,76.609550,-1184.329507,10881.027347
1009.498635,459.657299,-222.061783,9770.718434
1009.498951,689.485948,666.185348,8882.471304
1009.499266,689.485948,1110.308913,8290.306550
1009.499582,612.876398,1332.370696,7994.224174
1009.499898,919.314598,1184.329507,7994.224174
1009.500214,919.314598,592.164754,8512.368333
1009.500530,995.924147,-0.000000,8882.471304
1009.500846,383.047749,-1184.329507,9548.656652
1009.501161,76.609550,-1998.556043,10584.944971
1009.501477,0.000000,-2442.679609,10362.883188
1009.501793,153.219100,-2072.576638,10955.047942
1009.502109,306.438199,-1332.370696,10584.944971
1009.502425,766.095498,-518.144159,10140.821405
1009.502741,1225.752797,-0.000000,9030.512492
1009.503056,995.924147,888.247130,8586.388927
1009.503372,689.485948,1036.288319,8216.285956
1009.503688,612.876398,1406.391290,7846.182985
1009.504004,612.876398,1332.370696,8068.244768
1009.504320,459.657299,592.164754,8438.347739
1009.504636,76.609550,-148.041188,8808.450710
1009.504951,-229.828649,-1184.329507,9622.677246
1009.505267,-536.266849,-2220.617826,10214.842000
1009.505583,-1302.362347,-2072.576638,10732.986159
1009.505899,-612.876398,-1998.556043,11325.150913
1009.506215,-383.047749,-1554.432478,10955.047942
1009.506530,76.609550,-518.144159,10066.800811
1009.506846,306.438199,222.061783,9400.615463
1009.507162,-459.657299,814.226536,7994.224174
1009.507478,536.266849,1332.370696,7920.203579
1009.507794,612.876398,1628.453072,7624.121203
1009.508110,766.095498,1480.411884,8216.285956
1009.508425,995.924147,740.205942,8290.306550
1009.508741,612.876398,-222.061783,8956.491898
1009.509057,153.219100,-1184.329507,9474.636058
1009.509373,0.000000,-1850.514855,10288.862594
1009.509689,0.000000,-2220.617826,10955.047942
1009.510005,0.000000,-1924.535449,11029.068536
1009.510320,76.609550,-1480.411884,10955.047942
1009.510636,229.828649,-296.082377,10510.924376
1009.510952,383.047749,592.164754,9252.574275
1009.511268,459.657299,1110.308913,8660.409521
1009.511584,306.438199,1628.453072,8438.347739
1009.511900,536.266849,1628.453072,8142.265362
1009.512215,995.924147,1480.411884,8216.285956
1009.512531,536.266849,814.226536,8512.368333
1009.512847,153.219100,-0.000000,9326.594869
1009.513163,383.047749,-1036.288319,10214.842000
1009.513479,-153.219100,-2146.597232,10584.944971
1009.513795,0.000000,-2146.597232,11251.130318
1009.514110,229.828649,-1554.432478,11399.171507
1009.514426,459.657299,-1110.308913,11029.068536
1009.514742,689.485948,-74.020594,10140.821405
1009.515058,995.924147,592.164754,9252.574275
1009.515374,1302.362347,1258.350101,8364.327145
1009.515689,1532.190996,1924.535449,8216.285956
1009.516005,1455.581446,2220.617826,7994.224174
1009.516321,1838.629195,1628.453072,8364.327145
1009.516637,1302.362347,740.205942,8808.450710
1009.516953,995.924147,-370.102971,9252.574275
1009.517269,383.047749,-1480.411884,10066.800811
1009.517584,229.828649,-2516.700203,10732.986159
1009.517900,0.000000,-2220.617826,11399.171507
1009.518216,229.828649,-1998.556043,11399.171507
1009.518532,612.876398,-962.267725,10881.027347
1009.518848,459.657299,-148.041188,10066.800811
1009.519164,1302.362347,666.185348,8660.409521
1009.519479,1072.533697,1332.370696,8512.368333
1009.519795,1378.971896,1924.535449,7994.224174
1009.520111,1455.581446,1776.494261,7698.141797
1009.520427,1302.362347,1406.391290,8068.244768
1009.520743,995.924147,-74.020594,8512.368333
1009.521058,459.657299,-1036.288319,9252.574275
1009.521374,153.219100,-2368.659014,10066.800811
1009.521690,0.000000,-2664.741391,10436.903782
1009.522006,-153.219100,-2368.659014,10881.027347
1009.522321,0.000000,-2146.597232,10955.047942
1009.522637,0.000000,-1258.350101,10362.883188
1009.522953,383.047749,-0.000000,9326.594869
1009.523269,306.438199,814.226536,8438.347739
1009.523585,229.828649,962.267725,7994.224174
1009.523900,459.657299,1036.288319,7624.121203
1009.524216,383.047749,1036.288319,7846.182985
1009.524532,306.438199,444.123565,8364.327145
1009.524848,-153.219100,-222.061783,8808.450710
1009.525163,-229.828649,-1628.453072,9548.656652
1009.525479,-383.047749,-2516.700203,9622.677246
1009.525795,-995.924147,-2368.659014,10955.047942
1009.526111,-612.876398,-2368.659014,11029.068536
1009.526427,-306.438199,-1480.411884,10881.027347
1009.526742,229.828649,-222.061783,10066.800811
1009.527058,229.828649,444.123565,9326.594869
1009.527374,306.438199,962.267725,8512.368333
1009.527690,536.266849,1554.432478,7920.203579
1009.528005,689.485948,1924.535449,7772.162391
1009.528321,995.924147,1406.391290,7920.203579
1009.528637,612.876398,888.247130,8586.388927
1009.528953,0.000000,-0.000000,8808.450710
1009.529269,-229.828649,-1036.288319,9474.636058
1009.529584,-459.657299,-1554.432478,10362.883188
1009.529900,-459.657299,-1702.473667,10807.006753
1009.530216,-766.095498,-1702.473667,11251.130318
1009.530532,-459.657299,-814.226536,11325.150913
1009.530847,0.000000,-222.061783,10436.903782
1009.531163,229.828649,592.164754,9474.636058
1009.531479,306.438199,1406.391290,8660.409521
1009.531795,766.095498,1554.432478,8512.368333
1009.532111,1072.533697,1628.453072,8438.347739
1009.532426,766.095498,1850.514855,8216.285956
1009.532742,689.485948,1258.350101,8512.368333
1009.533058,842.705048,296.082377,9474.636058
1009.533374,689.485948,-666.185348,9844.739029
1009.533689,306.438199,-1406.391290,10436.903782
1009.534005,383.047749,-1776.494261,11029.068536
1009.534321,689.485948,-1480.411884,11251.130318
1009.534637,459.657299,-740.205942,11621.233289
1009.534952,766.095498,518.144159,10066.800811
1009.535268,995.924147,1110.308913,9326.594869
1009.535584,1225.752797,1406.391290,8956.491898
1009.535900,919.314598,1998.556043,8586.388927
1009.536216,1072.533697,1924.535449,8438.347739
1009.536531,1378.971896,1406.391290,8586.388927
1009.536847,919.314598,962.267725,8808.450710
1009.537163,536.266849,-296.082377,9030.512492
1009.537479,76.609550,-1480.411884,10436.903782
1009.537794,0.000000,-2590.720797,10881.027347
1009.538110,-306.438199,-2812.782580,11325.150913
1009.538426,76.609550,-1924.535449,11473.192101
1009.538742,612.876398,-1110.308913,10732.986159
1009.539058,612.876398,-148.041188,9770.718434
1009.539373,1072.533697,1110.308913,8734.430116
1009.539689,1072.533697,1406.391290,7994.224174
1009.540005,1225.752797,1776.494261,7846.182985
1009.540321,1532.190996,1776.494261,7698.141797
1009.540636,1149.143247,888.247130,8216.285956
1009.540952,536.266849,-0.000000,8586.388927
1009.541268,0.000000,-814.226536,9474.636058
1009.541584,0.000000,-2146.597232,10140.821405
1009.541900,-229.828649,-2738.761985,10881.027347
1009.542215,-229.828649,-2442.679609,11621.233289
1009.542531,0.000000,-1850.514855,11103.089130
1009.542847,229.828649,-962.267725,10140.821405
1009.543163,229.828649,-0.000000,9474.636058
1009.543478,842.705048,592.164754,8734.430116
1009.543794,842.705048,1036.288319,8438.347739
1009.544110,842.705048,1332.370696,7624.121203
1009.544426,1149.143247,1628.453072,7846.182985
1009.544741,766.095498,814.226536,7846.182985
1009.545057,383.047749,592.164754,8660.409521
1009.545373,0.000000,-1110.308913,9400.615463
1009.545689,-612.876398,-2442.679609,10066.800811
1009.546005,-612.876398,-2664.741391,10658.965565
1009.546320,-689.485948,-2738.761985,11177.109724
1009.546636,-229.828649,-2220.617826,10955.047942
1009.546952,-459.657299,-1332.370696,10362.883188
1009.547268,0.000000,-444.123565,9252.574275
1009.547583,76.609550,592.164754,8364.327145
1009.547899,153.219100,1036.288319,7920.203579
1009.548215,919.314598,1554.432478,7698.141797
1009.548531,383.047749,1332.370696,7994.224174
1009.548847,229.828649,740.205942,8438.347739
1009.549162,229.828649,-0.000000,8734.430116
1009.549478,-383.047749,-1258.350101,9622.677246
1009.549794,0.000000,-1924.535449,10436.903782
1009.550110,-459.657299,-2664.741391,10955.047942
1009.550425,-229.828649,-2368.659014,11399.171507
1009.550741,76.609550,-1406.391290,11029.068536
1009.551057,842.705048,-370.102971,10362.883188
1009.551373,612.876398,518.144159,9400.615463
1009.551689,612.876398,1184.329507,8438.347739
1009.552004,766.095498,2072.576638,8290.306550
1009.552320,842.705048,1702.473667,8068.244768
1009.552636,612.876398,1554.432478,8438.347739
1009.552952,612.876398,1184.329507,8734.430116
1009.553267,306.438199,-0.000000,9326.594869
1009.553583,153.219100,-1480.411884,10140.821405
1009.553899,-229.828649,-1998.556043,10658.965565
1009.554215,-229.828649,-2220.617826,11473.192101
1009.554531,0.000000,-1924.535449,11695.253884
1009.554846,76.609550,-1184.329507,11029.068536
1009.555162,689.485948,-370.102971,10066.800811
1009.555478,1072.533697,370.102971,9548.656652
1009.555794,1302.362347,1554.432478,8660.409521
1009.556109,1762.019645,2072.576638,8068.244768
1009.556425,1838.629195,2220.617826,7624.121203
1009.556741,1762.019645,1332.370696,8068.244768
1009.557057,1838.629195,592.164754,8216.285956
1009.557372,995.924147,-296.082377,9104.533087
1009.557688,919.314598,-1554.432478,10140.821405
1009.558004,612.876398,-2146.597232,10732.986159
1009.558320,459.657299,-2146.597232,11325.150913
1009.558636,383.047749,-1628.453072,11325.150913
1009.558951,842.705048,-592.164754,10955.047942
1009.559267,842.705048,-0.000000,9844.739029
1009.559583,842.705048,740.205942,9326.594869
1009.559899,919.314598,1554.432478,8808.450710
1009.560214,1225.752797,1406.391290,8216.285956
1009.560530,1378.971896,1628.453072,8068.244768
1009.560846,842.705048,888.247130,8142.265362
1009.561162,766.095498,222.061783,8660.409521
1009.561478,459.657299,-740.205942,9326.594869
1009.561793,153.219100,-1776.494261,10066.800811
1009.562109,0.000000,-2220.617826,10584.944971
1009.562425,0.000000,-2072.576638,10732.986159
1009.562741,76.609550,-1406.391290,10881.027347
1009.563056,229.828649,-888.247130,10140.821405
1009.563372,689.485948,222.061783,9326.594869
1009.563688,842.705048,814.226536,8586.388927
1009.564004,766.095498,1332.370696,8290.306550
1009.564320,536.266849,1406.391290,7920.203579
1009.564635,689.485948,1554.432478,8290.306550
1009.564951,383.047749,740.205942,8438.347739
1009.565267,76.609550,-148.041188,8808.450710
1009.565583,0.000000,-1406.391290,9622.677246
1009.565898,-612.876398,-2590.720797,10362.883188
1009.566214,-383.047749,-2960.823768,10955.047942
1009.566530,153.219100,-2146.597232,11177.109724
1009.566846,76.609550,-1554.432478,10955.047942
1009.567162,306.438199,-666.185348,10214.842000
1009.567477,383.047749,370.102971,9178.553681
1009.567793,842.705048,962.267725,8660.409521
1009.568109,842.705048,1406.391290,7994.224174
1009.568425,766.095498,1702.473667,7402.059420
1009.568740,689.485948,1702.473667,7920.203579
1009.569056,306.438199,814.226536,8290.306550
1009.569372,-459.657299,-296.082377,9326.594869
1009.569688,-383.047749,-1554.432478,9696.697840
1009.570003,-995.924147,-2516.700203,10881.027347
1009.570319,-766.095498,-2590.720797,11325.150913
1009.570635,-842.705048,-2442.679609,11399.171507
1009.570951,-612.876398,-1406.391290,11029.068536
1009.571267,-229.828649,-740.205942,10362.883188
1009.571582,383.047749,444.123565,9400.615463
1009.571898,459.657299,1258.350101,8438.347739
1009.572214,766.095498,1998.556043,8216.285956
1009.572530,1072.533697,1998.556043,7698.141797
1009.572845,842.705048,1480.411884,8216.285956
1009.573161,995.924147,888.247130,8660.409521
1009.573477,689.485948,-370.102971,9030.512492
1009.573793,459.657299,-1406.391290,9622.677246
1009.574109,76.609550,-2146.597232,10658.965565
1009.574424,153.219100,-2220.617826,10881.027347
1009.574740,229.828649,-1332.370696,11103.089130
1009.575056,612.876398,-518.144159,10881.027347
1009.575372,689.485948,222.061783,9844.739029
1009.575687,842.705048,592.164754,9104.533087
1009.576003,766.095498,1110.308913,8660.409521
1009.576319,995.924147,1702.473667,8512.368333
1009.576635,1072.533697,1554.432478,8068.244768
1009.576951,1149.143247,814.226536,8808.450710
1009.577266,766.095498,666.185348,8882.471304
1009.577582,459.657299,-148.041188,9400.615463
1009.577898,76.609550,-1776.494261,10066.800811
1009.578214,229.828649,-1998.556043,10881.027347
1009.578529,306.438199,-2072.576638,11103.089130
1009.578845,689.485948,-1258.350101,11251.130318
1009.579161,919.314598,-370.102971,10288.862594
1009.579477,1225.752797,370.102971,9622.677246
1009.579793,1455.581446,1036.288319,8586.388927
1009.580108,1532.190996,1332.370696,8364.327145
1009.580424,1378.971896,1850.514855,7772.162391
1009.580740,1532.190996,1628.453072,7846.182985
1009.581056,1455.581446,1110.308913,8216.285956
1009.581371,689.485948,444.123565,8956.491898
1009.581687,383.047749,-888.247130,9696.697840
1009.582003,306.438199,-1776.494261,10140.821405
1009.582319,0.000000,-2146.597232,10881.027347
1009.582634,0.000000,-1998.556043,11103.089130
1009.582950,153.219100,-2072.576638,11177.109724
1009.583266,76.609550,-370.102971,10140.821405
1009.583582,689.485948,-0.000000,9474.636058
1009.583898,612.876398,370.102971,8734.430116
1009.584213,536.266849,1406.391290,8290.306550
1009.584529,383.047749,1406.391290,7994.224174
1009.584845,842.705048,1702.473667,8068.244768
1009.585161,306.438199,1110.308913,7994.224174
1009.585476,153.219100,222.061783,8660.409521
1009.585792,0.000000,-888.247130,9400.615463
1009.586108,-153.219100,-1998.556043,10214.842000
1009.586424,-766.095498,-2220.617826,10732.986159
1009.586740,-842.705048,-2146.597232,10881.027347
1009.587055,-536.266849,-1184.329507,10955.047942
1009.587371,-229.828649,-666.185348,10214.842000
1009.587687,-153.219100,-666.185348,9548.656652
1009.588003,-459.657299,518.144159,8734.430116
1009.588318,0.000000,814.226536,8586.388927
1009.588634,0.000000,1110.308913,8142.265362
1009.588950,-306.438199,1184.329507,8364.327145
1009.589266,0.000000,518.144159,8586.388927
1009.589582,0.000000,-518.144159,8956.491898
1009.589897,-306.438199,-1554.432478,9696.697840
1009.590213,-612.876398,-2368.659014,10436.903782
1009.590529,0.000000,-2812.782580,10881.027347
1009.590845,0.000000,-1924.535449,10955.047942
1009.591160,459.657299,-1258.350101,10658.965565
1009.591476,612.876398,-222.061783,9696.697840
1009.591792,766.095498,222.061783,8808.450710
1009.592108,919.314598,1036.288319,8512.368333
1009.592424,1225.752797,1776.494261,7772.162391
1009.592739,1225.752797,2146.597232,7698.141797
1009.593055,1225.752797,1406.391290,7994.224174
1009.593371,1225.752797,444.123565,8734.430116
1009.593687,383.047749,-0.000000,9252.574275
1009.594002,0.000000,-1480.411884,9844.739029
1009.594318,0.000000,-2516.700203,10658.965565
1009.594634,-459.657299,-2368.659014,11473.192101
1009.594950,306.438199,-1998.556043,11399.171507
1009.595265,153.219100,-1184.329507,10955.047942
1009.595581,689.485948,-0.000000,9696.697840
1009.595897,842.705048,740.205942,9178.553681
1009.596213,1072.533697,1110.308913,8660.409521
1009.596529,1455.581446,1998.556043,8068.244768
1009.596844,1762.019645,1998.556043,7920.203579
1009.597160,1608.800546,1554.432478,7920.203579
1009.597476,1762.019645,814.226536,8438.347739
1009.597792,1532.190996,-74.020594,9252.574275
1009.598107,1302.362347,-1628.453072,10362.883188
1009.598423,612.876398,-2294.638420,10807.006753
1009.598739,842.705048,-1998.556043,11251.130318
1009.599055,995.924147,-1480.411884,11103.089130
1009.599371,1225.752797,-666.185348,10584.944971
1009.599686,1149.143247,222.061783,9548.656652
1009.600002,1149.143247,888.247130,8660.409521
1009.600318,1072.533697,1480.411884,8364.327145
1009.600634,1149.143247,1628.453072,8142.265362
1009.600949,1149.143247,1628.453072,8068.244768
1009.601265,1378.971896,962.267725,8438.347739
1009.601581,383.047749,-74.020594,8882.471304
1009.601897,0.000000,-1406.391290,10066.800811
1009.602213,0.000000,-2368.659014,10362.883188
1009.602528,0.000000,-2516.700203,10955.047942
1009.602844,0.000000,-2294.638420,11325.150913
1009.603160,229.828649,-1628.453072,10955.047942
1009.603476,766.095498,-814.226536,9918.759623
1009.603791,919.314598,-0.000000,9104.533087
1009.604107,842.705048,888.247130,8216.285956
1009.604423,842.705048,1554.432478,7846.182985
1009.604739,536.266849,1628.453072,7624.121203
1009.605055,766.095498,1480.411884,7994.224174
1009.605370,612.876398,666.185348,8364.327145
1009.605686,919.314598,-74.020594,9178.553681
1009.606002,-153.219100,-1554.432478,9622.677246
1009.606318,-689.485948,-2368.659014,10288.862594
1009.606633,-919.314598,-2368.659014,10955.047942
1009.606949,-536.266849,-2072.576638,11177.109724
1009.607265,-612.876398,-1480.411884,10658.965565
1009.607581,-229.828649,-444.123565,9992.780217
1009.607896,0.000000,-0.000000,9326.594869
1009.608212,-229.828649,444.123565,8734.430116
1009.608528,0.000000,1036.288319,8364.327145
1009.608844,689.485948,2146.597232,7772.162391
1009.609160,612.876398,1628.453072,7920.203579
1009.609475,612.876398,1110.308913,7772.162391
1009.609791,0.000000,-0.000000,8734.430116
1009.610107,76.609550,-1110.308913,9548.656652
1009.610423,-306.438199,-2146.597232,10214.842000
1009.610738,-766.095498,-2368.659014,10807.006753
1009.611054,-536.266849,-1776.494261,10955.047942
1009.611370,-229.828649,-1258.350101,10807.006753
1009.611686,0.000000,-148.041188,10140.821405
1009.612002,-153.219100,814.226536,9548.656652
1009.612317,306.438199,1110.308913,8660.409521
1009.612633,306.438199,1776.494261,8364.327145
1009.612949,459.657299,1924.535449,8142.265362
1009.613265,689.485948,1480.411884,8216.285956
1009.613580,1072.533697,1110.308913,8956.491898
1009.613896,842.705048,-0.000000,9326.594869
1009.614212,153.219100,-1110.308913,9992.780217
1009.614528,459.657299,-1998.556043,10732.986159
1009.614844,306.438199,-1628.453072,10807.006753
1009.615159,919.314598,-888.247130,11251.130318
1009.615475,1072.533697,-370.102971,10732.986159
1009.615791,1302.362347,444.123565,9696.697840
1009.616107,1608.800546,1480.411884,9030.512492
1009.616422,1762.019645,1702.473667,8882.471304
1009.616738,1608.800546,1998.556043,8290.306550
1009.617054,1302.362347,2368.659014,7920.203579
1009.617370,1455.581446,1850.514855,8586.388927
1009.617685,1149.143247,1110.308913,9030.512492
1009.618001,689.485948,-148.041188,9400.615463
1009.618317,0.000000,-1184.329507,10510.924376
1009.618633,0.000000,-2220.617826,10955.047942
1009.618949,0.000000,-2294.638420,11695.253884
1009.619264,0.000000,-1776.494261,11547.212695
1009.619580,306.438199,-1036.288319,11103.089130
1009.619896,842.705048,-0.000000,9696.697840
1009.620212,842.705048,666.185348,8882.471304
1009.620527,1149.143247,1332.370696,8142.265362
1009.620843,919.314598,1924.535449,7920.203579
1009.621159,1302.362347,1776.494261,8438.347739
1009.621473,1455.581446,1110.308913,8364.327145
1009.621789,995.924147,296.082377,8364.327145
1009.622105,383.047749,-814.226536,9400.615463
1009.622420,459.657299,-2368.659014,10214.842000
1009.622736,76.609550,-2812.782580,10584.944971
1009.623052,153.219100,-2146.597232,11251.130318
1009.623367,153.219100,-1924.535449,11177.109724
1009.623683,459.657299,-814.226536,10436.903782
1009.623999,306.438199,-0.000000,9474.636058
1009.624315,383.047749,518.144159,8808.450710
1009.624630,536.266849,1110.308913,8142.265362
1009.624946,229.828649,1110.308913,7772.162391
1009.625262,612.876398,740.205942,8216.285956
1009.625578,1072.533697,444.123565,8512.368333
1009.625893,0.000000,-296.082377,8808.450710
1009.626209,-536.266849,-1332.370696,9548.656652
1009.626525,-536.266849,-2368.659014,10140.821405
1009.626841,-612.876398,-2368.659014,10584.944971
1009.627156,-1149.143247,-2442.679609,10510.924376
1009.627472,-383.047749,-1702.473667,10584.944971
1009.627788,229.828649,-1036.288319,10140.821405
1009.628104,306.438199,-74.020594,9326.594869
1009.628419,229.828649,444.123565,8364.327145
1009.628735,459.657299,1258.350101,8216.285956
1009.629051,689.485948,1258.350101,7772.162391
1009.629367,459.657299,1258.350101,8068.244768
1009.629682,459.657299,518.144159,8512.368333
1009.629998,229.828649,-222.061783,9104.533087
1009.630314,153.219100,-1184.329507,9622.677246
1009.630629,-153.219100,-2220.617826,10362.883188
1009.630945,0.000000,-2220.617826,11029.068536
1009.631261,76.609550,-1998.556043,11103.089130
1009.631577,306.438199,-1406.391290,10881.027347
1009.631892,612.876398,-740.205942,10066.800811
1009.632208,536.266849,444.123565,9178.553681
1009.632524,1072.533697,1110.308913,8660.409521
1009.632840,459.657299,1480.411884,8586.388927
1009.633155,766.095498,1406.391290,8068.244768
1009.633471,995.924147,1554.432478,8290.306550
1009.633787,919.314598,888.247130,8438.347739
1009.634103,689.485948,-0.000000,9030.512492
1009.634418,459.657299,-1406.391290,10362.883188
1009.634734,0.000000,-1924.535449,10807.006753
1009.635050,76.609550,-2146.597232,11029.068536
1009.635366,306.438199,-1850.514855,11177.109724
1009.635681,612.876398,-1036.288319,10881.027347
1009.635997,1225.752797,-296.082377,9992.780217
1009.636313,919.314598,666.185348,9400.615463
1009.636629,1225.752797,1258.350101,8882.471304
1009.636944,1378.971896,2146.597232,8290.306550
1009.637260,1532.190996,2294.638420,7772.162391
1009.637576,1149.143247,1702.473667,8512.368333
1009.637891,1072.533697,1258.350101,8808.450710
1009.638207,536.266849,-296.082377,9178.553681
1009.638523,229.828649,-1776.494261,10066.800811
1009.638839,153.219100,-2738.761985,11399.171507
1009.639154,689.485948,-2368.659014,11325.150913
1009.639470,306.438199,-1480.411884,11251.130318
1009.639786,459.657299,-1036.288319,10807.006753
1009.640102,766.095498,-0.000000,9696.697840
1009.640417,842.705048,1036.288319,8882.471304
1009.640733,919.314598,1406.391290,8438.347739
1009.641049,995.924147,1850.514855,8068.244768
1009.641365,1072.533697,1850.514855,7698.141797
1009.641680,842.705048,1258.350101,8290.306550
1009.641996,536.266849,444.123565,8512.368333
1009.642312,306.438199,-1036.288319,9548.656652
1009.642628,76.609550,-1554.432478,10510.924376
1009.642943,-383.047749,-2072.576638,10732.986159
1009.643259,-383.047749,-2072.576638,11399.171507
1009.643575,-229.828649,-1480.411884,11325.150913
1009.643891,0.000000,-518.144159,10288.862594
1009.644206,229.828649,296.082377,9696.697840
1009.644522,383.047749,888.247130,8660.409521
1009.644838,689.485948,1480.411884,8142.265362
1009.645153,766.095498,1554.432478,7772.162391
1009.645469,766.095498,1184.329507,8142.265362
1009.645785,612.876398,592.164754,8290.306550
1009.646101,229.828649,-148.041188,8808.450710
1009.646416,-459.657299,-1332.370696,9622.677246
1009.646732,-459.657299,-2146.597232,10584.944971
1009.647048,-459.657299,-2294.638420,10732.986159
1009.647364,-459.657299,-2146.597232,11029.068536
1009.647679,0.000000,-1332.370696,10658.965565
1009.647995,306.438199,-444.123565,9992.780217
1009.648311,229.828649,-0.000000,9104.533087
1009.648627,459.657299,370.102971,8512.368333
1009.648942,995.924147,1184.329507,7920.203579
1009.649258,459.657299,1480.411884,7772.162391
1009.649574,612.876398,1258.350101,8142.265362
1009.649890,459.657299,666.185348,8882.471304
1009.650205,0.000000,-0.000000,8882.471304
1009.650521,0.000000,-1258.350101,9622.677246
1009.650837,-306.438199,-1850.514855,10214.842000
1009.651153,-383.047749,-1998.556043,10881.027347
1009.651468,0.000000,-1998.556043,10955.047942
1009.651784,0.000000,-1110.308913,10881.027347
1009.652100,229.828649,-296.082377,10140.821405
1009.652415,383.047749,296.082377,8882.471304
1009.652731,689.485948,1036.288319,8660.409521
1009.653047,995.924147,1554.432478,8290.306550
1009.653363,766.095498,1924.535449,7994.224174
1009.653678,689.485948,1924.535449,8290.306550
1009.653994,612.876398,962.267725,8734.430116
1009.654310,689.485948,-370.102971,9030.512492
1009.654626,76.609550,-1480.411884,10140.821405
1009.654941,0.000000,-2368.659014,11029.068536
1009.655257,0.000000,-2072.576638,11177.109724
1009.655573,383.047749,-1554.432478,11177.109724
1009.655889,383.047749,-1184.329507,10881.027347
1009.656204,612.876398,-0.000000,10066.800811
1009.656520,995.924147,888.247130,9104.533087
1009.656836,995.924147,1184.329507,8586.388927
1009.657152,1225.752797,1776.494261,8438.347739
1009.657467,1608.800546,2072.576638,8290.306550
1009.657783,1302.362347,1332.370696,8290.306550
1009.658099,1072.533697,592.164754,9252.574275
1009.658415,689.485948,-370.102971,9400.615463
1009.658730,229.828649,-1776.494261,10288.862594
1009.659046,0.000000,-2590.720797,11029.068536
1009.659362,76.609550,-2072.576638,11325.150913
1009.659677,459.657299,-1258.350101,11621.233289
1009.659993,689.485948,-666.185348,10584.944971
1009.660309,536.266849,148.041188,9696.697840
1009.660625,919.314598,666.185348,9400.615463
1009.660940,1225.752797,1332.370696,8734.430116
1009.661256,1378.971896,2072.576638,7994.224174
1009.661572,1378.971896,1628.453072,8068.244768
1009.661888,1072.533697,1554.432478,8290.306550
1009.662203,766.095498,370.102971,8660.409521
1009.662519,229.828649,-962.267725,9474.636058
1009.662835,-153.219100,-2220.617826,10214.842000
1009.663151,-306.438199,-2590.720797,11177.109724
1009.663466,-995.924147,-2516.700203,11251.130318
1009.663782,0.000000,-1924.535449,11177.109724
1009.664098,76.609550,-814.226536,10584.944971
1009.664414,229.828649,-0.000000,9252.574275
1009.664729,536.266849,814.226536,8438.347739
1009.665045,766.095498,1184.329507,7920.203579
1009.665361,766.095498,1628.453072,7550.100608
1009.665677,919.314598,1406.391290,7476.080014
1009.665992,689.485948,814.226536,8142.265362
1009.666308,153.219100,-148.041188,8808.450710
1009.666624,0.000000,-1332.370696,9548.656652
1009.666939,-536.266849,-2146.597232,10140.821405
1009.667255,-536.266849,-2368.659014,10807.006753
1009.667571,-536.266849,-2146.597232,10807.006753
1009.667887,-153.219100,-1554.432478,10807.006753
1009.668202,0.000000,-740.205942,9992.780217
1009.668518,306.438199,-0.000000,9104.533087
1009.668834,229.828649,814.226536,8364.327145
1009.669150,383.047749,1332.370696,8216.285956
1009.669465,612.876398,1480.411884,7920.203579
1009.669781,229.828649,1258.350101,7994.224174
1009.670097,153.219100,740.205942,8512.368333
1009.670413,0.000000,-370.102971,9326.594869
1009.670728,-229.828649,-1776.494261,9474.636058
1009.671044,-383.047749,-2516.700203,10436.903782
1009.671360,-306.438199,-2368.659014,10881.027347
1009.671676,0.000000,-2368.659014,11103.089130
1009.671991,76.609550,-1258.350101,10510.924376
1009.672307,536.266849,-0.000000,9918.759623
1009.672623,459.657299,1110.308913,8882.471304
1009.672939,995.924147,1480.411884,8216.285956
1009.673254,995.924147,1850.514855,8290.306550
1009.673570,1302.362347,1776.494261,8068.244768
1009.673886,1685.410096,1036.288319,8290.306550
1009.674201,766.095498,296.082377,8586.388927
1009.674517,459.657299,-518.144159,9474.636058
1009.674833,229.828649,-1628.453072,10214.842000
1009.675149,153.219100,-2220.617826,10732.986159
1009.675464,153.219100,-1776.494261,11177.109724
1009.675780,153.219100,-1628.453072,11325.150913
1009.676096,459.657299,-592.164754,11177.109724
1009.676412,995.924147,-0.000000,10066.800811
1009.676727,766.095498,962.267725,8808.450710
1009.677043,995.924147,1554.432478,8808.450710
1009.677359,1302.362347,1850.514855,8364.327145
1009.677675,1225.752797,1850.514855,7994.224174
1009.677990,1455.581446,1554.432478,8364.327145
1009.678306,1225.752797,814.226536,8660.409521
1009.678622,842.705048,-592.164754,9400.615463
1009.678938,459.657299,-1776.494261,10214.842000
1009.679253,306.438199,-2368.659014,11103.089130
1009.679569,153.219100,-2146.597232,11547.212695
1009.679885,536.266849,-1776.494261,11399.171507
1009.680201,612.876398,-1332.370696,10436.903782
1009.680516,995.924147,222.061783,9844.739029
1009.680832,919.314598,814.226536,8734.430116
1009.681148,1302.362347,1332.370696,8216.285956
1009.681463,689.485948,1480.411884,7846.182985
1009.681779,995.924147,1480.411884,8068.244768
1009.682095,919.314598,1036.288319,8364.327145
1009.682411,689.485948,296.082377,8882.471304
1009.682726,459.657299,-1036.288319,9474.636058
1009.683042,76.609550,-2072.576638,10140.821405
