#time,accel_x,accel_y,accel_z
638.871144,1225.752797,2146.597232,9918.759623
638.871459,536.266849,2368.659014,9918.759623
638.871775,459.657299,1702.473667,9844.739029
638.872090,229.828649,1628.453072,10140.821405
638.872406,0.000000,1480.411884,9992.780217
638.872722,0.000000,1480.411884,10214.842000
638.873037,0.000000,888.247130,10584.944971
638.873353,-306.438199,740.205942,10436.903782
638.873669,-153.219100,740.205942,10658.965565
638.873984,-306.438199,962.267725,10732.986159
638.874300,0.000000,1628.453072,10658.965565
638.874615,0.000000,2368.659014,9992.780217
638.874931,383.047749,2368.659014,9548.656652
638.875247,842.705048,2146.597232,9622.677246
638.875562,1762.019645,1480.411884,9918.759623
638.875878,1762.019645,888.247130,9622.677246
638.876194,1991.848295,444.123565,9770.718434
638.876509,1915.238745,148.041188,9622.677246
638.876825,2298.286494,296.082377,9770.718434
638.877140,2451.505594,666.185348,9844.739029
638.877456,2451.505594,888.247130,9474.636058
638.877772,2068.457845,1184.329507,9548.656652
638.878087,2451.505594,1110.308913,9474.636058
638.878403,2528.115143,962.267725,9400.615463
638.878719,3140.991542,1184.329507,9104.533087
638.879034,2757.943793,1258.350101,9104.533087
638.879350,3447.429741,1332.370696,8808.450710
638.879665,3677.258390,1628.453072,8512.368333
638.879981,4749.792088,1776.494261,8660.409521
638.880297,4366.744339,1702.473667,8660.409521
638.880612,4749.792088,1850.514855,8660.409521
638.880928,4903.011187,2072.576638,8512.368333
638.881244,4903.011187,2442.679609,8586.388927
638.881559,5286.058936,2664.741391,8882.471304
638.881875,5056.230287,2442.679609,8808.450710
638.882190,4903.011187,2812.782580,8734.430116
638.882506,4979.620737,3108.864956,8734.430116
638.882822,4596.572988,3478.967927,8660.409521
638.883137,4213.525239,3552.988522,8882.471304
638.883453,4213.525239,3478.967927,9104.533087
638.883769,3983.696590,3775.050304,9252.574275
638.884084,3677.258390,3478.967927,9030.512492
638.884400,3600.648841,3404.947333,9030.512492
638.884715,3524.039291,3256.906145,9104.533087
638.885031,3370.820191,3849.070898,8956.491898
638.885347,3370.820191,3701.029710,9252.574275
638.885662,2757.943793,3404.947333,9770.718434
638.885978,2451.505594,2960.823768,10066.800811
638.886294,1838.629195,2590.720797,10214.842000
638.886609,1915.238745,2664.741391,10214.842000
638.886925,1685.410096,2960.823768,10214.842000
638.887240,1378.971896,2960.823768,10288.862594
638.887556,1302.362347,2960.823768,10066.800811
638.887872,1225.752797,3108.864956,10362.883188
638.888187,1149.143247,2960.823768,10066.800811
638.888503,919.314598,2368.659014,10214.842000
638.888818,1378.971896,1776.494261,10881.027347
638.889134,1991.848295,1110.308913,11103.089130
638.889450,1532.190996,666.185348,11473.192101
638.889765,1838.629195,962.267725,11325.150913
638.890081,2145.067394,1406.391290,11103.089130
638.890397,2911.162892,1998.556043,10584.944971
638.890712,3907.087040,2738.761985,9696.697840
638.891028,4060.306139,3108.864956,8956.491898
638.891343,4443.353888,3552.988522,8660.409521
638.891659,4673.182538,2812.782580,8364.327145
638.891975,4213.525239,2368.659014,7994.224174
638.892290,3370.820191,1702.473667,8364.327145
638.892606,2374.896044,888.247130,8882.471304
638.892922,1225.752797,-0.000000,9696.697840
638.893237,76.609550,-1036.288319,10584.944971
638.893553,-766.095498,-1924.535449,11177.109724
638.893868,-1149.143247,-2294.638420,11843.295072
638.894184,-2145.067394,-3182.885551,12287.418637
638.894500,-1915.238745,-3182.885551,12583.501014
638.894815,-1302.362347,-2590.720797,12065.356855
638.895131,-536.266849,-1110.308913,11177.109724
638.895447,229.828649,296.082377,9622.677246
638.895762,1838.629195,1258.350101,8512.368333
638.896078,3294.210641,2072.576638,7105.977043
638.896394,4060.306139,2442.679609,5921.647536
638.896710,4826.401637,2664.741391,5329.482782
638.897026,4519.963438,2516.700203,4885.359217
638.897342,3983.696590,1554.432478,5107.421000
638.897657,3064.381992,666.185348,6513.812290
638.897973,1685.410096,-370.102971,7624.121203
638.898289,0.000000,-2294.638420,9400.615463
638.898605,-1685.410096,-3701.029710,10807.006753
638.898921,-3677.258390,-5181.441594,12361.439231
638.899237,-4519.963438,-5329.482782,13249.686362
638.899553,-4366.744339,-4515.256246,13101.645173
638.899869,-4136.915689,-3330.926739,12361.439231
638.900184,-2757.943793,-2146.597232,11103.089130
638.900500,-995.924147,-592.164754,9474.636058
638.900816,919.314598,592.164754,8216.285956
638.901132,2834.553343,814.226536,6809.894666
638.901448,3830.477490,1480.411884,5107.421000
638.901764,5362.668486,2294.638420,4515.256246
638.902080,6435.202183,1480.411884,4663.297435
638.902396,6665.030833,1406.391290,4959.379811
638.902711,5362.668486,370.102971,6217.729913
638.903027,4136.915689,-1036.288319,8068.244768
638.903343,2298.286494,-2368.659014,9992.780217
638.903659,306.438199,-3108.864956,11843.295072
638.903975,-766.095498,-2738.761985,12805.562797
638.904291,-1991.848295,-2294.638420,13101.645173
638.904607,-1991.848295,-962.267725,12879.583391
638.904923,-1225.752797,222.061783,11917.315666
638.905238,-919.314598,1850.514855,10732.986159
638.905554,-995.924147,2886.803174,9178.553681
638.905870,919.314598,2072.576638,8512.368333
638.906186,2451.505594,2072.576638,7105.977043
638.906502,3064.381992,2368.659014,6513.812290
638.906818,2911.162892,1924.535449,6883.915261
638.907134,2757.943793,1628.453072,7772.162391
638.907450,1149.143247,296.082377,9474.636058
638.907765,153.219100,-1258.350101,10584.944971
638.908081,-1072.533697,-1184.329507,12065.356855
638.908397,-2298.286494,-444.123565,12953.603985
638.908713,-2757.943793,148.041188,12953.603985
638.909029,-2604.724693,962.267725,12805.562797
638.909345,-1915.238745,2516.700203,12065.356855
638.909661,-1915.238745,4071.132681,10362.883188
638.909977,-1072.533697,3997.112087,9104.533087
638.910292,229.828649,2738.761985,8956.491898
638.910608,1225.752797,1036.288319,8216.285956
638.910924,1072.533697,444.123565,8068.244768
638.911240,1072.533697,444.123565,8068.244768
638.911556,306.438199,444.123565,8512.368333
638.911872,0.000000,-222.061783,9844.739029
638.912188,-995.924147,-888.247130,11399.171507
638.912504,-1991.848295,-1480.411884,12139.377449
638.912819,-2757.943793,-1184.329507,12213.398043
638.913135,-2145.067394,-370.102971,12213.398043
638.913451,-1532.190996,888.247130,11695.253884
638.913767,-612.876398,2960.823768,10288.862594
638.914083,383.047749,4959.379811,8956.491898
638.914399,1685.410096,4663.297435,7476.080014
638.914715,3140.991542,1924.535449,7328.038826
638.915031,3983.696590,-444.123565,7624.121203
638.915346,3370.820191,-148.041188,7105.977043
638.915662,2834.553343,222.061783,6957.935855
638.915978,2528.115143,-0.000000,7328.038826
638.916294,1838.629195,-888.247130,8956.491898
638.916610,306.438199,-1998.556043,10362.883188
638.916926,-1149.143247,-2960.823768,11177.109724
638.917242,-2374.896044,-3404.947333,11399.171507
638.917558,-2528.115143,-2368.659014,11473.192101
638.917873,-1762.019645,-592.164754,11103.089130
638.918189,-1149.143247,2072.576638,9770.718434
638.918505,-383.047749,3627.009116,8956.491898
638.918821,459.657299,2146.597232,8068.244768
638.919137,1685.410096,-1110.308913,8290.306550
638.919453,2374.896044,-2738.761985,8660.409521
638.919769,2757.943793,-2368.659014,8438.347739
638.920085,2834.553343,-1184.329507,7402.059420
638.920400,3447.429741,-518.144159,7476.080014
638.920716,3370.820191,-148.041188,8586.388927
638.921032,2451.505594,-814.226536,9030.512492
638.921348,1378.971896,-1110.308913,8808.450710
638.921664,306.438199,-1406.391290,9178.553681
638.921980,-229.828649,-666.185348,9770.718434
638.922296,-153.219100,518.144159,10066.800811
638.922612,0.000000,1406.391290,9622.677246
638.922927,-459.657299,1332.370696,9178.553681
638.923243,-689.485948,-962.267725,9696.697840
638.923559,-1149.143247,-2960.823768,10732.986159
638.923875,-995.924147,-4441.235652,10584.944971
638.924191,-689.485948,-3404.947333,10140.821405
638.924507,383.047749,-2294.638420,9622.677246
638.924823,1149.143247,-1036.288319,9326.594869
638.925139,1149.143247,-222.061783,8956.491898
638.925454,1378.971896,-740.205942,8808.450710
638.925770,1532.190996,-888.247130,8438.347739
638.926086,995.924147,-740.205942,8512.368333
638.926402,1072.533697,-296.082377,8882.471304
638.926718,1378.971896,-0.000000,9326.594869
638.927034,995.924147,444.123565,9178.553681
638.927350,153.219100,-0.000000,9548.656652
638.927666,-459.657299,-1480.411884,10436.903782
638.927981,-689.485948,-2072.576638,10955.047942
638.928297,-766.095498,-2368.659014,10807.006753
638.928613,-153.219100,-1850.514855,10732.986159
638.928929,-229.828649,-1258.350101,10066.800811
638.929245,0.000000,-296.082377,9622.677246
638.929561,536.266849,592.164754,9104.533087
638.929877,995.924147,-0.000000,8660.409521
638.930193,1072.533697,592.164754,8956.491898
638.930508,766.095498,370.102971,8808.450710
638.930824,612.876398,-0.000000,9400.615463
638.931140,459.657299,-74.020594,9696.697840
638.931456,0.000000,-74.020594,9770.718434
638.931772,-689.485948,-0.000000,10510.924376
638.932088,-1072.533697,-0.000000,10807.006753
638.932404,-689.485948,-0.000000,10510.924376
638.932720,0.000000,370.102971,10362.883188
638.933035,-459.657299,444.123565,10066.800811
638.933351,0.000000,592.164754,9548.656652
638.933667,306.438199,888.247130,9178.553681
638.933983,995.924147,1184.329507,8808.450710
638.934299,1225.752797,814.226536,8586.388927
638.934615,1302.362347,1036.288319,8438.347739
638.934931,842.705048,518.144159,8216.285956
638.935247,383.047749,-74.020594,9178.553681
638.935562,0.000000,-592.164754,9770.718434
638.935878,-995.924147,-444.123565,10732.986159
638.936194,-995.924147,-296.082377,10362.883188
638.936510,-536.266849,-370.102971,10584.944971
638.936826,0.000000,296.082377,10288.862594
638.937142,0.000000,1184.329507,9548.656652
638.937458,842.705048,1998.556043,8956.491898
638.937774,1608.800546,2220.617826,8068.244768
638.938089,2298.286494,2072.576638,7624.121203
638.938405,2757.943793,1480.411884,7402.059420
638.938721,3064.381992,740.205942,7328.038826
638.939037,2068.457845,370.102971,8438.347739
638.939353,1608.800546,-222.061783,8882.471304
638.939669,995.924147,-296.082377,9622.677246
638.939985,0.000000,-444.123565,10436.903782
638.940301,-459.657299,-666.185348,10807.006753
638.940616,-919.314598,-740.205942,11177.109724
638.940932,-1302.362347,-296.082377,11029.068536
638.941248,-1149.143247,296.082377,10955.047942
638.941564,-536.266849,592.164754,10510.924376
638.941880,536.266849,888.247130,9622.677246
638.942196,1225.752797,1110.308913,9030.512492
638.942512,2298.286494,74.020594,8364.327145
638.942828,2604.724693,-148.041188,8586.388927
638.943143,2374.896044,-148.041188,8956.491898
638.943459,2757.943793,-1036.288319,9030.512492
638.943775,2451.505594,-444.123565,9696.697840
638.944091,2068.457845,-666.185348,9992.780217
638.944407,1532.190996,-518.144159,10140.821405
638.944723,919.314598,-296.082377,10288.862594
638.945039,459.657299,-222.061783,10288.862594
638.945355,-229.828649,370.102971,10066.800811
638.945670,-306.438199,740.205942,10140.821405
638.945986,0.000000,592.164754,9622.677246
638.946302,0.000000,-222.061783,9474.636058
638.946618,-689.485948,-1480.411884,9326.594869
638.946934,-306.438199,-2072.576638,9696.697840
638.947250,-536.266849,-2590.720797,10436.903782
638.947566,-459.657299,-2516.700203,10140.821405
638.947882,-229.828649,-2146.597232,10140.821405
638.948197,153.219100,-2072.576638,9770.718434
638.948513,-229.828649,-1554.432478,9696.697840
638.948829,229.828649,-888.247130,9474.636058
638.949145,0.000000,-296.082377,9104.533087
638.949461,153.219100,296.082377,8512.368333
638.949777,306.438199,148.041188,8364.327145
638.950093,383.047749,-222.061783,8290.306550
638.950409,612.876398,-1036.288319,8142.265362
638.950724,0.000000,-1776.494261,8882.471304
638.951040,-229.828649,-2294.638420,9252.574275
638.951356,-766.095498,-2368.659014,9696.697840
638.951672,-459.657299,-2220.617826,9844.739029
638.951988,-459.657299,-2220.617826,9992.780217
638.952304,0.000000,-1406.391290,9696.697840
638.952620,76.609550,-518.144159,9844.739029
638.952936,536.266849,-222.061783,9104.533087
638.953251,919.314598,666.185348,8808.450710
638.953567,766.095498,1036.288319,8142.265362
638.953883,1225.752797,740.205942,8068.244768
638.954199,1608.800546,518.144159,7994.224174
638.954515,995.924147,-222.061783,8290.306550
638.954831,383.047749,-962.267725,9178.553681
638.955147,383.047749,-1184.329507,9844.739029
638.955463,306.438199,-1258.350101,10066.800811
638.955778,153.219100,-1036.288319,10881.027347
638.956094,153.219100,-296.082377,10288.862594
638.956410,459.657299,-0.000000,9992.780217
638.956726,459.657299,518.144159,9252.574275
638.957042,919.314598,592.164754,9252.574275
638.957358,1149.143247,1332.370696,8808.450710
638.957674,1455.581446,1776.494261,8216.285956
638.957990,1302.362347,1480.411884,7920.203579
638.958305,1149.143247,888.247130,8290.306550
638.958621,1072.533697,-148.041188,8808.450710
638.958937,383.047749,-740.205942,10214.842000
638.959253,0.000000,-814.226536,10510.924376
638.959569,-229.828649,-814.226536,10881.027347
638.959885,-229.828649,-148.041188,10955.047942
638.960201,-229.828649,444.123565,11177.109724
638.960517,306.438199,962.267725,10066.800811
638.960832,459.657299,1850.514855,9474.636058
638.961148,766.095498,2368.659014,8956.491898
638.961464,1455.581446,2368.659014,8808.450710
638.961780,1838.629195,2294.638420,8586.388927
638.962096,1762.019645,1258.350101,8216.285956
638.962412,1532.190996,666.185348,8290.306550
638.962728,766.095498,-370.102971,9326.594869
638.963044,153.219100,-592.164754,10066.800811
638.963359,-306.438199,-666.185348,10881.027347
638.963675,-995.924147,-518.144159,11621.233289
638.963991,-1685.410096,-814.226536,11769.274478
638.964307,-1378.971896,-518.144159,11399.171507
638.964623,-1455.581446,-0.000000,11029.068536
638.964939,-1072.533697,518.144159,10584.944971
638.965255,-306.438199,1110.308913,9918.759623
638.965571,536.266849,1110.308913,8956.491898
638.965886,842.705048,1332.370696,8364.327145
638.966202,1378.971896,518.144159,7994.224174
638.966518,1532.190996,-148.041188,8290.306550
638.966834,1302.362347,-814.226536,9252.574275
638.967150,1072.533697,-888.247130,9844.739029
638.967466,919.314598,-1036.288319,10288.862594
638.967782,766.095498,-962.267725,10288.862594
638.968098,612.876398,-814.226536,10584.944971
638.968413,153.219100,-518.144159,10140.821405
638.968729,0.000000,-0.000000,9992.780217
638.969045,0.000000,814.226536,9770.718434
638.969361,306.438199,740.205942,9030.512492
638.969677,306.438199,518.144159,8586.388927
638.969993,153.219100,-0.000000,8364.327145
638.970309,76.609550,-1110.308913,8216.285956
638.970625,-153.219100,-1776.494261,9030.512492
638.970940,229.828649,-1998.556043,9696.697840
638.971256,-229.828649,-2294.638420,9474.636058
638.971572,0.000000,-1702.473667,9844.739029
638.971888,0.000000,-1628.453072,9622.677246
638.972204,0.000000,-1332.370696,9844.739029
638.972520,-306.438199,-814.226536,9326.594869
638.972836,153.219100,-148.041188,9178.553681
638.973152,153.219100,296.082377,8586.388927
638.973467,1225.752797,-0.000000,8438.347739
638.973783,1072.533697,-0.000000,7550.100608
638.974099,1072.533697,-518.144159,7846.182985
638.974415,842.705048,-1258.350101,8216.285956
638.974731,536.266849,-1850.514855,9104.533087
638.975047,383.047749,-1776.494261,9548.656652
638.975363,153.219100,-1628.453072,9992.780217
638.975679,76.609550,-1332.370696,9770.718434
638.975994,229.828649,-888.247130,9696.697840
638.976310,229.828649,-666.185348,9474.636058
638.976626,306.438199,-296.082377,9474.636058
638.976942,306.438199,148.041188,8808.450710
638.977258,689.485948,444.123565,8808.450710
638.977574,1072.533697,740.205942,8290.306550
638.977890,1302.362347,-0.000000,8364.327145
638.978206,995.924147,-666.185348,8734.430116
638.978521,689.485948,-1332.370696,9622.677246
638.978837,383.047749,-1406.391290,10214.842000
638.979153,459.657299,-1184.329507,10362.883188
638.979469,229.828649,-888.247130,10362.883188
638.979785,229.828649,-592.164754,10362.883188
638.980101,229.828649,-370.102971,10140.821405
638.980417,306.438199,592.164754,9844.739029
638.980733,536.266849,1110.308913,9696.697840
638.981048,689.485948,1184.329507,8882.471304
638.981364,766.095498,1110.308913,9178.553681
638.981680,919.314598,444.123565,9030.512492
638.981996,919.314598,148.041188,9178.553681
638.982312,689.485948,-148.041188,9474.636058
638.982628,306.438199,-444.123565,10214.842000
638.982944,229.828649,-444.123565,10436.903782
638.983260,536.266849,-296.082377,10436.903782
638.983575,0.000000,-0.000000,10584.944971
638.983891,383.047749,444.123565,10140.821405
638.984207,459.657299,1036.288319,10066.800811
638.984523,383.047749,1036.288319,9844.739029
638.984839,536.266849,1850.514855,9252.574275
638.985155,1072.533697,1702.473667,8882.471304
638.985471,1225.752797,1406.391290,8882.471304
638.985787,689.485948,1184.329507,8660.409521
638.986102,229.828649,-74.020594,8734.430116
638.986418,0.000000,-666.185348,9992.780217
638.986734,-229.828649,-1184.329507,10288.862594
638.987050,-459.657299,-666.185348,10362.883188
638.987366,-536.266849,-518.144159,10732.986159
638.987682,-919.314598,-518.144159,10510.924376
638.987998,-612.876398,-296.082377,10584.944971
638.988314,-536.266849,444.123565,9992.780217
638.988629,-306.438199,814.226536,9474.636058
638.988945,459.657299,1184.329507,9030.512492
638.989261,1302.362347,814.226536,8068.244768
638.989577,1455.581446,740.205942,7994.224174
638.989893,1378.971896,-148.041188,8216.285956
638.990209,1378.971896,-444.123565,8660.409521
638.990525,1149.143247,-888.247130,9252.574275
638.990841,1149.143247,-962.267725,9400.615463
638.991156,842.705048,-518.144159,9918.759623
638.991472,689.485948,-666.185348,9992.780217
638.991788,766.095498,-814.226536,9918.759623
638.992104,383.047749,-222.061783,9696.697840
638.992420,383.047749,444.123565,9474.636058
638.992736,689.485948,666.185348,8882.471304
638.993052,1225.752797,1332.370696,8290.306550
638.993368,1685.410096,740.205942,8216.285956
638.993683,1532.190996,296.082377,7920.203579
638.993999,1149.143247,-518.144159,8142.265362
638.994315,689.485948,-1480.411884,9252.574275
638.994631,536.266849,-1776.494261,9696.697840
638.994947,306.438199,-1702.473667,10066.800811
638.995263,0.000000,-1480.411884,10214.842000
638.995579,-153.219100,-1480.411884,10214.842000
638.995895,-153.219100,-814.226536,10066.800811
638.996210,0.000000,-444.123565,9474.636058
638.996526,306.438199,444.123565,9178.553681
638.996842,612.876398,666.185348,8808.450710
638.997158,995.924147,888.247130,8290.306550
638.997474,1455.581446,592.164754,8068.244768
638.997790,995.924147,-74.020594,8364.327145
638.998105,689.485948,-888.247130,9030.512492
638.998421,612.876398,-1332.370696,9844.739029
638.998737,306.438199,-1406.391290,9918.759623
638.999053,0.000000,-1258.350101,10584.944971
638.999368,536.266849,-592.164754,10510.924376
638.999684,229.828649,-814.226536,10362.883188
639.000000,0.000000,-148.041188,9992.780217
639.000316,0.000000,444.123565,9622.677246
639.000632,306.438199,888.247130,9252.574275
639.000947,536.266849,1110.308913,8882.471304
639.001263,689.485948,666.185348,8734.430116
639.001579,229.828649,148.041188,8290.306550
639.001895,383.047749,-740.205942,9104.533087
639.002210,0.000000,-1480.411884,10066.800811
639.002526,-536.266849,-1480.411884,10510.924376
639.002842,-612.876398,-1480.411884,10732.986159
639.003158,-536.266849,-962.267725,11029.068536
639.003474,-459.657299,-740.205942,10732.986159
639.003789,-306.438199,-518.144159,10584.944971
639.004105,-459.657299,74.020594,9844.739029
639.004421,0.000000,370.102971,9474.636058
639.004737,0.000000,444.123565,9474.636058
639.005052,383.047749,740.205942,8956.491898
639.005368,689.485948,518.144159,8734.430116
639.005684,459.657299,-148.041188,8586.388927
639.006000,459.657299,-814.226536,9178.553681
639.006316,229.828649,-1036.288319,9696.697840
639.006631,0.000000,-740.205942,9918.759623
639.006947,0.000000,-814.226536,10362.883188
639.007263,229.828649,-444.123565,9918.759623
639.007579,229.828649,-222.061783,9918.759623
639.007894,76.609550,-0.000000,9770.718434
639.008210,153.219100,370.102971,9622.677246
639.008526,229.828649,888.247130,9178.553681
639.008842,842.705048,740.205942,8290.306550
639.009158,842.705048,666.185348,8438.347739
639.009473,766.095498,-0.000000,8142.265362
639.009789,459.657299,-592.164754,8734.430116
639.010105,229.828649,-1110.308913,9548.656652
639.010421,0.000000,-1036.288319,9400.615463
639.010736,-153.219100,-592.164754,10214.842000
639.011052,-153.219100,-1036.288319,9992.780217
639.011368,-536.266849,-888.247130,10214.842000
639.011684,-306.438199,-444.123565,9622.677246
639.012000,0.000000,-74.020594,9844.739029
639.012315,76.609550,518.144159,9474.636058
639.012631,689.485948,740.205942,9104.533087
639.012947,1072.533697,888.247130,8290.306550
639.013263,1225.752797,592.164754,7846.182985
639.013578,766.095498,-0.000000,8364.327145
639.013894,1072.533697,-814.226536,9178.553681
639.014210,766.095498,-1184.329507,9474.636058
639.014526,153.219100,-1110.308913,10214.842000
639.014842,536.266849,-740.205942,10214.842000
639.015157,1072.533697,-370.102971,10362.883188
639.015473,459.657299,-222.061783,10214.842000
639.015789,383.047749,666.185348,9622.677246
639.016105,536.266849,1036.288319,9252.574275
639.016420,842.705048,1554.432478,8808.450710
639.016736,1378.971896,1406.391290,8882.471304
639.017052,1762.019645,666.185348,8290.306550
639.017368,1302.362347,370.102971,8512.368333
639.017684,842.705048,-74.020594,9252.574275
639.017999,229.828649,-592.164754,9696.697840
639.018315,0.000000,-814.226536,10214.842000
639.018631,153.219100,-666.185348,10807.006753
639.018947,0.000000,-962.267725,10881.027347
639.019262,-306.438199,-666.185348,10732.986159
639.019578,-459.657299,-814.226536,10288.862594
639.019894,-229.828649,-0.000000,10510.924376
639.020210,0.000000,1036.288319,9474.636058
639.020526,459.657299,1258.350101,9104.533087
639.020841,995.924147,1036.288319,8586.388927
639.021157,842.705048,370.102971,8660.409521
639.021473,459.657299,-518.144159,8956.491898
639.021789,459.657299,-814.226536,9474.636058
639.022104,383.047749,-1184.329507,9844.739029
639.022420,0.000000,-1184.329507,10584.944971
639.022736,76.609550,-1110.308913,10288.862594
639.023052,153.219100,-444.123565,10584.944971
639.023368,76.609550,-296.082377,10288.862594
639.023683,0.000000,370.102971,9474.636058
639.023999,76.609550,962.267725,9474.636058
639.024315,459.657299,1036.288319,9178.553681
639.024631,612.876398,962.267725,8216.285956
639.024947,612.876398,148.041188,8734.430116
639.025262,306.438199,-370.102971,8660.409521
639.025578,-153.219100,-1110.308913,9104.533087
639.025894,-536.266849,-1554.432478,9918.759623
639.026210,-536.266849,-1480.411884,9918.759623
639.026525,-306.438199,-1258.350101,10436.903782
639.026841,-536.266849,-1184.329507,10510.924376
639.027157,-383.047749,-1406.391290,10288.862594
639.027473,-536.266849,-1110.308913,9992.780217
639.027789,-459.657299,-370.102971,9622.677246
639.028104,229.828649,296.082377,8882.471304
639.028420,766.095498,592.164754,8734.430116
639.028736,1378.971896,296.082377,8142.265362
639.029052,1302.362347,-0.000000,8068.244768
639.029367,1378.971896,-740.205942,8142.265362
639.029683,1072.533697,-1332.370696,8956.491898
639.029999,919.314598,-1554.432478,9178.553681
639.030315,919.314598,-1702.473667,9918.759623
639.030631,1378.971896,-814.226536,9770.718434
639.030946,842.705048,-740.205942,9622.677246
639.031262,842.705048,-148.041188,9474.636058
639.031578,919.314598,-0.000000,9104.533087
639.031894,1072.533697,444.123565,8882.471304
639.032209,1225.752797,740.205942,8660.409521
639.032525,1225.752797,814.226536,8142.265362
639.032841,1608.800546,222.061783,8290.306550
639.033157,1149.143247,-370.102971,8216.285956
639.033473,1225.752797,-1036.288319,9252.574275
639.033788,229.828649,-1554.432478,9918.759623
639.034104,306.438199,-1036.288319,9844.739029
639.034420,-229.828649,-518.144159,10584.944971
639.034736,-153.219100,-740.205942,10362.883188
639.035051,-229.828649,-740.205942,10362.883188
639.035367,229.828649,222.061783,10214.842000
639.035683,306.438199,740.205942,9770.718434
639.035999,766.095498,1406.391290,9104.533087
639.036315,1225.752797,1628.453072,8734.430116
639.036630,1532.190996,1406.391290,8660.409521
639.036946,1838.629195,1110.308913,8290.306550
639.037262,1532.190996,518.144159,8438.347739
639.037578,689.485948,-444.123565,9696.697840
639.037893,689.485948,-444.123565,10140.821405
639.038209,459.657299,-74.020594,10658.965565
639.038525,306.438199,-0.000000,10510.924376
639.038841,459.657299,-0.000000,10732.986159
639.039157,153.219100,222.061783,10510.924376
639.039472,0.000000,740.205942,10214.842000
639.039788,0.000000,1406.391290,9770.718434
639.040104,766.095498,1258.350101,9400.615463
639.040420,842.705048,1554.432478,8808.450710
639.040735,689.485948,962.267725,8586.388927
639.041051,842.705048,-0.000000,9104.533087
639.041367,76.609550,-592.164754,9770.718434
639.041683,0.000000,-1036.288319,9918.759623
639.041999,0.000000,-888.247130,10584.944971
639.042314,-229.828649,-666.185348,10658.965565
639.042630,-536.266849,-592.164754,10658.965565
639.042946,-383.047749,-592.164754,10658.965565
639.043262,-383.047749,-0.000000,10066.800811
639.043577,-536.266849,592.164754,9918.759623
639.043893,-153.219100,1036.288319,9104.533087
639.044209,995.924147,666.185348,8734.430116
639.044525,842.705048,518.144159,8808.450710
639.044841,842.705048,-296.082377,8364.327145
639.045156,459.657299,-1110.308913,8808.450710
639.045472,229.828649,-1702.473667,9770.718434
639.045788,76.609550,-1850.514855,9918.759623
639.046104,153.219100,-1184.329507,10362.883188
639.046419,229.828649,-666.185348,10140.821405
639.046735,306.438199,-740.205942,10140.821405
639.047051,0.000000,-296.082377,9474.636058
639.047367,383.047749,-0.000000,9696.697840
639.047683,689.485948,222.061783,8882.471304
639.047998,1072.533697,962.267725,8586.388927
639.048314,1225.752797,592.164754,7624.121203
639.048630,1378.971896,-222.061783,7920.203579
639.048946,1378.971896,-962.267725,7772.162391
639.049261,459.657299,-1406.391290,9030.512492
639.049577,459.657299,-1702.473667,9252.574275
639.049893,76.609550,-1554.432478,9844.739029
639.050209,76.609550,-1480.411884,10214.842000
639.050525,0.000000,-1628.453072,9992.780217
639.050840,-306.438199,-1628.453072,9696.697840
639.051156,0.000000,-1184.329507,9844.739029
639.051472,0.000000,-592.164754,9400.615463
639.051788,459.657299,-0.000000,8808.450710
639.052103,842.705048,518.144159,8216.285956
639.052419,1608.800546,444.123565,7846.182985
639.052735,1302.362347,-518.144159,8364.327145
639.053051,1072.533697,-1110.308913,8512.368333
639.053367,1072.533697,-1850.514855,8882.471304
639.053682,766.095498,-1628.453072,9696.697840
639.053998,995.924147,-1554.432478,10214.842000
639.054314,766.095498,-1110.308913,10140.821405
639.054630,1532.190996,-962.267725,10288.862594
639.054945,459.657299,-296.082377,9844.739029
639.055261,229.828649,666.185348,9400.615463
639.055577,766.095498,666.185348,8882.471304
639.055893,842.705048,962.267725,9030.512492
639.056209,689.485948,592.164754,8586.388927
639.056524,842.705048,222.061783,8882.471304
639.056840,612.876398,-518.144159,8956.491898
639.057156,153.219100,-1258.350101,9918.759623
639.057472,0.000000,-1036.288319,10066.800811
639.057787,-383.047749,-1036.288319,10288.862594
639.058103,-153.219100,-592.164754,10807.006753
639.058419,-153.219100,-444.123565,11029.068536
639.058735,-536.266849,-74.020594,10584.944971
639.059051,229.828649,518.144159,10288.862594
639.059366,0.000000,888.247130,9918.759623
639.059682,229.828649,1258.350101,9252.574275
639.059998,536.266849,1036.288319,8882.471304
639.060314,612.876398,740.205942,8364.327145
639.060629,536.266849,148.041188,8882.471304
639.060945,459.657299,-592.164754,9474.636058
639.061261,0.000000,-814.226536,9844.739029
639.061577,229.828649,-444.123565,10288.862594
639.061893,0.000000,-444.123565,10510.924376
639.062208,0.000000,-0.000000,10881.027347
639.062524,-229.828649,-0.000000,10140.821405
639.062840,-229.828649,296.082377,10140.821405
639.063156,-459.657299,1110.308913,9696.697840
639.063472,153.219100,1110.308913,9474.636058
639.063787,689.485948,1702.473667,8956.491898
639.064103,536.266849,1110.308913,8512.368333
639.064419,766.095498,370.102971,8586.388927
639.064735,459.657299,-148.041188,8586.388927
639.065050,229.828649,-740.205942,9622.677246
639.065366,0.000000,-1036.288319,9918.759623
639.065682,0.000000,-370.102971,10362.883188
639.065998,-383.047749,-666.185348,10140.821405
639.066314,-536.266849,-666.185348,10362.883188
639.066629,-383.047749,-666.185348,10214.842000
639.066945,-306.438199,-370.102971,9918.759623
639.067261,0.000000,-0.000000,9474.636058
639.067577,306.438199,592.164754,8882.471304
639.067892,612.876398,962.267725,8512.368333
639.068208,1072.533697,148.041188,8216.285956
639.068524,919.314598,-370.102971,8438.347739
639.068840,919.314598,-740.205942,8808.450710
639.069156,995.924147,-1184.329507,9178.553681
639.069471,766.095498,-1036.288319,9548.656652
639.069787,919.314598,-962.267725,9918.759623
639.070103,536.266849,-370.102971,9992.780217
639.070419,1072.533697,-222.061783,9622.677246
639.070734,995.924147,296.082377,9548.656652
639.071050,995.924147,592.164754,9326.594869
639.071366,1225.752797,888.247130,9030.512492
639.071682,1532.190996,740.205942,8364.327145
639.071998,1532.190996,666.185348,8290.306550
639.072313,1608.800546,370.102971,8512.368333
639.072629,1072.533697,-666.185348,8882.471304
639.072945,229.828649,-1110.308913,9696.697840
639.073261,0.000000,-1184.329507,10288.862594
639.073576,76.609550,-1184.329507,10436.903782
639.073892,0.000000,-592.164754,10362.883188
639.074208,0.000000,-740.205942,10584.944971
639.074524,0.000000,-518.144159,10436.903782
639.074840,153.219100,-370.102971,9844.739029
639.075155,0.000000,888.247130,9622.677246
639.075471,919.314598,1406.391290,9030.512492
639.075787,1302.362347,1406.391290,8660.409521
639.076103,1302.362347,740.205942,8290.306550
639.076418,1302.362347,-222.061783,8512.368333
639.076734,995.924147,-1184.329507,9622.677246
639.077050,1072.533697,-1184.329507,9918.759623
639.077366,612.876398,-888.247130,9992.780217
639.077682,689.485948,-222.061783,10658.965565
639.077997,459.657299,-444.123565,10658.965565
639.078313,306.438199,-74.020594,10362.883188
639.078629,0.000000,444.123565,9844.739029
639.078945,0.000000,888.247130,9548.656652
639.079260,0.000000,666.185348,9252.574275
639.079576,689.485948,666.185348,9326.594869
639.079892,536.266849,518.144159,8882.471304
639.080208,153.219100,-370.102971,8808.450710
639.080524,0.000000,-888.247130,9030.512492
639.080839,-153.219100,-1332.370696,10288.862594
639.081155,-459.657299,-814.226536,10066.800811
639.081471,-766.095498,-1036.288319,9992.780217
639.081787,-612.876398,-1036.288319,10140.821405
639.082102,-229.828649,-888.247130,10436.903782
639.082418,-306.438199,-666.185348,9622.677246
639.082734,-459.657299,-0.000000,9770.718434
639.083050,0.000000,444.123565,9104.533087
639.083366,229.828649,666.185348,8660.409521
639.083681,536.266849,740.205942,8364.327145
639.083997,689.485948,370.102971,8068.244768
639.084313,689.485948,-444.123565,8438.347739
639.084629,306.438199,-1332.370696,9178.553681
639.084944,76.609550,-1480.411884,9400.615463
639.085260,76.609550,-1184.329507,9844.739029
639.085576,0.000000,-814.226536,9918.759623
639.085892,153.219100,-518.144159,9918.759623
639.086208,76.609550,-148.041188,9992.780217
639.086523,0.000000,148.041188,9326.594869
639.086839,76.609550,518.144159,9474.636058
639.087155,995.924147,888.247130,9178.553681
639.087471,1072.533697,592.164754,8586.388927
639.087786,1608.800546,518.144159,8142.265362
639.088102,1378.971896,-0.000000,8290.306550
639.088418,995.924147,-1036.288319,8882.471304
639.088734,383.047749,-1406.391290,9326.594869
639.089050,612.876398,-1110.308913,9918.759623
639.089365,612.876398,-814.226536,10140.821405
639.089681,689.485948,-814.226536,10140.821405
639.089997,766.095498,-814.226536,10288.862594
639.090313,306.438199,-444.123565,9918.759623
639.090628,306.438199,-296.082377,9992.780217
639.090944,766.095498,740.205942,9400.615463
639.091260,995.924147,666.185348,8734.430116
639.091576,1378.971896,814.226536,8660.409521
639.091892,1532.190996,-0.000000,8512.368333
639.092207,1302.362347,-444.123565,8882.471304
639.092523,995.924147,-1184.329507,9770.718434
639.092839,766.095498,-1332.370696,9992.780217
639.093155,766.095498,-1184.329507,10510.924376
639.093470,1072.533697,-370.102971,10732.986159
639.093786,612.876398,-518.144159,10510.924376
639.094102,536.266849,-0.000000,10214.842000
639.094418,383.047749,814.226536,9770.718434
639.094734,842.705048,666.185348,9104.533087
639.095049,995.924147,1184.329507,9104.533087
639.095365,1072.533697,1110.308913,8512.368333
639.095681,1302.362347,518.144159,8512.368333
639.095997,1225.752797,-0.000000,8808.450710
639.096312,76.609550,-592.164754,9400.615463
639.096628,0.000000,-518.144159,9622.677246
639.096944,-153.219100,-814.226536,10140.821405
639.097260,-229.828649,-666.185348,10584.944971
639.097576,-766.095498,-592.164754,10732.986159
639.097891,-995.924147,-1258.350101,10658.965565
639.098207,-842.705048,-592.164754,10362.883188
639.098523,-995.924147,-222.061783,10066.800811
639.098838,-153.219100,592.164754,9326.594869
639.099154,612.876398,888.247130,8734.430116
639.099470,76.609550,518.144159,8660.409521
639.099785,842.705048,296.082377,8290.306550
639.100101,459.657299,-444.123565,8734.430116
639.100417,153.219100,-1036.288319,9622.677246
639.100732,0.000000,-1258.350101,9770.718434
639.101048,229.828649,-888.247130,9844.739029
639.101364,0.000000,-666.185348,9992.780217
639.101680,0.000000,-518.144159,9918.759623
639.101995,0.000000,-74.020594,9770.718434
639.102311,0.000000,222.061783,9400.615463
639.102627,76.609550,962.267725,8882.471304
639.102942,306.438199,962.267725,8660.409521
639.103258,689.485948,962.267725,8586.388927
639.103574,842.705048,-74.020594,8364.327145
639.103889,536.266849,-444.123565,8660.409521
639.104205,0.000000,-1258.350101,9252.574275
639.104521,-612.876398,-1776.494261,9548.656652
639.104836,-459.657299,-1406.391290,9992.780217
639.105152,-766.095498,-888.247130,10214.842000
639.105468,-842.705048,-814.226536,10288.862594
639.105783,-229.828649,-814.226536,9992.780217
639.106099,-229.828649,-222.061783,9844.739029
639.106415,-306.438199,222.061783,9474.636058
639.106730,919.314598,1036.288319,8956.491898
639.107046,919.314598,1184.329507,8586.388927
639.107362,1302.362347,1036.288319,8290.306550
639.107677,1455.581446,222.061783,8216.285956
639.107993,1608.800546,-222.061783,8734.430116
639.108309,919.314598,-1036.288319,9474.636058
639.108624,842.705048,-962.267725,9696.697840
639.108940,995.924147,-962.267725,10288.862594
639.109256,919.314598,-592.164754,10436.903782
639.109571,919.314598,-592.164754,10140.821405
639.109887,766.095498,-0.000000,10288.862594
639.110203,459.657299,666.185348,9696.697840
639.110519,919.314598,1036.288319,9474.636058
639.110834,1378.971896,1554.432478,9104.533087
639.111150,1532.190996,1332.370696,8660.409521
639.111466,1532.190996,740.205942,8364.327145
639.111781,1378.971896,-296.082377,9030.512492
639.112097,995.924147,-1332.370696,9622.677246
639.112413,459.657299,-1406.391290,10288.862594
639.112728,766.095498,-1480.411884,10362.883188
639.113044,306.438199,-814.226536,10658.965565
639.113360,459.657299,-444.123565,10510.924376
639.113675,76.609550,-296.082377,10214.842000
639.113991,0.000000,-0.000000,9770.718434
639.114307,0.000000,518.144159,9844.739029
639.114622,229.828649,666.185348,9030.512492
639.114938,919.314598,592.164754,8586.388927
639.115254,1072.533697,444.123565,8364.327145
639.115569,536.266849,-444.123565,8586.388927
639.115885,383.047749,-740.205942,9474.636058
639.116201,229.828649,-1332.370696,9622.677246
639.116516,229.828649,-888.247130,10288.862594
639.116832,306.438199,-370.102971,10288.862594
639.117148,0.000000,-222.061783,10140.821405
639.117463,0.000000,-0.000000,10288.862594
639.117779,153.219100,444.123565,9770.718434
639.118095,0.000000,1110.308913,9548.656652
639.118410,229.828649,1480.411884,9030.512492
639.118726,536.266849,1480.411884,8438.347739
639.119042,919.314598,1110.308913,8364.327145
639.119357,842.705048,518.144159,8586.388927
639.119673,229.828649,-222.061783,9030.512492
639.119989,0.000000,-1110.308913,9622.677246
639.120305,-229.828649,-1406.391290,10066.800811
639.120620,-612.876398,-1036.288319,10362.883188
639.120936,-612.876398,-740.205942,10288.862594
639.121252,-766.095498,-518.144159,10362.883188
639.121567,-612.876398,-370.102971,9918.759623
639.121883,-766.095498,-74.020594,9918.759623
639.122199,-612.876398,-0.000000,9326.594869
639.122514,229.828649,518.144159,9326.594869
639.122830,306.438199,370.102971,8586.388927
639.123146,689.485948,296.082377,8586.388927
639.123461,842.705048,-370.102971,8290.306550
639.123777,842.705048,-814.226536,8808.450710
639.124093,612.876398,-1258.350101,9400.615463
639.124408,459.657299,-1036.288319,9400.615463
639.124724,842.705048,-1110.308913,9918.759623
639.125040,689.485948,-1554.432478,9770.718434
639.125355,383.047749,-888.247130,10140.821405
639.125671,0.000000,-814.226536,9696.697840
639.125987,229.828649,-0.000000,9252.574275
639.126302,383.047749,444.123565,9104.533087
639.126618,766.095498,370.102971,8660.409521
639.126934,919.314598,444.123565,8512.368333
639.127249,1149.143247,-0.000000,8586.388927
639.127565,689.485948,-888.247130,8586.388927
639.127881,536.266849,-1332.370696,9474.636058
639.128196,919.314598,-1480.411884,9844.739029
639.128512,536.266849,-814.226536,10066.800811
639.128828,76.609550,-888.247130,10140.821405
639.129144,76.609550,-592.164754,10288.862594
639.129459,229.828649,-740.205942,10362.883188
639.129775,383.047749,-296.082377,9844.739029
639.130091,383.047749,518.144159,9400.615463
639.130406,919.314598,962.267725,9030.512492
639.130722,1378.971896,888.247130,8660.409521
639.131038,1149.143247,592.164754,8438.347739
639.131353,1685.410096,-148.041188,9030.512492
639.131669,1072.533697,-518.144159,9400.615463
639.131985,536.266849,-962.267725,9696.697840
639.132300,689.485948,-1036.288319,10288.862594
639.132616,1378.971896,-814.226536,10436.903782
639.132932,536.266849,-592.164754,10658.965565
639.133247,689.485948,-370.102971,10436.903782
639.133563,306.438199,296.082377,9770.718434
639.133879,536.266849,592.164754,9696.697840
639.134194,1149.143247,1258.350101,9326.594869
639.134510,995.924147,1406.391290,8734.430116
639.134826,1302.362347,1110.308913,8882.471304
639.135141,1455.581446,296.082377,8586.388927
639.135457,1072.533697,-444.123565,9030.512492
639.135773,306.438199,-1110.308913,9548.656652
639.136088,306.438199,-1184.329507,9918.759623
639.136404,0.000000,-1110.308913,9992.780217
639.136720,0.000000,-666.185348,10140.821405
639.137035,0.000000,-1036.288319,10288.862594
639.137351,-459.657299,-740.205942,10214.842000
639.137667,-612.876398,-74.020594,9844.739029
639.137983,-689.485948,592.164754,9400.615463
639.138298,0.000000,518.144159,8956.491898
639.138614,0.000000,740.205942,8660.409521
639.138930,0.000000,148.041188,8734.430116
639.139245,229.828649,-222.061783,8734.430116
639.139561,76.609550,-1036.288319,9252.574275
639.139877,-153.219100,-1036.288319,9474.636058
639.140192,-306.438199,-814.226536,10436.903782
639.140508,-229.828649,-296.082377,10510.924376
639.140824,153.219100,-592.164754,9696.697840
639.141139,0.000000,-518.144159,9844.739029
639.141455,0.000000,-0.000000,9696.697840
639.141771,689.485948,296.082377,9474.636058
639.142086,612.876398,1184.329507,9030.512492
639.142402,1149.143247,1406.391290,8364.327145
639.142718,1149.143247,888.247130,8290.306550
639.143033,689.485948,296.082377,8586.388927
639.143349,383.047749,-740.205942,8956.491898
639.143665,0.000000,-1184.329507,9696.697840
639.143980,0.000000,-1258.350101,10214.842000
639.144296,-383.047749,-962.267725,10584.944971
639.144612,-306.438199,-740.205942,10436.903782
639.144927,0.000000,-888.247130,10362.883188
639.145243,-153.219100,-592.164754,10288.862594
639.145559,-306.438199,-74.020594,9992.780217
639.145874,76.609550,370.102971,9326.594869
639.146190,1302.362347,888.247130,9104.533087
639.146506,1532.190996,518.144159,8290.306550
639.146821,1455.581446,518.144159,8142.265362
639.147137,1838.629195,-0.000000,8438.347739
639.147453,1149.143247,-962.267725,9178.553681
639.147769,1302.362347,-1332.370696,9474.636058
639.148084,766.095498,-814.226536,9770.718434
639.148400,919.314598,-666.185348,9992.780217
639.148716,1149.143247,-518.144159,10214.842000
639.149031,536.266849,-444.123565,9992.780217
639.149347,459.657299,-0.000000,9474.636058
639.149663,383.047749,666.185348,9622.677246
639.149978,536.266849,1184.329507,9178.553681
639.150294,919.314598,1332.370696,8808.450710
639.150610,1225.752797,592.164754,8808.450710
639.150925,1225.752797,148.041188,8734.430116
639.151241,919.314598,-444.123565,8956.491898
639.151557,919.314598,-1110.308913,9844.739029
639.151872,689.485948,-1184.329507,10140.821405
639.152188,689.485948,-592.164754,10510.924376
639.152504,383.047749,-370.102971,10214.842000
639.152819,306.438199,-148.041188,10362.883188
639.153135,0.000000,-74.020594,10140.821405
639.153451,0.000000,518.144159,9844.739029
639.153766,842.705048,962.267725,9622.677246
639.154082,1149.143247,1110.308913,9030.512492
639.154398,1302.362347,1036.288319,8512.368333
639.154713,1225.752797,518.144159,8364.327145
639.155029,1072.533697,-148.041188,8734.430116
639.155345,383.047749,-814.226536,9474.636058
639.155660,383.047749,-1110.308913,9992.780217
639.155976,153.219100,-888.247130,10214.842000
639.156292,76.609550,-444.123565,10362.883188
639.156608,0.000000,-296.082377,10658.965565
639.156923,-306.438199,-666.185348,10288.862594
639.157239,-766.095498,74.020594,9844.739029
639.157555,0.000000,888.247130,9400.615463
639.157870,459.657299,1110.308913,9030.512492
639.158186,766.095498,1258.350101,8438.347739
639.158502,995.924147,592.164754,8438.347739
639.158817,612.876398,-0.000000,8512.368333
639.159133,306.438199,-888.247130,8956.491898
639.159449,0.000000,-1406.391290,9474.636058
639.159764,-229.828649,-1110.308913,9918.759623
639.160080,-536.266849,-740.205942,10140.821405
639.160396,-612.876398,-740.205942,9918.759623
639.160711,-383.047749,-888.247130,9992.780217
639.161027,-306.438199,-370.102971,9992.780217
639.161343,-842.705048,-296.082377,9918.759623
639.161658,-383.047749,296.082377,8956.491898
639.161974,153.219100,222.061783,9252.574275
639.162290,383.047749,-0.000000,8586.388927
639.162605,306.438199,-148.041188,8364.327145
639.162921,536.266849,-1110.308913,8956.491898
639.163237,76.609550,-1184.329507,9770.718434
639.163552,153.219100,-1184.329507,9474.636058
639.163868,153.219100,-1110.308913,9548.656652
639.164184,153.219100,-888.247130,9992.780217
639.164499,383.047749,-1332.370696,10584.944971
639.164815,0.000000,-814.226536,9844.739029
639.165131,153.219100,-148.041188,9696.697840
639.165447,229.828649,296.082377,9178.553681
639.165762,919.314598,666.185348,9030.512492
639.166078,995.924147,740.205942,8586.388927
639.166394,1149.143247,444.123565,8364.327145
639.166709,842.705048,-370.102971,8512.368333
639.167025,383.047749,-1036.288319,8882.471304
639.167341,766.095498,-1554.432478,9844.739029
639.167656,383.047749,-1184.329507,10288.862594
639.167972,766.095498,-888.247130,10362.883188
639.168288,306.438199,-888.247130,10140.821405
639.168603,229.828649,-740.205942,10214.842000
639.168919,306.438199,-592.164754,10140.821405
639.169235,536.266849,-0.000000,9548.656652
639.169550,536.266849,740.205942,9252.574275
639.169866,1302.362347,740.205942,8956.491898
639.170182,1378.971896,370.102971,8438.347739
639.170497,1532.190996,-148.041188,8586.388927
639.170813,1302.362347,-740.205942,8882.471304
639.171129,995.924147,-1036.288319,9474.636058
639.171444,919.314598,-1184.329507,9770.718434
639.171760,842.705048,-888.247130,10214.842000
639.172076,689.485948,-814.226536,9992.780217
639.172391,919.314598,-814.226536,9992.780217
639.172707,306.438199,-0.000000,9992.780217
639.173023,383.047749,740.205942,9696.697840
639.173338,689.485948,1110.308913,9178.553681
639.173654,1302.362347,1332.370696,8364.327145
639.173970,1455.581446,1036.288319,8438.347739
639.174285,1302.362347,148.041188,8734.430116
639.174601,1225.752797,-592.164754,8660.409521
639.174917,306.438199,-1184.329507,9548.656652
639.175233,536.266849,-1184.329507,9918.759623
639.175548,0.000000,-740.205942,10362.883188
639.175864,-383.047749,-148.041188,9918.759623
639.176180,-383.047749,-518.144159,10288.862594
639.176495,-229.828649,-148.041188,10510.924376
639.176811,-766.095498,-0.000000,10140.821405
639.177127,-306.438199,-0.000000,9696.697840
639.177442,76.609550,296.082377,9474.636058
639.177758,536.266849,1036.288319,8882.471304
639.178074,689.485948,592.164754,8586.388927
639.178389,689.485948,-0.000000,8438.347739
639.178705,536.266849,-444.123565,8882.471304
639.179021,153.219100,-444.123565,9474.636058
639.179336,383.047749,-444.123565,9770.718434
639.179652,536.266849,-370.102971,10140.821405
639.179968,76.609550,-370.102971,9992.780217
639.180283,153.219100,-814.226536,10066.800811
639.180599,153.219100,-0.000000,10214.842000
639.180915,0.000000,444.123565,9918.759623
639.181230,-383.047749,740.205942,9178.553681
639.181546,612.876398,962.267725,9030.512492
639.181862,459.657299,888.247130,8734.430116
639.182177,689.485948,592.164754,8290.306550
639.182493,459.657299,-74.020594,8734.430116
639.182809,229.828649,-1110.308913,9400.615463
639.183124,0.000000,-1332.370696,9918.759623
639.183440,0.000000,-1258.350101,10140.821405
639.183756,0.000000,-814.226536,10214.842000
639.184072,-229.828649,-814.226536,10362.883188
639.184387,0.000000,-592.164754,10362.883188
639.184703,0.000000,-518.144159,9696.697840
639.185019,0.000000,222.061783,9548.656652
639.185334,689.485948,962.267725,9104.533087
639.185650,995.924147,888.247130,8586.388927
639.185966,1302.362347,444.123565,8290.306550
639.186281,1225.752797,-0.000000,8364.327145
639.186597,919.314598,-740.205942,8808.450710
639.186913,919.314598,-1036.288319,9770.718434
639.187228,842.705048,-1184.329507,10214.842000
639.187544,536.266849,-666.185348,10214.842000
639.187860,689.485948,-814.226536,10066.800811
639.188175,612.876398,-666.185348,9770.718434
639.188491,153.219100,-0.000000,9770.718434
639.188807,536.266849,148.041188,9548.656652
639.189122,689.485948,962.267725,9178.553681
639.189438,1149.143247,1110.308913,8956.491898
639.189754,1072.533697,592.164754,8364.327145
639.190069,1378.971896,-0.000000,8290.306550
639.190385,995.924147,-962.267725,8882.471304
639.190701,766.095498,-1554.432478,9844.739029
639.191016,459.657299,-1554.432478,9844.739029
639.191332,459.657299,-1036.288319,10140.821405
639.191648,76.609550,-814.226536,10436.903782
639.191963,0.000000,-740.205942,10436.903782
639.192279,76.609550,-296.082377,9918.759623
639.192595,0.000000,370.102971,9696.697840
639.192910,229.828649,370.102971,9474.636058
639.193226,689.485948,666.185348,8956.491898
639.193542,842.705048,740.205942,8512.368333
639.193858,1225.752797,518.144159,8364.327145
639.194173,1149.143247,-0.000000,8734.430116
639.194489,842.705048,-518.144159,9252.574275
639.194805,0.000000,-1036.288319,9474.636058
639.195120,229.828649,-814.226536,10066.800811
639.195436,383.047749,-518.144159,10214.842000
639.195752,153.219100,-370.102971,10140.821405
639.196067,0.000000,-444.123565,9918.759623
639.196383,0.000000,-0.000000,9770.718434
639.196699,0.000000,444.123565,9474.636058
639.197015,383.047749,888.247130,9178.553681
639.197331,612.876398,1036.288319,8956.491898
639.197646,842.705048,962.267725,8512.368333
639.197962,536.266849,-0.000000,8290.306550
639.198278,383.047749,-444.123565,8808.450710
639.198594,76.609550,-740.205942,9622.677246
639.198910,-306.438199,-1036.288319,10140.821405
639.199225,-383.047749,-666.185348,10436.903782
639.199541,-306.438199,-592.164754,10214.842000
639.199857,-536.266849,-592.164754,10658.965565
639.200173,-306.438199,-296.082377,10436.903782
639.200489,-306.438199,296.082377,9622.677246
639.200804,383.047749,518.144159,9474.636058
639.201120,306.438199,740.205942,9178.553681
639.201436,689.485948,740.205942,8808.450710
639.201752,1072.533697,296.082377,8512.368333
639.202068,689.485948,-296.082377,8734.430116
639.202383,459.657299,-962.267725,9548.656652
639.202699,229.828649,-1036.288319,9696.697840
639.203015,536.266849,-592.164754,9918.759623
639.203331,229.828649,-222.061783,10436.903782
639.203647,76.609550,-666.185348,10436.903782
639.203962,76.609550,-592.164754,10584.944971
639.204278,153.219100,-0.000000,9844.739029
639.204594,76.609550,222.061783,9548.656652
639.204910,689.485948,740.205942,9104.533087
639.205226,766.095498,1184.329507,8512.368333
639.205541,1378.971896,370.102971,8660.409521
639.205857,1378.971896,-74.020594,8660.409521
639.206173,689.485948,-814.226536,9030.512492
639.206489,612.876398,-1554.432478,9030.512492
639.206805,842.705048,-1406.391290,9992.780217
639.207120,842.705048,-1184.329507,10214.842000
639.207436,306.438199,-740.205942,9770.718434
639.207752,76.609550,-1036.288319,9918.759623
639.208068,-536.266849,-814.226536,10066.800811
639.208383,-229.828649,-296.082377,9474.636058
639.208699,0.000000,-148.041188,9474.636058
639.209015,459.657299,-0.000000,9104.533087
639.209331,842.705048,222.061783,8734.430116
639.209647,842.705048,-74.020594,8438.347739
639.209962,919.314598,-592.164754,8808.450710
639.210278,689.485948,-1406.391290,9030.512492
639.210594,766.095498,-666.185348,9474.636058
639.210910,766.095498,-740.205942,9474.636058
639.211226,459.657299,-296.082377,9992.780217
639.211541,612.876398,-518.144159,10140.821405
639.211857,459.657299,-888.247130,9992.780217
639.212173,306.438199,-148.041188,9622.677246
639.212489,536.266849,444.123565,9474.636058
639.212805,919.314598,740.205942,9104.533087
639.213120,1455.581446,1036.288319,8512.368333
639.213436,1455.581446,814.226536,8364.327145
639.213752,1149.143247,444.123565,8586.388927
639.214068,612.876398,-740.205942,8512.368333
639.214384,76.609550,-962.267725,9474.636058
639.214699,229.828649,-888.247130,10214.842000
639.215015,0.000000,-888.247130,10214.842000
639.215331,-383.047749,-888.247130,10288.862594
639.215647,-536.266849,-1184.329507,10510.924376
639.215963,-536.266849,-962.267725,10140.821405
639.216278,-842.705048,-444.123565,9992.780217
639.216594,-229.828649,222.061783,9474.636058
639.216910,229.828649,592.164754,9104.533087
639.217226,536.266849,814.226536,8586.388927
639.217542,766.095498,370.102971,8216.285956
639.217857,536.266849,-296.082377,8660.409521
639.218173,612.876398,-1110.308913,9178.553681
639.218489,536.266849,-1036.288319,9622.677246
639.218805,536.266849,-888.247130,9992.780217
639.219121,383.047749,-148.041188,10955.047942
639.219436,536.266849,-370.102971,10510.924376
639.219752,306.438199,-370.102971,10140.821405
639.220068,153.219100,370.102971,9622.677246
639.220384,383.047749,962.267725,9474.636058
639.220700,842.705048,1036.288319,9178.553681
639.221015,1302.362347,1258.350101,8956.491898
639.221331,1225.752797,962.267725,8290.306550
639.221647,842.705048,-0.000000,8734.430116
639.221963,536.266849,-592.164754,9104.533087
639.222279,153.219100,-1036.288319,9992.780217
639.222594,0.000000,-1036.288319,10288.862594
639.222910,-229.828649,-1110.308913,10362.883188
639.223226,0.000000,-1184.329507,10732.986159
639.223542,0.000000,-1036.288319,10658.965565
639.223858,-306.438199,-888.247130,10584.944971
639.224173,76.609550,-0.000000,9770.718434
639.224489,306.438199,888.247130,9030.512492
639.224805,1149.143247,1184.329507,8660.409521
639.225121,1685.410096,1036.288319,8142.265362
639.225437,1532.190996,296.082377,8290.306550
639.225752,1225.752797,-370.102971,8512.368333
639.226068,1149.143247,-962.267725,9104.533087
639.226384,612.876398,-1480.411884,9548.656652
639.226700,689.485948,-888.247130,10140.821405
639.227016,459.657299,-740.205942,9918.759623
639.227331,306.438199,-962.267725,10362.883188
639.227647,-153.219100,-666.185348,10214.842000
639.227963,229.828649,-0.000000,9474.636058
639.228279,306.438199,518.144159,9400.615463
639.228595,842.705048,962.267725,9104.533087
639.228910,1225.752797,1406.391290,8142.265362
639.229226,1378.971896,814.226536,8068.244768
639.229542,1302.362347,222.061783,8290.306550
639.229858,766.095498,-518.144159,8734.430116
639.230174,536.266849,-814.226536,9474.636058
639.230489,306.438199,-814.226536,9696.697840
639.230805,229.828649,-666.185348,10288.862594
639.231121,76.609550,-296.082377,11103.089130
639.231437,0.000000,-592.164754,10362.883188
639.231753,0.000000,-148.041188,10584.944971
639.232068,0.000000,518.144159,9622.677246
639.232384,459.657299,1258.350101,9474.636058
639.232700,766.095498,1998.556043,8956.491898
639.233016,842.705048,1702.473667,8142.265362
639.233331,1225.752797,962.267725,8364.327145
639.233647,995.924147,-370.102971,8956.491898
639.233963,306.438199,-1258.350101,9696.697840
639.234279,536.266849,-1702.473667,10214.842000
639.234595,383.047749,-1480.411884,10658.965565
639.234910,536.266849,-888.247130,10510.924376
639.235226,383.047749,-814.226536,10436.903782
639.235542,842.705048,-222.061783,9918.759623
639.235858,689.485948,222.061783,9770.718434
639.236174,995.924147,962.267725,9104.533087
639.236489,1072.533697,1036.288319,8734.430116
639.236805,1072.533697,1036.288319,8586.388927
639.237121,1072.533697,370.102971,8512.368333
639.237437,842.705048,-592.164754,8586.388927
639.237753,153.219100,-1036.288319,9400.615463
639.238068,0.000000,-1998.556043,9696.697840
639.238384,-459.657299,-1776.494261,10214.842000
639.238700,-383.047749,-1850.514855,10584.944971
639.239016,-689.485948,-1998.556043,10362.883188
639.239332,-1149.143247,-1776.494261,10732.986159
639.239647,-842.705048,-814.226536,10214.842000
639.239963,-689.485948,-0.000000,9622.677246
639.240279,-536.266849,592.164754,8956.491898
639.240595,689.485948,666.185348,8586.388927
639.240911,383.047749,148.041188,8364.327145
639.241226,612.876398,-444.123565,8290.306550
639.241542,536.266849,-1110.308913,8956.491898
639.241858,536.266849,-1776.494261,9770.718434
639.242174,153.219100,-1776.494261,9622.677246
639.242490,842.705048,-962.267725,9992.780217
639.242805,306.438199,-370.102971,9770.718434
639.243121,459.657299,-0.000000,10066.800811
639.243437,383.047749,296.082377,9474.636058
639.243753,306.438199,666.185348,9400.615463
639.244069,383.047749,1258.350101,8808.450710
639.244384,1072.533697,1332.370696,8660.409521
639.244700,1302.362347,592.164754,8438.347739
639.245016,1072.533697,-0.000000,8438.347739
639.245332,766.095498,-666.185348,8956.491898
639.245648,306.438199,-2072.576638,10140.821405
639.245963,0.000000,-1480.411884,10066.800811
639.246279,0.000000,-888.247130,9992.780217
639.246595,0.000000,-296.082377,9992.780217
639.246911,0.000000,-0.000000,9918.759623
639.247227,0.000000,-222.061783,9844.739029
639.247542,0.000000,296.082377,9474.636058
639.247858,76.609550,518.144159,9326.594869
639.248174,536.266849,592.164754,8956.491898
639.248490,1072.533697,518.144159,8142.265362
639.248806,1225.752797,666.185348,8364.327145
639.249121,1302.362347,-74.020594,8882.471304
639.249437,1149.143247,-370.102971,8734.430116
639.249753,766.095498,-740.205942,9400.615463
639.250069,689.485948,-296.082377,9622.677246
639.250385,459.657299,-0.000000,9992.780217
639.250700,536.266849,-0.000000,10066.800811
639.251016,689.485948,-222.061783,10140.821405
639.251332,306.438199,-0.000000,9918.759623
639.251648,612.876398,740.205942,10066.800811
639.251964,689.485948,1110.308913,9104.533087
639.252279,1378.971896,1554.432478,8956.491898
639.252595,1302.362347,1702.473667,8512.368333
639.252911,1302.362347,1184.329507,8512.368333
639.253227,842.705048,740.205942,8660.409521
639.253543,229.828649,148.041188,9770.718434
639.253858,-153.219100,-296.082377,9918.759623
639.254174,0.000000,-370.102971,10214.842000
639.254490,-153.219100,-222.061783,10732.986159
639.254806,306.438199,-666.185348,10955.047942
639.255122,-306.438199,-592.164754,10584.944971
639.255437,-459.657299,148.041188,10362.883188
639.255753,-306.438199,962.267725,9992.780217
639.256069,-229.828649,1480.411884,9696.697840
639.256385,612.876398,1628.453072,9104.533087
639.256701,766.095498,1480.411884,8882.471304
639.257016,1072.533697,1036.288319,8882.471304
639.257332,1149.143247,-0.000000,9178.553681
639.257648,995.924147,-814.226536,9844.739029
639.257964,995.924147,-592.164754,9770.718434
639.258279,766.095498,-518.144159,9918.759623
639.258595,612.876398,-370.102971,10140.821405
639.258911,306.438199,-666.185348,10510.924376
639.259227,612.876398,-518.144159,10140.821405
639.259543,0.000000,222.061783,9548.656652
639.259858,153.219100,814.226536,9178.553681
639.260174,612.876398,962.267725,8956.491898
639.260490,689.485948,962.267725,8068.244768
639.260806,306.438199,222.061783,8216.285956
639.261122,612.876398,-962.267725,8512.368333
639.261437,0.000000,-2220.617826,8956.491898
639.261753,-383.047749,-2146.597232,9918.759623
639.262069,-383.047749,-2516.700203,10288.862594
639.262385,-536.266849,-1850.514855,10732.986159
639.262701,-842.705048,-1924.535449,10288.862594
639.263016,-612.876398,-1184.329507,9992.780217
639.263332,-689.485948,-444.123565,9474.636058
639.263648,-536.266849,-0.000000,8734.430116
639.263964,306.438199,592.164754,8438.347739
639.264280,919.314598,962.267725,8364.327145
639.264595,1072.533697,-148.041188,8068.244768
639.264911,842.705048,-1110.308913,8438.347739
639.265227,842.705048,-1776.494261,9178.553681
639.265543,689.485948,-2220.617826,9696.697840
639.265859,229.828649,-1480.411884,9770.718434
639.266174,612.876398,-666.185348,9770.718434
639.266490,459.657299,-518.144159,9844.739029
639.266806,306.438199,-444.123565,9918.759623
639.267122,306.438199,444.123565,9548.656652
639.267438,689.485948,592.164754,8882.471304
639.267753,1072.533697,222.061783,8882.471304
639.268069,1302.362347,222.061783,8586.388927
639.268385,1302.362347,222.061783,8586.388927
639.268701,1149.143247,-148.041188,8660.409521
639.269017,919.314598,-1036.288319,9252.574275
639.269332,383.047749,-1258.350101,9622.677246
639.269648,76.609550,-1036.288319,9992.780217
639.269964,459.657299,-740.205942,10288.862594
639.270280,153.219100,-962.267725,10066.800811
639.270596,153.219100,-888.247130,10140.821405
639.270911,459.657299,-888.247130,9918.759623
639.271227,306.438199,-74.020594,9770.718434
639.271543,766.095498,592.164754,9474.636058
639.271859,1072.533697,888.247130,8882.471304
639.272175,1225.752797,888.247130,8512.368333
639.272490,1302.362347,370.102971,8586.388927
639.272806,1072.533697,-222.061783,8734.430116
639.273122,689.485948,-962.267725,9696.697840
639.273438,153.219100,-1406.391290,9696.697840
639.273754,229.828649,-1258.350101,10362.883188
639.274069,383.047749,-814.226536,10362.883188
639.274385,383.047749,-740.205942,10436.903782
639.274701,536.266849,-518.144159,10584.944971
639.275017,153.219100,222.061783,9770.718434
639.275333,0.000000,740.205942,9548.656652
639.275648,612.876398,1258.350101,9252.574275
639.275964,766.095498,1332.370696,9252.574275
639.276280,766.095498,814.226536,8808.450710
639.276596,689.485948,296.082377,8808.450710
639.276912,153.219100,-74.020594,9178.553681
639.277227,0.000000,-740.205942,9770.718434
639.277543,229.828649,-1036.288319,9992.780217
639.277859,0.000000,-444.123565,10362.883188
639.278175,-459.657299,-370.102971,10288.862594
639.278491,-766.095498,-518.144159,10510.924376
639.278806,-612.876398,-0.000000,10510.924376
639.279122,-995.924147,518.144159,10140.821405
639.279438,-536.266849,1110.308913,9400.615463
639.279754,0.000000,1406.391290,9474.636058
639.280070,459.657299,1628.453072,8586.388927
639.280385,766.095498,888.247130,8364.327145
639.280701,766.095498,-148.041188,8808.450710
639.281017,612.876398,-814.226536,9252.574275
639.281333,383.047749,-1036.288319,9696.697840
639.281649,459.657299,-962.267725,10214.842000
639.281964,383.047749,-1036.288319,10214.842000
639.282280,306.438199,-592.164754,10140.821405
639.282596,153.219100,-148.041188,9918.759623
639.282912,229.828649,444.123565,9400.615463
639.283227,536.266849,888.247130,9178.553681
639.283543,1302.362347,962.267725,8808.450710
639.283859,1455.581446,814.226536,8216.285956
639.284175,1225.752797,370.102971,8438.347739
639.284491,1072.533697,-444.123565,8364.327145
639.284806,689.485948,-1258.350101,8808.450710
639.285122,-153.219100,-2072.576638,9770.718434
639.285438,76.609550,-1702.473667,9770.718434
639.285754,0.000000,-1332.370696,10066.800811
639.286070,-536.266849,-1184.329507,10288.862594
639.286385,0.000000,-1110.308913,10362.883188
639.286701,-383.047749,-888.247130,10066.800811
639.287017,-153.219100,-296.082377,9474.636058
639.287333,76.609550,296.082377,9326.594869
639.287649,689.485948,222.061783,9030.512492
639.287964,689.485948,-0.000000,8734.430116
639.288280,1072.533697,-74.020594,8290.306550
639.288596,1225.752797,-962.267725,8512.368333
639.288912,842.705048,-1406.391290,9400.615463
639.289228,842.705048,-1184.329507,9770.718434
639.289543,919.314598,-888.247130,10288.862594
639.289859,689.485948,-740.205942,9992.780217
639.290175,842.705048,-592.164754,10214.842000
639.290491,689.485948,-296.082377,9992.780217
639.290807,689.485948,-0.000000,9696.697840
639.291122,919.314598,222.061783,9400.615463
639.291438,1225.752797,962.267725,9178.553681
639.291754,1608.800546,888.247130,8660.409521
639.292070,1532.190996,518.144159,8364.327145
639.292386,1455.581446,-0.000000,9104.533087
639.292701,612.876398,-740.205942,9030.512492
639.293017,76.609550,-814.226536,9622.677246
639.293333,153.219100,-1110.308913,10288.862594
639.293649,0.000000,-962.267725,10510.924376
639.293965,0.000000,-1110.308913,10807.006753
639.294280,-459.657299,-1332.370696,10881.027347
639.294596,-536.266849,-814.226536,10288.862594
639.294912,-383.047749,-0.000000,9770.718434
639.295228,76.609550,740.205942,8956.491898
639.295544,766.095498,1036.288319,8956.491898
639.295859,766.095498,666.185348,8586.388927
639.296175,383.047749,296.082377,8438.347739
639.296491,459.657299,-592.164754,8734.430116
639.296807,229.828649,-1332.370696,9622.677246
639.297123,229.828649,-1332.370696,9918.759623
639.297439,459.657299,-888.247130,10066.800811
639.297755,306.438199,-444.123565,9918.759623
639.298070,306.438199,-444.123565,10214.842000
639.298386,76.609550,-0.000000,9918.759623
639.298702,229.828649,370.102971,9474.636058
639.299018,229.828649,962.267725,9548.656652
639.299334,766.095498,1554.432478,8956.491898
639.299649,919.314598,1258.350101,8586.388927
639.299965,995.924147,962.267725,8364.327145
639.300281,459.657299,-0.000000,8512.368333
639.300597,0.000000,-592.164754,8956.491898
639.300912,0.000000,-1258.350101,9844.739029
639.301228,-306.438199,-1184.329507,10140.821405
639.301544,-459.657299,-1036.288319,10584.944971
639.301860,-612.876398,-962.267725,10584.944971
639.302176,-612.876398,-1110.308913,10807.006753
639.302491,-459.657299,-370.102971,10362.883188
639.302807,-536.266849,296.082377,9770.718434
639.303123,76.609550,962.267725,9400.615463
639.303439,1225.752797,1258.350101,8734.430116
639.303754,1072.533697,888.247130,8438.347739
639.304070,1378.971896,-222.061783,8216.285956
639.304386,1072.533697,-1036.288319,8956.491898
639.304702,766.095498,-1628.453072,9696.697840
639.305018,919.314598,-1554.432478,10066.800811
639.305333,689.485948,-1110.308913,10066.800811
639.305649,612.876398,-518.144159,10214.842000
639.305965,459.657299,-518.144159,10140.821405
639.306281,536.266849,-296.082377,9844.739029
639.306596,383.047749,74.020594,9400.615463
639.306912,383.047749,296.082377,9474.636058
639.307228,1149.143247,370.102971,8956.491898
639.307544,1225.752797,222.061783,8364.327145
639.307860,1915.238745,-74.020594,8586.388927
639.308175,1072.533697,-962.267725,8586.388927
639.308491,995.924147,-1110.308913,9104.533087
639.308807,612.876398,-1332.370696,9474.636058
639.309123,76.609550,-1110.308913,9992.780217
639.309438,0.000000,-1110.308913,9992.780217
639.309754,0.000000,-888.247130,10214.842000
639.310070,153.219100,-1258.350101,10288.862594
639.310386,0.000000,-666.185348,9770.718434
639.310702,0.000000,-0.000000,9474.636058
639.311017,0.000000,-0.000000,9030.512492
639.311333,919.314598,814.226536,8882.471304
639.311649,766.095498,740.205942,8660.409521
639.311965,1149.143247,592.164754,8290.306550
639.312280,689.485948,-0.000000,8586.388927
639.312596,919.314598,-666.185348,9178.553681
639.312912,306.438199,-592.164754,9474.636058
639.313228,383.047749,-0.000000,9992.780217
639.313544,306.438199,-148.041188,10066.800811
639.313859,153.219100,-444.123565,10214.842000
639.314175,153.219100,-74.020594,10362.883188
639.314491,-229.828649,740.205942,9622.677246
639.314807,0.000000,1258.350101,9104.533087
639.315122,459.657299,1776.494261,9030.512492
639.315438,766.095498,1776.494261,8660.409521
639.315754,689.485948,1480.411884,8290.306550
639.316070,766.095498,518.144159,8734.430116
639.316386,383.047749,-592.164754,9252.574275
639.316701,153.219100,-1110.308913,9918.759623
639.317017,0.000000,-962.267725,10288.862594
639.317333,76.609550,-740.205942,10584.944971
639.317649,0.000000,-740.205942,10658.965565
639.317964,0.000000,-296.082377,10732.986159
639.318280,0.000000,222.061783,10066.800811
639.318596,-153.219100,1184.329507,9622.677246
639.318912,306.438199,1628.453072,8956.491898
639.319228,766.095498,1850.514855,8882.471304
639.319543,842.705048,814.226536,8290.306550
639.319859,919.314598,-222.061783,8734.430116
639.320175,689.485948,-1332.370696,9178.553681
639.320491,306.438199,-1702.473667,10066.800811
639.320806,306.438199,-1998.556043,10066.800811
639.321122,383.047749,-1110.308913,10140.821405
639.321438,153.219100,-592.164754,10436.903782
639.321754,689.485948,-592.164754,9844.739029
639.322070,0.000000,-148.041188,9696.697840
639.322385,153.219100,222.061783,9474.636058
639.322701,306.438199,222.061783,9030.512492
639.323017,689.485948,370.102971,8734.430116
639.323333,1225.752797,296.082377,8364.327145
639.323648,1149.143247,-0.000000,8512.368333
639.323964,1302.362347,-592.164754,8438.347739
639.324280,229.828649,-1110.308913,9474.636058
639.324596,153.219100,-1406.391290,9918.759623
639.324912,0.000000,-962.267725,10140.821405
639.325227,0.000000,-740.205942,10436.903782
639.325543,0.000000,-1110.308913,10584.944971
639.325859,0.000000,-592.164754,10436.903782
639.326175,153.219100,-296.082377,9844.739029
639.326490,76.609550,740.205942,9326.594869
639.326806,995.924147,1628.453072,8882.471304
639.327122,1149.143247,1850.514855,8142.265362
639.327438,1455.581446,1628.453072,8068.244768
639.327754,766.095498,518.144159,8586.388927
639.328069,995.924147,-296.082377,8882.471304
639.328385,689.485948,-962.267725,9400.615463
639.328701,766.095498,-1036.288319,9992.780217
639.329017,536.266849,-666.185348,9770.718434
639.329332,842.705048,-740.205942,9770.718434
639.329648,459.657299,-518.144159,9918.759623
639.329964,229.828649,-222.061783,9844.739029
639.330280,383.047749,296.082377,8956.491898
639.330596,995.924147,1036.288319,8512.368333
639.330911,919.314598,888.247130,8512.368333
639.331227,1149.143247,592.164754,8068.244768
639.331543,1072.533697,222.061783,8438.347739
639.331859,459.657299,-444.123565,8438.347739
639.332174,306.438199,-1406.391290,9252.574275
639.332490,-229.828649,-1406.391290,9770.718434
639.332806,-306.438199,-1258.350101,9992.780217
639.333122,-459.657299,-962.267725,10436.903782
639.333438,-995.924147,-1406.391290,11103.089130
639.333753,-995.924147,-1628.453072,10807.006753
639.334069,-612.876398,-296.082377,10214.842000
639.334385,-459.657299,444.123565,9326.594869
639.334701,0.000000,1184.329507,9252.574275
639.335016,689.485948,1480.411884,8734.430116
639.335332,995.924147,666.185348,8660.409521
639.335648,842.705048,296.082377,8808.450710
639.335964,766.095498,-444.123565,9400.615463
639.336280,612.876398,-1110.308913,9770.718434
639.336595,612.876398,-888.247130,10436.903782
639.336911,689.485948,-518.144159,10288.862594
639.337227,306.438199,-222.061783,10436.903782
639.337543,229.828649,-0.000000,10510.924376
639.337858,76.609550,370.102971,9992.780217
639.338174,76.609550,370.102971,9770.718434
639.338490,153.219100,1036.288319,9474.636058
639.338806,689.485948,1110.308913,9252.574275
639.339122,766.095498,814.226536,8882.471304
639.339437,766.095498,370.102971,8882.471304
639.339753,612.876398,-296.082377,8882.471304
639.340069,383.047749,-888.247130,9844.739029
639.340385,0.000000,-814.226536,9844.739029
639.340700,229.828649,-518.144159,10436.903782
639.341016,76.609550,-518.144159,10214.842000
639.341332,306.438199,-592.164754,10658.965565
639.341648,76.609550,-148.041188,10066.800811
639.341964,-153.219100,370.102971,9400.615463
639.342279,383.047749,962.267725,8956.491898
639.342595,842.705048,1332.370696,8660.409521
639.342911,1149.143247,814.226536,8068.244768
639.343227,919.314598,518.144159,8290.306550
639.343542,1072.533697,-148.041188,8512.368333
639.343858,766.095498,-962.267725,9326.594869
639.344174,536.266849,-1332.370696,9474.636058
639.344490,383.047749,-1332.370696,9548.656652
639.344806,612.876398,-518.144159,9696.697840
639.345121,689.485948,-296.082377,9844.739029
639.345437,306.438199,-222.061783,9918.759623
639.345753,383.047749,-0.000000,9474.636058
639.346069,383.047749,814.226536,9400.615463
639.346384,766.095498,962.267725,8734.430116
639.346700,1225.752797,1110.308913,8586.388927
639.347016,1455.581446,666.185348,8438.347739
639.347332,1225.752797,-0.000000,8438.347739
639.347648,995.924147,-740.205942,9030.512492
639.347963,536.266849,-1332.370696,9770.718434
639.348279,229.828649,-1110.308913,10214.842000
639.348595,383.047749,-296.082377,10510.924376
639.348911,76.609550,-444.123565,10510.924376
639.349226,229.828649,-148.041188,10658.965565
639.349542,76.609550,-0.000000,10066.800811
639.349858,153.219100,222.061783,9548.656652
639.350174,383.047749,962.267725,9474.636058
639.350490,689.485948,962.267725,9178.553681
639.350805,919.314598,962.267725,8808.450710
639.351121,842.705048,-0.000000,8882.471304
639.351437,1072.533697,-666.185348,9252.574275
639.351753,689.485948,-1258.350101,9844.739029
639.352068,536.266849,-1628.453072,10066.800811
639.352384,689.485948,-1110.308913,10436.903782
639.352700,383.047749,-592.164754,10140.821405
639.353016,383.047749,-592.164754,10214.842000
639.353332,689.485948,-740.205942,9918.759623
639.353647,536.266849,-666.185348,9696.697840
639.353963,153.219100,-0.000000,9474.636058
639.354279,612.876398,222.061783,9104.533087
639.354595,842.705048,148.041188,8808.450710
639.354910,842.705048,-74.020594,8512.368333
639.355226,536.266849,-740.205942,8882.471304
639.355542,-153.219100,-1924.535449,8956.491898
639.355858,-306.438199,-2220.617826,9992.780217
639.356174,-383.047749,-1998.556043,10288.862594
639.356489,-612.876398,-1702.473667,10362.883188
639.356805,-919.314598,-1924.535449,10362.883188
639.357121,-536.266849,-1480.411884,10362.883188
639.357437,-689.485948,-1480.411884,9844.739029
639.357752,-536.266849,-444.123565,9474.636058
639.358068,-383.047749,-74.020594,9178.553681
639.358384,0.000000,-148.041188,8808.450710
639.358700,153.219100,148.041188,8364.327145
639.359016,612.876398,-0.000000,8512.368333
639.359331,612.876398,-888.247130,8660.409521
639.359647,306.438199,-1628.453072,9326.594869
639.359963,0.000000,-1332.370696,9696.697840
639.360279,306.438199,-1184.329507,9844.739029
639.360594,229.828649,-814.226536,10066.800811
639.360910,229.828649,-888.247130,10214.842000
639.361226,76.609550,-740.205942,9696.697840
639.361542,229.828649,-370.102971,9548.656652
639.361857,0.000000,-0.000000,8882.471304
639.362173,229.828649,666.185348,9104.533087
639.362489,995.924147,888.247130,8364.327145
639.362805,1302.362347,814.226536,8216.285956
639.363121,1072.533697,-0.000000,8512.368333
639.363436,919.314598,-888.247130,8586.388927
639.363752,536.266849,-1406.391290,9474.636058
639.364068,306.438199,-1406.391290,9918.759623
639.364384,306.438199,-1406.391290,10436.903782
639.364699,229.828649,-1184.329507,10362.883188
639.365015,536.266849,-592.164754,10214.842000
639.365331,229.828649,-222.061783,9474.636058
639.365647,459.657299,666.185348,9104.533087
639.365963,842.705048,1332.370696,8808.450710
639.366278,1225.752797,1480.411884,8660.409521
639.366594,1378.971896,1258.350101,7994.224174
639.366910,1072.533697,666.185348,8438.347739
639.367226,1685.410096,-296.082377,8734.430116
639.367541,612.876398,-1184.329507,9326.594869
639.367857,842.705048,-1036.288319,10066.800811
639.368173,766.095498,-666.185348,10362.883188
639.368489,612.876398,-0.000000,10436.903782
639.368805,689.485948,370.102971,10658.965565
639.369120,229.828649,296.082377,10288.862594
639.369436,612.876398,962.267725,9770.718434
639.369752,689.485948,1776.494261,9548.656652
639.370068,1072.533697,1998.556043,8882.471304
639.370383,1302.362347,1924.535449,8586.388927
639.370699,1149.143247,1258.350101,8586.388927
639.371015,689.485948,444.123565,9030.512492
639.371331,229.828649,-296.082377,9918.759623
639.371647,0.000000,-740.205942,10288.862594
639.371962,0.000000,-740.205942,10658.965565
639.372278,-459.657299,-296.082377,10955.047942
639.372594,-536.266849,-296.082377,10881.027347
639.372910,-612.876398,-370.102971,10807.006753
639.373225,-536.266849,296.082377,10658.965565
639.373541,-612.876398,666.185348,9918.759623
639.373857,-153.219100,1332.370696,9400.615463
639.374173,229.828649,1406.391290,9104.533087
639.374489,459.657299,888.247130,8882.471304
639.374804,459.657299,-0.000000,8956.491898
639.375120,536.266849,-370.102971,9400.615463
639.375436,459.657299,-962.267725,9918.759623
639.375752,459.657299,-1110.308913,9918.759623
639.376067,383.047749,-814.226536,10214.842000
639.376383,536.266849,-666.185348,10066.800811
639.376699,612.876398,-370.102971,10214.842000
639.377015,383.047749,-370.102971,9696.697840
639.377331,229.828649,148.041188,9252.574275
639.377646,459.657299,296.082377,8956.491898
639.377962,766.095498,666.185348,8512.368333
639.378278,306.438199,518.144159,8438.347739
639.378594,536.266849,-74.020594,8512.368333
639.378909,383.047749,-962.267725,8438.347739
639.379225,0.000000,-1776.494261,9326.594869
639.379541,-536.266849,-2220.617826,9992.780217
639.379857,-306.438199,-2072.576638,10140.821405
639.380173,-383.047749,-1776.494261,10140.821405
639.380488,-383.047749,-1850.514855,10066.800811
639.380804,-383.047749,-1702.473667,9992.780217
639.381120,-153.219100,-1036.288319,9918.759623
639.381436,-306.438199,-148.041188,8882.471304
639.381751,229.828649,-0.000000,8586.388927
639.382067,1072.533697,592.164754,8290.306550
639.382383,1149.143247,-0.000000,7846.182985
639.382699,1608.800546,-740.205942,7624.121203
639.383015,1302.362347,-1480.411884,8438.347739
639.383330,766.095498,-1998.556043,9400.615463
639.383646,995.924147,-1850.514855,9844.739029
639.383962,766.095498,-1480.411884,10436.903782
639.384278,766.095498,-1036.288319,10288.862594
639.384593,689.485948,-1036.288319,10066.800811
639.384909,459.657299,-444.123565,9696.697840
639.385225,383.047749,370.102971,9252.574275
639.385541,1072.533697,962.267725,8956.491898
639.385857,1302.362347,666.185348,8660.409521
639.386172,1378.971896,370.102971,8216.285956
639.386488,1532.190996,-370.102971,8660.409521
639.386804,766.095498,-1258.350101,8956.491898
639.387120,536.266849,-1702.473667,9844.739029
639.387435,76.609550,-2146.597232,10214.842000
639.387751,229.828649,-888.247130,10214.842000
639.388067,76.609550,-740.205942,10140.821405
639.388383,0.000000,-1036.288319,10658.965565
639.388699,0.000000,-1110.308913,10288.862594
639.389014,-229.828649,-666.185348,9918.759623
639.389330,0.000000,148.041188,9326.594869
639.389646,459.657299,592.164754,9030.512492
639.389962,919.314598,814.226536,8734.430116
639.390277,1378.971896,962.267725,8364.327145
639.390593,1225.752797,-0.000000,8660.409521
639.390909,842.705048,-962.267725,9178.553681
639.391225,612.876398,-740.205942,9548.656652
639.391541,383.047749,-444.123565,10140.821405
639.391856,383.047749,-74.020594,10732.986159
639.392172,383.047749,518.144159,10140.821405
639.392488,306.438199,592.164754,10288.862594
639.392804,0.000000,1036.288319,9918.759623
639.393119,-153.219100,1406.391290,9696.697840
639.393435,153.219100,1628.453072,9326.594869
639.393751,306.438199,2220.617826,9104.533087
639.394067,689.485948,1628.453072,8364.327145
639.394383,459.657299,1110.308913,8882.471304
639.394698,153.219100,592.164754,8808.450710
639.395014,-995.924147,-148.041188,9622.677246
639.395330,-536.266849,444.123565,9770.718434
639.395646,-459.657299,666.185348,10140.821405
639.395961,-459.657299,518.144159,10362.883188
639.396277,-536.266849,-0.000000,10510.924376
639.396593,-689.485948,-296.082377,10362.883188
639.396909,-229.828649,444.123565,10140.821405
639.397225,0.000000,1258.350101,9252.574275
639.397540,536.266849,1850.514855,9252.574275
639.397856,689.485948,2368.659014,8956.491898
639.398172,919.314598,1776.494261,8438.347739
639.398488,1149.143247,1110.308913,8438.347739
639.398803,842.705048,-0.000000,9178.553681
639.399119,689.485948,-370.102971,9622.677246
639.399435,1225.752797,-296.082377,10066.800811
639.399751,995.924147,-0.000000,10510.924376
639.400067,612.876398,-222.061783,10362.883188
639.400382,612.876398,-296.082377,10436.903782
639.400698,0.000000,-0.000000,10066.800811
639.401014,0.000000,222.061783,9770.718434
639.401330,153.219100,1036.288319,9622.677246
639.401645,995.924147,962.267725,8956.491898
639.401961,919.314598,518.144159,8660.409521
639.402277,995.924147,-222.061783,8512.368333
639.402593,1072.533697,-1258.350101,8364.327145
639.402908,842.705048,-1702.473667,9548.656652
639.403224,0.000000,-1924.535449,9696.697840
639.403540,229.828649,-1332.370696,10066.800811
639.403856,459.657299,-1036.288319,10066.800811
639.404172,459.657299,-1776.494261,9844.739029
639.404487,383.047749,-1924.535449,10066.800811
639.404803,383.047749,-1184.329507,9622.677246
639.405119,612.876398,-666.185348,9326.594869
639.405435,1225.752797,-74.020594,8882.471304
639.405750,1532.190996,370.102971,8586.388927
639.406066,1302.362347,518.144159,8216.285956
639.406382,1455.581446,-0.000000,8216.285956
639.406698,1378.971896,-444.123565,8808.450710
639.407014,536.266849,-666.185348,9178.553681
639.407329,766.095498,-1258.350101,9992.780217
639.407645,536.266849,-1332.370696,9844.739029
639.407961,383.047749,-1480.411884,10288.862594
639.408277,76.609550,-1406.391290,10510.924376
639.408592,0.000000,-1110.308913,9992.780217
639.408908,383.047749,-74.020594,9326.594869
639.409224,689.485948,1036.288319,9178.553681
639.409540,1149.143247,1258.350101,8586.388927
639.409855,995.924147,1184.329507,7920.203579
639.410171,842.705048,-0.000000,8142.265362
639.410487,842.705048,-666.185348,8586.388927
639.410803,536.266849,-1258.350101,9252.574275
639.411119,76.609550,-1628.453072,9622.677246
639.411434,0.000000,-1332.370696,10066.800811
639.411750,-153.219100,-1184.329507,10066.800811
639.412066,-306.438199,-1406.391290,9918.759623
639.412382,-995.924147,-888.247130,10214.842000
639.412697,-689.485948,-444.123565,10066.800811
639.413013,-536.266849,444.123565,9178.553681
639.413329,76.609550,592.164754,9178.553681
639.413645,153.219100,666.185348,8512.368333
639.413961,306.438199,370.102971,8512.368333
639.414276,306.438199,-592.164754,8808.450710
639.414592,153.219100,-1332.370696,9474.636058
639.414908,-76.609550,-1480.411884,10288.862594
639.415224,153.219100,-1184.329507,10066.800811
639.415539,0.000000,-666.185348,10140.821405
639.415855,229.828649,-296.082377,10362.883188
639.416171,76.609550,-0.000000,10288.862594
639.416487,76.609550,518.144159,9696.697840
639.416802,306.438199,888.247130,9326.594869
639.417118,995.924147,1406.391290,9030.512492
639.417434,1072.533697,1554.432478,8512.368333
639.417750,1149.143247,666.185348,8660.409521
639.418066,842.705048,888.247130,8660.409521
639.418381,383.047749,-0.000000,8734.430116
639.418697,0.000000,-444.123565,9844.739029
639.419013,-536.266849,-518.144159,10288.862594
639.419329,-612.876398,-444.123565,10881.027347
639.419644,-536.266849,-370.102971,10807.006753
639.419960,-842.705048,-518.144159,10881.027347
639.420276,-612.876398,-74.020594,10584.944971
639.420592,0.000000,222.061783,10140.821405
639.420908,153.219100,1110.308913,9400.615463
639.421223,842.705048,1554.432478,9104.533087
639.421539,1378.971896,1554.432478,8364.327145
639.421855,1225.752797,666.185348,8216.285956
639.422171,1072.533697,-296.082377,9104.533087
639.422486,1072.533697,-518.144159,9400.615463
639.422802,1225.752797,-518.144159,9400.615463
639.423118,1225.752797,148.041188,9474.636058
639.423434,1225.752797,296.082377,9770.718434
639.423750,995.924147,-0.000000,9770.718434
639.424065,689.485948,-0.000000,9992.780217
639.424381,536.266849,370.102971,9474.636058
639.424697,536.266849,1036.288319,9252.574275
639.425013,919.314598,1258.350101,9326.594869
639.425328,1378.971896,1036.288319,9030.512492
639.425644,1072.533697,888.247130,8734.430116
639.425960,1378.971896,296.082377,8586.388927
639.426276,842.705048,-592.164754,9104.533087
639.426591,612.876398,-1110.308913,9918.759623
639.426907,536.266849,-1110.308913,10288.862594
639.427223,536.266849,-740.205942,10362.883188
639.427539,306.438199,-888.247130,10288.862594
639.427855,536.266849,-814.226536,10510.924376
639.428170,383.047749,-592.164754,9918.759623
639.428486,0.000000,370.102971,9474.636058
639.428802,536.266849,1036.288319,9474.636058
639.429118,1149.143247,1036.288319,8882.471304
639.429433,1302.362347,962.267725,8512.368333
639.429749,1225.752797,-296.082377,8364.327145
639.430065,842.705048,-666.185348,8882.471304
639.430381,842.705048,-1702.473667,9696.697840
639.430697,459.657299,-1776.494261,10066.800811
639.431012,612.876398,-1406.391290,10288.862594
639.431328,689.485948,-1184.329507,10510.924376
639.431644,459.657299,-888.247130,10436.903782
639.431960,153.219100,-518.144159,10214.842000
639.432275,229.828649,-444.123565,9622.677246
639.432591,229.828649,222.061783,9104.533087
639.432907,842.705048,740.205942,8882.471304
639.433223,689.485948,296.082377,8660.409521
639.433538,919.314598,-370.102971,8512.368333
639.433854,612.876398,-1332.370696,8660.409521
639.434170,306.438199,-1776.494261,9252.574275
639.434486,0.000000,-2368.659014,9696.697840
639.434802,0.000000,-1998.556043,10140.821405
639.435117,-459.657299,-1702.473667,10066.800811
639.435433,-459.657299,-1554.432478,10066.800811
639.435749,-612.876398,-2072.576638,10214.842000
639.436065,-1149.143247,-2072.576638,10066.800811
639.436380,-919.314598,-814.226536,9548.656652
639.436696,-306.438199,-444.123565,8956.491898
639.437012,76.609550,-222.061783,8808.450710
639.437328,459.657299,-592.164754,8512.368333
639.437644,766.095498,-1110.308913,8364.327145
639.437959,153.219100,-1924.535449,8512.368333
639.438275,229.828649,-1924.535449,9474.636058
639.438591,153.219100,-1924.535449,9770.718434
639.438907,383.047749,-1184.329507,9474.636058
639.439222,689.485948,-814.226536,9770.718434
639.439538,229.828649,-1036.288319,9770.718434
639.439854,0.000000,-666.185348,9548.656652
639.440170,76.609550,-0.000000,9474.636058
639.440485,229.828649,518.144159,8882.471304
639.440801,995.924147,888.247130,8882.471304
639.441117,689.485948,666.185348,8290.306550
639.441433,459.657299,518.144159,8290.306550
639.441749,306.438199,-0.000000,8734.430116
639.442064,0.000000,-1036.288319,9548.656652
639.442380,-383.047749,-1258.350101,9918.759623
639.442696,-383.047749,-1036.288319,10140.821405
639.443012,-153.219100,-592.164754,10066.800811
639.443327,-306.438199,-592.164754,10288.862594
639.443643,0.000000,-296.082377,10362.883188
639.443959,306.438199,-0.000000,9992.780217
639.444275,383.047749,814.226536,9474.636058
639.444591,1149.143247,1776.494261,8586.388927
639.444906,1378.971896,1850.514855,8512.368333
639.445222,1991.848295,1702.473667,8438.347739
639.445538,1991.848295,962.267725,8216.285956
639.445854,1608.800546,222.061783,8660.409521
639.446169,1302.362347,-148.041188,9548.656652
639.446485,1302.362347,-370.102971,9770.718434
639.446801,1225.752797,444.123565,10140.821405
639.447117,1072.533697,444.123565,10288.862594
639.447432,919.314598,74.020594,10584.944971
639.447748,612.876398,666.185348,10140.821405
639.448064,459.657299,888.247130,9696.697840
639.448380,766.095498,1184.329507,9696.697840
639.448696,1149.143247,1924.535449,9326.594869
639.449011,1302.362347,1702.473667,8808.450710
639.449327,1302.362347,1406.391290,8586.388927
639.449643,1072.533697,592.164754,9030.512492
639.449959,612.876398,148.041188,9696.697840
639.450274,306.438199,-370.102971,9992.780217
639.450590,0.000000,-592.164754,10510.924376
639.450906,76.609550,-370.102971,10510.924376
639.451222,0.000000,-592.164754,10807.006753
639.451538,0.000000,-814.226536,10807.006753
639.451853,-536.266849,-148.041188,10288.862594
639.452169,0.000000,740.205942,9844.739029
639.452485,229.828649,888.247130,9178.553681
639.452801,459.657299,1554.432478,9030.512492
639.453116,1149.143247,814.226536,9252.574275
639.453432,689.485948,296.082377,8586.388927
639.453748,689.485948,-666.185348,8956.491898
639.454064,0.000000,-1258.350101,9770.718434
639.454379,-153.219100,-1258.350101,10066.800811
639.454695,153.219100,-814.226536,10214.842000
639.455011,153.219100,-814.226536,9918.759623
639.455327,0.000000,-666.185348,10066.800811
639.455643,-306.438199,-740.205942,9992.780217
639.455958,-229.828649,-296.082377,9548.656652
639.456274,76.609550,148.041188,8956.491898
639.456590,612.876398,740.205942,8956.491898
639.456906,919.314598,666.185348,8142.265362
639.457221,919.314598,148.041188,7846.182985
639.457537,1072.533697,-740.205942,8142.265362
639.457853,76.609550,-1554.432478,8956.491898
639.458169,-306.438199,-1998.556043,9696.697840
639.458485,-536.266849,-1924.535449,10140.821405
639.458800,-383.047749,-1702.473667,9918.759623
639.459116,-919.314598,-1998.556043,10066.800811
639.459432,-919.314598,-2146.597232,10140.821405
639.459748,-842.705048,-1480.411884,9622.677246
639.460063,-766.095498,-666.185348,9326.594869
639.460379,-612.876398,-296.082377,8734.430116
639.460695,536.266849,-0.000000,8364.327145
639.461011,689.485948,-222.061783,8068.244768
639.461327,995.924147,-888.247130,8142.265362
639.461642,612.876398,-1776.494261,8882.471304
639.461958,766.095498,-1776.494261,9474.636058
639.462274,612.876398,-1776.494261,9918.759623
639.462590,842.705048,-1332.370696,9992.780217
639.462905,1149.143247,-888.247130,9844.739029
639.463221,1225.752797,-962.267725,9622.677246
639.463537,919.314598,-444.123565,9474.636058
639.463853,995.924147,-0.000000,9178.553681
639.464168,1225.752797,518.144159,8882.471304
639.464484,1302.362347,592.164754,8586.388927
639.464800,1302.362347,444.123565,8734.430116
639.465116,919.314598,-0.000000,8660.409521
639.465432,842.705048,-1184.329507,8808.450710
639.465747,229.828649,-1628.453072,9992.780217
639.466063,0.000000,-2072.576638,10510.924376
639.466379,229.828649,-1776.494261,10436.903782
639.466695,0.000000,-888.247130,10732.986159
639.467010,76.609550,-888.247130,10732.986159
639.467326,0.000000,-666.185348,10436.903782
639.467642,0.000000,-74.020594,10066.800811
639.467958,536.266849,444.123565,9474.636058
639.468274,919.314598,1480.411884,8808.450710
639.468589,1302.362347,1258.350101,8512.368333
639.468905,1762.019645,962.267725,8586.388927
639.469221,1225.752797,148.041188,8512.368333
639.469537,1072.533697,-444.123565,9474.636058
639.469852,919.314598,-888.247130,9918.759623
639.470168,1072.533697,-148.041188,10288.862594
639.470484,766.095498,-74.020594,10436.903782
639.470800,536.266849,222.061783,10584.944971
639.471115,383.047749,-148.041188,10584.944971
639.471431,153.219100,444.123565,10214.842000
639.471747,153.219100,962.267725,10066.800811
639.472063,689.485948,1258.350101,9178.553681
639.472379,919.314598,1480.411884,8956.491898
639.472694,1302.362347,1184.329507,9104.533087
639.473010,689.485948,444.123565,8734.430116
639.473326,612.876398,-148.041188,8808.450710
639.473642,229.828649,-740.205942,9696.697840
639.473957,76.609550,-518.144159,10140.821405
639.474273,0.000000,-148.041188,10066.800811
639.474589,0.000000,-222.061783,9992.780217
639.474905,-229.828649,-518.144159,10362.883188
639.475221,-306.438199,-592.164754,10214.842000
639.475536,-612.876398,148.041188,9770.718434
639.475852,-229.828649,592.164754,9326.594869
639.476168,-306.438199,1036.288319,8660.409521
639.476484,76.609550,888.247130,8586.388927
639.476799,153.219100,370.102971,8142.265362
639.477115,229.828649,-296.082377,8512.368333
639.477431,76.609550,-1036.288319,9104.533087
639.477747,0.000000,-1036.288319,9252.574275
639.478062,76.609550,-814.226536,9844.739029
639.478378,0.000000,-370.102971,9770.718434
639.478694,0.000000,-74.020594,9844.739029
639.479010,0.000000,-222.061783,9844.739029
639.479326,-383.047749,592.164754,9622.677246
639.479641,76.609550,1258.350101,9104.533087
639.479957,383.047749,1702.473667,8660.409521
639.480273,1225.752797,1850.514855,8364.327145
639.480589,1072.533697,1480.411884,8216.285956
639.480904,1149.143247,740.205942,8512.368333
639.481220,689.485948,-0.000000,8734.430116
639.481536,229.828649,-148.041188,9400.615463
639.481852,1072.533697,-0.000000,9696.697840
639.482168,153.219100,222.061783,9844.739029
639.482483,0.000000,296.082377,10140.821405
639.482799,0.000000,-0.000000,10510.924376
639.483115,-229.828649,-74.020594,10510.924376
639.483431,0.000000,-0.000000,10436.903782
639.483746,0.000000,444.123565,9770.718434
639.484062,612.876398,666.185348,9326.594869
639.484378,842.705048,518.144159,9104.533087
639.484694,1378.971896,444.123565,9178.553681
639.485009,1608.800546,-592.164754,9030.512492
639.485325,995.924147,-962.267725,9622.677246
639.485641,1455.581446,-740.205942,9622.677246
639.485957,1532.190996,-444.123565,9770.718434
639.486273,1302.362347,-0.000000,9992.780217
639.486588,1915.238745,-370.102971,10214.842000
639.486904,1225.752797,-666.185348,10140.821405
639.487220,1072.533697,-666.185348,9844.739029
639.487536,919.314598,-222.061783,9548.656652
639.487851,1225.752797,296.082377,9474.636058
639.488167,1225.752797,148.041188,8808.450710
639.488483,1378.971896,-0.000000,8956.491898
639.488799,919.314598,-444.123565,8956.491898
639.489115,612.876398,-1184.329507,9252.574275
639.489430,153.219100,-1332.370696,9622.677246
639.489746,0.000000,-1924.535449,10066.800811
639.490062,0.000000,-1184.329507,10288.862594
639.490378,-306.438199,-1702.473667,10436.903782
639.490693,-306.438199,-1924.535449,10510.924376
639.491009,-689.485948,-1776.494261,10288.862594
639.491325,-1072.533697,-814.226536,9622.677246
639.491641,0.000000,222.061783,9178.553681
639.491956,306.438199,740.205942,8660.409521
639.492272,689.485948,962.267725,8290.306550
639.492588,1072.533697,444.123565,8364.327145
639.492904,689.485948,-518.144159,8364.327145
639.493220,612.876398,-1406.391290,8956.491898
639.493535,383.047749,-1332.370696,9622.677246
639.493851,229.828649,-1110.308913,9918.759623
639.494167,383.047749,-740.205942,9918.759623
639.494483,229.828649,-888.247130,10214.842000
639.494798,0.000000,-666.185348,10140.821405
639.495114,0.000000,-0.000000,9400.615463
639.495430,76.609550,740.205942,8734.430116
639.495746,689.485948,888.247130,8882.471304
639.496062,1225.752797,1036.288319,8216.285956
639.496377,919.314598,666.185348,7846.182985
639.496693,612.876398,-0.000000,8142.265362
639.497009,459.657299,-1184.329507,8808.450710
639.497325,76.609550,-1406.391290,9326.594869
639.497640,-229.828649,-1332.370696,9696.697840
639.497956,-383.047749,-962.267725,9770.718434
639.498272,-536.266849,-814.226536,9992.780217
639.498588,-612.876398,-1258.350101,10288.862594
639.498904,-995.924147,-962.267725,10140.821405
639.499219,-919.314598,-296.082377,9474.636058
639.499535,-306.438199,740.205942,9178.553681
639.499851,229.828649,1110.308913,8882.471304
639.500166,536.266849,888.247130,8512.368333
639.500482,1225.752797,592.164754,8290.306550
639.500798,612.876398,-370.102971,8660.409521
639.501113,842.705048,-888.247130,9474.636058
639.501429,459.657299,-740.205942,10066.800811
639.501745,459.657299,-296.082377,10066.800811
639.502060,612.876398,222.061783,10584.944971
639.502376,689.485948,592.164754,10436.903782
639.502692,536.266849,888.247130,10066.800811
639.503008,612.876398,1554.432478,9770.718434
639.503323,766.095498,1998.556043,9548.656652
639.503639,1915.238745,2220.617826,9252.574275
639.503955,1455.581446,2220.617826,9178.553681
639.504270,1455.581446,1628.453072,8882.471304
639.504586,995.924147,1036.288319,8882.471304
639.504902,1378.971896,296.082377,9474.636058
639.505217,766.095498,148.041188,10140.821405
639.505533,766.095498,370.102971,10288.862594
639.505849,459.657299,592.164754,10584.944971
639.506164,459.657299,222.061783,10584.944971
639.506480,383.047749,-222.061783,10955.047942
639.506796,306.438199,-148.041188,10658.965565
639.507112,229.828649,666.185348,10066.800811
639.507427,842.705048,1480.411884,9770.718434
639.507743,1378.971896,1924.535449,9030.512492
639.508059,1302.362347,1184.329507,8956.491898
639.508374,1455.581446,592.164754,8660.409521
639.508690,1225.752797,-592.164754,9030.512492
639.509006,995.924147,-1258.350101,10066.800811
639.509321,842.705048,-1554.432478,10362.883188
639.509637,1072.533697,-1628.453072,10362.883188
639.509953,689.485948,-1258.350101,10214.842000
639.510268,766.095498,-1184.329507,10362.883188
639.510584,0.000000,-888.247130,10214.842000
639.510900,0.000000,-296.082377,9474.636058
639.511216,153.219100,-148.041188,9104.533087
639.511531,306.438199,-0.000000,8660.409521
639.511847,766.095498,-148.041188,8512.368333
639.512163,766.095498,-1184.329507,8290.306550
639.512478,0.000000,-2072.576638,8512.368333
639.512794,153.219100,-2812.782580,9178.553681
639.513110,0.000000,-2960.823768,9474.636058
639.513425,-383.047749,-2812.782580,10066.800811
639.513741,-689.485948,-2368.659014,9770.718434
639.514057,-689.485948,-1850.514855,9696.697840
639.514372,-995.924147,-2220.617826,9474.636058
639.514688,-995.924147,-1776.494261,9400.615463
639.515004,-995.924147,-1036.288319,9178.553681
639.515320,-689.485948,-1332.370696,8808.450710
639.515635,-153.219100,-518.144159,8438.347739
639.515951,-153.219100,-518.144159,8142.265362
639.516267,0.000000,-1332.370696,7920.203579
639.516582,459.657299,-1850.514855,8438.347739
639.516898,-383.047749,-2146.597232,9326.594869
639.517214,76.609550,-1554.432478,9474.636058
639.517529,459.657299,-1036.288319,9474.636058
639.517845,383.047749,-814.226536,9622.677246
639.518161,153.219100,-962.267725,9474.636058
639.518476,459.657299,-0.000000,9474.636058
639.518792,229.828649,444.123565,8734.430116
639.519108,612.876398,814.226536,8734.430116
639.519424,1072.533697,1036.288319,8290.306550
639.519739,842.705048,740.205942,8216.285956
639.520055,1225.752797,296.082377,8142.265362
639.520371,459.657299,-666.185348,8512.368333
639.520686,306.438199,-1702.473667,9326.594869
639.521002,76.609550,-1332.370696,9918.759623
639.521318,0.000000,-888.247130,10362.883188
639.521633,76.609550,-740.205942,10288.862594
639.521949,0.000000,-962.267725,10362.883188
639.522265,0.000000,-666.185348,10510.924376
639.522580,-306.438199,-444.123565,10214.842000
639.522896,153.219100,-0.000000,9548.656652
639.523212,612.876398,962.267725,9252.574275
639.523528,919.314598,962.267725,9030.512492
639.523843,1302.362347,888.247130,8808.450710
639.524159,1762.019645,518.144159,8734.430116
639.524475,1225.752797,-222.061783,9178.553681
639.524790,1072.533697,-296.082377,10066.800811
639.525106,766.095498,-296.082377,10362.883188
639.525422,1225.752797,-74.020594,10658.965565
639.525737,919.314598,296.082377,10658.965565
639.526053,536.266849,296.082377,10881.027347
639.526369,612.876398,814.226536,10658.965565
639.526684,459.657299,1554.432478,9770.718434
639.527000,842.705048,2220.617826,9696.697840
639.527316,1072.533697,2442.679609,9326.594869
639.527632,1455.581446,2072.576638,9030.512492
639.527947,1302.362347,1554.432478,8660.409521
639.528263,1302.362347,666.185348,9104.533087
639.528579,995.924147,296.082377,9844.739029
639.528894,459.657299,370.102971,10362.883188
639.529210,689.485948,296.082377,10510.924376
639.529526,383.047749,666.185348,10436.903782
639.529841,153.219100,444.123565,10436.903782
639.530157,-153.219100,-74.020594,10584.944971
639.530473,-306.438199,444.123565,10140.821405
639.530788,383.047749,1036.288319,9622.677246
639.531104,689.485948,1554.432478,9030.512492
639.531420,919.314598,1850.514855,8586.388927
639.531736,842.705048,1332.370696,8290.306550
639.532051,689.485948,592.164754,8512.368333
639.532367,0.000000,-1110.308913,8882.471304
639.532683,612.876398,-888.247130,9770.718434
639.532998,0.000000,-1110.308913,9696.697840
639.533314,0.000000,-814.226536,10066.800811
639.533630,0.000000,-814.226536,10066.800811
639.533945,0.000000,-740.205942,9696.697840
639.534261,-459.657299,-296.082377,9548.656652
639.534577,-383.047749,-0.000000,9474.636058
639.534892,-306.438199,666.185348,8808.450710
639.535208,229.828649,814.226536,8882.471304
639.535524,919.314598,296.082377,8364.327145
639.535840,459.657299,-296.082377,8068.244768
639.536155,459.657299,-1258.350101,8512.368333
639.536471,0.000000,-1776.494261,9104.533087
639.536787,0.000000,-1776.494261,9548.656652
639.537102,0.000000,-1480.411884,10140.821405
639.537418,-459.657299,-1258.350101,9918.759623
639.537734,-536.266849,-1110.308913,9696.697840
639.538049,-536.266849,-1554.432478,9696.697840
639.538365,-612.876398,-1554.432478,9844.739029
639.538681,-153.219100,-296.082377,9548.656652
639.538996,-536.266849,-592.164754,9252.574275
639.539312,229.828649,-370.102971,9252.574275
639.539628,536.266849,-296.082377,8586.388927
639.539944,459.657299,-888.247130,8734.430116
639.540259,689.485948,-1776.494261,8882.471304
639.540575,306.438199,-1998.556043,9770.718434
639.540891,842.705048,-1776.494261,9844.739029
639.541206,1072.533697,-1332.370696,9696.697840
639.541522,1225.752797,-666.185348,9622.677246
639.541838,995.924147,-518.144159,9844.739029
639.542153,1302.362347,-148.041188,9252.574275
639.542469,1072.533697,888.247130,9178.553681
639.542785,1608.800546,1110.308913,8734.430116
639.543100,2145.067394,1258.350101,8290.306550
639.543416,1991.848295,814.226536,8438.347739
639.543732,1608.800546,-370.102971,8660.409521
639.544048,1149.143247,-1036.288319,9326.594869
639.544363,766.095498,-1332.370696,10214.842000
639.544679,612.876398,-1776.494261,10362.883188
639.544995,536.266849,-814.226536,10732.986159
639.545310,306.438199,-296.082377,10658.965565
639.545626,153.219100,-666.185348,10510.924376
639.545942,0.000000,-592.164754,10288.862594
639.546257,153.219100,-444.123565,10362.883188
639.546573,459.657299,-0.000000,9548.656652
639.546889,842.705048,814.226536,9030.512492
639.547205,1072.533697,888.247130,8882.471304
639.547520,1685.410096,518.144159,8734.430116
639.547836,919.314598,-0.000000,8882.471304
639.548152,1302.362347,-666.185348,9474.636058
639.548467,612.876398,-962.267725,9474.636058
639.548783,612.876398,-814.226536,9918.759623
639.549099,689.485948,-518.144159,10362.883188
639.549414,612.876398,-666.185348,10288.862594
639.549730,76.609550,-370.102971,10288.862594
639.550046,-306.438199,148.041188,9770.718434
639.550361,-229.828649,740.205942,9178.553681
639.550677,0.000000,1110.308913,9326.594869
639.550993,0.000000,1184.329507,8586.388927
639.551309,306.438199,814.226536,8512.368333
639.551624,0.000000,-222.061783,8586.388927
639.551940,-306.438199,-888.247130,8956.491898
639.552256,-612.876398,-1184.329507,9844.739029
639.552571,-689.485948,-888.247130,9770.718434
639.552887,-766.095498,-370.102971,10140.821405
639.553203,-842.705048,-74.020594,10288.862594
639.553518,-995.924147,-592.164754,10214.842000
639.553834,-383.047749,-518.144159,10140.821405
639.554150,-842.705048,148.041188,9770.718434
639.554465,-383.047749,814.226536,9178.553681
639.554781,536.266849,1702.473667,8512.368333
639.555097,919.314598,1924.535449,8216.285956
639.555413,995.924147,1554.432478,7772.162391
639.555728,995.924147,518.144159,8068.244768
639.556044,612.876398,-518.144159,9030.512492
639.556360,536.266849,-888.247130,9474.636058
639.556675,536.266849,-1184.329507,9770.718434
639.556991,383.047749,-592.164754,10140.821405
639.557307,153.219100,-518.144159,10140.821405
639.557622,0.000000,-592.164754,10140.821405
639.557938,-76.609550,370.102971,9622.677246
639.558254,-229.828649,962.267725,9104.533087
639.558569,306.438199,1554.432478,8882.471304
639.558885,919.314598,1406.391290,8512.368333
639.559201,1302.362347,814.226536,8660.409521
639.559517,1838.629195,-0.000000,8808.450710
639.559832,612.876398,-962.267725,8956.491898
639.560148,689.485948,-1110.308913,9622.677246
639.560464,689.485948,-888.247130,9992.780217
639.560779,612.876398,-222.061783,10214.842000
639.561095,1072.533697,-0.000000,10436.903782
639.561411,383.047749,-296.082377,10732.986159
639.561726,306.438199,-0.000000,10584.944971
639.562042,229.828649,592.164754,9844.739029
639.562358,689.485948,1406.391290,9474.636058
639.562673,536.266849,1406.391290,9178.553681
639.562989,1302.362347,1480.411884,8660.409521
639.563305,1685.410096,370.102971,8956.491898
639.563621,1302.362347,-370.102971,9178.553681
639.563936,995.924147,-1258.350101,9918.759623
639.564252,919.314598,-1480.411884,10362.883188
639.564568,1302.362347,-740.205942,10510.924376
639.564883,1149.143247,-0.000000,10066.800811
639.565199,919.314598,148.041188,10214.842000
639.565515,919.314598,-0.000000,10140.821405
639.565830,919.314598,740.205942,9104.533087
639.566146,766.095498,1110.308913,9326.594869
639.566462,1455.581446,962.267725,9252.574275
639.566777,1608.800546,518.144159,8734.430116
639.567093,1455.581446,-0.000000,8660.409521
639.567409,1378.971896,-740.205942,8956.491898
639.567725,689.485948,-1554.432478,9326.594869
639.568040,306.438199,-1702.473667,9992.780217
639.568356,153.219100,-1480.411884,9992.780217
639.568672,-153.219100,-962.267725,9844.739029
639.568987,-229.828649,-1110.308913,10436.903782
639.569303,-536.266849,-1776.494261,10288.862594
639.569619,-459.657299,-1554.432478,9696.697840
639.569934,-766.095498,-740.205942,9474.636058
639.570250,-459.657299,-222.061783,9178.553681
639.570566,-76.609550,-0.000000,9178.553681
639.570881,229.828649,-148.041188,7994.224174
639.571197,229.828649,-296.082377,8438.347739
639.571513,0.000000,-1332.370696,8660.409521
639.571829,383.047749,-2220.617826,9474.636058
639.572144,0.000000,-1850.514855,9548.656652
639.572460,153.219100,-1332.370696,9622.677246
639.572776,229.828649,-814.226536,9622.677246
639.573091,76.609550,-592.164754,9622.677246
639.573407,0.000000,-444.123565,9474.636058
639.573723,-536.266849,-0.000000,9400.615463
639.574038,-459.657299,740.205942,9030.512492
639.574354,0.000000,1036.288319,8438.347739
639.574670,153.219100,888.247130,8512.368333
639.574985,459.657299,518.144159,8142.265362
639.575301,153.219100,-0.000000,8438.347739
639.575617,-383.047749,-1036.288319,9326.594869
639.575933,-383.047749,-1184.329507,9992.780217
639.576248,-536.266849,-1184.329507,9992.780217
639.576564,-306.438199,-666.185348,10436.903782
639.576880,-459.657299,-370.102971,10288.862594
639.577195,-766.095498,-592.164754,10510.924376
639.577511,-612.876398,-0.000000,9918.759623
639.577827,-459.657299,518.144159,9326.594869
639.578142,-306.438199,1036.288319,9252.574275
639.578458,842.705048,1406.391290,8660.409521
639.578774,1149.143247,1184.329507,8586.388927
639.579089,1378.971896,592.164754,8364.327145
639.579405,1378.971896,-370.102971,8882.471304
639.579721,1608.800546,-814.226536,9770.718434
639.580037,1149.143247,-666.185348,10288.862594
639.580352,995.924147,148.041188,10510.924376
639.580668,1378.971896,296.082377,10362.883188
639.580984,1072.533697,296.082377,10362.883188
639.581299,995.924147,444.123565,10066.800811
639.581615,995.924147,888.247130,9474.636058
639.581931,1225.752797,1702.473667,9178.553681
639.582246,1838.629195,1776.494261,8734.430116
639.582562,1685.410096,1406.391290,9178.553681
639.582878,2374.896044,666.185348,8882.471304
639.583193,1455.581446,-0.000000,9030.512492
639.583509,1072.533697,-444.123565,9992.780217
639.583825,842.705048,-518.144159,10140.821405
639.584141,766.095498,-222.061783,10436.903782
639.584456,536.266849,222.061783,11029.068536
639.584772,536.266849,-296.082377,10955.047942
639.585088,153.219100,-518.144159,10584.944971
639.585403,153.219100,-0.000000,10288.862594
639.585719,0.000000,592.164754,10214.842000
639.586035,689.485948,1184.329507,9474.636058
639.586350,1532.190996,1850.514855,8660.409521
639.586666,1302.362347,1258.350101,8734.430116
639.586982,1455.581446,592.164754,8660.409521
639.587297,1302.362347,-740.205942,9030.512492
639.587613,766.095498,-962.267725,9696.697840
639.587929,689.485948,-1184.329507,9992.780217
639.588245,766.095498,-888.247130,10288.862594
639.588560,306.438199,-592.164754,9992.780217
639.588876,76.609550,-666.185348,10140.821405
639.589192,-153.219100,-296.082377,9770.718434
639.589507,-383.047749,-74.020594,9400.615463
639.589823,0.000000,148.041188,8956.491898
639.590139,229.828649,666.185348,8660.409521
639.590454,229.828649,222.061783,8290.306550
639.590770,383.047749,-296.082377,8364.327145
639.591086,0.000000,-1406.391290,8512.368333
639.591402,-766.095498,-2220.617826,9326.594869
639.591717,-842.705048,-2368.659014,9992.780217
639.592033,-689.485948,-2146.597232,10066.800811
639.592349,-536.266849,-2072.576638,9918.759623
639.592664,-612.876398,-1924.535449,9992.780217
639.592980,-1072.533697,-1998.556043,9844.739029
639.593296,-383.047749,-1406.391290,9474.636058
639.593611,-459.657299,-444.123565,9104.533087
639.593927,0.000000,296.082377,8512.368333
639.594243,306.438199,370.102971,8142.265362
639.594558,536.266849,222.061783,7698.141797
639.594874,383.047749,-296.082377,8290.306550
639.595190,459.657299,-1554.432478,8586.388927
639.595506,0.000000,-2146.597232,9400.615463
639.595821,0.000000,-2146.597232,9918.759623
639.596137,229.828649,-1628.453072,10214.842000
639.596453,153.219100,-1776.494261,9992.780217
639.596768,0.000000,-1184.329507,9918.759623
639.597084,-153.219100,-592.164754,9696.697840
639.597400,0.000000,-0.000000,9326.594869
639.597715,0.000000,666.185348,8956.491898
639.598031,689.485948,1036.288319,8734.430116
639.598347,766.095498,296.082377,8586.388927
639.598662,689.485948,-148.041188,8734.430116
639.598978,689.485948,-962.267725,8956.491898
639.599294,459.657299,-1554.432478,9844.739029
639.599610,306.438199,-1776.494261,10288.862594
639.599925,306.438199,-1258.350101,10436.903782
639.600241,459.657299,-592.164754,10288.862594
639.600557,229.828649,-296.082377,10436.903782
639.600872,383.047749,-296.082377,10436.903782
639.601188,383.047749,74.020594,9770.718434
639.601504,612.876398,740.205942,9400.615463
639.601819,1378.971896,1332.370696,8808.450710
639.602135,1762.019645,740.205942,8956.491898
639.602451,1685.410096,666.185348,8882.471304
639.602766,1378.971896,-0.000000,8882.471304
639.603082,842.705048,-592.164754,9474.636058
639.603398,842.705048,-814.226536,10140.821405
639.603713,766.095498,-740.205942,10955.047942
639.604029,536.266849,-222.061783,10881.027347
639.604345,766.095498,-74.020594,10658.965565
639.604660,689.485948,-0.000000,10510.924376
639.604976,612.876398,592.164754,9918.759623
639.605292,1149.143247,1406.391290,9474.636058
639.605607,1149.143247,1776.494261,9178.553681
639.605923,1532.190996,2220.617826,8512.368333
639.606239,1378.971896,1628.453072,8216.285956
639.606554,1455.581446,888.247130,8438.347739
639.606870,1149.143247,-0.000000,8808.450710
639.607186,306.438199,-740.205942,9992.780217
639.607501,306.438199,-962.267725,10288.862594
639.607817,0.000000,-148.041188,10362.883188
639.608133,-306.438199,-0.000000,10584.944971
639.608448,-306.438199,-444.123565,10584.944971
639.608764,-1072.533697,-148.041188,10584.944971
639.609080,-229.828649,222.061783,9770.718434
639.609395,-536.266849,962.267725,9474.636058
639.609711,76.609550,1258.350101,8956.491898
639.610027,459.657299,1258.350101,8512.368333
639.610342,612.876398,1258.350101,8290.306550
639.610658,536.266849,518.144159,8364.327145
639.610974,0.000000,-370.102971,9474.636058
639.611289,0.000000,-518.144159,9770.718434
639.611605,383.047749,-444.123565,9844.739029
639.611921,459.657299,-0.000000,10214.842000
639.612236,536.266849,-74.020594,10362.883188
639.612552,229.828649,-74.020594,9918.759623
639.612868,383.047749,148.041188,9548.656652
639.613183,0.000000,740.205942,9548.656652
639.613499,306.438199,1184.329507,9326.594869
639.613815,689.485948,1332.370696,8290.306550
639.614130,536.266849,666.185348,8142.265362
639.614446,766.095498,-148.041188,8586.388927
639.614762,76.609550,-1184.329507,9326.594869
639.615077,0.000000,-2220.617826,9770.718434
639.615393,0.000000,-2220.617826,10140.821405
639.615709,-383.047749,-1554.432478,10510.924376
639.616024,0.000000,-1776.494261,10066.800811
639.616340,-612.876398,-1702.473667,9992.780217
639.616656,-459.657299,-1480.411884,10288.862594
639.616972,-612.876398,-1036.288319,9844.739029
639.617287,0.000000,-444.123565,8956.491898
639.617603,766.095498,-0.000000,9252.574275
639.617919,1072.533697,518.144159,8512.368333
639.618234,1302.362347,-0.000000,8068.244768
639.618550,1302.362347,-740.205942,8290.306550
639.618866,1378.971896,-1480.411884,8882.471304
639.619181,1378.971896,-1776.494261,9696.697840
639.619497,1532.190996,-1036.288319,9770.718434
639.619813,1378.971896,-518.144159,9622.677246
639.620128,1072.533697,-518.144159,9992.780217
639.620444,1072.533697,-666.185348,9770.718434
639.620760,459.657299,-370.102971,9474.636058
639.621075,306.438199,222.061783,9030.512492
639.621391,689.485948,666.185348,8956.491898
639.621707,1072.533697,814.226536,8512.368333
639.622022,1302.362347,518.144159,8660.409521
639.622338,1149.143247,-74.020594,8882.471304
639.622654,842.705048,-592.164754,9252.574275
639.622969,459.657299,-1258.350101,9474.636058
639.623285,536.266849,-1036.288319,9992.780217
639.623601,383.047749,-592.164754,10436.903782
639.623916,306.438199,-370.102971,9992.780217
639.624232,0.000000,-740.205942,9918.759623
639.624548,229.828649,-592.164754,10140.821405
639.624863,0.000000,-0.000000,9474.636058
639.625179,919.314598,740.205942,9326.594869
639.625495,766.095498,1110.308913,8956.491898
639.625810,842.705048,1406.391290,8364.327145
639.626126,766.095498,888.247130,8216.285956
639.626442,919.314598,-0.000000,8808.450710
639.626757,306.438199,-1036.288319,9474.636058
639.627073,0.000000,-888.247130,10140.821405
639.627389,229.828649,-814.226536,10140.821405
639.627704,383.047749,-592.164754,10066.800811
639.628020,0.000000,-518.144159,10510.924376
639.628336,229.828649,-296.082377,10288.862594
639.628651,0.000000,148.041188,9622.677246
639.628967,0.000000,666.185348,9474.636058
639.629283,76.609550,1110.308913,9104.533087
639.629598,612.876398,1406.391290,8956.491898
639.629914,383.047749,814.226536,8512.368333
639.630230,306.438199,74.020594,8586.388927
639.630545,0.000000,-814.226536,9326.594869
639.630861,-229.828649,-1628.453072,10362.883188
639.631177,-766.095498,-1702.473667,10362.883188
639.631492,-536.266849,-962.267725,10881.027347
639.631808,-536.266849,-888.247130,10732.986159
639.632124,-689.485948,-1036.288319,10732.986159
639.632439,-536.266849,-370.102971,10066.800811
639.632755,-536.266849,-0.000000,9622.677246
639.633071,-229.828649,592.164754,9400.615463
639.633386,153.219100,888.247130,9474.636058
639.633702,689.485948,888.247130,8216.285956
639.634018,612.876398,222.061783,8142.265362
639.634333,995.924147,-814.226536,8734.430116
639.634649,383.047749,-1332.370696,9548.656652
639.634965,383.047749,-1258.350101,9844.739029
639.635281,766.095498,-1110.308913,10066.800811
639.635596,689.485948,-444.123565,10066.800811
639.635912,612.876398,-814.226536,10362.883188
639.636228,306.438199,-518.144159,9844.739029
639.636543,306.438199,-444.123565,9548.656652
639.636859,536.266849,296.082377,8734.430116
639.637175,919.314598,370.102971,8808.450710
639.637490,919.314598,518.144159,8438.347739
639.637806,1302.362347,296.082377,8290.306550
639.638122,1072.533697,-444.123565,7994.224174
639.638437,536.266849,-1036.288319,8808.450710
639.638753,766.095498,-1628.453072,9918.759623
639.639069,536.266849,-814.226536,9548.656652
639.639384,153.219100,-814.226536,9918.759623
639.639700,536.266849,-888.247130,10140.821405
639.640016,153.219100,-814.226536,10066.800811
639.640331,306.438199,-74.020594,9844.739029
639.640647,306.438199,-0.000000,9400.615463
639.640963,536.266849,1036.288319,9178.553681
639.641278,1149.143247,1110.308913,8734.430116
639.641594,1455.581446,1036.288319,8586.388927
639.641910,1225.752797,518.144159,8290.306550
639.642225,1455.581446,-148.041188,8586.388927
639.642541,1378.971896,-666.185348,9178.553681
639.642857,1225.752797,-444.123565,9622.677246
639.643172,1302.362347,-222.061783,9696.697840
639.643488,1532.190996,-0.000000,9992.780217
639.643804,919.314598,-148.041188,10140.821405
639.644119,459.657299,-74.020594,9992.780217
639.644435,459.657299,296.082377,9548.656652
639.644751,229.828649,666.185348,9104.533087
639.645066,766.095498,1406.391290,9252.574275
639.645382,689.485948,1258.350101,8586.388927
639.645698,919.314598,740.205942,8438.347739
639.646013,689.485948,-74.020594,9030.512492
639.646329,536.266849,-1110.308913,9474.636058
639.646645,0.000000,-962.267725,10066.800811
639.646960,76.609550,-1036.288319,10584.944971
639.647276,-153.219100,-592.164754,10510.924376
639.647592,-383.047749,-814.226536,10807.006753
639.647907,-536.266849,-518.144159,10510.924376
639.648223,-689.485948,-592.164754,10436.903782
639.648539,-612.876398,296.082377,9474.636058
639.648854,-459.657299,1184.329507,9104.533087
639.649170,536.266849,1480.411884,8882.471304
639.649486,842.705048,962.267725,8882.471304
639.649801,306.438199,-0.000000,8438.347739
639.650117,383.047749,-518.144159,9252.574275
639.650433,229.828649,-1036.288319,9992.780217
639.650748,306.438199,-1036.288319,9844.739029
639.651064,459.657299,-296.082377,10140.821405
639.651380,459.657299,-0.000000,10066.800811
639.651695,383.047749,-0.000000,10140.821405
639.652011,0.000000,-148.041188,9770.718434
639.652327,-153.219100,370.102971,9548.656652
639.652642,-229.828649,1258.350101,9622.677246
639.652958,919.314598,1184.329507,9104.533087
639.653274,766.095498,1110.308913,8586.388927
639.653590,766.095498,740.205942,8364.327145
639.653905,689.485948,-222.061783,8512.368333
639.654221,536.266849,-1110.308913,9252.574275
639.654537,153.219100,-1258.350101,9992.780217
639.654852,0.000000,-962.267725,10510.924376
639.655168,-229.828649,-444.123565,10436.903782
639.655484,0.000000,-518.144159,10584.944971
639.655799,-383.047749,-740.205942,10140.821405
639.656115,-306.438199,-296.082377,9770.718434
639.656431,76.609550,-0.000000,9178.553681
639.656746,306.438199,814.226536,8808.450710
639.657062,995.924147,666.185348,8142.265362
639.657378,1302.362347,518.144159,8438.347739
639.657693,1532.190996,-148.041188,8290.306550
639.658009,919.314598,-1184.329507,8660.409521
639.658325,919.314598,-1406.391290,9326.594869
639.658640,459.657299,-1628.453072,9844.739029
639.658956,919.314598,-814.226536,9918.759623
639.659272,995.924147,-370.102971,9696.697840
639.659587,919.314598,-888.247130,9696.697840
639.659903,689.485948,-444.123565,9622.677246
639.660219,995.924147,-296.082377,9178.553681
639.660534,842.705048,296.082377,8882.471304
639.660850,1302.362347,814.226536,8586.388927
639.661166,1149.143247,592.164754,8364.327145
639.661481,1302.362347,148.041188,8290.306550
639.661797,459.657299,-888.247130,8660.409521
639.662113,612.876398,-1480.411884,9548.656652
639.662428,153.219100,-1554.432478,9992.780217
639.662744,536.266849,-962.267725,10214.842000
639.663060,153.219100,-666.185348,10066.800811
639.663375,153.219100,-518.144159,10140.821405
639.663691,153.219100,-370.102971,10140.821405
639.664007,0.000000,-0.000000,9548.656652
639.664322,76.609550,222.061783,9696.697840
639.664638,459.657299,962.267725,9474.636058
639.664954,1072.533697,814.226536,9474.636058
639.665269,995.924147,740.205942,8660.409521
639.665585,1072.533697,-0.000000,8808.450710
639.665901,766.095498,-814.226536,9474.636058
639.666216,383.047749,-814.226536,9844.739029
639.666532,459.657299,-518.144159,10066.800811
639.666848,536.266849,-518.144159,10584.944971
639.667163,383.047749,-444.123565,10362.883188
639.667479,229.828649,-296.082377,10140.821405
639.667795,76.609550,-148.041188,9992.780217
639.668110,459.657299,370.102971,9474.636058
639.668426,153.219100,518.144159,8956.491898
639.668742,459.657299,1184.329507,8956.491898
639.669057,612.876398,814.226536,8660.409521
639.669373,383.047749,148.041188,8808.450710
639.669689,76.609550,-518.144159,8956.491898
639.670004,-153.219100,-1258.350101,9622.677246
639.670320,-306.438199,-1480.411884,10288.862594
639.670636,-383.047749,-1332.370696,10288.862594
639.670951,-459.657299,-1036.288319,10214.842000
639.671267,-766.095498,-1184.329507,10732.986159
639.671583,-689.485948,-888.247130,10288.862594
639.671899,-766.095498,-148.041188,9844.739029
639.672214,-612.876398,592.164754,9548.656652
639.672530,689.485948,592.164754,8956.491898
639.672846,383.047749,962.267725,8660.409521
639.673161,919.314598,666.185348,8438.347739
639.673477,1072.533697,-370.102971,8068.244768
639.673793,842.705048,-888.247130,8882.471304
639.674108,689.485948,-1332.370696,9104.533087
639.674424,995.924147,-814.226536,9474.636058
639.674740,766.095498,-370.102971,10066.800811
639.675055,842.705048,-518.144159,9844.739029
639.675371,536.266849,-814.226536,9844.739029
639.675687,383.047749,-592.164754,9622.677246
639.676002,383.047749,148.041188,9104.533087
639.676318,919.314598,1110.308913,8808.450710
639.676634,1149.143247,962.267725,8364.327145
639.676949,1455.581446,814.226536,8068.244768
639.677265,766.095498,-0.000000,8068.244768
639.677581,995.924147,-1036.288319,8808.450710
639.677896,153.219100,-1776.494261,9844.739029
639.678212,0.000000,-1554.432478,10288.862594
639.678528,153.219100,-1406.391290,10214.842000
639.678843,0.000000,-1110.308913,10288.862594
639.679159,0.000000,-1036.288319,10214.842000
639.679475,0.000000,-592.164754,10140.821405
639.679790,153.219100,-74.020594,9548.656652
639.680106,306.438199,888.247130,9178.553681
639.680422,1149.143247,1184.329507,8586.388927
639.680737,1532.190996,1036.288319,8586.388927
639.681053,1455.581446,444.123565,8586.388927
639.681369,995.924147,-518.144159,8734.430116
639.681684,995.924147,-1332.370696,9696.697840
639.682000,612.876398,-1480.411884,10066.800811
639.682316,612.876398,-962.267725,10288.862594
639.682631,689.485948,-370.102971,10288.862594
639.682947,536.266849,-592.164754,10436.903782
639.683263,306.438199,-296.082377,10510.924376
639.683578,76.609550,148.041188,9770.718434
639.683894,153.219100,592.164754,9474.636058
639.684210,536.266849,1110.308913,9252.574275
639.684525,1072.533697,1480.411884,8808.450710
639.684841,1072.533697,1036.288319,8438.347739
639.685157,1072.533697,518.144159,8808.450710
639.685472,612.876398,-518.144159,9178.553681
639.685788,229.828649,-1406.391290,10066.800811
639.686104,0.000000,-1110.308913,10288.862594
639.686419,153.219100,-888.247130,10436.903782
639.686735,-383.047749,-518.144159,10584.944971
639.687051,0.000000,-1110.308913,10362.883188
639.687366,-153.219100,-592.164754,10510.924376
639.687682,-383.047749,222.061783,9770.718434
639.687998,0.000000,814.226536,9030.512492
639.688313,459.657299,1258.350101,8734.430116
639.688629,536.266849,1258.350101,8586.388927
639.688945,0.000000,444.123565,8586.388927
639.689260,459.657299,-370.102971,8586.388927
639.689576,229.828649,-1480.411884,9400.615463
639.689892,76.609550,-1406.391290,9918.759623
