#time,accel_x,accel_y,accel_z
873.839012,-1149.143247,-592.164754,9992.780217
873.839328,-1302.362347,-148.041188,10140.821405
873.839644,-919.314598,-0.000000,10140.821405
873.839959,-689.485948,518.144159,9696.697840
873.840275,-383.047749,592.164754,9400.615463
873.840591,0.000000,666.185348,9030.512492
873.840907,76.609550,1110.308913,8956.491898
873.841223,0.000000,962.267725,8734.430116
873.841539,153.219100,1258.350101,8956.491898
873.841855,536.266849,1036.288319,9030.512492
873.842171,766.095498,518.144159,8734.430116
873.842487,689.485948,222.061783,9474.636058
873.842803,229.828649,444.123565,9326.594869
873.843119,459.657299,518.144159,9474.636058
873.843435,612.876398,444.123565,9548.656652
873.843751,229.828649,962.267725,9548.656652
873.844066,459.657299,1036.288319,9104.533087
873.844382,689.485948,888.247130,9326.594869
873.844698,689.485948,814.226536,9326.594869
873.845014,612.876398,592.164754,9474.636058
873.845330,536.266849,592.164754,9326.594869
873.845646,0.000000,740.205942,9622.677246
873.845962,0.000000,296.082377,10066.800811
873.846278,-153.219100,370.102971,9696.697840
873.846594,-229.828649,-0.000000,9696.697840
873.846910,-229.828649,-296.082377,9992.780217
873.847226,0.000000,-222.061783,9770.718434
873.847542,0.000000,-0.000000,9548.656652
873.847857,76.609550,-148.041188,9696.697840
873.848173,766.095498,222.061783,9474.636058
873.848489,229.828649,222.061783,9400.615463
873.848805,0.000000,296.082377,9400.615463
873.849121,0.000000,148.041188,9400.615463
873.849437,0.000000,-0.000000,9400.615463
873.849753,76.609550,-148.041188,9918.759623
873.850069,-229.828649,-370.102971,9622.677246
873.850385,76.609550,-592.164754,9770.718434
873.850701,0.000000,-962.267725,9918.759623
873.851017,-383.047749,-888.247130,9696.697840
873.851333,-383.047749,-148.041188,9622.677246
873.851649,-383.047749,-0.000000,9474.636058
873.851964,0.000000,-0.000000,9548.656652
873.852280,-383.047749,-0.000000,9622.677246
873.852596,-229.828649,-0.000000,9474.636058
873.852912,-153.219100,-370.102971,9400.615463
873.853228,-229.828649,-148.041188,9474.636058
873.853544,-306.438199,-296.082377,9474.636058
873.853860,-229.828649,-296.082377,9252.574275
873.854176,0.000000,-370.102971,9252.574275
873.854492,0.000000,222.061783,9252.574275
873.854808,0.000000,-0.000000,9326.594869
873.855124,76.609550,-0.000000,9326.594869
873.855440,229.828649,-370.102971,9104.533087
873.855756,306.438199,-74.020594,9252.574275
873.856071,306.438199,-74.020594,9178.553681
873.856387,459.657299,-0.000000,9252.574275
873.856703,0.000000,-74.020594,9548.656652
873.857019,76.609550,-0.000000,9030.512492
873.857335,153.219100,-74.020594,8882.471304
873.857651,153.219100,-0.000000,9104.533087
873.857967,0.000000,-0.000000,8956.491898
873.858283,153.219100,74.020594,9252.574275
873.858599,0.000000,148.041188,9326.594869
873.858915,0.000000,-74.020594,9474.636058
873.859231,0.000000,-296.082377,9400.615463
873.859547,229.828649,-0.000000,9622.677246
873.859863,153.219100,-0.000000,9548.656652
873.860178,842.705048,-666.185348,9474.636058
873.860494,459.657299,-148.041188,9622.677246
873.860810,536.266849,-148.041188,9474.636058
873.861126,612.876398,-148.041188,9548.656652
873.861442,612.876398,-0.000000,9474.636058
873.861758,919.314598,-0.000000,9844.739029
873.862074,689.485948,444.123565,9696.697840
873.862390,1149.143247,296.082377,9622.677246
873.862706,1072.533697,518.144159,9622.677246
873.863022,1149.143247,296.082377,9548.656652
873.863338,1225.752797,-0.000000,9474.636058
873.863654,1072.533697,-0.000000,9548.656652
873.863969,1302.362347,-0.000000,9622.677246
873.864285,1455.581446,-0.000000,9474.636058
873.864601,1072.533697,148.041188,9474.636058
873.864917,1302.362347,-0.000000,9696.697840
873.865233,1378.971896,-0.000000,9844.739029
873.865548,1225.752797,-148.041188,9770.718434
873.865864,1455.581446,-0.000000,9622.677246
873.866180,1455.581446,-74.020594,9844.739029
873.866496,1455.581446,148.041188,10066.800811
873.866811,1455.581446,-148.041188,9622.677246
873.867127,1302.362347,-74.020594,9622.677246
873.867443,1149.143247,370.102971,9548.656652
873.867759,1149.143247,-0.000000,9696.697840
873.868075,766.095498,-222.061783,9104.533087
873.868390,919.314598,-0.000000,9326.594869
873.868706,459.657299,148.041188,9252.574275
873.869022,536.266849,-444.123565,9400.615463
873.869338,459.657299,-666.185348,9474.636058
873.869653,383.047749,-592.164754,9548.656652
873.869969,0.000000,-814.226536,9696.697840
873.870285,0.000000,-740.205942,9622.677246
873.870601,0.000000,-888.247130,9770.718434
873.870917,153.219100,-1036.288319,9622.677246
873.871232,0.000000,-592.164754,9548.656652
873.871548,0.000000,-444.123565,9326.594869
873.871864,-153.219100,-518.144159,9326.594869
873.872180,0.000000,-740.205942,9030.512492
873.872495,459.657299,-666.185348,9326.594869
873.872811,153.219100,-1036.288319,9104.533087
873.873127,153.219100,-666.185348,9104.533087
873.873443,-229.828649,-666.185348,9400.615463
873.873759,0.000000,-814.226536,9178.553681
873.874074,0.000000,-962.267725,9178.553681
873.874390,0.000000,-592.164754,9400.615463
873.874706,-229.828649,-740.205942,9178.553681
873.875022,0.000000,-592.164754,9326.594869
873.875337,0.000000,-444.123565,9400.615463
873.875653,-306.438199,-814.226536,9400.615463
873.875969,-229.828649,-592.164754,9474.636058
873.876285,383.047749,-518.144159,9326.594869
873.876601,383.047749,-296.082377,9474.636058
873.876916,306.438199,-296.082377,9400.615463
873.877232,229.828649,-148.041188,9622.677246
873.877548,689.485948,-0.000000,9326.594869
873.877864,459.657299,-0.000000,9326.594869
873.878179,689.485948,222.061783,9252.574275
873.878495,919.314598,296.082377,9474.636058
873.878811,1685.410096,-0.000000,9252.574275
873.879127,995.924147,370.102971,9104.533087
873.879443,919.314598,444.123565,9178.553681
873.879758,842.705048,370.102971,9326.594869
873.880074,1149.143247,148.041188,9326.594869
873.880390,1149.143247,148.041188,9400.615463
873.880706,919.314598,222.061783,9548.656652
873.881021,919.314598,148.041188,9474.636058
873.881337,689.485948,370.102971,9770.718434
873.881653,689.485948,296.082377,9770.718434
873.881969,1302.362347,148.041188,9770.718434
873.882284,766.095498,518.144159,9844.739029
873.882600,842.705048,222.061783,9696.697840
873.882916,766.095498,370.102971,9696.697840
873.883232,842.705048,370.102971,9770.718434
873.883548,766.095498,-0.000000,9844.739029
873.883863,612.876398,222.061783,9770.718434
873.884179,995.924147,148.041188,9696.697840
873.884495,766.095498,222.061783,9696.697840
873.884811,766.095498,296.082377,9770.718434
873.885126,229.828649,-0.000000,9918.759623
873.885442,459.657299,-222.061783,9474.636058
873.885758,459.657299,-0.000000,9696.697840
873.886074,612.876398,-0.000000,9844.739029
873.886390,306.438199,-148.041188,9548.656652
873.886705,459.657299,-74.020594,9770.718434
873.887021,306.438199,-0.000000,9770.718434
873.887337,459.657299,-74.020594,9844.739029
873.887653,153.219100,222.061783,9696.697840
873.887968,76.609550,296.082377,9918.759623
873.888284,229.828649,-0.000000,9844.739029
873.888600,153.219100,-0.000000,9696.697840
873.888916,766.095498,-0.000000,9474.636058
873.889232,459.657299,-222.061783,9622.677246
873.889547,383.047749,-444.123565,9548.656652
873.889863,383.047749,-518.144159,9696.697840
873.890179,153.219100,-666.185348,9252.574275
873.890495,229.828649,-444.123565,9178.553681
873.890810,689.485948,-74.020594,8808.450710
873.891126,229.828649,-74.020594,8882.471304
873.891442,383.047749,-148.041188,9030.512492
873.891758,76.609550,-222.061783,9030.512492
873.892074,-153.219100,-666.185348,8956.491898
873.892389,-306.438199,-740.205942,9104.533087
873.892705,-153.219100,-1110.308913,9400.615463
873.893021,-536.266849,-1036.288319,9474.636058
873.893337,-459.657299,-1110.308913,9548.656652
873.893652,-536.266849,-1036.288319,9548.656652
873.893968,-153.219100,-962.267725,9400.615463
873.894284,-459.657299,-740.205942,9548.656652
873.894600,-153.219100,-592.164754,9400.615463
873.894916,76.609550,-296.082377,9326.594869
873.895231,306.438199,-296.082377,9030.512492
873.895547,536.266849,-74.020594,8956.491898
873.895863,76.609550,-518.144159,9326.594869
873.896179,766.095498,-222.061783,8956.491898
873.896494,766.095498,-296.082377,9030.512492
873.896810,459.657299,-518.144159,9030.512492
873.897126,459.657299,-444.123565,9326.594869
873.897442,1072.533697,-1036.288319,9548.656652
873.897758,229.828649,-592.164754,9400.615463
873.898073,0.000000,-518.144159,9918.759623
873.898389,76.609550,-444.123565,9622.677246
873.898705,153.219100,-444.123565,9696.697840
873.899021,76.609550,-592.164754,9696.697840
873.899336,383.047749,-370.102971,9696.697840
873.899652,459.657299,-444.123565,9474.636058
873.899968,766.095498,-370.102971,9474.636058
873.900284,459.657299,-518.144159,9474.636058
873.900600,919.314598,-444.123565,9104.533087
873.900915,1072.533697,-0.000000,9474.636058
873.901231,766.095498,370.102971,9548.656652
873.901547,766.095498,222.061783,9548.656652
873.901863,842.705048,148.041188,9474.636058
873.902178,919.314598,518.144159,9474.636058
873.902494,1072.533697,296.082377,9474.636058
873.902810,842.705048,222.061783,9696.697840
873.903126,1072.533697,148.041188,9548.656652
873.903441,919.314598,-0.000000,9770.718434
873.903757,689.485948,-0.000000,9770.718434
873.904073,459.657299,-0.000000,9992.780217
873.904389,536.266849,-0.000000,9622.677246
873.904705,612.876398,-0.000000,9770.718434
873.905020,459.657299,-74.020594,9844.739029
873.905336,536.266849,-0.000000,9770.718434
873.905652,689.485948,-0.000000,9548.656652
873.905968,459.657299,-0.000000,9622.677246
873.906283,383.047749,-148.041188,9770.718434
873.906599,383.047749,-148.041188,9474.636058
873.906915,306.438199,-74.020594,9474.636058
873.907231,0.000000,-74.020594,9474.636058
873.907547,153.219100,-148.041188,9474.636058
873.907862,153.219100,-0.000000,9622.677246
873.908178,383.047749,-370.102971,9474.636058
873.908494,76.609550,-148.041188,9474.636058
873.908810,229.828649,-74.020594,9326.594869
873.909125,229.828649,-296.082377,9400.615463
873.909441,536.266849,-74.020594,9474.636058
873.909757,153.219100,222.061783,9918.759623
873.910073,153.219100,-0.000000,9474.636058
873.910389,76.609550,-0.000000,9252.574275
873.910704,0.000000,-74.020594,9474.636058
873.911020,306.438199,-74.020594,9696.697840
873.911336,459.657299,-74.020594,9474.636058
873.911652,76.609550,-74.020594,9400.615463
873.911967,306.438199,-148.041188,9400.615463
873.912283,459.657299,-296.082377,9400.615463
873.912599,306.438199,-444.123565,9400.615463
873.912915,383.047749,-592.164754,9252.574275
873.913231,459.657299,-518.144159,9104.533087
873.913546,842.705048,-444.123565,9326.594869
873.913862,689.485948,-222.061783,9252.574275
873.914178,919.314598,-74.020594,9252.574275
873.914494,995.924147,-74.020594,8956.491898
873.914809,842.705048,-0.000000,9104.533087
873.915125,536.266849,-0.000000,9030.512492
873.915441,536.266849,-74.020594,8956.491898
873.915757,383.047749,-370.102971,9178.553681
873.916073,306.438199,-592.164754,9400.615463
873.916388,153.219100,-296.082377,9622.677246
873.916704,0.000000,-592.164754,9770.718434
873.917020,536.266849,-666.185348,9918.759623
873.917336,153.219100,-962.267725,9770.718434
873.917651,76.609550,-666.185348,9548.656652
873.917967,306.438199,-444.123565,9770.718434
873.918283,459.657299,-444.123565,9474.636058
873.918599,766.095498,-74.020594,9252.574275
873.918915,842.705048,-0.000000,9400.615463
873.919230,1225.752797,-0.000000,9400.615463
873.919546,995.924147,-222.061783,9178.553681
873.919862,919.314598,-0.000000,9474.636058
873.920178,919.314598,-0.000000,9326.594869
873.920493,919.314598,-148.041188,9474.636058
873.920809,612.876398,-74.020594,9474.636058
873.921125,536.266849,-296.082377,9548.656652
873.921441,689.485948,-296.082377,9844.739029
873.921757,0.000000,-74.020594,9844.739029
873.922072,229.828649,-222.061783,9696.697840
873.922388,306.438199,-74.020594,9844.739029
873.922704,306.438199,-222.061783,9844.739029
873.923020,919.314598,-444.123565,9844.739029
873.923335,383.047749,-0.000000,9622.677246
873.923651,383.047749,148.041188,9622.677246
873.923967,536.266849,-0.000000,9474.636058
873.924283,306.438199,148.041188,9548.656652
873.924598,766.095498,-296.082377,9844.739029
873.924914,459.657299,-0.000000,9400.615463
873.925230,536.266849,-74.020594,9400.615463
873.925546,459.657299,-0.000000,9474.636058
873.925862,919.314598,296.082377,9474.636058
873.926177,919.314598,-148.041188,9474.636058
873.926493,536.266849,-0.000000,9548.656652
873.926809,612.876398,-0.000000,9178.553681
873.927125,689.485948,-0.000000,9474.636058
873.927440,229.828649,-0.000000,9400.615463
873.927756,919.314598,-0.000000,9400.615463
873.928072,153.219100,-74.020594,9474.636058
873.928388,229.828649,-148.041188,9474.636058
873.928704,459.657299,-0.000000,9474.636058
873.929019,306.438199,-0.000000,9326.594869
873.929335,383.047749,-74.020594,9474.636058
873.929651,76.609550,-444.123565,9326.594869
873.929967,306.438199,-148.041188,9474.636058
873.930282,153.219100,-222.061783,9474.636058
873.930598,0.000000,-296.082377,9474.636058
873.930914,766.095498,-518.144159,9474.636058
873.931230,0.000000,-370.102971,9326.594869
873.931546,459.657299,-74.020594,9400.615463
873.931861,383.047749,-74.020594,9474.636058
873.932177,383.047749,-222.061783,9326.594869
873.932493,766.095498,-518.144159,9252.574275
873.932809,689.485948,-296.082377,9548.656652
873.933124,459.657299,-222.061783,9178.553681
873.933440,459.657299,-370.102971,9178.553681
873.933756,383.047749,-296.082377,9252.574275
873.934072,153.219100,-296.082377,9400.615463
873.934388,153.219100,-592.164754,9326.594869
873.934703,383.047749,-296.082377,9474.636058
873.935019,0.000000,-444.123565,9474.636058
873.935335,459.657299,-370.102971,9548.656652
873.935651,459.657299,-740.205942,9548.656652
873.935966,383.047749,-444.123565,9548.656652
873.936282,612.876398,-592.164754,9548.656652
873.936598,689.485948,-518.144159,9474.636058
873.936914,612.876398,-444.123565,9548.656652
873.937230,995.924147,-148.041188,9474.636058
873.937545,919.314598,-74.020594,9400.615463
873.937861,1072.533697,-0.000000,9252.574275
873.938177,995.924147,-74.020594,8956.491898
873.938493,919.314598,74.020594,9252.574275
873.938808,229.828649,-148.041188,9400.615463
873.939124,612.876398,-0.000000,9474.636058
873.939440,306.438199,-148.041188,9400.615463
873.939756,229.828649,-222.061783,9992.780217
873.940072,-306.438199,-962.267725,9696.697840
873.940387,-306.438199,-888.247130,9992.780217
873.940703,-153.219100,-592.164754,9992.780217
873.941019,0.000000,-666.185348,9918.759623
873.941335,0.000000,-444.123565,9770.718434
873.941650,153.219100,-518.144159,9918.759623
873.941966,383.047749,-148.041188,9252.574275
873.942282,612.876398,-0.000000,9474.636058
873.942598,383.047749,-0.000000,9326.594869
873.942913,536.266849,222.061783,9178.553681
873.943229,229.828649,296.082377,9400.615463
873.943545,536.266849,-0.000000,9178.553681
873.943861,459.657299,222.061783,9252.574275
873.944177,229.828649,-74.020594,9474.636058
873.944492,229.828649,-74.020594,9548.656652
873.944808,229.828649,-0.000000,9622.677246
873.945124,0.000000,-0.000000,9770.718434
873.945440,-153.219100,-296.082377,9844.739029
873.945755,0.000000,-222.061783,9622.677246
873.946071,-153.219100,-296.082377,9548.656652
873.946387,153.219100,-0.000000,9918.759623
873.946703,0.000000,-74.020594,9474.636058
873.947019,0.000000,-0.000000,9474.636058
873.947334,76.609550,-148.041188,9474.636058
873.947650,229.828649,-0.000000,9474.636058
873.947966,229.828649,-0.000000,9548.656652
873.948282,229.828649,74.020594,9400.615463
873.948597,306.438199,148.041188,9400.615463
873.948913,459.657299,370.102971,9252.574275
873.949229,689.485948,518.144159,9326.594869
873.949545,689.485948,370.102971,9326.594869
873.949861,536.266849,-0.000000,9326.594869
873.950176,306.438199,-0.000000,9326.594869
873.950492,459.657299,-74.020594,9474.636058
873.950808,76.609550,-148.041188,9844.739029
873.951124,229.828649,-148.041188,9548.656652
873.951439,306.438199,-74.020594,9474.636058
873.951755,229.828649,-74.020594,9844.739029
873.952071,459.657299,-148.041188,9474.636058
873.952387,0.000000,-148.041188,9696.697840
873.952703,306.438199,-0.000000,9326.594869
873.953018,689.485948,-0.000000,9326.594869
873.953334,459.657299,-0.000000,9548.656652
873.953650,383.047749,-222.061783,9326.594869
873.953966,689.485948,-74.020594,9474.636058
873.954281,919.314598,-148.041188,9400.615463
873.954597,306.438199,-74.020594,9474.636058
873.954913,383.047749,-222.061783,9622.677246
873.955229,536.266849,-222.061783,9622.677246
873.955545,612.876398,-296.082377,9844.739029
873.955860,689.485948,-222.061783,9474.636058
873.956176,689.485948,-222.061783,9548.656652
873.956492,689.485948,-444.123565,9474.636058
873.956808,1149.143247,-148.041188,9696.697840
873.957123,766.095498,-370.102971,9474.636058
873.957439,153.219100,-666.185348,9326.594869
873.957755,766.095498,-222.061783,9622.677246
873.958071,229.828649,-444.123565,9548.656652
873.958387,383.047749,-222.061783,9622.677246
873.958702,459.657299,-444.123565,9474.636058
873.959018,536.266849,-740.205942,9696.697840
873.959334,536.266849,-666.185348,9622.677246
873.959650,689.485948,-666.185348,9548.656652
873.959965,689.485948,-962.267725,9844.739029
873.960281,689.485948,-592.164754,9696.697840
873.960597,612.876398,-666.185348,9548.656652
873.960913,919.314598,-444.123565,9474.636058
873.961229,766.095498,-148.041188,9474.636058
873.961544,1072.533697,-740.205942,9400.615463
873.961860,1072.533697,-222.061783,9252.574275
873.962176,919.314598,-222.061783,9030.512492
873.962492,842.705048,-296.082377,9104.533087
873.962807,459.657299,-296.082377,9178.553681
873.963123,536.266849,-222.061783,9326.594869
873.963439,383.047749,-444.123565,9474.636058
873.963755,0.000000,-888.247130,9548.656652
873.964070,0.000000,-888.247130,9548.656652
873.964386,0.000000,-1036.288319,9474.636058
873.964702,0.000000,-962.267725,9474.636058
873.965018,76.609550,-814.226536,9622.677246
873.965334,0.000000,-592.164754,9696.697840
873.965649,229.828649,-518.144159,9400.615463
873.965965,689.485948,-444.123565,9178.553681
873.966281,689.485948,-0.000000,9326.594869
873.966597,536.266849,-74.020594,8882.471304
873.966912,766.095498,-0.000000,8956.491898
873.967228,689.485948,-0.000000,9104.533087
873.967544,689.485948,-296.082377,9326.594869
873.967860,459.657299,-148.041188,9252.574275
873.968176,459.657299,-0.000000,9252.574275
873.968491,153.219100,-222.061783,9474.636058
873.968807,76.609550,-296.082377,9696.697840
873.969123,0.000000,-370.102971,9918.759623
873.969439,229.828649,-0.000000,9474.636058
873.969754,229.828649,-148.041188,9474.636058
873.970070,0.000000,-0.000000,9474.636058
873.970386,-229.828649,-0.000000,9474.636058
873.970702,229.828649,-0.000000,9252.574275
873.971018,383.047749,-74.020594,9400.615463
873.971333,459.657299,148.041188,9400.615463
873.971649,459.657299,-0.000000,9474.636058
873.971965,689.485948,-74.020594,9548.656652
873.972281,536.266849,296.082377,9548.656652
873.972596,689.485948,222.061783,9622.677246
873.972912,459.657299,222.061783,9548.656652
873.973228,689.485948,-0.000000,9548.656652
873.973544,229.828649,-0.000000,9474.636058
873.973859,612.876398,222.061783,9844.739029
873.974175,1072.533697,370.102971,9770.718434
873.974491,612.876398,222.061783,9548.656652
873.974807,612.876398,-0.000000,9770.718434
873.975123,766.095498,-222.061783,9844.739029
873.975438,612.876398,-0.000000,9622.677246
873.975754,459.657299,-0.000000,9622.677246
873.976070,536.266849,-0.000000,9622.677246
873.976386,306.438199,-0.000000,9696.697840
873.976701,995.924147,-222.061783,9696.697840
873.977017,459.657299,-0.000000,9548.656652
873.977333,459.657299,-74.020594,9770.718434
873.977649,459.657299,-148.041188,9696.697840
873.977965,459.657299,-0.000000,9622.677246
873.978280,383.047749,-296.082377,9918.759623
873.978596,383.047749,-222.061783,9548.656652
873.978912,383.047749,-0.000000,9474.636058
873.979228,383.047749,-74.020594,9474.636058
873.979543,689.485948,-222.061783,9252.574275
873.979859,766.095498,-296.082377,9548.656652
873.980175,919.314598,-148.041188,9474.636058
873.980491,459.657299,-222.061783,9326.594869
873.980806,612.876398,-296.082377,9178.553681
873.981122,306.438199,-74.020594,9474.636058
873.981438,536.266849,-74.020594,9400.615463
873.981754,536.266849,-222.061783,9400.615463
873.982070,153.219100,-296.082377,9400.615463
873.982385,306.438199,-370.102971,9474.636058
873.982701,536.266849,-370.102971,9548.656652
873.983017,766.095498,-0.000000,9770.718434
873.983333,306.438199,-666.185348,9400.615463
873.983648,153.219100,-740.205942,9252.574275
873.983964,612.876398,-666.185348,9474.636058
873.984280,689.485948,-444.123565,9252.574275
873.984596,1149.143247,-740.205942,9252.574275
873.984912,919.314598,-148.041188,9104.533087
873.985227,842.705048,-74.020594,9030.512492
873.985543,612.876398,-74.020594,8956.491898
873.985859,766.095498,-0.000000,9030.512492
873.986175,383.047749,-0.000000,9252.574275
873.986490,76.609550,-666.185348,9400.615463
873.986806,76.609550,-370.102971,9474.636058
873.987122,0.000000,-814.226536,9474.636058
873.987438,-383.047749,-666.185348,9548.656652
873.987753,-229.828649,-1110.308913,9326.594869
873.988069,-229.828649,-666.185348,9622.677246
873.988385,0.000000,-518.144159,9622.677246
873.988701,0.000000,-592.164754,9622.677246
873.989017,153.219100,-148.041188,9474.636058
873.989332,766.095498,-222.061783,9178.553681
873.989648,153.219100,-0.000000,9252.574275
873.989964,689.485948,148.041188,9326.594869
873.990280,612.876398,222.061783,9326.594869
873.990595,689.485948,148.041188,9178.553681
873.990911,1225.752797,-0.000000,9400.615463
873.991227,536.266849,148.041188,9474.636058
873.991543,229.828649,-0.000000,9474.636058
873.991859,0.000000,-74.020594,9696.697840
873.992174,153.219100,-0.000000,9622.677246
873.992490,76.609550,-74.020594,9844.739029
873.992806,0.000000,-148.041188,9918.759623
873.993122,229.828649,222.061783,9622.677246
873.993437,0.000000,148.041188,9770.718434
873.993753,0.000000,-0.000000,9696.697840
873.994069,229.828649,-148.041188,9474.636058
873.994385,229.828649,148.041188,9548.656652
873.994700,383.047749,222.061783,9548.656652
873.995016,383.047749,222.061783,9548.656652
873.995332,612.876398,444.123565,9696.697840
873.995648,919.314598,222.061783,9474.636058
873.995964,536.266849,518.144159,9622.677246
873.996279,919.314598,518.144159,9326.594869
873.996595,766.095498,148.041188,9400.615463
873.996911,689.485948,148.041188,9474.636058
873.997227,612.876398,-296.082377,9844.739029
873.997542,383.047749,-148.041188,9696.697840
873.997858,459.657299,-148.041188,9844.739029
873.998174,229.828649,-0.000000,9770.718434
873.998490,306.438199,-148.041188,9548.656652
873.998806,229.828649,-296.082377,9844.739029
873.999121,459.657299,-222.061783,9474.636058
873.999437,459.657299,-0.000000,9474.636058
873.999753,536.266849,-74.020594,9474.636058
874.000069,536.266849,-222.061783,9918.759623
874.000384,536.266849,-296.082377,9326.594869
874.000700,612.876398,-222.061783,9548.656652
874.001016,459.657299,-444.123565,9474.636058
874.001332,229.828649,-444.123565,9252.574275
874.001647,76.609550,-518.144159,9622.677246
874.001963,536.266849,-370.102971,9474.636058
874.002279,153.219100,-814.226536,9326.594869
874.002595,536.266849,-740.205942,9474.636058
874.002911,612.876398,-444.123565,9400.615463
874.003226,842.705048,-962.267725,9104.533087
874.003542,612.876398,-592.164754,9326.594869
874.003858,459.657299,-518.144159,9400.615463
874.004174,536.266849,-518.144159,9252.574275
874.004489,536.266849,-518.144159,9178.553681
874.004805,612.876398,-518.144159,9252.574275
874.005121,306.438199,-666.185348,9252.574275
874.005437,306.438199,-444.123565,9326.594869
874.005753,459.657299,-518.144159,9474.636058
874.006068,229.828649,-666.185348,9326.594869
874.006384,459.657299,-518.144159,9696.697840
874.006700,536.266849,-888.247130,9400.615463
874.007016,842.705048,-740.205942,9474.636058
874.007331,766.095498,-592.164754,9474.636058
874.007647,842.705048,-814.226536,9252.574275
874.007963,1378.971896,-1110.308913,8808.450710
874.008279,1225.752797,-370.102971,9326.594869
874.008594,919.314598,-518.144159,9104.533087
874.008910,919.314598,-296.082377,9030.512492
874.009226,612.876398,-296.082377,9104.533087
874.009542,842.705048,-222.061783,9326.594869
874.009858,689.485948,-222.061783,9326.594869
874.010173,459.657299,-296.082377,9474.636058
874.010489,153.219100,-518.144159,9474.636058
874.010805,459.657299,-814.226536,9770.718434
874.011121,-383.047749,-814.226536,10066.800811
874.011436,-229.828649,-1036.288319,10066.800811
874.011752,-306.438199,-592.164754,10140.821405
874.012068,0.000000,-592.164754,9770.718434
874.012384,0.000000,-370.102971,9696.697840
874.012700,229.828649,-222.061783,9622.677246
874.013015,536.266849,-148.041188,9474.636058
874.013331,842.705048,-0.000000,9400.615463
874.013647,842.705048,-0.000000,9252.574275
874.013963,919.314598,296.082377,9474.636058
874.014278,383.047749,74.020594,9030.512492
874.014594,842.705048,370.102971,9400.615463
874.014910,383.047749,148.041188,9474.636058
874.015226,153.219100,-0.000000,9474.636058
874.015542,383.047749,-0.000000,9918.759623
874.015857,229.828649,-74.020594,9770.718434
874.016173,229.828649,-0.000000,9696.697840
874.016489,76.609550,-0.000000,9770.718434
874.016805,76.609550,296.082377,9696.697840
874.017120,229.828649,-0.000000,9474.636058
874.017436,459.657299,-0.000000,9474.636058
874.017752,153.219100,222.061783,9252.574275
874.018068,306.438199,222.061783,9400.615463
874.018383,229.828649,370.102971,9474.636058
874.018699,689.485948,-0.000000,9622.677246
874.019015,612.876398,296.082377,9474.636058
874.019331,459.657299,222.061783,9400.615463
874.019647,766.095498,666.185348,9474.636058
874.019962,689.485948,370.102971,9474.636058
874.020278,995.924147,296.082377,9474.636058
874.020594,459.657299,148.041188,9400.615463
874.020910,766.095498,296.082377,9326.594869
874.021225,689.485948,-0.000000,9474.636058
874.021541,612.876398,-0.000000,9400.615463
874.021857,383.047749,-74.020594,9770.718434
874.022173,459.657299,-0.000000,9474.636058
874.022489,459.657299,-0.000000,9622.677246
874.022804,536.266849,-0.000000,9400.615463
874.023120,229.828649,-296.082377,9548.656652
874.023436,459.657299,-0.000000,9474.636058
874.023752,383.047749,-0.000000,9400.615463
874.024067,383.047749,-0.000000,9696.697840
874.024383,536.266849,-74.020594,9474.636058
874.024699,689.485948,-518.144159,9696.697840
874.025015,459.657299,-74.020594,9622.677246
874.025330,229.828649,-296.082377,9474.636058
874.025646,383.047749,-296.082377,9474.636058
874.025962,536.266849,-222.061783,9474.636058
874.026278,383.047749,-296.082377,9696.697840
874.026594,153.219100,-296.082377,9474.636058
874.026909,459.657299,-148.041188,9252.574275
874.027225,689.485948,-222.061783,9400.615463
874.027541,612.876398,-222.061783,9326.594869
874.027857,153.219100,-296.082377,9770.718434
874.028172,459.657299,-74.020594,9326.594869
874.028488,383.047749,-222.061783,9474.636058
874.028804,306.438199,-370.102971,9400.615463
874.029120,459.657299,-814.226536,9400.615463
874.029436,0.000000,-518.144159,9474.636058
874.029751,459.657299,-148.041188,9474.636058
874.030067,612.876398,-444.123565,9400.615463
874.030383,459.657299,-592.164754,9696.697840
874.030699,536.266849,-814.226536,9548.656652
874.031014,459.657299,-666.185348,9474.636058
874.031330,766.095498,-592.164754,9474.636058
874.031646,995.924147,-666.185348,9252.574275
874.031962,1149.143247,-370.102971,9252.574275
874.032277,1149.143247,-0.000000,9474.636058
874.032593,919.314598,-0.000000,9104.533087
874.032909,766.095498,-296.082377,9030.512492
874.033225,536.266849,-0.000000,9178.553681
874.033541,612.876398,-74.020594,9104.533087
874.033856,229.828649,-296.082377,9474.636058
874.034172,76.609550,-592.164754,9622.677246
874.034488,0.000000,-888.247130,9622.677246
874.034804,-306.438199,-1036.288319,9770.718434
874.035119,0.000000,-666.185348,9992.780217
874.035435,-306.438199,-888.247130,9696.697840
874.035751,0.000000,-666.185348,9696.697840
874.036067,153.219100,-518.144159,9474.636058
874.036383,229.828649,-370.102971,9400.615463
874.036698,536.266849,-74.020594,9474.636058
874.037014,919.314598,-0.000000,9104.533087
874.037330,459.657299,-222.061783,8882.471304
874.037646,383.047749,222.061783,8956.491898
874.037961,689.485948,-0.000000,9030.512492
874.038277,306.438199,-0.000000,9252.574275
874.038593,383.047749,-74.020594,9326.594869
874.038909,229.828649,-74.020594,9400.615463
874.039224,0.000000,-0.000000,9474.636058
874.039540,-306.438199,-0.000000,9770.718434
874.039856,153.219100,-148.041188,9844.739029
874.040172,229.828649,-0.000000,9474.636058
874.040488,0.000000,-222.061783,9474.636058
874.040803,153.219100,-74.020594,9548.656652
874.041119,0.000000,-0.000000,9548.656652
874.041435,229.828649,-0.000000,9474.636058
874.041751,306.438199,-0.000000,9622.677246
874.042066,153.219100,-0.000000,9400.615463
874.042382,612.876398,148.041188,9474.636058
874.042698,689.485948,148.041188,9326.594869
874.043014,383.047749,-0.000000,9252.574275
874.043330,306.438199,444.123565,9252.574275
874.043645,459.657299,296.082377,9400.615463
874.043961,766.095498,-0.000000,9474.636058
874.044277,612.876398,-0.000000,9474.636058
874.044593,536.266849,-148.041188,9622.677246
874.044908,306.438199,-148.041188,9696.697840
874.045224,306.438199,-148.041188,9918.759623
874.045540,459.657299,-222.061783,9696.697840
874.045856,459.657299,-222.061783,9622.677246
874.046171,919.314598,74.020594,9770.718434
874.046487,153.219100,-296.082377,9622.677246
874.046803,536.266849,-0.000000,9696.697840
874.047119,229.828649,-74.020594,9474.636058
874.047435,536.266849,-148.041188,9622.677246
874.047750,306.438199,-0.000000,9548.656652
874.048066,306.438199,-148.041188,9548.656652
874.048382,229.828649,-222.061783,9622.677246
874.048698,229.828649,-296.082377,9474.636058
874.049013,0.000000,-222.061783,9622.677246
874.049329,229.828649,-666.185348,9474.636058
874.049645,536.266849,-444.123565,9326.594869
874.049961,612.876398,-370.102971,9474.636058
874.050277,383.047749,-444.123565,9474.636058
874.050592,459.657299,-518.144159,9548.656652
874.050908,919.314598,-0.000000,9696.697840
874.051224,689.485948,-296.082377,9474.636058
874.051540,383.047749,-444.123565,9252.574275
874.051855,153.219100,-370.102971,9474.636058
874.052171,306.438199,-296.082377,9548.656652
874.052487,459.657299,-592.164754,9326.594869
874.052803,459.657299,-666.185348,9252.574275
874.053118,153.219100,-370.102971,9622.677246
874.053434,459.657299,-592.164754,9474.636058
874.053750,536.266849,-666.185348,9400.615463
874.054066,689.485948,-814.226536,9548.656652
874.054382,383.047749,-814.226536,9252.574275
874.054697,766.095498,-518.144159,9400.615463
874.055013,842.705048,-444.123565,9400.615463
874.055329,842.705048,-666.185348,9400.615463
874.055645,842.705048,-296.082377,9326.594869
874.055960,1225.752797,-222.061783,9178.553681
874.056276,919.314598,-74.020594,9030.512492
874.056592,766.095498,-74.020594,8956.491898
874.056908,919.314598,296.082377,9178.553681
874.057224,612.876398,-370.102971,9104.533087
874.057539,383.047749,-222.061783,9252.574275
874.057855,153.219100,-518.144159,9474.636058
874.058171,0.000000,-888.247130,9474.636058
874.058487,76.609550,-888.247130,9918.759623
874.058802,0.000000,-962.267725,9548.656652
874.059118,0.000000,-888.247130,9844.739029
874.059434,76.609550,-518.144159,9622.677246
874.059750,0.000000,-518.144159,9474.636058
874.060065,459.657299,-592.164754,9474.636058
874.060381,459.657299,-0.000000,9326.594869
874.060697,842.705048,222.061783,9326.594869
874.061013,689.485948,-0.000000,9326.594869
874.061329,689.485948,370.102971,9326.594869
874.061644,306.438199,-0.000000,9252.574275
874.061960,689.485948,222.061783,9326.594869
874.062276,383.047749,-0.000000,9252.574275
874.062592,229.828649,296.082377,9474.636058
874.062907,76.609550,-0.000000,9548.656652
874.063223,153.219100,-74.020594,9770.718434
874.063539,0.000000,-74.020594,9696.697840
874.063855,153.219100,-0.000000,9770.718434
874.064171,229.828649,-0.000000,9622.677246
874.064486,0.000000,-0.000000,9844.739029
874.064802,0.000000,-148.041188,9474.636058
874.065118,153.219100,222.061783,9696.697840
874.065434,306.438199,444.123565,9474.636058
874.065749,76.609550,592.164754,9474.636058
874.066065,383.047749,296.082377,9696.697840
874.066381,459.657299,296.082377,9400.615463
874.066697,612.876398,370.102971,9474.636058
874.067012,612.876398,444.123565,9474.636058
874.067328,689.485948,444.123565,9400.615463
874.067644,459.657299,444.123565,9548.656652
874.067959,842.705048,148.041188,9474.636058
874.068275,766.095498,370.102971,9770.718434
874.068591,153.219100,-0.000000,9622.677246
874.068906,612.876398,-74.020594,9548.656652
874.069222,383.047749,-74.020594,9622.677246
874.069538,536.266849,148.041188,9696.697840
874.069853,612.876398,-0.000000,9474.636058
874.070169,612.876398,222.061783,9548.656652
874.070485,306.438199,-0.000000,9474.636058
874.070800,536.266849,148.041188,9474.636058
874.071116,306.438199,-74.020594,9474.636058
874.071432,536.266849,-74.020594,9770.718434
874.071747,229.828649,-222.061783,9474.636058
874.072063,306.438199,-74.020594,9696.697840
874.072379,229.828649,-370.102971,9474.636058
874.072694,306.438199,-370.102971,9474.636058
874.073010,383.047749,-444.123565,9400.615463
874.073326,536.266849,-296.082377,9400.615463
874.073641,459.657299,-444.123565,9696.697840
874.073957,306.438199,-444.123565,9474.636058
874.074273,536.266849,-666.185348,9400.615463
874.074588,612.876398,-148.041188,9548.656652
874.074904,689.485948,-222.061783,9326.594869
874.075220,995.924147,-518.144159,9474.636058
874.075535,459.657299,-222.061783,9400.615463
874.075851,766.095498,-666.185348,9474.636058
874.076167,383.047749,-518.144159,9400.615463
874.076482,612.876398,-518.144159,9400.615463
874.076798,383.047749,-444.123565,9326.594869
874.077114,229.828649,-444.123565,9474.636058
874.077429,383.047749,-666.185348,9622.677246
874.077745,383.047749,-592.164754,9622.677246
874.078061,689.485948,-814.226536,9474.636058
874.078377,612.876398,-1110.308913,9474.636058
874.078692,766.095498,-518.144159,9104.533087
874.079008,689.485948,-518.144159,9178.553681
874.079324,689.485948,-296.082377,9030.512492
874.079639,612.876398,-222.061783,9178.553681
874.079955,766.095498,-296.082377,9178.553681
874.080271,612.876398,-148.041188,9104.533087
874.080586,229.828649,-370.102971,9400.615463
874.080902,306.438199,-740.205942,9400.615463
874.081218,229.828649,-814.226536,9622.677246
874.081533,76.609550,-888.247130,9770.718434
874.081849,0.000000,-888.247130,9770.718434
874.082165,-229.828649,-740.205942,9696.697840
874.082480,0.000000,-740.205942,9622.677246
874.082796,229.828649,-814.226536,9844.739029
874.083112,0.000000,-296.082377,9548.656652
874.083427,306.438199,-222.061783,9178.553681
874.083743,536.266849,-222.061783,9326.594869
874.084059,612.876398,-0.000000,9252.574275
874.084374,383.047749,-74.020594,9400.615463
874.084690,383.047749,-0.000000,9104.533087
874.085006,612.876398,-0.000000,9326.594869
874.085321,229.828649,-74.020594,9252.574275
874.085637,536.266849,-222.061783,9474.636058
874.085953,229.828649,-148.041188,9474.636058
874.086268,0.000000,-148.041188,9474.636058
874.086584,0.000000,-74.020594,9474.636058
874.086900,76.609550,-0.000000,9696.697840
874.087215,153.219100,-222.061783,9844.739029
874.087531,0.000000,222.061783,9474.636058
874.087847,76.609550,222.061783,9474.636058
874.088162,153.219100,148.041188,9548.656652
874.088478,383.047749,-0.000000,9622.677246
874.088794,689.485948,-0.000000,9622.677246
874.089109,536.266849,222.061783,9474.636058
874.089425,306.438199,370.102971,9474.636058
874.089741,306.438199,444.123565,9400.615463
874.090057,383.047749,370.102971,9474.636058
874.090372,689.485948,518.144159,9622.677246
874.090688,536.266849,370.102971,9770.718434
874.091004,536.266849,296.082377,9474.636058
874.091319,536.266849,-0.000000,9400.615463
874.091635,229.828649,-0.000000,9474.636058
874.091951,995.924147,-0.000000,9770.718434
874.092266,306.438199,-74.020594,9622.677246
874.092582,306.438199,-0.000000,9770.718434
874.092898,459.657299,-0.000000,9474.636058
874.093213,536.266849,-0.000000,9474.636058
874.093529,459.657299,-74.020594,9696.697840
874.093845,459.657299,-0.000000,9622.677246
874.094160,383.047749,-0.000000,9326.594869
874.094476,459.657299,-0.000000,9400.615463
874.094792,536.266849,-148.041188,9474.636058
874.095107,842.705048,-222.061783,9400.615463
874.095423,383.047749,-296.082377,9474.636058
874.095739,612.876398,-74.020594,9474.636058
874.096054,383.047749,-222.061783,9400.615463
874.096370,459.657299,-296.082377,9474.636058
874.096686,919.314598,-444.123565,9622.677246
874.097001,536.266849,-370.102971,9474.636058
874.097317,383.047749,-370.102971,9252.574275
874.097633,459.657299,-444.123565,9474.636058
874.097948,536.266849,-592.164754,9474.636058
874.098264,536.266849,-666.185348,9474.636058
874.098580,459.657299,-370.102971,9252.574275
874.098895,229.828649,-444.123565,9400.615463
874.099211,153.219100,-444.123565,9326.594869
874.099527,459.657299,-296.082377,9474.636058
874.099842,383.047749,-370.102971,9326.594869
874.100158,459.657299,-444.123565,9400.615463
874.100474,689.485948,-444.123565,9474.636058
874.100789,689.485948,-740.205942,9474.636058
874.101105,1072.533697,-888.247130,9474.636058
874.101421,995.924147,-666.185348,9474.636058
874.101736,842.705048,-740.205942,9474.636058
874.102052,766.095498,-592.164754,9474.636058
874.102368,766.095498,-444.123565,9474.636058
874.102684,842.705048,-518.144159,9252.574275
874.102999,612.876398,-444.123565,9104.533087
874.103315,689.485948,-148.041188,9326.594869
874.103631,612.876398,-296.082377,9104.533087
874.103946,459.657299,-296.082377,9326.594869
874.104262,76.609550,-592.164754,9474.636058
874.104578,76.609550,-370.102971,9474.636058
874.104893,0.000000,-740.205942,9696.697840
874.105209,0.000000,-888.247130,9696.697840
874.105525,0.000000,-1110.308913,9548.656652
874.105840,-229.828649,-1258.350101,9770.718434
874.106156,0.000000,-814.226536,9770.718434
874.106472,0.000000,-666.185348,9770.718434
874.106787,383.047749,-592.164754,9548.656652
874.107103,306.438199,-222.061783,9326.594869
874.107419,766.095498,-444.123565,9104.533087
874.107734,842.705048,-0.000000,9178.553681
874.108050,689.485948,-0.000000,8882.471304
874.108366,612.876398,-74.020594,9030.512492
874.108681,612.876398,-74.020594,9104.533087
874.108997,383.047749,-0.000000,9326.594869
874.109313,306.438199,-74.020594,9400.615463
874.109628,689.485948,-0.000000,9474.636058
874.109944,153.219100,-74.020594,9622.677246
874.110260,76.609550,-74.020594,9844.739029
874.110575,76.609550,-0.000000,9992.780217
874.110891,0.000000,-0.000000,9770.718434
874.111207,0.000000,-0.000000,9622.677246
874.111522,153.219100,370.102971,9696.697840
874.111838,229.828649,-0.000000,9326.594869
874.112154,76.609550,-0.000000,9622.677246
874.112469,229.828649,296.082377,9548.656652
874.112785,229.828649,222.061783,9326.594869
874.113101,306.438199,444.123565,9622.677246
874.113416,842.705048,370.102971,9400.615463
874.113732,612.876398,222.061783,9696.697840
874.114048,612.876398,518.144159,9474.636058
874.114364,459.657299,444.123565,9474.636058
874.114679,536.266849,444.123565,9696.697840
874.114995,766.095498,-0.000000,9548.656652
874.115311,459.657299,296.082377,9548.656652
874.115626,229.828649,296.082377,9474.636058
874.115942,383.047749,-0.000000,9548.656652
874.116258,536.266849,-0.000000,9474.636058
874.116573,536.266849,-0.000000,9474.636058
874.116889,459.657299,296.082377,9696.697840
874.117205,612.876398,-0.000000,9474.636058
874.117520,459.657299,-0.000000,9474.636058
874.117836,536.266849,-0.000000,9548.656652
874.118152,459.657299,-222.061783,9622.677246
874.118467,459.657299,-0.000000,9252.574275
874.118783,153.219100,-0.000000,9548.656652
874.119099,229.828649,-222.061783,9548.656652
874.119414,306.438199,-222.061783,9548.656652
874.119730,612.876398,-0.000000,9622.677246
874.120046,459.657299,-148.041188,9548.656652
874.120361,306.438199,-74.020594,9474.636058
874.120677,383.047749,-296.082377,9400.615463
874.120993,842.705048,-296.082377,9400.615463
874.121308,689.485948,-740.205942,9252.574275
874.121624,842.705048,-296.082377,9252.574275
874.121940,689.485948,-0.000000,9474.636058
874.122255,383.047749,-296.082377,9400.615463
874.122571,536.266849,-74.020594,9622.677246
874.122887,536.266849,-370.102971,9326.594869
874.123202,536.266849,-296.082377,9326.594869
874.123518,459.657299,-592.164754,9252.574275
874.123834,229.828649,-444.123565,9474.636058
874.124149,306.438199,-370.102971,9548.656652
874.124465,153.219100,-444.123565,9474.636058
874.124781,842.705048,-518.144159,9326.594869
874.125096,612.876398,-666.185348,9400.615463
874.125412,689.485948,-740.205942,9474.636058
874.125728,766.095498,-962.267725,9474.636058
874.126043,842.705048,-518.144159,9252.574275
874.126359,919.314598,-148.041188,9178.553681
874.126675,919.314598,-148.041188,9178.553681
874.126991,766.095498,-148.041188,9178.553681
874.127306,612.876398,-296.082377,8808.450710
874.127622,536.266849,-370.102971,8956.491898
874.127938,306.438199,-444.123565,9400.615463
874.128253,0.000000,-370.102971,9548.656652
874.128569,0.000000,-814.226536,9474.636058
874.128885,0.000000,-888.247130,10140.821405
874.129200,-153.219100,-1036.288319,9844.739029
874.129516,-229.828649,-962.267725,9770.718434
874.129832,76.609550,-814.226536,9770.718434
874.130147,-383.047749,-962.267725,9622.677246
874.130463,153.219100,-666.185348,9622.677246
874.130779,459.657299,-296.082377,9548.656652
874.131094,459.657299,-0.000000,9252.574275
874.131410,536.266849,-0.000000,9326.594869
874.131726,612.876398,-148.041188,9178.553681
874.132041,689.485948,-0.000000,9104.533087
874.132357,536.266849,148.041188,9178.553681
874.132673,459.657299,148.041188,9326.594869
874.132988,306.438199,-0.000000,9474.636058
874.133304,153.219100,-518.144159,9474.636058
874.133620,153.219100,-0.000000,9770.718434
874.133935,0.000000,74.020594,9918.759623
874.134251,153.219100,-148.041188,9844.739029
874.134567,0.000000,-74.020594,9696.697840
874.134882,0.000000,-0.000000,9548.656652
874.135198,0.000000,-0.000000,9548.656652
874.135514,0.000000,370.102971,9696.697840
874.135829,612.876398,222.061783,9474.636058
874.136145,459.657299,-0.000000,9548.656652
874.136461,536.266849,370.102971,9548.656652
874.136776,306.438199,222.061783,9474.636058
874.137092,383.047749,592.164754,9474.636058
874.137408,689.485948,444.123565,9548.656652
874.137723,229.828649,222.061783,9474.636058
874.138039,383.047749,296.082377,9474.636058
874.138355,536.266849,370.102971,9474.636058
874.138671,536.266849,296.082377,9696.697840
874.138986,383.047749,-0.000000,9622.677246
874.139302,459.657299,-148.041188,9918.759623
874.139618,229.828649,-0.000000,9696.697840
874.139933,383.047749,-0.000000,9696.697840
874.140249,229.828649,-74.020594,9696.697840
874.140565,306.438199,-0.000000,9622.677246
874.140880,536.266849,-74.020594,9622.677246
874.141196,919.314598,-0.000000,9474.636058
874.141512,536.266849,-0.000000,9400.615463
874.141827,459.657299,-0.000000,9474.636058
874.142143,612.876398,-74.020594,9474.636058
874.142459,306.438199,-0.000000,9622.677246
874.142774,459.657299,-0.000000,9622.677246
874.143090,229.828649,-592.164754,9474.636058
874.143406,153.219100,-370.102971,9548.656652
874.143721,383.047749,-444.123565,9548.656652
874.144037,153.219100,-222.061783,9326.594869
874.144353,612.876398,-296.082377,9622.677246
874.144668,459.657299,-370.102971,9474.636058
874.144984,612.876398,-444.123565,9548.656652
874.145300,536.266849,-444.123565,9474.636058
874.145615,919.314598,-888.247130,9474.636058
874.145931,383.047749,-444.123565,9326.594869
874.146247,459.657299,-444.123565,9326.594869
874.146562,612.876398,-370.102971,9474.636058
874.146878,919.314598,-444.123565,9400.615463
874.147194,766.095498,-222.061783,9474.636058
874.147509,229.828649,-518.144159,9548.656652
874.147825,459.657299,-518.144159,9252.574275
874.148141,689.485948,-592.164754,9474.636058
874.148456,689.485948,-666.185348,9548.656652
874.148772,459.657299,-888.247130,9474.636058
874.149088,689.485948,-666.185348,9474.636058
874.149403,919.314598,-592.164754,9326.594869
874.149719,1072.533697,-370.102971,9326.594869
874.150035,1072.533697,-592.164754,9326.594869
874.150350,1149.143247,-740.205942,9326.594869
874.150666,1149.143247,-296.082377,9030.512492
874.150982,766.095498,-296.082377,8956.491898
874.151298,612.876398,-222.061783,9400.615463
874.151613,459.657299,-444.123565,9252.574275
874.151929,76.609550,-1110.308913,9474.636058
874.152245,0.000000,-888.247130,9992.780217
874.152560,0.000000,-962.267725,9770.718434
874.152876,153.219100,-888.247130,9548.656652
874.153192,0.000000,-814.226536,9844.739029
874.153507,0.000000,-814.226536,9696.697840
874.153823,76.609550,-740.205942,9622.677246
874.154139,306.438199,-518.144159,9474.636058
874.154454,306.438199,-370.102971,9326.594869
874.154770,766.095498,-148.041188,9326.594869
874.155086,459.657299,-0.000000,9178.553681
874.155401,612.876398,-0.000000,9326.594869
874.155717,689.485948,-0.000000,9104.533087
874.156033,306.438199,222.061783,9178.553681
874.156348,459.657299,-0.000000,9474.636058
874.156664,153.219100,-0.000000,9326.594869
874.156980,76.609550,-148.041188,9696.697840
874.157295,76.609550,-296.082377,9474.636058
874.157611,76.609550,-0.000000,9696.697840
874.157927,306.438199,-296.082377,9844.739029
874.158242,153.219100,-0.000000,9622.677246
874.158558,229.828649,-0.000000,9474.636058
874.158874,76.609550,296.082377,9474.636058
874.159189,0.000000,296.082377,9622.677246
874.159505,383.047749,444.123565,9622.677246
874.159821,229.828649,444.123565,9474.636058
874.160136,153.219100,518.144159,9548.656652
874.160452,306.438199,444.123565,9474.636058
874.160768,383.047749,444.123565,9474.636058
874.161083,383.047749,370.102971,9474.636058
874.161399,459.657299,518.144159,9474.636058
874.161715,306.438199,518.144159,9474.636058
874.162030,536.266849,370.102971,9622.677246
874.162346,536.266849,-0.000000,9400.615463
874.162662,306.438199,222.061783,9622.677246
874.162978,229.828649,148.041188,9844.739029
874.163293,536.266849,222.061783,9770.718434
874.163609,459.657299,222.061783,9770.718434
874.163925,306.438199,370.102971,9548.656652
874.164240,536.266849,296.082377,9548.656652
874.164556,459.657299,222.061783,9474.636058
874.164872,383.047749,222.061783,9548.656652
874.165187,383.047749,148.041188,9474.636058
874.165503,229.828649,-0.000000,9400.615463
874.165819,689.485948,-0.000000,9548.656652
874.166134,536.266849,-0.000000,9474.636058
874.166450,306.438199,-370.102971,9696.697840
874.166766,383.047749,-222.061783,9474.636058
874.167081,536.266849,-444.123565,9548.656652
874.167397,459.657299,-370.102971,9696.697840
874.167713,383.047749,-74.020594,9400.615463
874.168029,612.876398,-148.041188,9474.636058
874.168344,536.266849,-74.020594,9400.615463
874.168660,536.266849,-74.020594,9474.636058
874.168976,842.705048,-148.041188,9252.574275
874.169292,459.657299,-296.082377,9252.574275
874.169608,612.876398,-0.000000,9400.615463
874.169923,536.266849,-222.061783,9326.594869
874.170239,76.609550,-370.102971,9696.697840
874.170555,383.047749,-370.102971,9474.636058
874.170871,536.266849,-666.185348,9326.594869
874.171186,459.657299,-518.144159,9474.636058
874.171502,459.657299,-740.205942,9474.636058
874.171818,612.876398,-592.164754,9548.656652
874.172134,536.266849,-666.185348,9696.697840
874.172450,689.485948,-740.205942,9178.553681
874.172765,995.924147,-444.123565,9548.656652
874.173081,766.095498,-296.082377,9400.615463
874.173397,383.047749,-666.185348,9178.553681
874.173713,842.705048,-222.061783,9104.533087
874.174029,919.314598,-222.061783,9252.574275
874.174344,612.876398,-296.082377,9252.574275
874.174660,689.485948,-296.082377,9252.574275
874.174976,536.266849,-444.123565,9326.594869
874.175292,306.438199,-888.247130,9548.656652
874.175607,76.609550,-592.164754,9548.656652
874.175923,0.000000,-962.267725,9622.677246
874.176239,153.219100,-1036.288319,9622.677246
874.176555,0.000000,-1110.308913,9622.677246
874.176871,0.000000,-888.247130,9696.697840
874.177186,0.000000,-666.185348,9622.677246
874.177502,383.047749,-592.164754,9400.615463
874.177818,153.219100,-296.082377,9400.615463
874.178134,536.266849,-0.000000,9474.636058
874.178450,612.876398,-74.020594,9178.553681
874.178765,689.485948,-148.041188,9252.574275
874.179081,766.095498,-148.041188,9178.553681
874.179397,919.314598,-148.041188,9104.533087
874.179713,306.438199,-0.000000,9474.636058
874.180028,153.219100,-222.061783,9474.636058
874.180344,153.219100,-0.000000,9622.677246
874.180660,229.828649,-74.020594,9548.656652
874.180976,76.609550,-74.020594,9696.697840
874.181292,229.828649,-74.020594,9622.677246
874.181607,0.000000,-148.041188,9474.636058
874.181923,76.609550,-0.000000,9622.677246
874.182239,306.438199,222.061783,9548.656652
874.182555,229.828649,-0.000000,9622.677246
874.182870,459.657299,-0.000000,9622.677246
874.183186,459.657299,222.061783,9474.636058
874.183502,306.438199,370.102971,9548.656652
874.183818,383.047749,-0.000000,9474.636058
874.184134,612.876398,370.102971,9548.656652
874.184449,306.438199,296.082377,9474.636058
874.184765,229.828649,222.061783,9622.677246
874.185081,689.485948,296.082377,9474.636058
874.185397,689.485948,222.061783,9548.656652
874.185713,612.876398,222.061783,9474.636058
874.186028,536.266849,-0.000000,9474.636058
874.186344,536.266849,-0.000000,9696.697840
874.186660,306.438199,-74.020594,9622.677246
874.186976,612.876398,-0.000000,9770.718434
874.187291,229.828649,-0.000000,9622.677246
874.187607,459.657299,148.041188,9770.718434
874.187923,842.705048,-0.000000,9252.574275
874.188239,689.485948,-0.000000,9326.594869
874.188555,306.438199,148.041188,9474.636058
874.188870,459.657299,-0.000000,9400.615463
874.189186,689.485948,-0.000000,9548.656652
874.189502,459.657299,-74.020594,9548.656652
874.189818,536.266849,-222.061783,9548.656652
874.190134,306.438199,-222.061783,9696.697840
874.190449,153.219100,-222.061783,9622.677246
874.190765,229.828649,-370.102971,9622.677246
874.191081,383.047749,-370.102971,9696.697840
874.191397,383.047749,-518.144159,9400.615463
874.191712,383.047749,-370.102971,9622.677246
874.192028,459.657299,-222.061783,9474.636058
874.192344,459.657299,-444.123565,9400.615463
874.192660,383.047749,-370.102971,9474.636058
874.192976,383.047749,-592.164754,9400.615463
874.193291,306.438199,-370.102971,9326.594869
874.193607,383.047749,-296.082377,9326.594869
874.193923,612.876398,-518.144159,9326.594869
874.194239,536.266849,-444.123565,9400.615463
874.194555,612.876398,-814.226536,9400.615463
874.194870,536.266849,-888.247130,9400.615463
874.195186,229.828649,-518.144159,9770.718434
874.195502,612.876398,-740.205942,9548.656652
874.195818,689.485948,-666.185348,9548.656652
874.196133,842.705048,-370.102971,9770.718434
874.196449,689.485948,-666.185348,9400.615463
874.196765,766.095498,-518.144159,9104.533087
874.197081,995.924147,-370.102971,9252.574275
874.197397,689.485948,-148.041188,9178.553681
874.197712,1072.533697,-148.041188,9326.594869
874.198028,536.266849,-296.082377,9252.574275
874.198344,842.705048,-0.000000,9252.574275
874.198660,229.828649,-222.061783,9178.553681
874.198975,229.828649,-518.144159,9400.615463
874.199291,229.828649,-666.185348,9474.636058
874.199607,0.000000,-1036.288319,9770.718434
874.199923,0.000000,-1036.288319,9622.677246
874.200239,76.609550,-1036.288319,9548.656652
874.200554,0.000000,-888.247130,9548.656652
874.200870,153.219100,-740.205942,9474.636058
874.201186,153.219100,-444.123565,9474.636058
874.201502,383.047749,-296.082377,9474.636058
874.201818,536.266849,-0.000000,9178.553681
874.202133,536.266849,-148.041188,9104.533087
874.202449,612.876398,-222.061783,9252.574275
874.202765,689.485948,-0.000000,9326.594869
874.203081,612.876398,-0.000000,9400.615463
874.203396,459.657299,-0.000000,9252.574275
874.203712,153.219100,-0.000000,9548.656652
874.204028,766.095498,-148.041188,9548.656652
874.204344,229.828649,-74.020594,9622.677246
874.204660,229.828649,-0.000000,9548.656652
874.204975,76.609550,-0.000000,9844.739029
874.205291,229.828649,222.061783,9622.677246
874.205607,842.705048,444.123565,9474.636058
874.205923,76.609550,-0.000000,9474.636058
874.206239,153.219100,518.144159,9400.615463
874.206554,383.047749,222.061783,9474.636058
874.206870,459.657299,296.082377,9474.636058
874.207186,76.609550,-148.041188,9474.636058
874.207502,459.657299,592.164754,9548.656652
874.207817,459.657299,370.102971,9474.636058
874.208133,383.047749,370.102971,9474.636058
874.208449,306.438199,592.164754,9474.636058
874.208765,689.485948,666.185348,9696.697840
874.209081,919.314598,592.164754,9400.615463
874.209396,689.485948,444.123565,9474.636058
874.209712,383.047749,-0.000000,9474.636058
874.210028,306.438199,148.041188,9622.677246
874.210344,536.266849,-74.020594,9696.697840
874.210659,383.047749,222.061783,9474.636058
874.210975,383.047749,222.061783,9622.677246
874.211291,536.266849,444.123565,9770.718434
874.211607,383.047749,370.102971,9474.636058
874.211923,459.657299,222.061783,9400.615463
874.212238,383.047749,-0.000000,9548.656652
874.212554,153.219100,-0.000000,9474.636058
874.212870,383.047749,-0.000000,9474.636058
874.213186,383.047749,-296.082377,9474.636058
874.213502,229.828649,-74.020594,9770.718434
874.213817,153.219100,-74.020594,9622.677246
874.214133,76.609550,-74.020594,9696.697840
874.214449,306.438199,-148.041188,9474.636058
874.214765,229.828649,-518.144159,9622.677246
874.215080,383.047749,-222.061783,9474.636058
874.215396,459.657299,-74.020594,9548.656652
874.215712,536.266849,-370.102971,9474.636058
874.216028,536.266849,-222.061783,9400.615463
874.216344,383.047749,-370.102971,9474.636058
874.216659,536.266849,-222.061783,9474.636058
874.216975,459.657299,-222.061783,9252.574275
874.217291,383.047749,-296.082377,9400.615463
874.217607,383.047749,-444.123565,9326.594869
874.217923,306.438199,-444.123565,9400.615463
874.218238,536.266849,-666.185348,9400.615463
874.218554,459.657299,-592.164754,9474.636058
874.218870,612.876398,-592.164754,9474.636058
874.219186,995.924147,-814.226536,9400.615463
874.219501,995.924147,-1036.288319,9252.574275
874.219817,995.924147,-592.164754,9326.594869
874.220133,689.485948,-888.247130,9400.615463
874.220449,919.314598,-296.082377,9326.594869
874.220765,766.095498,-370.102971,9252.574275
874.221080,919.314598,-592.164754,8734.430116
874.221396,842.705048,-296.082377,9030.512492
874.221712,689.485948,-148.041188,9030.512492
874.222028,536.266849,-444.123565,9104.533087
874.222344,0.000000,-296.082377,9548.656652
874.222659,0.000000,-814.226536,9474.636058
874.222975,76.609550,-518.144159,9548.656652
874.223291,0.000000,-1036.288319,9696.697840
874.223607,0.000000,-1110.308913,9770.718434
874.223922,-153.219100,-962.267725,9770.718434
874.224238,0.000000,-814.226536,9622.677246
874.224554,0.000000,-740.205942,9548.656652
874.224870,306.438199,-222.061783,9474.636058
874.225186,383.047749,-296.082377,9326.594869
874.225501,766.095498,-74.020594,9030.512492
874.225817,766.095498,-148.041188,9104.533087
874.226133,842.705048,-0.000000,8882.471304
874.226449,689.485948,-0.000000,9178.553681
874.226764,612.876398,-0.000000,9252.574275
874.227080,689.485948,-0.000000,9178.553681
874.227396,306.438199,-296.082377,9400.615463
874.227712,153.219100,-0.000000,9548.656652
874.228028,0.000000,-0.000000,9622.677246
874.228343,0.000000,-0.000000,9770.718434
874.228659,76.609550,-74.020594,9622.677246
874.228975,76.609550,-148.041188,9622.677246
874.229291,229.828649,-0.000000,9548.656652
874.229607,0.000000,148.041188,9918.759623
874.229922,229.828649,-0.000000,9622.677246
874.230238,229.828649,-0.000000,9622.677246
874.230554,306.438199,-0.000000,9326.594869
874.230870,536.266849,370.102971,9622.677246
874.231185,536.266849,370.102971,9400.615463
874.231501,689.485948,370.102971,9474.636058
874.231817,536.266849,444.123565,9474.636058
874.232133,383.047749,740.205942,9474.636058
874.232449,536.266849,518.144159,9474.636058
874.232764,536.266849,222.061783,9474.636058
874.233080,459.657299,222.061783,9548.656652
874.233396,689.485948,-0.000000,9548.656652
874.233712,536.266849,-148.041188,9548.656652
874.234028,383.047749,-74.020594,9696.697840
874.234343,383.047749,-0.000000,9696.697840
874.234659,153.219100,-0.000000,9918.759623
874.234975,0.000000,-0.000000,9548.656652
874.235291,76.609550,-74.020594,9548.656652
874.235606,229.828649,-0.000000,9548.656652
874.235922,383.047749,-0.000000,9548.656652
874.236238,612.876398,-222.061783,9548.656652
874.236554,306.438199,148.041188,9474.636058
874.236870,383.047749,-74.020594,9622.677246
874.237185,459.657299,-148.041188,9696.697840
874.237501,153.219100,-148.041188,9548.656652
874.237817,306.438199,-296.082377,9622.677246
874.238133,153.219100,-296.082377,9400.615463
874.238448,229.828649,-518.144159,9548.656652
874.238764,459.657299,-296.082377,9474.636058
874.239080,536.266849,-296.082377,9474.636058
874.239396,612.876398,-222.061783,9252.574275
874.239712,459.657299,-148.041188,9474.636058
874.240027,383.047749,-370.102971,9400.615463
874.240343,459.657299,-296.082377,9474.636058
874.240659,766.095498,-444.123565,9252.574275
874.240975,459.657299,-444.123565,9252.574275
874.241291,153.219100,-888.247130,9474.636058
874.241606,536.266849,-370.102971,9548.656652
874.241922,383.047749,-592.164754,9474.636058
874.242238,459.657299,-518.144159,9474.636058
874.242554,383.047749,-740.205942,9548.656652
874.242869,383.047749,-814.226536,9474.636058
874.243185,612.876398,-740.205942,9474.636058
874.243501,766.095498,-814.226536,9474.636058
874.243817,919.314598,-518.144159,9622.677246
874.244133,1225.752797,-518.144159,9252.574275
874.244448,766.095498,-518.144159,9104.533087
874.244764,919.314598,-148.041188,9104.533087
874.245080,842.705048,-444.123565,9326.594869
874.245396,766.095498,-148.041188,9030.512492
874.245712,689.485948,-296.082377,9252.574275
874.246027,612.876398,-370.102971,9326.594869
874.246343,76.609550,-814.226536,9326.594869
874.246659,0.000000,-888.247130,9474.636058
874.246975,0.000000,-1036.288319,9696.697840
874.247290,0.000000,-1036.288319,9770.718434
874.247606,-153.219100,-962.267725,9696.697840
874.247922,76.609550,-814.226536,9992.780217
874.248238,-153.219100,-444.123565,9474.636058
874.248554,229.828649,-518.144159,9326.594869
874.248869,229.828649,-296.082377,9252.574275
874.249185,612.876398,-0.000000,9326.594869
874.249501,766.095498,-0.000000,9178.553681
874.249817,612.876398,-222.061783,9474.636058
874.250133,766.095498,-0.000000,9104.533087
874.250448,766.095498,-0.000000,9178.553681
874.250764,459.657299,-0.000000,9326.594869
874.251080,229.828649,-222.061783,9400.615463
874.251396,842.705048,148.041188,9622.677246
874.251711,76.609550,-0.000000,9844.739029
874.252027,229.828649,-0.000000,9622.677246
874.252343,153.219100,-0.000000,9548.656652
874.252659,76.609550,-0.000000,9548.656652
874.252975,229.828649,-0.000000,9326.594869
874.253290,76.609550,222.061783,9474.636058
874.253606,229.828649,370.102971,9622.677246
874.253922,383.047749,148.041188,9622.677246
874.254238,459.657299,222.061783,9548.656652
874.254553,383.047749,222.061783,9474.636058
874.254869,689.485948,518.144159,9474.636058
874.255185,383.047749,222.061783,9326.594869
874.255501,536.266849,444.123565,9400.615463
874.255817,459.657299,444.123565,9548.656652
874.256132,612.876398,370.102971,9844.739029
874.256448,536.266849,444.123565,9474.636058
874.256764,766.095498,222.061783,9548.656652
874.257080,689.485948,-0.000000,9548.656652
874.257396,76.609550,-0.000000,9622.677246
874.257711,459.657299,370.102971,9622.677246
874.258027,766.095498,-0.000000,9326.594869
874.258343,689.485948,222.061783,9622.677246
874.258659,536.266849,370.102971,9474.636058
874.258974,536.266849,-0.000000,9474.636058
874.259290,153.219100,-0.000000,9696.697840
874.259606,459.657299,-0.000000,9474.636058
874.259922,153.219100,-0.000000,9622.677246
874.260238,0.000000,-74.020594,9474.636058
874.260553,383.047749,-0.000000,9770.718434
874.260869,229.828649,-370.102971,9770.718434
874.261185,766.095498,-222.061783,9474.636058
874.261501,383.047749,-370.102971,9474.636058
874.261817,229.828649,-370.102971,9474.636058
874.262132,459.657299,-222.061783,9400.615463
874.262448,383.047749,-0.000000,9548.656652
874.262764,459.657299,-74.020594,9474.636058
874.263080,689.485948,-370.102971,9400.615463
874.263395,459.657299,-0.000000,9326.594869
874.263711,612.876398,-444.123565,9178.553681
874.264027,1302.362347,-592.164754,9252.574275
874.264343,383.047749,-518.144159,9400.615463
874.264659,689.485948,-370.102971,9326.594869
874.264974,536.266849,-518.144159,9474.636058
874.265290,383.047749,-444.123565,9400.615463
874.265606,536.266849,-666.185348,9918.759623
874.265922,383.047749,-518.144159,9548.656652
874.266237,689.485948,-740.205942,9622.677246
874.266553,842.705048,-740.205942,9474.636058
874.266869,536.266849,-666.185348,9474.636058
874.267185,1072.533697,-740.205942,9252.574275
874.267501,766.095498,-592.164754,9104.533087
874.267816,842.705048,-518.144159,8882.471304
874.268132,1072.533697,-296.082377,8956.491898
874.268448,842.705048,-148.041188,9104.533087
874.268764,766.095498,-370.102971,9178.553681
874.269079,689.485948,-444.123565,8956.491898
874.269395,76.609550,-370.102971,9474.636058
874.269711,383.047749,-740.205942,9252.574275
874.270026,76.609550,-814.226536,9696.697840
874.270342,0.000000,-962.267725,9918.759623
874.270658,0.000000,-888.247130,9548.656652
874.270974,0.000000,-740.205942,9844.739029
874.271289,0.000000,-666.185348,9548.656652
874.271605,229.828649,-814.226536,9326.594869
874.271921,383.047749,-222.061783,9252.574275
874.272236,459.657299,-222.061783,9474.636058
874.272552,459.657299,-148.041188,9178.553681
874.272868,536.266849,-0.000000,9252.574275
874.273183,536.266849,-0.000000,9326.594869
874.273499,766.095498,-74.020594,9104.533087
874.273815,459.657299,-222.061783,9400.615463
874.274131,306.438199,-296.082377,9548.656652
874.274446,229.828649,-148.041188,9548.656652
874.274762,0.000000,-444.123565,9770.718434
874.275078,153.219100,-0.000000,9622.677246
874.275393,76.609550,-0.000000,9696.697840
874.275709,306.438199,-0.000000,9770.718434
874.276025,229.828649,-74.020594,9696.697840
874.276340,153.219100,-74.020594,9548.656652
874.276656,306.438199,-0.000000,9326.594869
874.276972,153.219100,-0.000000,9622.677246
874.277288,383.047749,222.061783,9622.677246
874.277603,536.266849,222.061783,9474.636058
874.277919,766.095498,148.041188,9474.636058
874.278235,612.876398,444.123565,9326.594869
874.278550,459.657299,518.144159,9548.656652
874.278866,459.657299,444.123565,9548.656652
874.279182,919.314598,370.102971,9474.636058
874.279497,766.095498,222.061783,9844.739029
874.279813,459.657299,-0.000000,9474.636058
874.280129,689.485948,-0.000000,9474.636058
874.280445,383.047749,-0.000000,9548.656652
874.280760,306.438199,-0.000000,9696.697840
874.281076,229.828649,-0.000000,9696.697840
874.281392,383.047749,-0.000000,9696.697840
874.281707,459.657299,-0.000000,9548.656652
874.282023,459.657299,-0.000000,9548.656652
874.282339,306.438199,-0.000000,9696.697840
874.282654,306.438199,296.082377,9770.718434
874.282970,459.657299,-74.020594,9548.656652
874.283286,459.657299,-148.041188,9622.677246
874.283602,229.828649,-0.000000,9474.636058
874.283917,459.657299,-296.082377,9474.636058
874.284233,383.047749,-296.082377,9548.656652
874.284549,306.438199,-148.041188,9622.677246
874.284864,306.438199,-222.061783,9474.636058
874.285180,383.047749,-296.082377,9474.636058
874.285496,459.657299,-222.061783,9770.718434
874.285811,229.828649,-296.082377,9474.636058
874.286127,383.047749,-222.061783,9474.636058
874.286443,383.047749,-148.041188,9474.636058
874.286759,383.047749,-222.061783,9400.615463
874.287074,766.095498,-518.144159,9252.574275
874.287390,459.657299,-296.082377,9400.615463
874.287706,383.047749,-518.144159,9400.615463
874.288021,459.657299,-518.144159,9474.636058
874.288337,459.657299,-370.102971,9474.636058
874.288653,689.485948,-592.164754,9400.615463
874.288968,612.876398,-518.144159,9474.636058
874.289284,689.485948,-962.267725,9252.574275
874.289600,689.485948,-666.185348,9474.636058
874.289916,612.876398,-814.226536,9400.615463
874.290231,919.314598,-666.185348,9474.636058
874.290547,842.705048,-592.164754,9474.636058
874.290863,995.924147,-592.164754,9474.636058
874.291178,689.485948,-592.164754,9326.594869
874.291494,536.266849,-740.205942,9104.533087
874.291810,842.705048,-518.144159,9104.533087
874.292125,689.485948,-370.102971,9104.533087
874.292441,536.266849,-296.082377,9326.594869
874.292757,536.266849,-370.102971,9474.636058
874.293073,842.705048,-962.267725,9326.594869
874.293388,229.828649,-592.164754,9622.677246
874.293704,76.609550,-740.205942,9696.697840
874.294020,0.000000,-1036.288319,9548.656652
874.294335,76.609550,-1184.329507,9696.697840
874.294651,-229.828649,-814.226536,9622.677246
874.294967,306.438199,-814.226536,9696.697840
874.295282,612.876398,-444.123565,9548.656652
874.295598,383.047749,-370.102971,9474.636058
874.295914,383.047749,-0.000000,9252.574275
874.296230,689.485948,-0.000000,9104.533087
874.296545,766.095498,-222.061783,9104.533087
874.296861,536.266849,-0.000000,9178.553681
874.297177,689.485948,-74.020594,9178.553681
874.297492,689.485948,-0.000000,9326.594869
874.297808,306.438199,-370.102971,9400.615463
874.298124,536.266849,-74.020594,9548.656652
874.298439,306.438199,-74.020594,9622.677246
874.298755,0.000000,-0.000000,9474.636058
874.299071,0.000000,-0.000000,9770.718434
874.299387,0.000000,-148.041188,9548.656652
874.299702,0.000000,-0.000000,9696.697840
874.300018,0.000000,148.041188,9696.697840
874.300334,76.609550,296.082377,9548.656652
874.300649,383.047749,-0.000000,9696.697840
874.300965,76.609550,-0.000000,9474.636058
874.301281,0.000000,296.082377,9844.739029
874.301596,383.047749,370.102971,9326.594869
874.301912,383.047749,-0.000000,9474.636058
874.302228,383.047749,444.123565,9474.636058
874.302544,689.485948,592.164754,9622.677246
874.302859,536.266849,296.082377,9326.594869
874.303175,459.657299,296.082377,9400.615463
874.303491,459.657299,-0.000000,9474.636058
874.303806,612.876398,518.144159,9474.636058
874.304122,612.876398,296.082377,9696.697840
874.304438,306.438199,222.061783,9622.677246
874.304753,306.438199,-0.000000,9696.697840
874.305069,0.000000,-0.000000,9548.656652
874.305385,536.266849,296.082377,9622.677246
874.305701,612.876398,-0.000000,9474.636058
874.306016,306.438199,-0.000000,9474.636058
874.306332,306.438199,-0.000000,9474.636058
874.306648,689.485948,-0.000000,9474.636058
874.306963,383.047749,-0.000000,9622.677246
874.307279,229.828649,-74.020594,9474.636058
874.307595,383.047749,-148.041188,9548.656652
874.307910,306.438199,-222.061783,9622.677246
874.308226,383.047749,-222.061783,9696.697840
874.308542,459.657299,-592.164754,9400.615463
874.308858,459.657299,-148.041188,9474.636058
874.309173,536.266849,-148.041188,9474.636058
874.309489,612.876398,-296.082377,9474.636058
874.309805,612.876398,-370.102971,9474.636058
874.310120,689.485948,-148.041188,9400.615463
874.310436,536.266849,-222.061783,9400.615463
874.310752,536.266849,-74.020594,9326.594869
874.311067,383.047749,-222.061783,9400.615463
874.311383,689.485948,-444.123565,9474.636058
874.311699,689.485948,-296.082377,9400.615463
874.312015,536.266849,-518.144159,9474.636058
874.312330,229.828649,-518.144159,9400.615463
874.312646,536.266849,-370.102971,9474.636058
874.312962,536.266849,-888.247130,9696.697840
874.313277,536.266849,-814.226536,9548.656652
874.313593,459.657299,-740.205942,9622.677246
874.313909,383.047749,-740.205942,9696.697840
874.314224,766.095498,-518.144159,9400.615463
874.314540,919.314598,-518.144159,9474.636058
874.314856,919.314598,-370.102971,9104.533087
874.315172,919.314598,-74.020594,9030.512492
874.315487,766.095498,-148.041188,8808.450710
874.315803,995.924147,-296.082377,9104.533087
874.316119,383.047749,-444.123565,8956.491898
874.316434,306.438199,-370.102971,9326.594869
874.316750,383.047749,-592.164754,9400.615463
874.317066,76.609550,-814.226536,9474.636058
874.317381,153.219100,-740.205942,9770.718434
874.317697,0.000000,-1110.308913,9992.780217
874.318013,-383.047749,-1036.288319,9992.780217
874.318329,0.000000,-1036.288319,9696.697840
874.318644,0.000000,-666.185348,9622.677246
874.318960,0.000000,-1258.350101,9474.636058
874.319276,153.219100,-296.082377,9474.636058
874.319591,306.438199,-74.020594,9252.574275
874.319907,612.876398,-0.000000,9178.553681
874.320223,612.876398,-148.041188,9104.533087
874.320538,383.047749,-222.061783,9104.533087
874.320854,536.266849,-0.000000,9104.533087
874.321170,689.485948,-0.000000,9104.533087
874.321486,459.657299,-0.000000,9474.636058
874.321801,229.828649,-0.000000,9400.615463
874.322117,0.000000,-148.041188,9548.656652
874.322433,0.000000,148.041188,9548.656652
874.322748,229.828649,-0.000000,9696.697840
874.323064,153.219100,-148.041188,9548.656652
874.323380,383.047749,-0.000000,9622.677246
874.323695,0.000000,-0.000000,9548.656652
874.324011,0.000000,-0.000000,9622.677246
874.324327,536.266849,-0.000000,9178.553681
874.324643,229.828649,-0.000000,9474.636058
874.324958,383.047749,-0.000000,9400.615463
874.325274,536.266849,-0.000000,9548.656652
874.325590,459.657299,444.123565,9548.656652
874.325905,689.485948,444.123565,9474.636058
874.326221,612.876398,444.123565,9474.636058
874.326537,689.485948,148.041188,9400.615463
874.326852,919.314598,814.226536,10140.821405
874.327168,689.485948,296.082377,9474.636058
874.327484,383.047749,-0.000000,9400.615463
874.327800,459.657299,-148.041188,9474.636058
874.328115,766.095498,-148.041188,9548.656652
874.328431,306.438199,-148.041188,9696.697840
874.328747,459.657299,-0.000000,9622.677246
874.329062,536.266849,-0.000000,9548.656652
874.329378,612.876398,-74.020594,9622.677246
874.329694,536.266849,-0.000000,9474.636058
874.330009,459.657299,-0.000000,9474.636058
874.330325,689.485948,-0.000000,9474.636058
874.330641,383.047749,-74.020594,9474.636058
874.330957,229.828649,-74.020594,9548.656652
874.331272,153.219100,-444.123565,9770.718434
874.331588,383.047749,-296.082377,9548.656652
874.331904,383.047749,-222.061783,9474.636058
874.332219,153.219100,-444.123565,9622.677246
874.332535,229.828649,-666.185348,9400.615463
874.332851,153.219100,-518.144159,9474.636058
874.333166,459.657299,-370.102971,9474.636058
874.333482,383.047749,-444.123565,9622.677246
874.333798,459.657299,-370.102971,9252.574275
874.334114,612.876398,-222.061783,9178.553681
874.334429,383.047749,-518.144159,9104.533087
874.334745,459.657299,-370.102971,9326.594869
874.335061,383.047749,-444.123565,9326.594869
874.335376,459.657299,-518.144159,9326.594869
874.335692,1149.143247,-592.164754,9474.636058
874.336008,842.705048,-740.205942,9548.656652
874.336323,383.047749,-370.102971,9548.656652
874.336639,612.876398,-666.185348,9474.636058
874.336955,383.047749,-740.205942,9474.636058
874.337271,536.266849,-740.205942,9548.656652
874.337586,689.485948,-666.185348,9326.594869
874.337902,612.876398,-592.164754,9548.656652
874.338218,919.314598,-592.164754,9474.636058
874.338533,919.314598,-518.144159,9252.574275
874.338849,766.095498,-888.247130,9400.615463
874.339165,766.095498,-296.082377,9104.533087
874.339481,612.876398,-296.082377,9252.574275
874.339796,689.485948,-0.000000,9400.615463
874.340112,536.266849,-0.000000,9326.594869
874.340428,766.095498,-740.205942,9104.533087
874.340743,76.609550,-740.205942,9548.656652
874.341059,76.609550,-740.205942,9622.677246
874.341375,76.609550,-962.267725,9696.697840
874.341690,-153.219100,-1036.288319,9548.656652
874.342006,-229.828649,-1036.288319,9622.677246
874.342322,0.000000,-666.185348,9622.677246
874.342638,306.438199,-444.123565,9622.677246
874.342953,153.219100,-370.102971,9548.656652
874.343269,306.438199,-148.041188,9400.615463
874.343585,536.266849,-148.041188,9030.512492
874.343900,459.657299,-0.000000,9178.553681
874.344216,612.876398,222.061783,9400.615463
874.344532,536.266849,222.061783,9178.553681
874.344847,842.705048,-0.000000,9326.594869
874.345163,536.266849,-0.000000,9474.636058
874.345479,76.609550,222.061783,9326.594869
874.345795,229.828649,-74.020594,9844.739029
874.346110,459.657299,-0.000000,9622.677246
874.346426,153.219100,148.041188,9770.718434
874.346742,76.609550,148.041188,9548.656652
874.347057,383.047749,-0.000000,9548.656652
874.347373,229.828649,296.082377,9474.636058
874.347689,536.266849,-0.000000,9474.636058
874.348004,383.047749,222.061783,9400.615463
874.348320,229.828649,444.123565,9474.636058
874.348636,229.828649,444.123565,9548.656652
874.348952,383.047749,370.102971,9548.656652
874.349267,689.485948,296.082377,9548.656652
874.349583,383.047749,296.082377,9326.594869
874.349899,229.828649,74.020594,9548.656652
874.350214,306.438199,370.102971,9622.677246
874.350530,383.047749,222.061783,9474.636058
874.350846,153.219100,-0.000000,9622.677246
874.351161,383.047749,-0.000000,9474.636058
874.351477,536.266849,296.082377,9622.677246
874.351793,766.095498,296.082377,9474.636058
874.352109,536.266849,-0.000000,9474.636058
874.352424,766.095498,-0.000000,9548.656652
874.352740,383.047749,296.082377,9696.697840
874.353056,536.266849,-0.000000,9474.636058
874.353371,459.657299,-0.000000,9474.636058
874.353687,459.657299,-0.000000,9696.697840
874.354003,459.657299,-0.000000,9474.636058
874.354318,306.438199,-0.000000,9622.677246
874.354634,459.657299,-222.061783,9400.615463
874.354950,229.828649,-74.020594,9474.636058
874.355266,153.219100,-518.144159,9474.636058
874.355581,76.609550,-444.123565,9548.656652
874.355897,229.828649,-296.082377,9696.697840
874.356213,229.828649,-370.102971,9400.615463
874.356528,459.657299,-296.082377,9474.636058
874.356844,153.219100,-592.164754,9696.697840
874.357160,306.438199,-296.082377,9400.615463
874.357475,612.876398,-296.082377,9252.574275
874.357791,536.266849,-370.102971,9252.574275
874.358107,536.266849,-370.102971,9252.574275
874.358423,536.266849,-444.123565,9252.574275
874.358738,153.219100,-370.102971,9400.615463
874.359054,383.047749,-370.102971,9400.615463
874.359370,536.266849,-666.185348,9252.574275
874.359685,536.266849,-518.144159,9252.574275
874.360001,842.705048,-740.205942,9326.594869
874.360317,536.266849,-666.185348,9696.697840
874.360632,383.047749,-740.205942,9548.656652
874.360948,689.485948,-888.247130,9474.636058
874.361264,766.095498,-740.205942,9474.636058
874.361580,306.438199,-666.185348,9844.739029
874.361895,689.485948,-518.144159,9326.594869
874.362211,612.876398,-296.082377,9326.594869
874.362527,536.266849,-148.041188,9178.553681
874.362842,766.095498,-74.020594,9030.512492
874.363158,689.485948,-444.123565,9400.615463
874.363474,459.657299,-444.123565,9400.615463
874.363789,153.219100,-444.123565,9474.636058
874.364105,0.000000,-740.205942,9548.656652
874.364421,153.219100,-962.267725,9696.697840
874.364737,0.000000,-1110.308913,9696.697840
874.365052,76.609550,-888.247130,9770.718434
874.365368,153.219100,-740.205942,9770.718434
874.365684,76.609550,-740.205942,9622.677246
874.365999,153.219100,-370.102971,9548.656652
874.366315,229.828649,-148.041188,9400.615463
874.366631,306.438199,-222.061783,9178.553681
874.366946,536.266849,-74.020594,9104.533087
874.367262,536.266849,-0.000000,9030.512492
874.367578,306.438199,-0.000000,9252.574275
874.367894,842.705048,-148.041188,9252.574275
874.368209,689.485948,-148.041188,9326.594869
874.368525,229.828649,-148.041188,9326.594869
874.368841,0.000000,-148.041188,9622.677246
874.369156,0.000000,-592.164754,9696.697840
874.369472,0.000000,-74.020594,9548.656652
874.369788,76.609550,-74.020594,9622.677246
874.370104,229.828649,-0.000000,9548.656652
874.370419,306.438199,-74.020594,9622.677246
874.370735,383.047749,-0.000000,9696.697840
874.371051,536.266849,-0.000000,9400.615463
874.371367,459.657299,222.061783,9252.574275
874.371683,383.047749,148.041188,9474.636058
874.371998,306.438199,370.102971,9622.677246
874.372314,612.876398,222.061783,9770.718434
874.372630,306.438199,370.102971,9474.636058
874.372946,536.266849,370.102971,9400.615463
874.373261,689.485948,296.082377,9474.636058
874.373577,536.266849,370.102971,9400.615463
874.373893,689.485948,-0.000000,9474.636058
874.374209,459.657299,296.082377,9548.656652
874.374525,536.266849,-0.000000,9548.656652
874.374840,689.485948,-0.000000,9622.677246
874.375156,842.705048,-74.020594,9474.636058
874.375472,689.485948,-222.061783,9844.739029
874.375788,536.266849,-0.000000,9696.697840
874.376103,536.266849,-0.000000,9696.697840
874.376419,459.657299,-0.000000,9548.656652
874.376735,229.828649,-222.061783,9696.697840
874.377051,383.047749,-0.000000,9548.656652
874.377367,612.876398,-0.000000,9252.574275
874.377682,689.485948,-0.000000,9474.636058
874.377998,383.047749,-74.020594,9474.636058
874.378314,842.705048,-666.185348,9474.636058
874.378630,459.657299,-296.082377,9326.594869
874.378945,383.047749,-148.041188,9622.677246
874.379261,153.219100,-296.082377,9696.697840
874.379577,536.266849,-370.102971,9622.677246
874.379893,229.828649,-370.102971,9326.594869
874.380209,383.047749,-370.102971,9474.636058
874.380524,383.047749,-592.164754,9474.636058
874.380840,536.266849,-518.144159,9326.594869
874.381156,612.876398,-296.082377,9400.615463
874.381472,612.876398,-74.020594,9474.636058
874.381787,229.828649,-296.082377,9326.594869
874.382103,383.047749,-370.102971,9252.574275
874.382419,383.047749,-370.102971,9400.615463
874.382735,612.876398,-370.102971,9326.594869
874.383051,842.705048,-370.102971,9474.636058
874.383366,536.266849,-444.123565,9696.697840
874.383682,766.095498,-592.164754,9252.574275
874.383998,536.266849,-740.205942,9622.677246
874.384314,1149.143247,-666.185348,9474.636058
874.384630,919.314598,-592.164754,9474.636058
874.384945,842.705048,-592.164754,9474.636058
874.385261,1072.533697,-666.185348,9326.594869
874.385577,766.095498,-518.144159,9178.553681
874.385893,1072.533697,-296.082377,9326.594869
874.386208,1072.533697,-296.082377,8956.491898
874.386524,612.876398,-148.041188,9252.574275
874.386840,536.266849,-296.082377,9030.512492
874.387156,306.438199,-370.102971,9474.636058
874.387472,76.609550,-370.102971,9474.636058
874.387787,229.828649,-666.185348,9622.677246
874.388103,0.000000,-962.267725,9696.697840
874.388419,0.000000,-1036.288319,9844.739029
874.388735,0.000000,-814.226536,9770.718434
874.389050,-153.219100,-740.205942,9770.718434
874.389366,-229.828649,-592.164754,9770.718434
874.389682,153.219100,-444.123565,9474.636058
874.389998,306.438199,-370.102971,9400.615463
874.390314,536.266849,-74.020594,9030.512492
874.390629,689.485948,-0.000000,9252.574275
874.390945,459.657299,-74.020594,9178.553681
874.391261,766.095498,-0.000000,9104.533087
874.391577,766.095498,148.041188,9326.594869
874.391892,383.047749,-0.000000,9474.636058
874.392208,383.047749,-0.000000,9474.636058
874.392524,306.438199,-74.020594,9474.636058
874.392840,229.828649,-74.020594,9696.697840
874.393156,-153.219100,296.082377,9548.656652
874.393471,306.438199,-74.020594,10066.800811
874.393787,229.828649,-0.000000,9622.677246
874.394103,0.000000,74.020594,9696.697840
874.394419,229.828649,296.082377,9622.677246
874.394734,153.219100,222.061783,9474.636058
874.395050,383.047749,296.082377,9696.697840
874.395366,306.438199,-0.000000,9696.697840
874.395682,153.219100,148.041188,9548.656652
874.395998,229.828649,296.082377,9474.636058
874.396313,306.438199,222.061783,9474.636058
874.396629,842.705048,370.102971,9696.697840
874.396945,306.438199,296.082377,9548.656652
874.397261,383.047749,444.123565,9474.636058
874.397576,459.657299,444.123565,9400.615463
874.397892,459.657299,370.102971,9474.636058
874.398208,842.705048,-74.020594,9696.697840
874.398524,689.485948,370.102971,9474.636058
874.398840,459.657299,370.102971,9548.656652
874.399155,383.047749,148.041188,9548.656652
874.399471,766.095498,148.041188,9474.636058
874.399787,995.924147,370.102971,9770.718434
874.400103,306.438199,296.082377,9622.677246
874.400418,459.657299,-0.000000,9474.636058
874.400734,306.438199,-0.000000,9622.677246
874.401050,229.828649,-0.000000,9696.697840
874.401366,383.047749,-148.041188,9622.677246
874.401682,153.219100,-74.020594,9770.718434
874.401997,76.609550,-296.082377,9770.718434
874.402313,76.609550,-148.041188,9548.656652
874.402629,306.438199,-444.123565,9474.636058
874.402945,306.438199,-148.041188,9548.656652
874.403260,459.657299,-222.061783,9548.656652
874.403576,383.047749,-296.082377,9474.636058
874.403892,612.876398,-370.102971,9400.615463
874.404208,689.485948,-296.082377,9178.553681
874.404524,1072.533697,-444.123565,9474.636058
874.404839,536.266849,-370.102971,9474.636058
874.405155,612.876398,-222.061783,9178.553681
874.405471,536.266849,-518.144159,9326.594869
874.405787,612.876398,-444.123565,9400.615463
874.406102,842.705048,-666.185348,9252.574275
874.406418,153.219100,-370.102971,9326.594869
874.406734,383.047749,-740.205942,9548.656652
874.407050,383.047749,-666.185348,9548.656652
874.407366,383.047749,-740.205942,9474.636058
874.407681,383.047749,-1258.350101,9474.636058
874.407997,459.657299,-1110.308913,9474.636058
874.408313,383.047749,-592.164754,9548.656652
874.408629,766.095498,-666.185348,9326.594869
874.408944,612.876398,-666.185348,9252.574275
874.409260,766.095498,-296.082377,9178.553681
874.409576,842.705048,-148.041188,8956.491898
874.409892,842.705048,-148.041188,9030.512492
874.410208,766.095498,-370.102971,8808.450710
874.410523,689.485948,-296.082377,9326.594869
874.410839,383.047749,-296.082377,9326.594869
874.411155,459.657299,-518.144159,9326.594869
874.411471,153.219100,-888.247130,9548.656652
874.411786,76.609550,-888.247130,9696.697840
874.412102,0.000000,-888.247130,9770.718434
874.412418,-306.438199,-888.247130,9548.656652
874.412734,-306.438199,-962.267725,9844.739029
874.413050,0.000000,-592.164754,9622.677246
874.413365,229.828649,-296.082377,9622.677246
874.413681,306.438199,-296.082377,9770.718434
874.413997,383.047749,-74.020594,9326.594869
874.414313,536.266849,-0.000000,9326.594869
874.414628,612.876398,-0.000000,9030.512492
874.414944,689.485948,-0.000000,9178.553681
874.415260,612.876398,-0.000000,9326.594869
874.415576,536.266849,-74.020594,9326.594869
874.415892,459.657299,-0.000000,9474.636058
874.416207,459.657299,-0.000000,9548.656652
874.416523,76.609550,-0.000000,9622.677246
874.416839,459.657299,-296.082377,9992.780217
874.417155,229.828649,-74.020594,9622.677246
874.417470,153.219100,-0.000000,9400.615463
874.417786,153.219100,-0.000000,9622.677246
874.418102,536.266849,-0.000000,9696.697840
874.418418,689.485948,-0.000000,9696.697840
874.418734,459.657299,-0.000000,9326.594869
874.419049,76.609550,-0.000000,9696.697840
874.419365,306.438199,370.102971,9548.656652
874.419681,459.657299,222.061783,9474.636058
874.419997,536.266849,-0.000000,9474.636058
874.420313,536.266849,370.102971,9548.656652
874.420628,536.266849,444.123565,9474.636058
874.420944,459.657299,-0.000000,9474.636058
874.421260,306.438199,-0.000000,9622.677246
874.421576,383.047749,-0.000000,9844.739029
874.421891,612.876398,148.041188,9622.677246
874.422207,383.047749,-0.000000,9622.677246
874.422523,459.657299,-222.061783,9622.677246
874.422839,459.657299,-0.000000,9622.677246
874.423155,612.876398,-0.000000,9622.677246
874.423470,459.657299,-0.000000,9474.636058
874.423786,612.876398,148.041188,9474.636058
874.424102,459.657299,-0.000000,9474.636058
874.424418,536.266849,-74.020594,9326.594869
874.424733,689.485948,-148.041188,9474.636058
874.425049,229.828649,-0.000000,9474.636058
874.425365,306.438199,-148.041188,9696.697840
874.425681,229.828649,-222.061783,9622.677246
874.425997,612.876398,-370.102971,9474.636058
874.426312,229.828649,-444.123565,9548.656652
874.426628,153.219100,-444.123565,9474.636058
874.426944,306.438199,-518.144159,9474.636058
874.427260,536.266849,-444.123565,9474.636058
874.427575,612.876398,-296.082377,9474.636058
874.427891,153.219100,-444.123565,9474.636058
874.428207,612.876398,-148.041188,9400.615463
874.428523,689.485948,-444.123565,9400.615463
874.428839,383.047749,-148.041188,9326.594869
874.429154,689.485948,-444.123565,9178.553681
874.429470,612.876398,-296.082377,9326.594869
874.429786,536.266849,-370.102971,9252.574275
874.430102,383.047749,-666.185348,9474.636058
874.430417,995.924147,-666.185348,9400.615463
874.430733,1149.143247,-592.164754,9770.718434
874.431049,383.047749,-740.205942,9548.656652
874.431365,612.876398,-740.205942,9474.636058
874.431681,612.876398,-814.226536,9474.636058
874.431996,919.314598,-666.185348,9548.656652
874.432312,689.485948,-666.185348,9400.615463
874.432628,842.705048,-740.205942,9400.615463
874.432944,919.314598,-592.164754,9178.553681
874.433259,842.705048,-518.144159,9178.553681
874.433575,919.314598,-518.144159,9104.533087
874.433891,766.095498,-222.061783,9104.533087
874.434207,612.876398,-370.102971,9104.533087
874.434523,536.266849,-296.082377,9548.656652
874.434838,459.657299,-444.123565,9622.677246
874.435154,383.047749,-666.185348,9474.636058
874.435470,0.000000,-962.267725,9770.718434
874.435786,0.000000,-1110.308913,9622.677246
874.436101,0.000000,-1110.308913,9548.656652
874.436417,0.000000,-740.205942,9696.697840
874.436733,0.000000,-592.164754,9474.636058
874.437049,383.047749,-222.061783,9548.656652
874.437365,0.000000,-296.082377,9474.636058
874.437680,383.047749,-0.000000,9252.574275
874.437996,612.876398,-74.020594,9326.594869
874.438312,612.876398,-0.000000,9252.574275
874.438628,459.657299,-0.000000,9252.574275
874.438943,689.485948,222.061783,9400.615463
874.439259,536.266849,222.061783,9474.636058
874.439575,383.047749,222.061783,9548.656652
874.439891,229.828649,-0.000000,9548.656652
874.440207,0.000000,-296.082377,9696.697840
874.440522,0.000000,-0.000000,9844.739029
874.440838,0.000000,296.082377,9696.697840
874.441154,76.609550,-0.000000,9548.656652
874.441470,0.000000,148.041188,9548.656652
874.441785,0.000000,370.102971,9474.636058
874.442101,153.219100,148.041188,9474.636058
874.442417,229.828649,296.082377,9548.656652
874.442733,153.219100,296.082377,9400.615463
874.443049,0.000000,-0.000000,9400.615463
874.443364,306.438199,444.123565,9400.615463
874.443680,459.657299,444.123565,9400.615463
874.443996,612.876398,444.123565,9622.677246
874.444312,766.095498,888.247130,9696.697840
874.444627,306.438199,222.061783,9474.636058
874.444943,536.266849,296.082377,9474.636058
874.445259,459.657299,148.041188,9548.656652
874.445575,536.266849,222.061783,9400.615463
874.445891,459.657299,-0.000000,9548.656652
874.446206,229.828649,-0.000000,9622.677246
874.446522,383.047749,370.102971,9622.677246
874.446838,383.047749,148.041188,9548.656652
874.447154,459.657299,-0.000000,9548.656652
874.447469,612.876398,370.102971,9548.656652
874.447785,536.266849,222.061783,9548.656652
874.448101,459.657299,-0.000000,9548.656652
874.448417,306.438199,-74.020594,9474.636058
874.448733,306.438199,-74.020594,9474.636058
874.449048,383.047749,-222.061783,9622.677246
874.449364,229.828649,-74.020594,9770.718434
874.449680,306.438199,-296.082377,9548.656652
874.449996,306.438199,-518.144159,9474.636058
874.450311,306.438199,-666.185348,9474.636058
874.450627,459.657299,-296.082377,9548.656652
874.450943,383.047749,-296.082377,9474.636058
874.451259,459.657299,-370.102971,9400.615463
874.451575,919.314598,-222.061783,9770.718434
874.451890,459.657299,-296.082377,9400.615463
874.452206,766.095498,-222.061783,9400.615463
874.452522,612.876398,-296.082377,9252.574275
874.452838,459.657299,-444.123565,9326.594869
874.453153,766.095498,-592.164754,9474.636058
874.453469,0.000000,-444.123565,9474.636058
874.453785,153.219100,-592.164754,9400.615463
874.454101,459.657299,-518.144159,9548.656652
874.454417,536.266849,-592.164754,9548.656652
874.454732,459.657299,-740.205942,9548.656652
874.455048,459.657299,-814.226536,9474.636058
874.455364,612.876398,-740.205942,9474.636058
874.455680,766.095498,-740.205942,9474.636058
874.455996,842.705048,-518.144159,9474.636058
874.456311,842.705048,-444.123565,9104.533087
874.456627,1072.533697,-222.061783,9104.533087
874.456943,383.047749,-444.123565,9252.574275
874.457259,766.095498,-148.041188,9030.512492
874.457574,612.876398,-74.020594,9104.533087
874.457890,459.657299,-444.123565,9474.636058
874.458206,229.828649,-592.164754,9400.615463
874.458522,0.000000,-814.226536,9474.636058
874.458838,0.000000,-1036.288319,9474.636058
874.459153,229.828649,-962.267725,9548.656652
874.459469,0.000000,-1110.308913,9696.697840
874.459785,-153.219100,-666.185348,9696.697840
874.460101,-153.219100,-444.123565,9548.656652
874.460416,76.609550,-518.144159,9474.636058
874.460732,536.266849,-0.000000,9326.594869
874.461048,459.657299,-148.041188,9474.636058
874.461364,612.876398,-74.020594,9400.615463
874.461680,612.876398,-0.000000,9178.553681
874.461995,536.266849,-0.000000,9104.533087
874.462311,689.485948,-0.000000,9326.594869
874.462627,459.657299,-222.061783,9400.615463
874.462943,459.657299,-0.000000,9326.594869
874.463258,306.438199,-0.000000,9622.677246
874.463574,306.438199,-0.000000,9622.677246
874.463890,383.047749,-148.041188,9548.656652
874.464206,153.219100,-74.020594,9770.718434
874.464522,306.438199,-0.000000,9696.697840
874.464837,612.876398,-0.000000,9474.636058
874.465153,383.047749,-0.000000,9548.656652
874.465469,229.828649,-0.000000,9548.656652
874.465785,153.219100,-0.000000,9622.677246
874.466100,612.876398,222.061783,9622.677246
874.466416,383.047749,444.123565,9474.636058
874.466732,459.657299,222.061783,9326.594869
874.467048,536.266849,296.082377,9844.739029
874.467364,459.657299,592.164754,9622.677246
874.467679,612.876398,222.061783,9474.636058
874.467995,459.657299,370.102971,9548.656652
874.468311,153.219100,222.061783,9548.656652
874.468627,689.485948,-222.061783,9696.697840
874.468942,766.095498,222.061783,9474.636058
874.469258,306.438199,-148.041188,9696.697840
874.469574,459.657299,-0.000000,9696.697840
874.469890,536.266849,-0.000000,9696.697840
874.470206,536.266849,-0.000000,9474.636058
874.470519,306.438199,-0.000000,9474.636058
874.470835,536.266849,-0.000000,9474.636058
874.471150,536.266849,-0.000000,9474.636058
874.471466,612.876398,296.082377,9622.677246
874.471782,306.438199,-0.000000,9622.677246
874.472097,383.047749,-296.082377,9548.656652
874.472413,229.828649,-296.082377,9548.656652
874.472729,459.657299,-74.020594,9622.677246
874.473044,76.609550,-666.185348,10066.800811
874.473360,383.047749,-444.123565,9474.636058
874.473675,229.828649,-370.102971,9474.636058
874.473991,306.438199,-444.123565,9548.656652
874.474307,306.438199,-444.123565,9622.677246
874.474622,306.438199,-444.123565,9474.636058
874.474938,383.047749,-296.082377,9400.615463
874.475254,689.485948,-296.082377,9252.574275
874.475569,306.438199,-444.123565,9326.594869
874.475885,689.485948,-518.144159,9326.594869
874.476201,995.924147,-592.164754,9252.574275
874.476516,612.876398,-444.123565,9400.615463
874.476832,383.047749,-296.082377,9326.594869
874.477148,229.828649,-296.082377,9326.594869
874.477463,612.876398,-740.205942,9326.594869
874.477779,306.438199,-666.185348,9178.553681
874.478095,459.657299,-814.226536,9474.636058
874.478410,536.266849,-666.185348,9548.656652
874.478726,536.266849,-888.247130,9326.594869
874.479042,919.314598,-666.185348,9548.656652
874.479357,689.485948,-592.164754,9474.636058
874.479673,689.485948,-666.185348,9326.594869
874.479989,766.095498,-296.082377,9030.512492
874.480304,842.705048,-222.061783,9178.553681
874.480620,1225.752797,-296.082377,9474.636058
874.480936,536.266849,-444.123565,9252.574275
874.481251,459.657299,-296.082377,9104.533087
874.481567,536.266849,-296.082377,9252.574275
874.481883,0.000000,-370.102971,9548.656652
874.482198,306.438199,-888.247130,9474.636058
874.482514,153.219100,-962.267725,9696.697840
874.482830,0.000000,-962.267725,9696.697840
874.483145,-306.438199,-814.226536,9622.677246
874.483461,153.219100,-814.226536,9548.656652
874.483777,0.000000,-592.164754,9548.656652
874.484092,306.438199,-296.082377,9474.636058
874.484408,612.876398,-222.061783,9326.594869
874.484723,459.657299,-148.041188,9326.594869
874.485039,306.438199,-148.041188,9252.574275
874.485355,919.314598,-0.000000,9030.512492
874.485670,536.266849,-148.041188,9104.533087
874.485986,612.876398,-0.000000,9474.636058
874.486302,536.266849,-148.041188,9400.615463
874.486617,383.047749,-296.082377,9178.553681
874.486933,153.219100,-74.020594,9548.656652
874.487249,153.219100,-0.000000,9474.636058
874.487564,229.828649,-0.000000,9696.697840
874.487880,229.828649,222.061783,9770.718434
874.488196,306.438199,-74.020594,9770.718434
874.488511,76.609550,-148.041188,9696.697840
874.488827,306.438199,-0.000000,9844.739029
874.489143,229.828649,296.082377,9474.636058
874.489458,153.219100,370.102971,9474.636058
874.489774,306.438199,296.082377,9474.636058
874.490090,229.828649,370.102971,9548.656652
874.490405,459.657299,296.082377,9474.636058
874.490721,536.266849,370.102971,9474.636058
874.491037,689.485948,-0.000000,9622.677246
874.491352,919.314598,-74.020594,9696.697840
874.491668,689.485948,370.102971,9474.636058
874.491984,383.047749,222.061783,9326.594869
874.492299,383.047749,296.082377,9474.636058
874.492615,383.047749,296.082377,9622.677246
874.492931,536.266849,296.082377,9474.636058
874.493246,383.047749,148.041188,9474.636058
874.493562,536.266849,-0.000000,9400.615463
874.493878,459.657299,148.041188,9622.677246
874.494193,306.438199,-0.000000,9474.636058
874.494509,306.438199,370.102971,9770.718434
874.494825,306.438199,-0.000000,9548.656652
874.495140,306.438199,-0.000000,9400.615463
874.495456,459.657299,-0.000000,9696.697840
874.495771,306.438199,-0.000000,9474.636058
874.496087,306.438199,-148.041188,9770.718434
874.496403,229.828649,-74.020594,9474.636058
874.496718,383.047749,-296.082377,9548.656652
874.497034,306.438199,-222.061783,9548.656652
874.497350,-229.828649,-222.061783,9474.636058
874.497665,459.657299,-370.102971,9548.656652
874.497981,459.657299,-222.061783,9474.636058
874.498297,459.657299,-0.000000,9474.636058
874.498612,536.266849,-222.061783,9252.574275
874.498928,536.266849,-296.082377,9400.615463
874.499244,0.000000,-222.061783,9178.553681
874.499559,459.657299,-296.082377,9400.615463
874.499875,383.047749,-518.144159,9326.594869
874.500191,536.266849,-370.102971,9252.574275
874.500506,383.047749,-666.185348,9326.594869
874.500822,229.828649,-222.061783,9548.656652
874.501138,689.485948,-518.144159,9474.636058
874.501453,689.485948,-592.164754,9474.636058
874.501769,536.266849,-592.164754,9696.697840
874.502085,459.657299,-888.247130,9474.636058
874.502400,229.828649,-518.144159,9622.677246
874.502716,689.485948,-592.164754,9474.636058
874.503032,766.095498,-444.123565,9252.574275
874.503347,919.314598,-296.082377,9400.615463
874.503663,1072.533697,-0.000000,9178.553681
874.503979,1225.752797,-592.164754,9178.553681
874.504294,919.314598,-0.000000,9178.553681
874.504610,383.047749,-222.061783,9178.553681
874.504926,536.266849,-222.061783,9178.553681
874.505241,153.219100,-444.123565,9400.615463
874.505557,536.266849,-1184.329507,9622.677246
874.505873,0.000000,-888.247130,9696.697840
874.506188,0.000000,-1036.288319,9622.677246
874.506504,0.000000,-1036.288319,9696.697840
874.506819,153.219100,-814.226536,9844.739029
874.507135,229.828649,-814.226536,9548.656652
874.507451,76.609550,-592.164754,9770.718434
874.507766,459.657299,-296.082377,9252.574275
874.508082,536.266849,-222.061783,9252.574275
874.508398,459.657299,-74.020594,9030.512492
874.508713,1149.143247,-0.000000,9252.574275
874.509029,689.485948,-0.000000,9178.553681
874.509345,689.485948,-0.000000,9178.553681
874.509660,842.705048,-0.000000,9326.594869
874.509976,459.657299,-74.020594,9400.615463
874.510292,919.314598,-74.020594,9770.718434
874.510607,229.828649,-222.061783,9622.677246
874.510923,76.609550,-148.041188,9844.739029
874.511239,0.000000,-0.000000,9696.697840
874.511554,76.609550,-0.000000,9770.718434
874.511870,229.828649,-0.000000,9622.677246
874.512186,153.219100,-0.000000,9548.656652
874.512501,153.219100,-0.000000,9622.677246
874.512817,0.000000,148.041188,9622.677246
874.513133,229.828649,296.082377,9548.656652
874.513448,-76.609550,-0.000000,9400.615463
874.513764,306.438199,222.061783,9326.594869
874.514080,76.609550,296.082377,9548.656652
874.514395,306.438199,296.082377,9474.636058
874.514711,842.705048,370.102971,9400.615463
874.515027,689.485948,296.082377,9178.553681
874.515342,766.095498,296.082377,9474.636058
874.515658,459.657299,-0.000000,9474.636058
874.515974,153.219100,148.041188,9548.656652
874.516289,536.266849,-0.000000,9474.636058
874.516605,459.657299,-0.000000,9474.636058
874.516921,383.047749,-148.041188,9548.656652
874.517236,306.438199,-0.000000,9622.677246
874.517552,383.047749,-0.000000,9696.697840
874.517867,536.266849,-0.000000,9696.697840
874.518183,536.266849,-0.000000,9474.636058
874.518499,459.657299,148.041188,9474.636058
874.518814,306.438199,-0.000000,9474.636058
874.519130,153.219100,-0.000000,9474.636058
874.519446,0.000000,74.020594,9696.697840
874.519761,76.609550,-296.082377,9474.636058
874.520077,229.828649,-370.102971,9844.739029
874.520393,306.438199,-370.102971,9548.656652
874.520708,229.828649,-222.061783,9548.656652
874.521024,689.485948,-370.102971,9400.615463
874.521340,536.266849,-296.082377,9474.636058
874.521655,306.438199,-296.082377,9252.574275
874.521971,383.047749,-296.082377,9474.636058
874.522287,459.657299,-296.082377,9400.615463
874.522602,612.876398,-444.123565,9326.594869
874.522918,612.876398,-148.041188,9030.512492
874.523234,459.657299,-592.164754,9252.574275
874.523549,459.657299,-370.102971,9252.574275
874.523865,306.438199,-444.123565,9474.636058
874.524181,459.657299,-518.144159,9400.615463
874.524496,383.047749,-518.144159,9474.636058
874.524812,459.657299,-592.164754,9622.677246
874.525128,612.876398,-666.185348,9622.677246
874.525443,383.047749,-814.226536,9326.594869
874.525759,995.924147,-1332.370696,9400.615463
874.526075,766.095498,-888.247130,9474.636058
874.526390,919.314598,-740.205942,9474.636058
874.526706,919.314598,-592.164754,9474.636058
874.527022,842.705048,-444.123565,9400.615463
874.527337,689.485948,-592.164754,9474.636058
874.527653,842.705048,-444.123565,9178.553681
874.527969,919.314598,-296.082377,9252.574275
874.528284,689.485948,-222.061783,9178.553681
874.528600,919.314598,-222.061783,9474.636058
874.528915,229.828649,-814.226536,9178.553681
874.529231,229.828649,-666.185348,9400.615463
874.529547,76.609550,-740.205942,9770.718434
874.529862,0.000000,-888.247130,9622.677246
874.530178,0.000000,-1184.329507,9696.697840
874.530494,-153.219100,-888.247130,9844.739029
874.530809,0.000000,-592.164754,9548.656652
874.531125,306.438199,-740.205942,9474.636058
874.531441,0.000000,-592.164754,9474.636058
874.531756,919.314598,-370.102971,9548.656652
874.532072,459.657299,-148.041188,9474.636058
874.532388,689.485948,-0.000000,9178.553681
874.532703,766.095498,-0.000000,8882.471304
874.533019,536.266849,-0.000000,9252.574275
874.533335,766.095498,-0.000000,9252.574275
874.533650,383.047749,-74.020594,9548.656652
874.533966,306.438199,-148.041188,9548.656652
874.534282,76.609550,-0.000000,9474.636058
874.534597,306.438199,-0.000000,9622.677246
874.534913,0.000000,-74.020594,9548.656652
874.535229,0.000000,370.102971,9918.759623
874.535544,0.000000,-0.000000,9918.759623
874.535860,229.828649,222.061783,9548.656652
874.536176,229.828649,148.041188,9548.656652
874.536491,0.000000,-74.020594,9400.615463
874.536807,153.219100,296.082377,9474.636058
874.537123,229.828649,222.061783,9622.677246
874.537438,153.219100,296.082377,9474.636058
874.537754,536.266849,222.061783,9474.636058
874.538070,536.266849,148.041188,9474.636058
874.538385,459.657299,370.102971,9474.636058
874.538701,612.876398,370.102971,9474.636058
874.539017,383.047749,296.082377,9548.656652
874.539332,229.828649,222.061783,9548.656652
874.539648,306.438199,296.082377,9474.636058
874.539963,536.266849,-0.000000,9622.677246
874.540279,459.657299,148.041188,9474.636058
874.540595,383.047749,-0.000000,9622.677246
874.540910,612.876398,296.082377,9696.697840
874.541226,1225.752797,518.144159,9844.739029
874.541542,306.438199,74.020594,9548.656652
874.541857,306.438199,-0.000000,9326.594869
874.542173,383.047749,-0.000000,9474.636058
874.542489,306.438199,-148.041188,9474.636058
874.542804,459.657299,-74.020594,9622.677246
874.543120,153.219100,-0.000000,9622.677246
874.543436,383.047749,-0.000000,9770.718434
874.543751,306.438199,-0.000000,9844.739029
874.544067,229.828649,-0.000000,9622.677246
874.544383,229.828649,-0.000000,9622.677246
874.544698,536.266849,-222.061783,9474.636058
874.545014,229.828649,-296.082377,9400.615463
874.545330,459.657299,-296.082377,9400.615463
874.545645,919.314598,-296.082377,9474.636058
874.545961,612.876398,-296.082377,9178.553681
874.546277,459.657299,-222.061783,9400.615463
874.546592,689.485948,-148.041188,9400.615463
874.546908,612.876398,-222.061783,9400.615463
874.547224,612.876398,-370.102971,9252.574275
874.547539,459.657299,-222.061783,9252.574275
874.547855,459.657299,-444.123565,9474.636058
874.548171,459.657299,-444.123565,9548.656652
874.548486,1225.752797,-444.123565,9326.594869
874.548802,612.876398,-518.144159,9622.677246
874.549118,689.485948,-740.205942,9474.636058
874.549433,612.876398,-666.185348,9326.594869
874.549749,842.705048,-666.185348,9474.636058
874.550065,919.314598,-518.144159,9696.697840
874.550380,1072.533697,-296.082377,9178.553681
874.550696,536.266849,-296.082377,8882.471304
874.551011,842.705048,-296.082377,9178.553681
874.551327,766.095498,-148.041188,9030.512492
874.551643,689.485948,-148.041188,9178.553681
874.551958,383.047749,-296.082377,9178.553681
874.552274,153.219100,-444.123565,9548.656652
874.552590,153.219100,-592.164754,9622.677246
874.552905,76.609550,-1036.288319,9992.780217
874.553221,0.000000,-962.267725,9548.656652
874.553537,0.000000,-814.226536,9844.739029
874.553852,0.000000,-814.226536,9696.697840
874.554168,76.609550,-592.164754,9548.656652
874.554484,459.657299,-666.185348,9548.656652
874.554799,612.876398,-148.041188,9400.615463
874.555115,536.266849,-222.061783,9252.574275
874.555431,536.266849,-74.020594,9104.533087
874.555746,842.705048,-0.000000,9030.512492
874.556062,995.924147,-0.000000,9400.615463
874.556378,612.876398,-74.020594,9326.594869
874.556693,306.438199,-74.020594,9178.553681
874.557009,229.828649,-0.000000,9474.636058
874.557325,229.828649,-148.041188,9622.677246
874.557640,383.047749,-370.102971,9622.677246
874.557956,0.000000,-148.041188,9696.697840
874.558272,0.000000,-0.000000,9844.739029
874.558587,0.000000,-74.020594,9844.739029
874.558903,229.828649,-148.041188,9696.697840
874.559219,0.000000,-296.082377,9844.739029
874.559534,459.657299,-0.000000,9474.636058
874.559850,306.438199,-0.000000,9474.636058
874.560166,383.047749,-0.000000,9474.636058
874.560481,383.047749,518.144159,9252.574275
874.560797,536.266849,148.041188,9252.574275
874.561113,919.314598,370.102971,9474.636058
874.561428,612.876398,222.061783,9400.615463
874.561744,766.095498,296.082377,9326.594869
874.562060,612.876398,370.102971,9474.636058
874.562375,1149.143247,148.041188,9474.636058
874.562691,689.485948,-0.000000,9548.656652
874.563006,306.438199,-0.000000,9622.677246
874.563322,306.438199,-0.000000,9696.697840
874.563638,842.705048,-74.020594,9622.677246
874.563953,536.266849,-0.000000,9770.718434
874.564269,153.219100,-296.082377,9918.759623
874.564585,536.266849,-0.000000,9696.697840
874.564900,612.876398,-0.000000,9474.636058
874.565216,383.047749,-0.000000,9474.636058
874.565532,459.657299,-74.020594,9696.697840
874.565847,612.876398,74.020594,9622.677246
874.566163,383.047749,-0.000000,9474.636058
874.566479,536.266849,-0.000000,9474.636058
874.566794,383.047749,-74.020594,9622.677246
874.567110,229.828649,-148.041188,9474.636058
874.567426,306.438199,-518.144159,9400.615463
874.567741,76.609550,-222.061783,9770.718434
874.568057,612.876398,-222.061783,9474.636058
874.568373,153.219100,-370.102971,9474.636058
874.568688,612.876398,-592.164754,9178.553681
874.569004,689.485948,-518.144159,9326.594869
874.569320,459.657299,-444.123565,9474.636058
874.569635,229.828649,-370.102971,9400.615463
874.569951,153.219100,-74.020594,9548.656652
874.570267,459.657299,-592.164754,9178.553681
874.570582,459.657299,-592.164754,9474.636058
874.570898,536.266849,-296.082377,9474.636058
874.571214,229.828649,-370.102971,9474.636058
874.571529,383.047749,-518.144159,9326.594869
874.571845,919.314598,-666.185348,9770.718434
874.572161,536.266849,-740.205942,9252.574275
874.572477,766.095498,-444.123565,9474.636058
874.572792,842.705048,-962.267725,9474.636058
874.573108,689.485948,-814.226536,9252.574275
874.573424,919.314598,-888.247130,9252.574275
874.573740,995.924147,-592.164754,9326.594869
874.574055,919.314598,-370.102971,9178.553681
874.574371,842.705048,-370.102971,9178.553681
874.574687,766.095498,-222.061783,9030.512492
874.575003,919.314598,-74.020594,9400.615463
874.575318,536.266849,-222.061783,9178.553681
874.575634,536.266849,-296.082377,9252.574275
874.575950,153.219100,-518.144159,9252.574275
874.576266,153.219100,-962.267725,9622.677246
874.576581,-153.219100,-888.247130,9622.677246
874.576897,0.000000,-814.226536,9622.677246
874.577213,0.000000,-1184.329507,9770.718434
874.577529,-229.828649,-888.247130,9770.718434
874.577844,306.438199,-814.226536,9622.677246
874.578160,229.828649,-592.164754,9548.656652
874.578476,459.657299,-444.123565,9400.615463
874.578792,689.485948,-148.041188,9326.594869
874.579107,459.657299,-0.000000,9178.553681
874.579423,536.266849,-74.020594,9252.574275
874.579739,536.266849,-148.041188,9178.553681
874.580055,689.485948,296.082377,9400.615463
874.580370,536.266849,-0.000000,9178.553681
874.580686,459.657299,-0.000000,9474.636058
874.581002,229.828649,-222.061783,9474.636058
874.581318,76.609550,-148.041188,9696.697840
874.581634,76.609550,-0.000000,9770.718434
874.581949,0.000000,-0.000000,9696.697840
874.582265,0.000000,-0.000000,9696.697840
874.582581,229.828649,-0.000000,9622.677246
874.582897,0.000000,222.061783,9548.656652
874.583212,229.828649,-0.000000,9400.615463
874.583528,229.828649,296.082377,9474.636058
874.583844,229.828649,222.061783,9326.594869
874.584160,536.266849,148.041188,9178.553681
874.584475,383.047749,222.061783,9548.656652
874.584791,383.047749,370.102971,9400.615463
874.585107,536.266849,296.082377,9474.636058
874.585423,459.657299,370.102971,9548.656652
874.585738,536.266849,592.164754,9548.656652
874.586054,919.314598,666.185348,9400.615463
874.586370,536.266849,222.061783,9474.636058
874.586686,459.657299,148.041188,9548.656652
874.587001,383.047749,296.082377,9696.697840
874.587317,306.438199,148.041188,9622.677246
874.587633,536.266849,148.041188,9696.697840
874.587949,536.266849,-0.000000,9622.677246
874.588264,612.876398,222.061783,9696.697840
874.588580,612.876398,-222.061783,9548.656652
874.588896,612.876398,222.061783,9622.677246
874.589212,153.219100,-0.000000,9770.718434
874.589527,306.438199,-0.000000,9548.656652
874.589843,306.438199,-148.041188,9474.636058
874.590159,459.657299,-0.000000,9548.656652
874.590475,0.000000,-370.102971,9474.636058
874.590790,383.047749,-296.082377,9474.636058
874.591106,383.047749,-370.102971,9622.677246
874.591422,306.438199,-370.102971,9474.636058
874.591738,919.314598,-0.000000,9844.739029
874.592053,766.095498,-518.144159,9474.636058
874.592369,536.266849,-370.102971,9400.615463
874.592685,459.657299,-148.041188,9622.677246
874.593001,536.266849,-370.102971,9326.594869
874.593317,459.657299,-222.061783,9474.636058
874.593632,536.266849,-296.082377,9474.636058
874.593948,153.219100,-148.041188,9474.636058
874.594264,229.828649,-296.082377,9474.636058
874.594580,306.438199,-518.144159,9252.574275
874.594895,229.828649,-370.102971,9474.636058
874.595211,383.047749,-740.205942,9474.636058
874.595527,459.657299,-296.082377,9474.636058
874.595843,612.876398,-518.144159,9474.636058
874.596158,536.266849,-666.185348,9548.656652
874.596474,842.705048,-444.123565,9844.739029
874.596790,536.266849,-666.185348,9400.615463
874.597106,842.705048,-666.185348,9104.533087
874.597421,919.314598,-444.123565,9326.594869
874.597737,612.876398,-296.082377,9252.574275
874.598053,842.705048,-370.102971,9030.512492
874.598369,919.314598,-148.041188,8956.491898
874.598684,689.485948,-148.041188,9030.512492
874.599000,536.266849,-0.000000,9104.533087
874.599316,459.657299,-370.102971,9400.615463
874.599632,306.438199,-740.205942,9622.677246
874.599947,0.000000,-666.185348,9548.656652
874.600263,0.000000,-1036.288319,9622.677246
874.600579,-306.438199,-1036.288319,9770.718434
874.600895,-153.219100,-1406.391290,9548.656652
874.601210,0.000000,-740.205942,10066.800811
874.601526,0.000000,-518.144159,9548.656652
874.601842,536.266849,-148.041188,9474.636058
874.602158,383.047749,-74.020594,9400.615463
874.602473,536.266849,-0.000000,9178.553681
874.602789,459.657299,148.041188,9178.553681
874.603105,689.485948,-0.000000,9178.553681
874.603421,612.876398,-0.000000,9252.574275
874.603736,612.876398,-0.000000,9178.553681
874.604052,689.485948,-0.000000,9622.677246
874.604368,76.609550,148.041188,9548.656652
874.604684,306.438199,-0.000000,9622.677246
874.604999,76.609550,-0.000000,9844.739029
874.605315,0.000000,-74.020594,9696.697840
874.605631,76.609550,148.041188,9474.636058
874.605947,76.609550,-0.000000,9622.677246
874.606263,0.000000,-0.000000,9696.697840
874.606578,306.438199,148.041188,9548.656652
874.606894,229.828649,222.061783,9474.636058
874.607210,229.828649,148.041188,9548.656652
874.607526,612.876398,370.102971,9474.636058
874.607841,383.047749,148.041188,9622.677246
874.608157,459.657299,148.041188,9474.636058
874.608473,612.876398,370.102971,9474.636058
874.608789,689.485948,370.102971,9474.636058
874.609104,766.095498,444.123565,9326.594869
874.609420,536.266849,296.082377,9326.594869
874.609736,383.047749,222.061783,9622.677246
874.610052,536.266849,-222.061783,9622.677246
874.610367,612.876398,296.082377,9696.697840
874.610683,383.047749,-0.000000,9548.656652
874.610999,306.438199,-74.020594,9770.718434
874.611315,229.828649,-74.020594,9696.697840
874.611630,383.047749,-74.020594,9548.656652
874.611946,459.657299,-0.000000,9474.636058
874.612262,536.266849,-0.000000,9474.636058
874.612578,459.657299,-0.000000,9400.615463
874.612893,536.266849,-74.020594,9696.697840
874.613209,306.438199,-0.000000,9474.636058
874.613525,383.047749,-74.020594,9548.656652
874.613841,229.828649,-444.123565,9474.636058
874.614156,536.266849,-296.082377,9622.677246
874.614472,383.047749,-444.123565,9474.636058
874.614788,459.657299,-74.020594,9548.656652
874.615104,459.657299,-296.082377,9474.636058
874.615419,459.657299,-296.082377,9548.656652
874.615735,612.876398,-592.164754,9400.615463
874.616051,383.047749,-444.123565,9474.636058
874.616367,766.095498,-518.144159,9474.636058
874.616682,306.438199,-444.123565,9252.574275
874.616998,383.047749,-370.102971,9252.574275
874.617314,536.266849,-518.144159,9400.615463
874.617630,536.266849,-370.102971,9548.656652
874.617946,76.609550,-592.164754,9622.677246
874.618261,229.828649,-370.102971,9474.636058
874.618577,536.266849,-592.164754,9400.615463
874.618893,459.657299,-814.226536,9474.636058
874.619209,306.438199,-740.205942,9400.615463
874.619524,612.876398,-814.226536,9400.615463
874.619840,536.266849,-814.226536,9326.594869
874.620156,766.095498,-740.205942,9326.594869
874.620472,919.314598,-740.205942,9474.636058
874.620787,689.485948,-740.205942,9252.574275
874.621103,842.705048,-666.185348,9400.615463
874.621419,766.095498,-370.102971,9252.574275
874.621735,842.705048,-444.123565,8956.491898
874.622050,689.485948,-370.102971,9252.574275
874.622366,536.266849,-0.000000,9178.553681
874.622682,383.047749,-296.082377,9474.636058
874.622998,383.047749,-296.082377,9474.636058
874.623313,153.219100,-370.102971,9474.636058
874.623629,0.000000,-666.185348,9696.697840
874.623945,0.000000,-962.267725,9622.677246
874.624261,-306.438199,-1036.288319,9992.780217
874.624576,-153.219100,-814.226536,9844.739029
874.624892,-153.219100,-888.247130,9696.697840
874.625208,536.266849,-814.226536,9696.697840
874.625524,459.657299,-444.123565,9474.636058
874.625839,306.438199,-296.082377,9474.636058
874.626155,766.095498,-0.000000,9252.574275
874.626471,995.924147,-296.082377,9178.553681
874.626787,995.924147,-0.000000,9104.533087
874.627102,536.266849,-0.000000,9178.553681
874.627418,689.485948,-0.000000,9178.553681
874.627734,459.657299,-0.000000,9400.615463
874.628050,383.047749,-0.000000,9400.615463
874.628365,536.266849,-222.061783,9696.697840
874.628681,383.047749,-148.041188,9696.697840
874.628997,76.609550,-74.020594,9622.677246
874.629313,0.000000,-0.000000,9548.656652
874.629629,0.000000,-222.061783,9770.718434
874.629944,-229.828649,-0.000000,9548.656652
874.630260,229.828649,-0.000000,9696.697840
874.630576,306.438199,222.061783,9622.677246
874.630892,76.609550,148.041188,9400.615463
874.631207,842.705048,222.061783,9400.615463
874.631523,229.828649,296.082377,9474.636058
874.631839,612.876398,444.123565,9400.615463
874.632155,383.047749,444.123565,9474.636058
874.632470,536.266849,444.123565,9474.636058
874.632786,689.485948,222.061783,9400.615463
874.633102,383.047749,-0.000000,9326.594869
874.633418,306.438199,296.082377,9622.677246
874.633733,459.657299,296.082377,9548.656652
874.634049,306.438199,-0.000000,9400.615463
874.634365,306.438199,-222.061783,9770.718434
874.634681,306.438199,-0.000000,9548.656652
874.634996,459.657299,-0.000000,9474.636058
874.635312,459.657299,-0.000000,9474.636058
874.635628,306.438199,-0.000000,9474.636058
874.635944,383.047749,148.041188,9696.697840
874.636259,306.438199,-0.000000,9474.636058
874.636575,306.438199,-0.000000,9474.636058
874.636891,153.219100,-0.000000,9474.636058
874.637207,306.438199,-0.000000,9474.636058
874.637522,459.657299,-74.020594,9622.677246
874.637838,459.657299,-148.041188,9548.656652
874.638154,306.438199,-148.041188,9548.656652
874.638470,306.438199,-148.041188,9400.615463
874.638785,76.609550,-222.061783,9844.739029
874.639101,459.657299,-222.061783,9548.656652
874.639417,306.438199,-148.041188,9548.656652
874.639733,459.657299,-444.123565,9474.636058
874.640048,459.657299,-296.082377,9474.636058
874.640364,536.266849,-518.144159,9326.594869
874.640680,459.657299,-296.082377,9326.594869
874.640996,459.657299,-296.082377,9326.594869
874.641311,306.438199,-370.102971,9474.636058
874.641627,306.438199,-222.061783,9400.615463
874.641943,153.219100,-666.185348,9548.656652
874.642259,459.657299,-222.061783,9104.533087
874.642575,459.657299,-518.144159,9474.636058
874.642890,459.657299,-518.144159,9548.656652
874.643206,536.266849,-740.205942,9474.636058
874.643522,766.095498,-888.247130,9622.677246
874.643838,536.266849,-592.164754,9474.636058
874.644153,689.485948,-592.164754,9400.615463
874.644469,842.705048,-518.144159,9326.594869
874.644785,766.095498,-296.082377,9178.553681
874.645101,1149.143247,-222.061783,9400.615463
874.645416,689.485948,-296.082377,9104.533087
874.645732,383.047749,-222.061783,9252.574275
874.646048,536.266849,-148.041188,9104.533087
874.646364,1302.362347,-148.041188,9400.615463
874.646679,306.438199,-666.185348,9474.636058
874.646995,0.000000,-666.185348,9622.677246
874.647311,-229.828649,-740.205942,9770.718434
874.647627,0.000000,-888.247130,9622.677246
874.647942,0.000000,-888.247130,9992.780217
874.648258,306.438199,-814.226536,9474.636058
874.648574,0.000000,-518.144159,9622.677246
874.648890,383.047749,-148.041188,9548.656652
874.649205,383.047749,-222.061783,9400.615463
874.649521,612.876398,-74.020594,9474.636058
874.649837,842.705048,-0.000000,9104.533087
874.650153,689.485948,-0.000000,9252.574275
874.650468,612.876398,-222.061783,9252.574275
874.650784,612.876398,-148.041188,9474.636058
874.651100,612.876398,-0.000000,9474.636058
874.651416,229.828649,-148.041188,9326.594869
874.651731,153.219100,-0.000000,9548.656652
874.652047,306.438199,-148.041188,9696.697840
874.652363,459.657299,-0.000000,9770.718434
874.652679,-153.219100,-74.020594,9474.636058
874.652994,76.609550,-296.082377,9622.677246
874.653310,153.219100,-148.041188,9474.636058
874.653626,0.000000,-0.000000,9622.677246
874.653942,689.485948,-74.020594,9252.574275
874.654258,306.438199,148.041188,9474.636058
874.654573,229.828649,222.061783,9474.636058
874.654889,383.047749,222.061783,9400.615463
874.655205,536.266849,148.041188,9400.615463
874.655521,612.876398,740.205942,9030.512492
874.655836,459.657299,444.123565,9252.574275
874.656152,229.828649,296.082377,9400.615463
874.656468,459.657299,444.123565,9474.636058
874.656784,383.047749,148.041188,9548.656652
874.657099,689.485948,222.061783,9622.677246
874.657415,536.266849,148.041188,9696.697840
874.657731,383.047749,-0.000000,9770.718434
874.658047,306.438199,-0.000000,9770.718434
874.658362,153.219100,-0.000000,9918.759623
874.658678,919.314598,-74.020594,10066.800811
874.658994,229.828649,-0.000000,9696.697840
874.659310,459.657299,-0.000000,9770.718434
874.659625,536.266849,-0.000000,9474.636058
874.659941,612.876398,-74.020594,9400.615463
874.660257,689.485948,-74.020594,9474.636058
874.660573,459.657299,-0.000000,9400.615463
874.660888,536.266849,-222.061783,9474.636058
874.661204,536.266849,-74.020594,9622.677246
874.661520,383.047749,-296.082377,9622.677246
874.661836,153.219100,-444.123565,9548.656652
874.662151,536.266849,-222.061783,9918.759623
874.662467,383.047749,-296.082377,9474.636058
874.662783,306.438199,-518.144159,9474.636058
874.663099,459.657299,-296.082377,9622.677246
874.663414,612.876398,-74.020594,9252.574275
874.663730,536.266849,-518.144159,9474.636058
874.664046,536.266849,-222.061783,9622.677246
874.664362,536.266849,-518.144159,9252.574275
874.664677,1072.533697,-370.102971,9474.636058
874.664993,1149.143247,-592.164754,9400.615463
874.665309,459.657299,-592.164754,9400.615463
874.665625,689.485948,-370.102971,9326.594869
874.665940,536.266849,-518.144159,9474.636058
874.666256,459.657299,-740.205942,9548.656652
874.666572,766.095498,-592.164754,9474.636058
874.666888,689.485948,-666.185348,9474.636058
874.667204,689.485948,-814.226536,9400.615463
874.667519,842.705048,-888.247130,9400.615463
874.667835,1072.533697,-666.185348,9474.636058
874.668151,919.314598,-740.205942,9474.636058
874.668467,995.924147,-222.061783,9400.615463
874.668782,919.314598,-74.020594,9252.574275
874.669098,689.485948,-148.041188,9178.553681
874.669414,612.876398,-148.041188,9178.553681
874.669730,1225.752797,-296.082377,9252.574275
874.670045,306.438199,-296.082377,9326.594869
874.670361,229.828649,-444.123565,9400.615463
874.670677,0.000000,-740.205942,9474.636058
874.670992,0.000000,-1258.350101,9622.677246
874.671308,383.047749,-1184.329507,9474.636058
874.671624,0.000000,-1110.308913,9696.697840
874.671940,0.000000,-1110.308913,9844.739029
874.672255,0.000000,-740.205942,9474.636058
874.672571,153.219100,-222.061783,9474.636058
874.672887,1072.533697,-148.041188,9400.615463
874.673202,612.876398,-74.020594,9178.553681
874.673518,689.485948,-0.000000,9030.512492
874.673834,689.485948,148.041188,8882.471304
874.674150,689.485948,-0.000000,9104.533087
874.674465,459.657299,-0.000000,9326.594869
874.674781,306.438199,-0.000000,9622.677246
874.675097,383.047749,-0.000000,9474.636058
874.675412,306.438199,-0.000000,9770.718434
874.675728,0.000000,-0.000000,9622.677246
874.676044,-306.438199,296.082377,9992.780217
874.676360,0.000000,-148.041188,9622.677246
874.676675,-153.219100,-0.000000,9548.656652
874.676991,0.000000,74.020594,9696.697840
