#time,accel_x,accel_y,accel_z
1179.032630,459.657299,-222.061783,9326.594869
1179.032946,229.828649,-444.123565,9400.615463
1179.033262,383.047749,-148.041188,9400.615463
1179.033578,536.266849,-148.041188,9474.636058
1179.033894,459.657299,-370.102971,9326.594869
1179.034210,459.657299,-148.041188,9474.636058
1179.034526,536.266849,-222.061783,9474.636058
1179.034842,306.438199,-148.041188,9474.636058
1179.035158,383.047749,-148.041188,9474.636058
1179.035474,459.657299,-296.082377,9548.656652
1179.035789,76.609550,-222.061783,9178.553681
1179.036105,383.047749,-296.082377,9622.677246
1179.036421,383.047749,-148.041188,9548.656652
1179.036737,459.657299,-74.020594,9548.656652
1179.037053,612.876398,-148.041188,10066.800811
1179.037369,383.047749,-74.020594,9474.636058
1179.037685,383.047749,-0.000000,9474.636058
1179.038001,76.609550,222.061783,9252.574275
1179.038317,459.657299,222.061783,9474.636058
1179.038633,1072.533697,444.123565,9252.574275
1179.038949,306.438199,296.082377,9400.615463
1179.039265,459.657299,296.082377,9178.553681
1179.039580,536.266849,148.041188,9326.594869
1179.039896,229.828649,370.102971,9400.615463
1179.040212,612.876398,-0.000000,9326.594869
1179.040528,459.657299,-0.000000,9548.656652
1179.040844,459.657299,148.041188,9474.636058
1179.041160,612.876398,370.102971,9326.594869
1179.041476,612.876398,148.041188,9548.656652
1179.041792,612.876398,518.144159,9400.615463
1179.042108,383.047749,1184.329507,9474.636058
1179.042424,383.047749,1184.329507,9252.574275
1179.042740,459.657299,962.267725,9400.615463
1179.043056,536.266849,888.247130,9326.594869
1179.043371,306.438199,814.226536,9252.574275
1179.043687,0.000000,740.205942,9252.574275
1179.044003,-229.828649,814.226536,9326.594869
1179.044319,-229.828649,1110.308913,9400.615463
1179.044635,-689.485948,1110.308913,9548.656652
1179.044951,-536.266849,1184.329507,9474.636058
1179.045267,-689.485948,1406.391290,9252.574275
1179.045583,-1149.143247,1554.432478,9326.594869
1179.045899,-1072.533697,1480.411884,9474.636058
1179.046215,-612.876398,1702.473667,9252.574275
1179.046531,-1532.190996,1628.453072,9548.656652
1179.046847,-1915.238745,1480.411884,9622.677246
1179.047162,-2145.067394,1406.391290,9696.697840
1179.047478,-2221.676944,1480.411884,9696.697840
1179.047794,-1762.019645,1480.411884,10066.800811
1179.048110,-1915.238745,1702.473667,9696.697840
1179.048426,-1762.019645,1850.514855,9548.656652
1179.048742,-1838.629195,1998.556043,9400.615463
1179.049058,-1915.238745,1776.494261,9400.615463
1179.049374,-1532.190996,1702.473667,9400.615463
1179.049690,-1532.190996,1702.473667,9326.594869
1179.050006,-1608.800546,1554.432478,9400.615463
1179.050322,-1149.143247,1628.453072,9696.697840
1179.050638,-919.314598,1924.535449,9918.759623
1179.050953,-1149.143247,1702.473667,9400.615463
1179.051269,-1072.533697,1924.535449,9326.594869
1179.051585,-1455.581446,2294.638420,9400.615463
1179.051901,-1225.752797,2146.597232,9400.615463
1179.052217,-1302.362347,2220.617826,9400.615463
1179.052533,-1378.971896,2368.659014,9474.636058
1179.052849,-1302.362347,1924.535449,9400.615463
1179.053165,-1532.190996,1554.432478,9474.636058
1179.053481,-1915.238745,1184.329507,9622.677246
1179.053797,-1915.238745,1036.288319,10066.800811
1179.054113,-1762.019645,1406.391290,9918.759623
1179.054429,-2221.676944,1258.350101,9474.636058
1179.054744,-2298.286494,1184.329507,9770.718434
1179.055060,-2374.896044,1332.370696,9622.677246
1179.055376,-1991.848295,1184.329507,9844.739029
1179.055692,-2068.457845,1406.391290,9622.677246
1179.056008,-1915.238745,1480.411884,9474.636058
1179.056324,-1762.019645,1628.453072,9548.656652
1179.056640,-1991.848295,1554.432478,9326.594869
1179.056956,-2451.505594,1480.411884,9252.574275
1179.057272,-2221.676944,1850.514855,8882.471304
1179.057588,-1915.238745,2368.659014,8808.450710
1179.057904,-2221.676944,2368.659014,9252.574275
1179.058220,-2068.457845,2368.659014,9104.533087
1179.058535,-2604.724693,1924.535449,9400.615463
1179.058851,-2757.943793,1406.391290,9474.636058
1179.059167,-2757.943793,814.226536,9696.697840
1179.059483,-2757.943793,888.247130,9918.759623
1179.059799,-2145.067394,-0.000000,10214.842000
1179.060115,-1762.019645,370.102971,10436.903782
1179.060431,-1762.019645,666.185348,9696.697840
1179.060747,-1302.362347,814.226536,9548.656652
1179.061063,-459.657299,1554.432478,9474.636058
1179.061379,0.000000,2220.617826,9030.512492
1179.061695,229.828649,2442.679609,8438.347739
1179.062011,383.047749,3034.844362,8364.327145
1179.062326,76.609550,3330.926739,7994.224174
1179.062642,76.609550,2812.782580,8290.306550
1179.062958,-383.047749,2886.803174,8068.244768
1179.063274,-1455.581446,2590.720797,8216.285956
1179.063590,-2221.676944,2072.576638,8956.491898
1179.063906,-2834.553343,1480.411884,9622.677246
1179.064222,-3600.648841,1332.370696,10362.883188
1179.064538,-3983.696590,666.185348,10881.027347
1179.064854,-4136.915689,296.082377,10881.027347
1179.065170,-3830.477490,148.041188,11325.150913
1179.065486,-3217.601092,-148.041188,11103.089130
1179.065802,-2298.286494,296.082377,10807.006753
1179.066117,-1378.971896,666.185348,10140.821405
1179.066433,-306.438199,1184.329507,9474.636058
1179.066749,306.438199,1924.535449,8956.491898
1179.067065,1225.752797,2590.720797,8216.285956
1179.067381,919.314598,3404.947333,7550.100608
1179.067697,1378.971896,4441.235652,7624.121203
1179.068013,1225.752797,4811.338623,7476.080014
1179.068329,459.657299,4737.318029,7105.977043
1179.068645,-536.266849,4367.215058,7624.121203
1179.068961,-1838.629195,3404.947333,8438.347739
1179.069277,-3217.601092,2220.617826,9770.718434
1179.069593,-4673.182538,740.205942,11177.109724
1179.069908,-5056.230287,-370.102971,11843.295072
1179.070224,-5439.278036,-1036.288319,12435.459826
1179.070540,-5592.497135,-1406.391290,12879.583391
1179.070856,-4749.792088,-1110.308913,12583.501014
1179.071172,-4366.744339,-740.205942,11843.295072
1179.071488,-2528.115143,444.123565,11029.068536
1179.071804,-842.705048,2072.576638,9622.677246
1179.072120,536.266849,3775.050304,8142.265362
1179.072436,1378.971896,5033.400406,6661.853478
1179.072752,1838.629195,5699.585753,6069.688724
1179.073068,1608.800546,5995.668130,5847.626942
1179.073384,1455.581446,5329.482782,6883.915261
1179.073699,383.047749,4219.173869,7476.080014
1179.074015,-1455.581446,2294.638420,8882.471304
1179.074331,-2834.553343,666.185348,10362.883188
1179.074647,-3983.696590,-518.144159,11547.212695
1179.074963,-4596.572988,-1554.432478,12731.542202
1179.075279,-4826.401637,-888.247130,12509.480420
1179.075595,-4596.572988,-444.123565,11917.315666
1179.075911,-4290.134789,296.082377,11177.109724
1179.076227,-3830.477490,1036.288319,10436.903782
1179.076543,-2451.505594,2442.679609,9622.677246
1179.076859,-1455.581446,3404.947333,8660.409521
1179.077175,0.000000,3849.070898,7550.100608
1179.077490,153.219100,4145.153275,7328.038826
1179.077806,689.485948,3256.906145,7698.141797
1179.078122,536.266849,2442.679609,8068.244768
1179.078438,612.876398,2294.638420,8438.347739
1179.078754,0.000000,2072.576638,8660.409521
1179.079070,-1149.143247,1776.494261,9104.533087
1179.079386,-1762.019645,1702.473667,9548.656652
1179.079702,-2068.457845,1406.391290,10066.800811
1179.080018,-2451.505594,1480.411884,10362.883188
1179.080334,-3447.429741,1406.391290,10066.800811
1179.080650,-4136.915689,1110.308913,9918.759623
1179.080966,-3294.210641,-74.020594,10510.924376
1179.081281,-2681.334243,-0.000000,10066.800811
1179.081597,-2528.115143,1184.329507,9474.636058
1179.081913,-2604.724693,1776.494261,8882.471304
1179.082229,-1762.019645,1776.494261,8808.450710
1179.082545,-1455.581446,1924.535449,9474.636058
1179.082861,-1608.800546,2590.720797,9178.553681
1179.083177,-1915.238745,2442.679609,9400.615463
1179.083493,-1532.190996,2294.638420,9548.656652
1179.083809,-1072.533697,1776.494261,9622.677246
1179.084125,-766.095498,1406.391290,9326.594869
1179.084441,-842.705048,740.205942,9252.574275
1179.084757,-766.095498,814.226536,9178.553681
1179.085072,-919.314598,1110.308913,9252.574275
1179.085388,-1149.143247,1554.432478,8882.471304
1179.085704,-1072.533697,2220.617826,9326.594869
1179.086020,-995.924147,2516.700203,9622.677246
1179.086336,-842.705048,2516.700203,9400.615463
1179.086652,-1302.362347,2960.823768,8734.430116
1179.086968,-766.095498,2516.700203,8364.327145
1179.087284,-1378.971896,1776.494261,9104.533087
1179.087600,-1838.629195,2072.576638,9474.636058
1179.087916,-2298.286494,1480.411884,9548.656652
1179.088232,-2528.115143,814.226536,10658.965565
1179.088548,-2528.115143,592.164754,11177.109724
1179.088863,-2911.162892,814.226536,10214.842000
1179.089179,-2451.505594,740.205942,10584.944971
1179.089495,-1762.019645,888.247130,10288.862594
1179.089811,-1378.971896,1776.494261,9548.656652
1179.090127,-306.438199,2146.597232,9400.615463
1179.090443,153.219100,2368.659014,8882.471304
1179.090759,612.876398,3182.885551,8290.306550
1179.091075,536.266849,3849.070898,7476.080014
1179.091391,383.047749,3330.926739,7402.059420
1179.091707,-229.828649,3330.926739,8364.327145
1179.092023,-1455.581446,3330.926739,8956.491898
1179.092339,-1838.629195,3478.967927,8882.471304
1179.092654,-2604.724693,2368.659014,9770.718434
1179.092970,-3753.867940,2072.576638,10510.924376
1179.093286,-4136.915689,1332.370696,10510.924376
1179.093602,-4366.744339,592.164754,10807.006753
1179.093918,-4826.401637,148.041188,11251.130318
1179.094234,-4903.011187,148.041188,11547.212695
1179.094550,-3830.477490,-592.164754,11325.150913
1179.094866,-2987.772442,-222.061783,11251.130318
1179.095181,-1991.848295,888.247130,10288.862594
1179.095497,-1072.533697,1406.391290,8586.388927
1179.095813,-383.047749,1776.494261,9326.594869
1179.096129,459.657299,3330.926739,8142.265362
1179.096445,1532.190996,4441.235652,7402.059420
1179.096761,1378.971896,4589.276840,7179.997637
1179.097076,995.924147,3923.091493,7920.203579
1179.097392,766.095498,2516.700203,7476.080014
1179.097708,-612.876398,1776.494261,8364.327145
1179.098024,-1838.629195,1110.308913,10140.821405
1179.098340,-2221.676944,740.205942,10658.965565
1179.098656,-2757.943793,222.061783,10732.986159
1179.098971,-3217.601092,444.123565,10658.965565
1179.099287,-3447.429741,-222.061783,11325.150913
1179.099603,-3524.039291,-888.247130,10362.883188
1179.099919,-3370.820191,-370.102971,11177.109724
1179.100235,-2374.896044,370.102971,10066.800811
1179.100551,-1378.971896,740.205942,10066.800811
1179.100866,-1072.533697,1924.535449,8956.491898
1179.101182,-1072.533697,2294.638420,8364.327145
1179.101498,-689.485948,2220.617826,8364.327145
1179.101814,0.000000,2294.638420,8660.409521
1179.102130,229.828649,2516.700203,8364.327145
1179.102446,459.657299,1776.494261,8734.430116
1179.102761,-383.047749,740.205942,9400.615463
1179.103077,-689.485948,370.102971,9326.594869
1179.103393,-612.876398,-148.041188,10140.821405
1179.103709,-842.705048,370.102971,9770.718434
1179.104025,-1072.533697,1258.350101,9844.739029
1179.104341,-1378.971896,518.144159,9474.636058
1179.104656,-1608.800546,962.267725,9474.636058
1179.104972,-1915.238745,370.102971,10658.965565
1179.105288,-1532.190996,370.102971,9844.739029
1179.105604,-995.924147,1184.329507,9104.533087
1179.105920,-1378.971896,296.082377,9474.636058
1179.106236,-919.314598,-222.061783,9992.780217
1179.106552,-919.314598,-0.000000,10362.883188
1179.106867,-229.828649,-370.102971,10288.862594
1179.107183,306.438199,296.082377,9548.656652
1179.107499,919.314598,-148.041188,9104.533087
1179.107815,995.924147,-148.041188,9400.615463
1179.108131,1072.533697,1110.308913,9474.636058
1179.108447,1991.848295,962.267725,8586.388927
1179.108762,2374.896044,1850.514855,8290.306550
1179.109078,1608.800546,1776.494261,7920.203579
1179.109394,1455.581446,1258.350101,7994.224174
1179.109710,612.876398,962.267725,8438.347739
1179.110026,-153.219100,148.041188,9696.697840
1179.110342,0.000000,-0.000000,9918.759623
1179.110657,-383.047749,1110.308913,8734.430116
1179.110973,-2221.676944,444.123565,9622.677246
1179.111289,-2757.943793,148.041188,10362.883188
1179.111605,-2298.286494,-814.226536,10658.965565
1179.111921,-2145.067394,-444.123565,10881.027347
1179.112237,-1762.019645,814.226536,10362.883188
1179.112552,-1838.629195,-222.061783,9474.636058
1179.112868,-1455.581446,-1258.350101,9548.656652
1179.113184,-842.705048,-1702.473667,10288.862594
1179.113500,689.485948,-1110.308913,10807.006753
1179.113816,1838.629195,518.144159,9030.512492
1179.114132,1378.971896,1628.453072,7698.141797
1179.114447,1455.581446,1332.370696,8142.265362
1179.114763,2221.676944,1110.308913,8512.368333
1179.115079,2987.772442,962.267725,8660.409521
1179.115395,2451.505594,1924.535449,8142.265362
1179.115711,1838.629195,888.247130,8438.347739
1179.116027,766.095498,740.205942,8512.368333
1179.116342,0.000000,148.041188,9474.636058
1179.116658,0.000000,-296.082377,10807.006753
1179.116974,-229.828649,-296.082377,9696.697840
1179.117290,-1991.848295,-518.144159,9992.780217
1179.117606,-1991.848295,-1702.473667,11103.089130
1179.117922,-995.924147,-2294.638420,11473.192101
1179.118237,-153.219100,-2072.576638,11325.150913
1179.118553,0.000000,-1110.308913,10955.047942
1179.118869,76.609550,-666.185348,9622.677246
1179.119185,1225.752797,-148.041188,8438.347739
1179.119501,1915.238745,-0.000000,8956.491898
1179.119817,2757.943793,666.185348,9326.594869
1179.120132,3064.381992,1628.453072,8216.285956
1179.120448,2451.505594,1998.556043,7698.141797
1179.120764,2145.067394,1554.432478,7846.182985
1179.121080,2068.457845,-0.000000,8586.388927
1179.121396,2221.676944,-74.020594,9326.594869
1179.121712,1378.971896,-74.020594,9104.533087
1179.122027,383.047749,-666.185348,9918.759623
1179.122343,-229.828649,-1110.308913,10140.821405
1179.122659,-842.705048,-1258.350101,10362.883188
1179.122975,76.609550,-1406.391290,11769.274478
1179.123291,0.000000,-1036.288319,10288.862594
1179.123607,-919.314598,-592.164754,10510.924376
1179.123923,-612.876398,-296.082377,9400.615463
1179.124238,0.000000,-296.082377,9474.636058
1179.124554,1225.752797,222.061783,9474.636058
1179.124870,1072.533697,1110.308913,8364.327145
1179.125186,766.095498,740.205942,8216.285956
1179.125502,76.609550,-0.000000,8068.244768
1179.125818,383.047749,-814.226536,8882.471304
1179.126133,766.095498,-1184.329507,10584.944971
1179.126449,689.485948,-592.164754,9474.636058
1179.126765,-383.047749,-74.020594,9030.512492
1179.127081,-76.609550,-592.164754,9474.636058
1179.127397,153.219100,-1184.329507,10140.821405
1179.127713,919.314598,-222.061783,9474.636058
1179.128028,536.266849,296.082377,8808.450710
1179.128344,0.000000,-444.123565,9178.553681
1179.128660,-459.657299,-592.164754,9252.574275
1179.128976,0.000000,-1110.308913,9844.739029
1179.129292,383.047749,148.041188,9770.718434
1179.129608,76.609550,222.061783,9030.512492
1179.129923,0.000000,370.102971,9104.533087
1179.130239,-459.657299,-148.041188,9252.574275
1179.130555,306.438199,-888.247130,10288.862594
1179.130871,612.876398,-296.082377,10658.965565
1179.131187,459.657299,-148.041188,8956.491898
1179.131503,76.609550,-740.205942,9252.574275
1179.131818,229.828649,-1184.329507,9474.636058
1179.132134,919.314598,-1258.350101,9474.636058
1179.132450,1455.581446,-0.000000,9696.697840
1179.132766,689.485948,-222.061783,8512.368333
1179.133082,459.657299,-0.000000,8660.409521
1179.133398,536.266849,-74.020594,9474.636058
1179.133713,536.266849,-740.205942,9622.677246
1179.134029,919.314598,-222.061783,9770.718434
1179.134345,536.266849,-0.000000,9474.636058
1179.134661,-536.266849,444.123565,9104.533087
1179.134977,76.609550,-0.000000,9622.677246
1179.135293,919.314598,-1406.391290,9918.759623
1179.135608,-612.876398,1258.350101,10140.821405
1179.135924,-306.438199,592.164754,9030.512492
1179.136240,766.095498,-1036.288319,9548.656652
1179.136556,76.609550,370.102971,9696.697840
1179.136872,0.000000,-1258.350101,9474.636058
1179.137188,1302.362347,-444.123565,10807.006753
1179.137503,1608.800546,-296.082377,8956.491898
1179.137819,459.657299,592.164754,8364.327145
1179.138135,1302.362347,814.226536,10066.800811
1179.138451,1762.019645,-0.000000,9992.780217
1179.138767,1838.629195,1036.288319,9252.574275
1179.139083,1302.362347,1258.350101,8808.450710
1179.139398,536.266849,740.205942,8956.491898
1179.139714,612.876398,222.061783,9844.739029
1179.140030,1149.143247,-0.000000,8882.471304
1179.140346,1378.971896,1258.350101,8808.450710
1179.140662,-76.609550,370.102971,9474.636058
1179.140978,-306.438199,-0.000000,9622.677246
1179.141294,229.828649,-888.247130,9844.739029
1179.141609,0.000000,-1258.350101,10510.924376
1179.141925,153.219100,-814.226536,10658.965565
1179.142241,0.000000,-0.000000,8808.450710
1179.142557,306.438199,-0.000000,8734.430116
1179.142873,76.609550,-222.061783,9252.574275
1179.143189,1149.143247,222.061783,9252.574275
1179.143504,766.095498,1036.288319,8290.306550
1179.143820,0.000000,1036.288319,8142.265362
1179.144136,0.000000,370.102971,8364.327145
1179.144452,0.000000,-666.185348,9252.574275
1179.144768,0.000000,-370.102971,9696.697840
1179.145084,306.438199,-222.061783,9178.553681
1179.145399,-842.705048,-148.041188,9326.594869
1179.145715,-995.924147,-592.164754,9696.697840
1179.146031,-229.828649,-1776.494261,9992.780217
1179.146347,383.047749,-1110.308913,10881.027347
1179.146663,-306.438199,-370.102971,10288.862594
1179.146979,0.000000,-222.061783,8808.450710
1179.147294,76.609550,74.020594,8882.471304
1179.147610,1225.752797,-1332.370696,9992.780217
1179.147926,1302.362347,370.102971,9474.636058
1179.148242,1915.238745,814.226536,8660.409521
1179.148558,76.609550,1184.329507,8290.306550
1179.148874,383.047749,1110.308913,8512.368333
1179.149189,689.485948,-444.123565,9252.574275
1179.149505,766.095498,-148.041188,10436.903782
1179.149821,0.000000,-666.185348,9770.718434
1179.150137,-153.219100,-1036.288319,9992.780217
1179.150453,-536.266849,-740.205942,10066.800811
1179.150769,-306.438199,-1628.453072,10510.924376
1179.151084,536.266849,-814.226536,10584.944971
1179.151400,229.828649,-666.185348,9992.780217
1179.151716,-459.657299,296.082377,9178.553681
1179.152032,383.047749,-370.102971,9844.739029
1179.152348,1149.143247,-962.267725,9696.697840
1179.152664,1455.581446,222.061783,9326.594869
1179.152979,919.314598,444.123565,9030.512492
1179.153295,612.876398,-0.000000,9326.594869
1179.153611,1072.533697,-370.102971,9992.780217
1179.153927,1225.752797,-74.020594,9400.615463
1179.154243,1838.629195,592.164754,9696.697840
1179.154559,919.314598,1184.329507,8512.368333
1179.154874,383.047749,370.102971,8734.430116
1179.155190,536.266849,148.041188,9326.594869
1179.155506,383.047749,-74.020594,10658.965565
1179.155822,995.924147,592.164754,9548.656652
1179.156138,459.657299,222.061783,8882.471304
1179.156454,-383.047749,-0.000000,9770.718434
1179.156769,0.000000,-1480.411884,9474.636058
1179.157085,383.047749,-740.205942,9844.739029
1179.157401,536.266849,-0.000000,9326.594869
1179.157717,76.609550,-0.000000,9474.636058
1179.158033,0.000000,666.185348,9326.594869
1179.158349,0.000000,-222.061783,8956.491898
1179.158664,76.609550,370.102971,9770.718434
1179.158980,536.266849,370.102971,9400.615463
1179.159296,0.000000,-0.000000,8660.409521
1179.159612,-459.657299,-0.000000,8808.450710
1179.159928,383.047749,-1554.432478,9696.697840
1179.160244,383.047749,-1480.411884,9918.759623
1179.160560,919.314598,-222.061783,9548.656652
1179.160875,0.000000,-518.144159,8586.388927
1179.161191,76.609550,-222.061783,9474.636058
1179.161507,536.266849,-1628.453072,9696.697840
1179.161823,1072.533697,-444.123565,9622.677246
1179.162139,1302.362347,-74.020594,9400.615463
1179.162455,612.876398,-222.061783,8142.265362
1179.162770,153.219100,-222.061783,9104.533087
1179.163086,459.657299,-1258.350101,9474.636058
1179.163402,1149.143247,-222.061783,9548.656652
1179.163718,536.266849,222.061783,9474.636058
1179.164034,-612.876398,-814.226536,9252.574275
1179.164350,-612.876398,-1110.308913,10362.883188
1179.164665,-153.219100,-1110.308913,10807.006753
1179.164981,383.047749,-0.000000,10436.903782
1179.165297,536.266849,222.061783,9548.656652
1179.165613,306.438199,-0.000000,8808.450710
1179.165929,383.047749,-222.061783,9622.677246
1179.166245,383.047749,-1258.350101,10510.924376
1179.166560,1532.190996,-296.082377,10510.924376
1179.166876,995.924147,740.205942,8882.471304
1179.167192,229.828649,518.144159,9178.553681
1179.167508,842.705048,518.144159,9252.574275
1179.167824,842.705048,-0.000000,9104.533087
1179.168140,1149.143247,296.082377,10362.883188
1179.168455,612.876398,-74.020594,10362.883188
1179.168771,0.000000,518.144159,9400.615463
1179.169087,306.438199,296.082377,8586.388927
1179.169403,229.828649,-962.267725,10288.862594
1179.169719,1532.190996,-296.082377,10362.883188
1179.170035,1072.533697,-0.000000,9400.615463
1179.170350,-306.438199,-888.247130,9770.718434
1179.170666,0.000000,-1258.350101,9696.697840
1179.170982,1149.143247,-740.205942,10214.842000
1179.171298,2145.067394,518.144159,9104.533087
1179.171614,1608.800546,814.226536,8734.430116
1179.171930,1838.629195,1036.288319,8734.430116
1179.172245,1225.752797,666.185348,8438.347739
1179.172561,842.705048,148.041188,8290.306550
1179.172877,1149.143247,444.123565,10066.800811
1179.173193,76.609550,-0.000000,9474.636058
1179.173509,-689.485948,-148.041188,8882.471304
1179.173825,-842.705048,-1184.329507,9474.636058
1179.174140,-383.047749,-2146.597232,10732.986159
1179.174456,-536.266849,-740.205942,10584.944971
1179.174772,-766.095498,-740.205942,9252.574275
1179.175088,-1225.752797,-1110.308913,9252.574275
1179.175404,-612.876398,-1480.411884,10214.842000
1179.175720,153.219100,-444.123565,10140.821405
1179.176035,995.924147,1184.329507,8882.471304
1179.176351,459.657299,-0.000000,8956.491898
1179.176667,459.657299,-74.020594,8438.347739
1179.176983,459.657299,-592.164754,9030.512492
1179.177299,612.876398,-666.185348,9622.677246
1179.177615,995.924147,-0.000000,9104.533087
1179.177931,995.924147,296.082377,9178.553681
1179.178246,153.219100,74.020594,8438.347739
1179.178562,229.828649,-518.144159,9326.594869
1179.178878,76.609550,-1110.308913,10140.821405
1179.179194,306.438199,-296.082377,9400.615463
1179.179510,-383.047749,-666.185348,9474.636058
1179.179826,-459.657299,-740.205942,9326.594869
1179.180141,-383.047749,-1184.329507,9474.636058
1179.180457,383.047749,-1110.308913,10584.944971
1179.180773,766.095498,-296.082377,9622.677246
1179.181089,-229.828649,-296.082377,8438.347739
1179.181405,-689.485948,-0.000000,9548.656652
1179.181721,459.657299,-814.226536,9992.780217
1179.182036,1072.533697,1184.329507,8882.471304
1179.182352,995.924147,1258.350101,9474.636058
1179.182668,229.828649,148.041188,9548.656652
1179.182984,689.485948,-222.061783,9548.656652
1179.183300,459.657299,-740.205942,10288.862594
1179.183616,995.924147,-666.185348,10732.986159
1179.183931,1991.848295,-0.000000,9918.759623
1179.184247,1225.752797,222.061783,9622.677246
1179.184563,842.705048,888.247130,9474.636058
1179.184879,1149.143247,-74.020594,10140.821405
1179.185195,2068.457845,1258.350101,10140.821405
1179.185511,995.924147,1480.411884,9030.512492
1179.185826,919.314598,1110.308913,9326.594869
1179.186142,1532.190996,962.267725,9030.512492
1179.186458,689.485948,370.102971,9178.553681
1179.186774,1225.752797,518.144159,9770.718434
1179.187090,689.485948,-666.185348,9400.615463
1179.187406,-459.657299,-148.041188,9400.615463
1179.187721,-536.266849,-888.247130,10362.883188
1179.188037,-383.047749,-1110.308913,9844.739029
1179.188353,0.000000,-148.041188,10362.883188
1179.188669,153.219100,-518.144159,10214.842000
1179.188985,-689.485948,-370.102971,9400.615463
1179.189301,0.000000,-74.020594,9400.615463
1179.189616,-536.266849,-592.164754,9104.533087
1179.189932,689.485948,-74.020594,9844.739029
1179.190248,919.314598,-0.000000,8734.430116
1179.190564,0.000000,148.041188,9030.512492
1179.190880,153.219100,-0.000000,8808.450710
1179.191196,306.438199,-962.267725,9030.512492
1179.191511,995.924147,518.144159,9474.636058
1179.191827,766.095498,-370.102971,9400.615463
1179.192143,76.609550,444.123565,8956.491898
1179.192459,0.000000,296.082377,9400.615463
1179.192775,383.047749,-666.185348,9474.636058
1179.193091,612.876398,-222.061783,9770.718434
1179.193407,612.876398,-666.185348,9474.636058
1179.193723,-383.047749,-888.247130,8734.430116
1179.194039,76.609550,-1258.350101,9770.718434
1179.194355,0.000000,-1184.329507,10288.862594
1179.194671,842.705048,148.041188,9474.636058
1179.194987,153.219100,814.226536,8438.347739
1179.195303,459.657299,444.123565,9252.574275
1179.195618,459.657299,-222.061783,8364.327145
1179.195934,612.876398,-814.226536,9992.780217
1179.196250,1838.629195,-148.041188,9770.718434
1179.196566,0.000000,-0.000000,8512.368333
1179.196882,306.438199,-370.102971,8956.491898
1179.197198,-153.219100,-1480.411884,9622.677246
1179.197514,306.438199,-1258.350101,9992.780217
1179.197830,766.095498,-296.082377,10066.800811
1179.198146,0.000000,-0.000000,9104.533087
1179.198462,229.828649,666.185348,9474.636058
1179.198778,612.876398,-222.061783,8956.491898
1179.199094,995.924147,-592.164754,10214.842000
1179.199410,1149.143247,-222.061783,9770.718434
1179.199725,842.705048,-1184.329507,8956.491898
1179.200041,459.657299,-740.205942,8734.430116
1179.200357,153.219100,-1628.453072,10214.842000
1179.200673,1072.533697,-370.102971,10436.903782
1179.200989,1072.533697,592.164754,8882.471304
1179.201305,153.219100,592.164754,8808.450710
1179.201621,229.828649,148.041188,8512.368333
1179.201937,459.657299,-888.247130,9918.759623
1179.202253,1225.752797,-296.082377,10288.862594
1179.202569,1072.533697,222.061783,8808.450710
1179.202885,459.657299,74.020594,9104.533087
1179.203201,-153.219100,-296.082377,8808.450710
1179.203517,995.924147,-1110.308913,10066.800811
1179.203833,1149.143247,-0.000000,10066.800811
1179.204148,612.876398,592.164754,8882.471304
1179.204464,-306.438199,148.041188,9474.636058
1179.204780,0.000000,-0.000000,9770.718434
1179.205096,229.828649,-370.102971,9178.553681
1179.205412,459.657299,592.164754,9622.677246
1179.205728,612.876398,444.123565,9474.636058
1179.206044,0.000000,666.185348,8512.368333
1179.206360,0.000000,-0.000000,9252.574275
1179.206676,229.828649,-1332.370696,10140.821405
1179.206992,612.876398,-0.000000,9622.677246
1179.207308,383.047749,-0.000000,9844.739029
1179.207624,0.000000,-296.082377,9400.615463
1179.207940,153.219100,-296.082377,9918.759623
1179.208255,0.000000,-962.267725,9844.739029
1179.208571,1072.533697,-0.000000,9992.780217
1179.208887,842.705048,-0.000000,8882.471304
1179.209203,229.828649,-148.041188,9474.636058
1179.209519,306.438199,-148.041188,9326.594869
1179.209835,536.266849,-814.226536,9622.677246
1179.210151,1532.190996,-148.041188,10362.883188
1179.210467,612.876398,814.226536,9400.615463
1179.210783,-306.438199,296.082377,8956.491898
1179.211099,0.000000,-666.185348,9622.677246
1179.211415,76.609550,-888.247130,10066.800811
1179.211731,689.485948,-74.020594,10288.862594
1179.212047,0.000000,-148.041188,9918.759623
1179.212362,0.000000,-0.000000,8808.450710
1179.212678,76.609550,-1258.350101,9252.574275
1179.212994,536.266849,-1036.288319,9770.718434
1179.213310,1532.190996,-148.041188,9400.615463
1179.213626,383.047749,-0.000000,9400.615463
1179.213942,76.609550,-296.082377,9326.594869
1179.214258,0.000000,-370.102971,9178.553681
1179.214574,919.314598,-222.061783,9696.697840
1179.214890,1225.752797,296.082377,9548.656652
1179.215206,306.438199,222.061783,9030.512492
1179.215522,76.609550,-222.061783,9548.656652
1179.215838,0.000000,-740.205942,9326.594869
1179.216154,1072.533697,-518.144159,10584.944971
1179.216469,1762.019645,296.082377,9622.677246
1179.216785,306.438199,444.123565,9030.512492
1179.217101,76.609550,1184.329507,9474.636058
1179.217417,612.876398,222.061783,9252.574275
1179.217733,1225.752797,-0.000000,9548.656652
1179.218049,919.314598,1480.411884,9474.636058
1179.218365,919.314598,592.164754,8660.409521
1179.218681,0.000000,592.164754,8290.306550
1179.218997,536.266849,-888.247130,9844.739029
1179.219313,842.705048,-1036.288319,9696.697840
1179.219629,919.314598,222.061783,9252.574275
1179.219945,-153.219100,148.041188,9548.656652
1179.220261,-383.047749,-222.061783,9474.636058
1179.220576,-306.438199,-148.041188,9622.677246
1179.220892,-459.657299,-592.164754,9918.759623
1179.221208,76.609550,148.041188,9326.594869
1179.221524,0.000000,-666.185348,9252.574275
1179.221840,-306.438199,-814.226536,8512.368333
1179.222156,-229.828649,-1776.494261,9474.636058
1179.222472,689.485948,-1628.453072,10510.924376
1179.222788,995.924147,-444.123565,9104.533087
1179.223104,459.657299,-444.123565,8364.327145
1179.223420,76.609550,-592.164754,9474.636058
1179.223736,1225.752797,-1628.453072,9992.780217
1179.224052,1455.581446,-296.082377,9844.739029
1179.224368,1532.190996,148.041188,8586.388927
1179.224684,229.828649,-148.041188,8290.306550
1179.224999,306.438199,-444.123565,9548.656652
1179.225315,536.266849,-1554.432478,9696.697840
1179.225631,842.705048,-370.102971,9474.636058
1179.225947,536.266849,-0.000000,9918.759623
1179.226263,0.000000,-296.082377,8734.430116
1179.226579,-612.876398,-444.123565,9178.553681
1179.226895,-995.924147,-2294.638420,10732.986159
1179.227211,0.000000,-1332.370696,11473.192101
1179.227527,-229.828649,-74.020594,10140.821405
1179.227843,-995.924147,-518.144159,9844.739029
1179.228159,0.000000,-518.144159,9622.677246
1179.228475,766.095498,-74.020594,9770.718434
1179.228791,1378.971896,1110.308913,8808.450710
1179.229106,1072.533697,666.185348,8956.491898
1179.229422,459.657299,-0.000000,9548.656652
1179.229738,919.314598,-0.000000,9548.656652
1179.230054,689.485948,-0.000000,9474.636058
1179.230370,1455.581446,666.185348,9622.677246
1179.230686,1072.533697,1184.329507,8586.388927
1179.231002,459.657299,370.102971,8660.409521
1179.231318,459.657299,-666.185348,9918.759623
1179.231634,612.876398,-1554.432478,11177.109724
1179.231950,1225.752797,-444.123565,9696.697840
1179.232266,306.438199,-296.082377,8882.471304
1179.232582,689.485948,-0.000000,9770.718434
1179.232898,689.485948,-222.061783,9400.615463
1179.233213,919.314598,-814.226536,9622.677246
1179.233529,995.924147,518.144159,9696.697840
1179.233845,766.095498,296.082377,8660.409521
1179.234161,766.095498,666.185348,8216.285956
1179.234477,536.266849,-74.020594,9326.594869
1179.234793,689.485948,-0.000000,10362.883188
1179.235109,1685.410096,518.144159,9326.594869
1179.235425,536.266849,-0.000000,8586.388927
1179.235741,-459.657299,148.041188,9104.533087
1179.236057,-459.657299,-1036.288319,9992.780217
1179.236373,-153.219100,-1332.370696,9696.697840
1179.236689,229.828649,444.123565,9326.594869
1179.237005,-229.828649,-0.000000,9696.697840
1179.237320,-459.657299,-518.144159,9030.512492
1179.237636,-459.657299,-888.247130,9844.739029
1179.237952,-229.828649,-888.247130,9992.780217
1179.238268,689.485948,-0.000000,9326.594869
1179.238584,0.000000,74.020594,8808.450710
1179.238900,-383.047749,-222.061783,9178.553681
1179.239216,306.438199,-592.164754,10288.862594
1179.239532,1378.971896,-444.123565,9326.594869
1179.239848,612.876398,222.061783,8512.368333
1179.240164,76.609550,-0.000000,9104.533087
1179.240480,536.266849,-444.123565,9548.656652
1179.240796,383.047749,-666.185348,9326.594869
1179.241112,842.705048,-296.082377,9992.780217
1179.241427,766.095498,518.144159,10140.821405
1179.241743,383.047749,296.082377,8808.450710
1179.242059,229.828649,222.061783,8364.327145
1179.242375,0.000000,-888.247130,9918.759623
1179.242691,1149.143247,-962.267725,10658.965565
1179.243007,766.095498,-518.144159,10066.800811
1179.243323,-153.219100,-0.000000,9622.677246
1179.243639,0.000000,-444.123565,9474.636058
1179.243955,459.657299,-1258.350101,9474.636058
1179.244271,536.266849,-0.000000,10362.883188
1179.244587,612.876398,444.123565,9474.636058
1179.244903,383.047749,-0.000000,9844.739029
1179.245219,229.828649,-0.000000,9622.677246
1179.245534,383.047749,-222.061783,9178.553681
1179.245850,1149.143247,-0.000000,10362.883188
1179.246166,1225.752797,-296.082377,9178.553681
1179.246482,306.438199,-296.082377,9548.656652
1179.246798,459.657299,-666.185348,9548.656652
1179.247114,766.095498,-888.247130,9548.656652
1179.247430,1378.971896,518.144159,9696.697840
1179.247746,1532.190996,666.185348,9474.636058
1179.248062,919.314598,444.123565,8660.409521
1179.248378,459.657299,-0.000000,8956.491898
1179.248694,842.705048,-888.247130,10066.800811
1179.249010,1149.143247,-0.000000,9844.739029
1179.249326,612.876398,296.082377,8586.388927
1179.249642,-306.438199,518.144159,8660.409521
1179.249957,-842.705048,-444.123565,9622.677246
1179.250273,-306.438199,-1332.370696,10658.965565
1179.250589,536.266849,888.247130,9918.759623
1179.250905,-76.609550,592.164754,8808.450710
1179.251221,-995.924147,-0.000000,9400.615463
1179.251537,-689.485948,-74.020594,9622.677246
1179.251853,0.000000,-370.102971,10140.821405
1179.252169,766.095498,814.226536,9844.739029
1179.252485,0.000000,592.164754,8438.347739
1179.252801,-306.438199,-0.000000,8956.491898
1179.253117,383.047749,-666.185348,8956.491898
1179.253433,842.705048,-740.205942,9474.636058
1179.253749,1302.362347,518.144159,9622.677246
1179.254064,76.609550,-0.000000,8586.388927
1179.254380,-229.828649,-0.000000,8882.471304
1179.254696,383.047749,-592.164754,9770.718434
1179.255012,766.095498,-888.247130,10288.862594
1179.255328,1149.143247,-0.000000,9474.636058
1179.255644,383.047749,-74.020594,8882.471304
1179.255960,0.000000,-444.123565,9400.615463
1179.256276,689.485948,-1702.473667,10214.842000
1179.256592,919.314598,-444.123565,9992.780217
1179.256908,1072.533697,-74.020594,9770.718434
1179.257224,306.438199,-0.000000,8734.430116
1179.257540,383.047749,592.164754,9252.574275
1179.257856,306.438199,-222.061783,9030.512492
1179.258171,1225.752797,-814.226536,10362.883188
1179.258487,1532.190996,-148.041188,9770.718434
1179.258803,76.609550,-296.082377,9104.533087
1179.259119,153.219100,-888.247130,9548.656652
1179.259435,689.485948,-1628.453072,9696.697840
1179.259751,1072.533697,-370.102971,9992.780217
1179.260067,1378.971896,518.144159,9474.636058
1179.260383,-153.219100,-222.061783,8956.491898
1179.260699,0.000000,-74.020594,9770.718434
1179.261015,0.000000,-962.267725,9622.677246
1179.261331,766.095498,-74.020594,9770.718434
1179.261647,766.095498,222.061783,9696.697840
1179.261963,0.000000,-0.000000,8364.327145
1179.262278,229.828649,-740.205942,9696.697840
1179.262594,383.047749,-1702.473667,10362.883188
1179.262910,383.047749,-814.226536,10436.903782
1179.263226,919.314598,296.082377,9252.574275
1179.263542,383.047749,222.061783,9326.594869
1179.263858,-306.438199,-0.000000,9104.533087
1179.264174,0.000000,-222.061783,9918.759623
1179.264490,1455.581446,518.144159,9844.739029
1179.264806,1072.533697,666.185348,8364.327145
1179.265122,229.828649,-0.000000,9326.594869
1179.265438,0.000000,-370.102971,9252.574275
1179.265754,153.219100,-666.185348,8734.430116
1179.266070,1072.533697,-74.020594,9548.656652
1179.266385,0.000000,-0.000000,9252.574275
1179.266701,-766.095498,148.041188,9252.574275
1179.267017,-1302.362347,-740.205942,9400.615463
1179.267333,-1072.533697,-1332.370696,10807.006753
1179.267649,-153.219100,-444.123565,10436.903782
1179.267965,0.000000,-0.000000,8808.450710
1179.268281,-536.266849,-148.041188,9400.615463
1179.268597,306.438199,-888.247130,10066.800811
1179.268913,689.485948,-814.226536,9400.615463
1179.269229,766.095498,740.205942,8734.430116
1179.269545,1072.533697,444.123565,9104.533087
1179.269861,536.266849,-0.000000,9104.533087
1179.270177,383.047749,-74.020594,8660.409521
1179.270492,842.705048,-814.226536,9696.697840
1179.270808,1608.800546,-222.061783,9918.759623
1179.271124,1455.581446,-0.000000,8808.450710
1179.271440,383.047749,222.061783,8808.450710
1179.271756,612.876398,-1110.308913,9252.574275
1179.272072,1072.533697,-1480.411884,10658.965565
1179.272388,1072.533697,-0.000000,9696.697840
1179.272704,306.438199,-0.000000,8956.491898
1179.273020,0.000000,-370.102971,9474.636058
1179.273336,0.000000,-1110.308913,10362.883188
1179.273652,306.438199,-444.123565,9918.759623
1179.273968,919.314598,518.144159,9696.697840
1179.274284,383.047749,296.082377,8882.471304
1179.274600,76.609550,-370.102971,9696.697840
1179.274915,766.095498,-962.267725,9918.759623
1179.275231,1149.143247,-666.185348,9770.718434
1179.275547,1225.752797,592.164754,9326.594869
1179.275863,766.095498,296.082377,9030.512492
1179.276179,306.438199,296.082377,9252.574275
1179.276495,459.657299,-296.082377,9622.677246
1179.276811,919.314598,-518.144159,10066.800811
1179.277127,995.924147,592.164754,10214.842000
1179.277443,459.657299,370.102971,9400.615463
1179.277759,306.438199,-0.000000,9030.512492
1179.278075,229.828649,-740.205942,10214.842000
1179.278391,919.314598,-0.000000,9844.739029
1179.278707,1072.533697,370.102971,9326.594869
1179.279022,306.438199,222.061783,9178.553681
1179.279338,-383.047749,296.082377,9474.636058
1179.279654,153.219100,-0.000000,9548.656652
1179.279970,459.657299,-148.041188,9992.780217
1179.280286,919.314598,518.144159,9474.636058
1179.280602,229.828649,740.205942,8956.491898
1179.280918,76.609550,-0.000000,9252.574275
1179.281234,-153.219100,-1258.350101,9474.636058
1179.281550,612.876398,-444.123565,9696.697840
1179.281866,766.095498,-148.041188,9400.615463
1179.282182,-229.828649,-444.123565,9918.759623
1179.282498,-306.438199,-444.123565,9770.718434
1179.282814,-229.828649,-740.205942,9548.656652
1179.283129,536.266849,444.123565,9474.636058
1179.283445,383.047749,370.102971,9030.512492
1179.283761,-229.828649,-0.000000,8512.368333
1179.284077,-229.828649,-592.164754,9252.574275
1179.284393,-306.438199,-1628.453072,9622.677246
1179.284709,383.047749,-296.082377,9696.697840
1179.285025,229.828649,-0.000000,8956.491898
1179.285341,-383.047749,-518.144159,9622.677246
1179.285657,-229.828649,-814.226536,9992.780217
1179.285973,-229.828649,-666.185348,9918.759623
1179.286289,306.438199,-0.000000,9622.677246
1179.286605,153.219100,296.082377,8808.450710
1179.286921,-306.438199,-74.020594,9326.594869
1179.287236,229.828649,-888.247130,9474.636058
1179.287552,536.266849,-1554.432478,10436.903782
1179.287868,919.314598,-370.102971,9992.780217
1179.288184,612.876398,-0.000000,9178.553681
1179.288500,306.438199,296.082377,8882.471304
1179.288816,459.657299,-0.000000,9030.512492
1179.289132,919.314598,-666.185348,9918.759623
1179.289448,1072.533697,-0.000000,10066.800811
1179.289764,612.876398,370.102971,9548.656652
1179.290080,383.047749,-296.082377,8956.491898
1179.290396,383.047749,-370.102971,9252.574275
1179.290712,612.876398,-666.185348,9474.636058
1179.291028,842.705048,444.123565,10362.883188
1179.291343,842.705048,370.102971,9770.718434
1179.291659,0.000000,74.020594,8660.409521
1179.291975,0.000000,-0.000000,9992.780217
1179.292291,536.266849,-592.164754,10288.862594
1179.292607,1378.971896,-148.041188,9474.636058
1179.292923,842.705048,-296.082377,9474.636058
1179.293239,459.657299,-0.000000,9918.759623
1179.293555,1225.752797,-370.102971,9844.739029
1179.293871,1608.800546,222.061783,9326.594869
1179.294187,2068.457845,1110.308913,9326.594869
1179.294502,2068.457845,666.185348,9030.512492
1179.294818,1378.971896,592.164754,7994.224174
1179.295134,766.095498,370.102971,9474.636058
1179.295450,1608.800546,-666.185348,10584.944971
1179.295766,1378.971896,222.061783,9178.553681
1179.296082,229.828649,444.123565,8808.450710
1179.296398,-153.219100,296.082377,9326.594869
1179.296714,-229.828649,-592.164754,10140.821405
1179.297030,76.609550,-518.144159,9844.739029
1179.297345,0.000000,-148.041188,9326.594869
1179.297661,-306.438199,-1554.432478,10288.862594
1179.297977,-689.485948,-1702.473667,10214.842000
1179.298293,-536.266849,-1036.288319,9548.656652
1179.298609,229.828649,-222.061783,9918.759623
1179.298925,306.438199,444.123565,9400.615463
1179.299241,-1149.143247,1480.411884,8512.368333
1179.299557,0.000000,-0.000000,9178.553681
1179.299872,306.438199,-962.267725,9696.697840
1179.300188,612.876398,-148.041188,9474.636058
1179.300504,1072.533697,-370.102971,8586.388927
1179.300820,612.876398,-296.082377,9622.677246
1179.301136,0.000000,-1184.329507,9844.739029
1179.301452,153.219100,-666.185348,9474.636058
1179.301768,766.095498,-0.000000,9992.780217
1179.302084,536.266849,-0.000000,9622.677246
1179.302399,306.438199,962.267725,9696.697840
1179.302715,0.000000,222.061783,8512.368333
1179.303031,383.047749,-814.226536,8956.491898
1179.303347,459.657299,-296.082377,10658.965565
1179.303663,229.828649,-222.061783,8956.491898
1179.303979,-536.266849,222.061783,8956.491898
1179.304295,-766.095498,-370.102971,9844.739029
1179.304611,-689.485948,-1406.391290,10436.903782
1179.304927,229.828649,148.041188,9918.759623
1179.305242,-306.438199,444.123565,9474.636058
1179.305558,-612.876398,-1036.288319,9992.780217
1179.305874,-383.047749,-888.247130,9844.739029
1179.306190,229.828649,-962.267725,9696.697840
1179.306506,0.000000,-0.000000,9474.636058
1179.306822,459.657299,148.041188,9696.697840
1179.307138,766.095498,-74.020594,8660.409521
1179.307454,689.485948,-0.000000,8586.388927
1179.307769,1149.143247,-296.082377,9770.718434
1179.308085,1608.800546,-222.061783,9400.615463
1179.308401,842.705048,-0.000000,9178.553681
1179.308717,842.705048,222.061783,8734.430116
1179.309033,612.876398,-74.020594,9104.533087
1179.309349,1225.752797,-0.000000,9548.656652
1179.309665,1225.752797,592.164754,9030.512492
1179.309981,306.438199,-0.000000,9548.656652
1179.310296,0.000000,-444.123565,9918.759623
1179.310612,-229.828649,-296.082377,9252.574275
1179.310928,459.657299,-1332.370696,9918.759623
1179.311244,536.266849,-222.061783,9918.759623
1179.311560,383.047749,296.082377,8882.471304
1179.311876,0.000000,-222.061783,8882.471304
1179.312192,76.609550,-888.247130,9474.636058
1179.312508,766.095498,-888.247130,9992.780217
1179.312824,1302.362347,888.247130,8586.388927
1179.313139,1072.533697,592.164754,8290.306550
1179.313455,459.657299,-0.000000,9030.512492
1179.313771,766.095498,-296.082377,9474.636058
1179.314087,766.095498,-370.102971,9326.594869
1179.314403,1072.533697,740.205942,9104.533087
1179.314719,76.609550,-0.000000,8808.450710
1179.315035,0.000000,-74.020594,8660.409521
1179.315351,-153.219100,-740.205942,10362.883188
1179.315666,383.047749,-1110.308913,11029.068536
1179.315982,689.485948,-0.000000,9474.636058
1179.316298,459.657299,222.061783,8660.409521
1179.316614,-229.828649,-814.226536,9844.739029
1179.316930,536.266849,-1184.329507,10584.944971
1179.317246,1149.143247,-0.000000,10066.800811
1179.317562,1378.971896,1036.288319,8586.388927
1179.317878,842.705048,518.144159,8882.471304
1179.318194,766.095498,-370.102971,9622.677246
1179.318509,612.876398,-888.247130,9252.574275
1179.318825,995.924147,-814.226536,10584.944971
1179.319141,1532.190996,-74.020594,9622.677246
1179.319457,689.485948,-0.000000,8216.285956
1179.319773,229.828649,-148.041188,9696.697840
1179.320089,766.095498,-1332.370696,10288.862594
1179.320405,995.924147,-814.226536,9918.759623
1179.320721,919.314598,-0.000000,9992.780217
1179.321036,0.000000,-74.020594,9474.636058
1179.321352,76.609550,-518.144159,9252.574275
1179.321668,0.000000,-1110.308913,9696.697840
1179.321984,995.924147,-814.226536,9992.780217
1179.322300,1072.533697,-222.061783,9548.656652
1179.322616,0.000000,-888.247130,9474.636058
1179.322932,-153.219100,-740.205942,9326.594869
1179.323248,383.047749,-888.247130,9770.718434
1179.323563,995.924147,-518.144159,9474.636058
1179.323879,995.924147,814.226536,8364.327145
1179.324195,76.609550,-444.123565,9474.636058
1179.324511,229.828649,-518.144159,9104.533087
1179.324827,76.609550,-814.226536,9178.553681
1179.325143,919.314598,-222.061783,9844.739029
1179.325459,1072.533697,-0.000000,9474.636058
1179.325775,612.876398,222.061783,9030.512492
1179.326091,153.219100,74.020594,8882.471304
1179.326406,689.485948,-592.164754,10066.800811
1179.326722,1072.533697,592.164754,9104.533087
1179.327038,995.924147,444.123565,8734.430116
1179.327354,0.000000,296.082377,9030.512492
1179.327670,-153.219100,-0.000000,9400.615463
1179.327986,76.609550,-740.205942,9400.615463
1179.328302,306.438199,74.020594,10510.924376
1179.328618,-306.438199,-0.000000,9400.615463
1179.328933,-459.657299,-444.123565,9474.636058
1179.329249,153.219100,-666.185348,9622.677246
1179.329565,0.000000,-1258.350101,10362.883188
1179.329881,689.485948,-0.000000,10066.800811
1179.330197,536.266849,814.226536,7846.182985
1179.330513,-306.438199,444.123565,9474.636058
1179.330829,306.438199,-518.144159,9474.636058
1179.331145,383.047749,-592.164754,9622.677246
1179.331460,1378.971896,370.102971,9252.574275
1179.331776,1225.752797,370.102971,8956.491898
1179.332092,612.876398,-0.000000,8290.306550
1179.332408,842.705048,-740.205942,9770.718434
1179.332724,153.219100,-1480.411884,9178.553681
1179.333040,1149.143247,-444.123565,10732.986159
1179.333356,612.876398,-74.020594,9400.615463
1179.333672,76.609550,-296.082377,9178.553681
1179.333988,0.000000,-592.164754,10066.800811
1179.334303,459.657299,-1036.288319,9622.677246
1179.334619,612.876398,296.082377,9844.739029
1179.334935,0.000000,-370.102971,9178.553681
1179.335251,-536.266849,-296.082377,9178.553681
1179.335567,-612.876398,-444.123565,9844.739029
1179.335883,-459.657299,-1702.473667,10214.842000
1179.336199,76.609550,-0.000000,9918.759623
1179.336515,-306.438199,-518.144159,9622.677246
1179.336830,-536.266849,-222.061783,9548.656652
1179.337146,0.000000,-296.082377,10214.842000
1179.337462,306.438199,-0.000000,10066.800811
1179.337778,995.924147,1110.308913,9326.594869
1179.338094,459.657299,888.247130,9104.533087
1179.338410,459.657299,888.247130,8882.471304
1179.338726,536.266849,-666.185348,9918.759623
1179.339042,919.314598,-296.082377,10214.842000
1179.339358,1685.410096,222.061783,9474.636058
1179.339673,689.485948,518.144159,8660.409521
1179.339989,229.828649,222.061783,9474.636058
1179.340305,766.095498,-444.123565,9622.677246
1179.340621,1378.971896,222.061783,10362.883188
1179.340937,1149.143247,1184.329507,9030.512492
1179.341253,766.095498,666.185348,8438.347739
1179.341569,995.924147,518.144159,9326.594869
1179.341885,459.657299,-592.164754,8956.491898
1179.342200,1225.752797,-0.000000,9548.656652
1179.342516,766.095498,148.041188,8438.347739
1179.342832,-383.047749,-444.123565,9548.656652
1179.343148,-306.438199,-962.267725,9844.739029
1179.343464,153.219100,-1776.494261,9696.697840
1179.343780,153.219100,-518.144159,9696.697840
1179.344096,153.219100,-74.020594,9178.553681
1179.344412,-153.219100,-444.123565,9474.636058
1179.344727,153.219100,148.041188,9326.594869
1179.345043,689.485948,-666.185348,8882.471304
1179.345359,1225.752797,-222.061783,9400.615463
1179.345675,536.266849,444.123565,8808.450710
1179.345991,76.609550,-0.000000,8290.306550
1179.346307,536.266849,-0.000000,9252.574275
1179.346623,1149.143247,-518.144159,9992.780217
1179.346939,919.314598,296.082377,9696.697840
1179.347255,153.219100,962.267725,8438.347739
1179.347570,0.000000,-222.061783,9474.636058
1179.347886,0.000000,-962.267725,10066.800811
1179.348202,76.609550,-1258.350101,10436.903782
1179.348518,919.314598,-0.000000,10436.903782
1179.348834,459.657299,-0.000000,9252.574275
1179.349150,-306.438199,-296.082377,9178.553681
1179.349466,229.828649,-1110.308913,9844.739029
1179.349782,995.924147,-1480.411884,10807.006753
1179.350097,919.314598,296.082377,9622.677246
1179.350413,306.438199,592.164754,8660.409521
1179.350729,383.047749,-296.082377,9104.533087
1179.351045,459.657299,-592.164754,9474.636058
1179.351361,842.705048,-444.123565,9992.780217
1179.351677,1608.800546,-0.000000,9474.636058
1179.351993,229.828649,-0.000000,8882.471304
1179.352309,153.219100,-74.020594,9474.636058
1179.352624,0.000000,-1184.329507,9622.677246
1179.352940,689.485948,-1702.473667,10807.006753
1179.353256,766.095498,-148.041188,9844.739029
1179.353572,-229.828649,-1258.350101,9178.553681
1179.353888,-153.219100,-592.164754,10288.862594
1179.354204,76.609550,-592.164754,9326.594869
1179.354520,919.314598,-370.102971,9252.574275
1179.354836,459.657299,296.082377,9992.780217
1179.355152,689.485948,-0.000000,8882.471304
1179.355467,459.657299,296.082377,8808.450710
1179.355783,0.000000,-666.185348,9326.594869
1179.356099,995.924147,-1406.391290,10288.862594
1179.356415,1149.143247,444.123565,9400.615463
1179.356731,153.219100,888.247130,8216.285956
1179.357047,0.000000,-0.000000,9844.739029
1179.357363,459.657299,-888.247130,9844.739029
1179.357679,766.095498,148.041188,9474.636058
1179.357994,919.314598,592.164754,9104.533087
1179.358310,0.000000,-74.020594,9030.512492
1179.358626,0.000000,-0.000000,9474.636058
1179.358942,612.876398,-592.164754,9548.656652
1179.359258,1072.533697,-0.000000,9030.512492
1179.359574,766.095498,740.205942,8956.491898
1179.359890,76.609550,370.102971,8882.471304
1179.360206,-229.828649,-0.000000,9474.636058
1179.360522,229.828649,-814.226536,9770.718434
1179.360837,766.095498,296.082377,9474.636058
1179.361153,229.828649,1258.350101,9178.553681
1179.361469,0.000000,-0.000000,9548.656652
1179.361785,0.000000,-222.061783,9252.574275
1179.362101,0.000000,-666.185348,9918.759623
1179.362417,689.485948,-296.082377,10214.842000
1179.362733,536.266849,-0.000000,9252.574275
1179.363049,76.609550,-666.185348,9252.574275
1179.363364,153.219100,-1258.350101,10584.944971
1179.363680,766.095498,-1480.411884,10066.800811
1179.363996,1532.190996,-296.082377,9696.697840
1179.364312,1455.581446,-0.000000,9992.780217
1179.364628,1225.752797,370.102971,9104.533087
1179.364944,1762.019645,444.123565,9178.553681
1179.365260,1762.019645,-0.000000,9030.512492
1179.365576,2145.067394,814.226536,9474.636058
1179.365891,1762.019645,-74.020594,8660.409521
1179.366207,536.266849,-296.082377,9474.636058
1179.366523,0.000000,-444.123565,9918.759623
1179.366839,76.609550,-1332.370696,10658.965565
1179.367155,459.657299,-0.000000,9992.780217
1179.367471,0.000000,-222.061783,9622.677246
1179.367787,-459.657299,-1258.350101,10362.883188
1179.368103,-612.876398,-1480.411884,10362.883188
1179.368419,153.219100,-1110.308913,10955.047942
1179.368734,1072.533697,296.082377,9252.574275
1179.369050,536.266849,518.144159,8216.285956
1179.369366,383.047749,-296.082377,9548.656652
1179.369682,689.485948,-888.247130,9178.553681
1179.369998,689.485948,-74.020594,9770.718434
1179.370314,1532.190996,740.205942,9548.656652
1179.370630,689.485948,518.144159,8290.306550
1179.370946,383.047749,518.144159,8660.409521
1179.371261,1225.752797,-592.164754,9400.615463
1179.371577,995.924147,-1258.350101,9696.697840
1179.371893,995.924147,-296.082377,10436.903782
1179.372209,229.828649,-666.185348,9252.574275
1179.372525,0.000000,-0.000000,8956.491898
1179.372841,76.609550,-444.123565,9474.636058
1179.373157,536.266849,-814.226536,9474.636058
1179.373473,766.095498,666.185348,9474.636058
1179.373788,0.000000,148.041188,8882.471304
1179.374104,-306.438199,-222.061783,8586.388927
1179.374420,-766.095498,-444.123565,8808.450710
1179.374736,383.047749,-592.164754,9400.615463
1179.375052,229.828649,518.144159,9178.553681
1179.375368,-689.485948,-296.082377,9252.574275
1179.375684,-766.095498,-666.185348,9474.636058
1179.376000,-459.657299,-1184.329507,9844.739029
1179.376316,-383.047749,-962.267725,10066.800811
1179.376631,0.000000,148.041188,9696.697840
1179.376947,-383.047749,-518.144159,8882.471304
1179.377263,-153.219100,-1036.288319,9252.574275
1179.377579,229.828649,-962.267725,9548.656652
1179.377895,842.705048,-370.102971,9400.615463
1179.378211,1149.143247,-74.020594,9104.533087
1179.378527,842.705048,-74.020594,8512.368333
1179.378843,536.266849,222.061783,9030.512492
1179.379158,919.314598,-370.102971,9178.553681
1179.379474,1608.800546,-74.020594,9474.636058
1179.379790,1762.019645,-444.123565,9326.594869
1179.380106,766.095498,-740.205942,9178.553681
1179.380422,306.438199,-222.061783,9548.656652
1179.380738,383.047749,-1110.308913,10362.883188
1179.381054,1225.752797,-222.061783,10362.883188
1179.381370,766.095498,740.205942,9474.636058
1179.381686,766.095498,-0.000000,9252.574275
1179.382001,229.828649,-296.082377,9474.636058
1179.382317,0.000000,-1702.473667,10658.965565
1179.382633,1072.533697,-518.144159,10510.924376
1179.382949,1225.752797,222.061783,9548.656652
1179.383265,0.000000,-0.000000,9252.574275
1179.383581,842.705048,-0.000000,9696.697840
1179.383897,919.314598,-740.205942,9992.780217
1179.384213,1225.752797,370.102971,10288.862594
1179.384528,995.924147,518.144159,9326.594869
1179.384844,536.266849,296.082377,9178.553681
1179.385160,536.266849,-0.000000,9770.718434
1179.385476,306.438199,-444.123565,9992.780217
1179.385792,1302.362347,296.082377,10436.903782
1179.386108,1149.143247,222.061783,8586.388927
1179.386424,229.828649,-444.123565,9844.739029
1179.386740,76.609550,-814.226536,10955.047942
1179.387055,1072.533697,-962.267725,10066.800811
1179.387371,1225.752797,370.102971,9178.553681
1179.387687,995.924147,222.061783,9252.574275
1179.388003,1072.533697,-0.000000,9770.718434
1179.388319,766.095498,222.061783,8512.368333
1179.388635,459.657299,370.102971,8734.430116
1179.388951,995.924147,1036.288319,9474.636058
1179.389267,612.876398,888.247130,8512.368333
1179.389583,536.266849,444.123565,8956.491898
1179.389898,-76.609550,-296.082377,9252.574275
1179.390214,-306.438199,-962.267725,9252.574275
1179.390530,153.219100,-518.144159,9918.759623
1179.390846,-842.705048,-444.123565,9326.594869
1179.391162,-995.924147,-370.102971,9622.677246
1179.391478,-1378.971896,-814.226536,9622.677246
1179.391794,-842.705048,-1110.308913,9992.780217
1179.392110,229.828649,-148.041188,9696.697840
1179.392425,-306.438199,370.102971,7994.224174
1179.392741,-306.438199,148.041188,9178.553681
1179.393057,-229.828649,-814.226536,8808.450710
1179.393373,229.828649,-666.185348,9104.533087
1179.393689,383.047749,370.102971,9622.677246
1179.394005,0.000000,444.123565,8808.450710
1179.394321,-383.047749,296.082377,8660.409521
1179.394637,-306.438199,-222.061783,9400.615463
1179.394952,459.657299,-888.247130,10362.883188
1179.395268,766.095498,-518.144159,9696.697840
1179.395584,306.438199,-74.020594,8956.491898
1179.395900,153.219100,-74.020594,9326.594869
1179.396216,153.219100,-1628.453072,9844.739029
1179.396532,1685.410096,-666.185348,10140.821405
1179.396848,1532.190996,370.102971,9326.594869
1179.397164,612.876398,518.144159,8882.471304
1179.397480,689.485948,-444.123565,9770.718434
1179.397795,689.485948,-740.205942,9622.677246
1179.398111,1455.581446,-296.082377,10362.883188
1179.398427,1149.143247,148.041188,9548.656652
1179.398743,766.095498,-148.041188,9252.574275
1179.399059,766.095498,-222.061783,10140.821405
1179.399375,612.876398,-1184.329507,10214.842000
1179.399691,1149.143247,-0.000000,10066.800811
1179.400007,919.314598,518.144159,10214.842000
1179.400322,612.876398,-222.061783,9474.636058
1179.400638,536.266849,-666.185348,9992.780217
1179.400954,689.485948,-962.267725,10436.903782
1179.401270,1608.800546,-666.185348,10436.903782
1179.401586,1608.800546,-296.082377,9548.656652
1179.401902,1455.581446,592.164754,9178.553681
1179.402218,1455.581446,-74.020594,9178.553681
1179.402534,1915.238745,-0.000000,9178.553681
1179.402849,2374.896044,666.185348,9622.677246
1179.403165,1915.238745,1036.288319,7624.121203
1179.403481,1302.362347,370.102971,9326.594869
1179.403797,689.485948,-666.185348,9844.739029
1179.404113,766.095498,-592.164754,9474.636058
1179.404429,919.314598,518.144159,9548.656652
1179.404745,0.000000,-0.000000,8660.409521
1179.405061,-383.047749,-370.102971,10066.800811
1179.405376,-459.657299,-740.205942,9696.697840
1179.405692,-536.266849,-1258.350101,10066.800811
1179.406008,-612.876398,-518.144159,9844.739029
1179.406324,-689.485948,-518.144159,9474.636058
1179.406640,-919.314598,-0.000000,9178.553681
1179.406956,-1225.752797,-74.020594,9400.615463
1179.407272,-536.266849,-296.082377,9474.636058
1179.407588,76.609550,592.164754,8808.450710
1179.407904,-612.876398,222.061783,8882.471304
1179.408219,-612.876398,-666.185348,9770.718434
1179.408535,-842.705048,-1332.370696,9770.718434
1179.408851,0.000000,-814.226536,9326.594869
1179.409167,229.828649,518.144159,8808.450710
1179.409483,76.609550,-0.000000,8808.450710
1179.409799,0.000000,-814.226536,9918.759623
1179.410115,-306.438199,-518.144159,9696.697840
1179.410431,229.828649,-666.185348,9548.656652
1179.410746,842.705048,-0.000000,9474.636058
1179.411062,229.828649,-0.000000,9104.533087
1179.411378,689.485948,-814.226536,9844.739029
1179.411694,153.219100,-814.226536,8882.471304
1179.412010,689.485948,-444.123565,9326.594869
1179.412326,919.314598,296.082377,9548.656652
1179.412642,383.047749,-0.000000,7994.224174
1179.412958,-536.266849,222.061783,9326.594869
1179.413273,-229.828649,-888.247130,10140.821405
1179.413589,0.000000,-814.226536,9992.780217
1179.413905,689.485948,296.082377,9918.759623
1179.414221,0.000000,-148.041188,9252.574275
1179.414537,-536.266849,-666.185348,9474.636058
1179.414853,0.000000,-1776.494261,10066.800811
1179.415169,1072.533697,-962.267725,9918.759623
1179.415485,1072.533697,1036.288319,9696.697840
1179.415801,1072.533697,444.123565,8808.450710
1179.416116,536.266849,518.144159,9104.533087
1179.416432,842.705048,-0.000000,10066.800811
1179.416748,1762.019645,-0.000000,9622.677246
1179.417064,1685.410096,1480.411884,8586.388927
1179.417380,842.705048,592.164754,9474.636058
1179.417696,1225.752797,-222.061783,9844.739029
1179.418012,766.095498,-222.061783,9548.656652
1179.418328,1762.019645,518.144159,9252.574275
1179.418643,1378.971896,296.082377,9992.780217
1179.418959,919.314598,-0.000000,10658.965565
1179.419275,0.000000,370.102971,9252.574275
1179.419591,536.266849,-0.000000,9548.656652
1179.419907,1455.581446,-0.000000,10732.986159
1179.420223,1608.800546,814.226536,9400.615463
1179.420539,459.657299,592.164754,8734.430116
1179.420855,612.876398,-666.185348,9992.780217
1179.421170,842.705048,-888.247130,10436.903782
1179.421486,1532.190996,-0.000000,9992.780217
1179.421802,919.314598,1554.432478,8660.409521
1179.422118,153.219100,-0.000000,9178.553681
1179.422434,229.828649,-592.164754,9844.739029
1179.422750,229.828649,-962.267725,9918.759623
1179.423066,536.266849,-148.041188,10436.903782
1179.423382,689.485948,814.226536,9400.615463
1179.423697,0.000000,-74.020594,8216.285956
1179.424013,0.000000,-1110.308913,9844.739029
1179.424329,-153.219100,-1406.391290,10214.842000
1179.424645,229.828649,-888.247130,10214.842000
1179.424961,229.828649,-0.000000,9178.553681
1179.425277,-459.657299,-148.041188,8660.409521
1179.425593,-536.266849,-1110.308913,9474.636058
1179.425909,76.609550,-1406.391290,10066.800811
1179.426225,842.705048,-370.102971,10658.965565
1179.426540,766.095498,-0.000000,8438.347739
1179.426856,-153.219100,592.164754,8290.306550
1179.427172,0.000000,-444.123565,9104.533087
1179.427488,153.219100,-1702.473667,9844.739029
1179.427804,995.924147,-518.144159,9696.697840
1179.428120,76.609550,-148.041188,8512.368333
1179.428436,-919.314598,-592.164754,8586.388927
1179.428752,-612.876398,-962.267725,9326.594869
1179.429067,0.000000,-1554.432478,10288.862594
1179.429383,76.609550,-444.123565,9770.718434
1179.429699,-383.047749,74.020594,9104.533087
1179.430015,-306.438199,-592.164754,8882.471304
1179.430331,-459.657299,-1110.308913,9548.656652
1179.430647,-306.438199,-1110.308913,9770.718434
1179.430963,689.485948,-0.000000,9918.759623
1179.431279,383.047749,-0.000000,8512.368333
1179.431594,-306.438199,-0.000000,8808.450710
1179.431910,-153.219100,-444.123565,9622.677246
1179.432226,689.485948,-666.185348,10288.862594
1179.432542,1378.971896,444.123565,9622.677246
1179.432858,383.047749,444.123565,7846.182985
1179.433174,766.095498,-0.000000,9474.636058
1179.433490,689.485948,-962.267725,9770.718434
1179.433806,1378.971896,-1036.288319,10140.821405
1179.434121,1378.971896,888.247130,9474.636058
1179.434437,1225.752797,444.123565,9104.533087
1179.434753,536.266849,814.226536,8808.450710
1179.435069,766.095498,-74.020594,9474.636058
1179.435385,1302.362347,-296.082377,9622.677246
1179.435701,1685.410096,814.226536,9474.636058
1179.436017,306.438199,814.226536,9400.615463
1179.436333,76.609550,222.061783,8808.450710
1179.436649,76.609550,-148.041188,9770.718434
1179.436964,1149.143247,-222.061783,10584.944971
1179.437280,766.095498,1110.308913,10214.842000
1179.437596,76.609550,740.205942,9474.636058
1179.437912,-459.657299,-0.000000,9770.718434
1179.438228,0.000000,-370.102971,10510.924376
1179.438544,1072.533697,-814.226536,10510.924376
1179.438860,536.266849,518.144159,9844.739029
1179.439176,0.000000,888.247130,9030.512492
1179.439491,383.047749,148.041188,9178.553681
1179.439807,689.485948,-222.061783,9696.697840
1179.440123,995.924147,370.102971,10510.924376
1179.440439,1455.581446,1332.370696,8438.347739
1179.440755,459.657299,1110.308913,8438.347739
1179.441071,153.219100,148.041188,9918.759623
1179.441387,459.657299,-740.205942,10214.842000
1179.441703,1302.362347,-444.123565,10066.800811
1179.442018,459.657299,296.082377,9326.594869
1179.442334,153.219100,-222.061783,10214.842000
1179.442650,-459.657299,-1036.288319,9992.780217
1179.442966,-536.266849,-888.247130,9918.759623
1179.443282,536.266849,-148.041188,10658.965565
1179.443598,842.705048,-0.000000,9474.636058
1179.443914,-229.828649,370.102971,8586.388927
1179.444230,76.609550,-518.144159,10584.944971
1179.444545,612.876398,-1554.432478,10140.821405
1179.444861,995.924147,518.144159,9474.636058
1179.445177,-153.219100,1184.329507,8438.347739
1179.445493,-383.047749,-0.000000,9400.615463
1179.445809,0.000000,-1036.288319,10214.842000
1179.446125,306.438199,-1036.288319,9474.636058
1179.446441,689.485948,-74.020594,8808.450710
1179.446757,153.219100,-0.000000,9326.594869
1179.447073,-306.438199,-148.041188,8734.430116
1179.447388,-995.924147,-592.164754,9178.553681
1179.447704,229.828649,-1258.350101,10362.883188
1179.448020,766.095498,-518.144159,9400.615463
1179.448336,0.000000,148.041188,8512.368333
1179.448652,-306.438199,-1184.329507,9178.553681
1179.448968,0.000000,-2072.576638,9622.677246
1179.449284,842.705048,-1258.350101,10362.883188
1179.449600,1378.971896,-0.000000,8586.388927
1179.449915,766.095498,592.164754,7920.203579
1179.450231,536.266849,-296.082377,9252.574275
1179.450547,612.876398,-296.082377,8068.244768
1179.450863,1302.362347,-148.041188,9474.636058
1179.451179,1302.362347,444.123565,8512.368333
1179.451495,689.485948,296.082377,7772.162391
1179.451811,459.657299,-222.061783,8882.471304
1179.452127,76.609550,-1184.329507,9400.615463
1179.452442,459.657299,-1258.350101,9918.759623
1179.452758,383.047749,-518.144159,9474.636058
1179.453074,-229.828649,-74.020594,8808.450710
1179.453390,-612.876398,-296.082377,9548.656652
1179.453706,-383.047749,-1332.370696,9918.759623
1179.454022,229.828649,-962.267725,10214.842000
1179.454338,76.609550,-0.000000,9992.780217
1179.454654,-306.438199,222.061783,8956.491898
1179.454970,-306.438199,-444.123565,8882.471304
1179.455285,0.000000,-962.267725,9992.780217
1179.455601,459.657299,-444.123565,10584.944971
1179.455917,919.314598,592.164754,9178.553681
1179.456233,306.438199,592.164754,8808.450710
1179.456549,0.000000,-592.164754,9548.656652
1179.456865,229.828649,-814.226536,10881.027347
1179.457181,1378.971896,-370.102971,10584.944971
1179.457497,1149.143247,888.247130,9326.594869
1179.457812,766.095498,592.164754,9326.594869
1179.458128,995.924147,-222.061783,9474.636058
1179.458444,919.314598,-518.144159,9918.759623
1179.458760,995.924147,-0.000000,10214.842000
1179.459076,1302.362347,370.102971,9474.636058
1179.459392,689.485948,-0.000000,9474.636058
1179.459708,689.485948,-518.144159,10066.800811
1179.460024,842.705048,-888.247130,10436.903782
1179.460339,1072.533697,-74.020594,10510.924376
1179.460655,766.095498,370.102971,10214.842000
1179.460971,0.000000,-74.020594,9474.636058
1179.461287,383.047749,-0.000000,9622.677246
1179.461603,383.047749,-222.061783,9696.697840
1179.461919,766.095498,-222.061783,9844.739029
1179.462235,1455.581446,370.102971,9696.697840
1179.462551,229.828649,-148.041188,9400.615463
1179.462866,76.609550,-148.041188,9548.656652
1179.463182,766.095498,-518.144159,10214.842000
1179.463498,1302.362347,-0.000000,9474.636058
1179.463814,995.924147,740.205942,8438.347739
1179.464130,1378.971896,-0.000000,9844.739029
1179.464446,919.314598,-814.226536,8586.388927
1179.464762,919.314598,-962.267725,9992.780217
1179.465078,1225.752797,-148.041188,9918.759623
1179.465394,1455.581446,666.185348,8734.430116
1179.465709,0.000000,1184.329507,8512.368333
1179.466025,-229.828649,962.267725,9400.615463
1179.466341,383.047749,-296.082377,9252.574275
1179.466657,689.485948,222.061783,9474.636058
1179.466973,-153.219100,148.041188,8882.471304
1179.467289,-995.924147,-962.267725,8882.471304
1179.467605,-536.266849,-1036.288319,9548.656652
1179.467921,-383.047749,-666.185348,9474.636058
1179.468236,612.876398,296.082377,9844.739029
1179.468552,-995.924147,1110.308913,8216.285956
1179.468868,-1149.143247,296.082377,8512.368333
1179.469184,-612.876398,-814.226536,9844.739029
1179.469500,0.000000,-592.164754,9696.697840
1179.469816,536.266849,592.164754,8882.471304
1179.470132,459.657299,370.102971,8882.471304
1179.470448,-459.657299,-888.247130,8290.306550
1179.470763,0.000000,-1110.308913,9770.718434
1179.471079,459.657299,-666.185348,10140.821405
1179.471395,229.828649,666.185348,8882.471304
1179.471711,-612.876398,-0.000000,9474.636058
1179.472027,-383.047749,-518.144159,9252.574275
1179.472343,0.000000,-1258.350101,9770.718434
1179.472659,1072.533697,-962.267725,10881.027347
1179.472975,1225.752797,-666.185348,9622.677246
1179.473290,0.000000,-444.123565,8512.368333
1179.473606,459.657299,-888.247130,9992.780217
1179.473922,919.314598,-1184.329507,9696.697840
1179.474238,1302.362347,-370.102971,9844.739029
1179.474554,1762.019645,148.041188,9622.677246
1179.474870,229.828649,-148.041188,8512.368333
1179.475186,1072.533697,-74.020594,9844.739029
1179.475502,919.314598,-740.205942,9548.656652
1179.475818,1378.971896,-370.102971,10140.821405
1179.476133,1838.629195,-0.000000,9326.594869
1179.476449,459.657299,-74.020594,8438.347739
1179.476765,306.438199,-666.185348,10140.821405
1179.477081,459.657299,-1776.494261,11251.130318
1179.477397,536.266849,-222.061783,10066.800811
1179.477713,689.485948,518.144159,9696.697840
1179.478029,0.000000,-0.000000,9696.697840
1179.478345,76.609550,-0.000000,9622.677246
1179.478660,459.657299,-0.000000,9696.697840
1179.478976,1072.533697,370.102971,10214.842000
1179.479292,1072.533697,666.185348,9770.718434
1179.479608,842.705048,222.061783,9400.615463
1179.479924,536.266849,444.123565,8808.450710
1179.480240,689.485948,-296.082377,10288.862594
1179.480556,1685.410096,-148.041188,10510.924376
1179.480872,1072.533697,1554.432478,9326.594869
1179.481187,76.609550,814.226536,8512.368333
1179.481503,612.876398,-74.020594,9400.615463
1179.481819,766.095498,-592.164754,9548.656652
1179.482135,1685.410096,-0.000000,9918.759623
1179.482451,1149.143247,-148.041188,8734.430116
1179.482767,306.438199,-222.061783,9252.574275
1179.483083,383.047749,-666.185348,8882.471304
1179.483399,76.609550,-1036.288319,9770.718434
1179.483714,919.314598,370.102971,9474.636058
1179.484030,459.657299,518.144159,8290.306550
1179.484346,-383.047749,370.102971,8216.285956
1179.484662,-842.705048,-888.247130,9696.697840
1179.484978,-306.438199,-1184.329507,9918.759623
1179.485294,306.438199,-296.082377,8586.388927
1179.485610,-153.219100,-370.102971,8734.430116
1179.485926,-689.485948,-518.144159,9326.594869
1179.486242,-842.705048,-1406.391290,9252.574275
1179.486557,0.000000,-1406.391290,10288.862594
1179.486873,536.266849,444.123565,9770.718434
1179.487189,0.000000,222.061783,8290.306550
1179.487505,153.219100,222.061783,8586.388927
1179.487821,153.219100,-888.247130,9696.697840
1179.488137,842.705048,-444.123565,9992.780217
1179.488453,1685.410096,888.247130,8290.306550
1179.488769,689.485948,666.185348,7772.162391
1179.489084,153.219100,-0.000000,9326.594869
1179.489400,536.266849,-814.226536,10214.842000
1179.489716,383.047749,-296.082377,9326.594869
1179.490032,766.095498,518.144159,9400.615463
1179.490348,-536.266849,-0.000000,9104.533087
1179.490664,-306.438199,-296.082377,10140.821405
1179.490980,-536.266849,-740.205942,10214.842000
1179.491296,0.000000,-1184.329507,10362.883188
1179.491611,229.828649,-148.041188,9474.636058
1179.491927,-153.219100,-666.185348,9992.780217
1179.492243,0.000000,-296.082377,9992.780217
1179.492559,-153.219100,-518.144159,9770.718434
1179.492875,919.314598,-0.000000,10584.944971
1179.493191,995.924147,740.205942,8734.430116
1179.493507,766.095498,148.041188,9104.533087
1179.493823,536.266849,-148.041188,10288.862594
1179.494138,842.705048,-592.164754,9918.759623
1179.494454,2145.067394,-370.102971,10436.903782
1179.494770,1762.019645,962.267725,9622.677246
1179.495086,536.266849,148.041188,9252.574275
1179.495402,1302.362347,-518.144159,10140.821405
1179.495717,995.924147,-1110.308913,10066.800811
1179.496033,1149.143247,-666.185348,10214.842000
1179.496349,1532.190996,1110.308913,9104.533087
1179.496665,919.314598,518.144159,9030.512492
1179.496980,306.438199,888.247130,9104.533087
1179.497296,766.095498,-0.000000,9696.697840
1179.497612,919.314598,592.164754,8882.471304
1179.497928,229.828649,370.102971,8882.471304
1179.498243,0.000000,-518.144159,10214.842000
1179.498559,-383.047749,-1110.308913,9252.574275
1179.498875,-229.828649,-1480.411884,9622.677246
1179.499191,0.000000,-0.000000,10066.800811
1179.499506,0.000000,444.123565,8586.388927
1179.499822,-612.876398,-296.082377,8660.409521
1179.500138,-842.705048,-518.144159,9326.594869
1179.500454,-306.438199,-592.164754,9844.739029
1179.500769,459.657299,-0.000000,9400.615463
1179.501085,306.438199,148.041188,8142.265362
1179.501401,0.000000,-74.020594,8290.306550
1179.501717,0.000000,-1184.329507,9696.697840
1179.502032,383.047749,-1332.370696,9252.574275
1179.502348,842.705048,296.082377,9622.677246
1179.502664,459.657299,1036.288319,8512.368333
1179.502980,-229.828649,370.102971,8068.244768
1179.503295,-306.438199,-74.020594,9770.718434
1179.503611,612.876398,-666.185348,10214.842000
1179.503927,919.314598,-0.000000,9844.739029
1179.504243,383.047749,370.102971,8808.450710
1179.504558,153.219100,-296.082377,8956.491898
1179.504874,153.219100,-1258.350101,9770.718434
1179.505190,306.438199,-592.164754,10140.821405
1179.505506,995.924147,222.061783,9474.636058
1179.505821,306.438199,-222.061783,8660.409521
1179.506137,-459.657299,-444.123565,10140.821405
1179.506453,0.000000,-740.205942,9178.553681
1179.506769,536.266849,-444.123565,9474.636058
1179.507084,919.314598,-0.000000,9696.697840
1179.507400,766.095498,-0.000000,9474.636058
1179.507716,459.657299,-444.123565,8956.491898
1179.508032,229.828649,-1036.288319,9474.636058
1179.508347,689.485948,-1554.432478,10288.862594
1179.508663,1225.752797,296.082377,9844.739029
1179.508979,76.609550,740.205942,8882.471304
1179.509295,306.438199,814.226536,9252.574275
1179.509610,0.000000,-148.041188,9770.718434
1179.509926,766.095498,-222.061783,9474.636058
1179.510242,766.095498,740.205942,10066.800811
1179.510558,766.095498,-0.000000,9474.636058
1179.510873,383.047749,-518.144159,9030.512492
1179.511189,459.657299,-1110.308913,10510.924376
1179.511505,1149.143247,-666.185348,10584.944971
1179.511821,1685.410096,814.226536,9696.697840
1179.512136,306.438199,814.226536,8660.409521
1179.512452,612.876398,148.041188,9992.780217
1179.512768,689.485948,-148.041188,9696.697840
1179.513084,1225.752797,296.082377,9474.636058
1179.513399,1608.800546,1184.329507,8882.471304
1179.513715,995.924147,-74.020594,9178.553681
1179.514031,919.314598,-592.164754,9918.759623
1179.514347,383.047749,-1036.288319,9844.739029
1179.514662,766.095498,296.082377,9474.636058
1179.514978,919.314598,666.185348,8660.409521
1179.515294,0.000000,370.102971,9252.574275
1179.515610,-459.657299,-370.102971,10214.842000
1179.515925,153.219100,-962.267725,9992.780217
1179.516241,689.485948,-0.000000,9548.656652
1179.516557,459.657299,-0.000000,9326.594869
1179.516873,-153.219100,-74.020594,8660.409521
1179.517188,0.000000,-1406.391290,9104.533087
1179.517504,306.438199,-1332.370696,9474.636058
1179.517820,689.485948,370.102971,9622.677246
1179.518136,536.266849,444.123565,9178.553681
1179.518451,229.828649,-962.267725,9030.512492
1179.518767,-459.657299,-592.164754,9918.759623
1179.519083,-306.438199,-1036.288319,9844.739029
1179.519399,919.314598,-74.020594,9548.656652
1179.519714,536.266849,370.102971,8660.409521
1179.520030,0.000000,-518.144159,9030.512492
1179.520346,536.266849,-740.205942,9696.697840
1179.520662,0.000000,-1110.308913,10214.842000
1179.520977,995.924147,-0.000000,9474.636058
1179.521293,1149.143247,1036.288319,8142.265362
1179.521609,229.828649,-222.061783,8660.409521
1179.521925,-229.828649,-814.226536,9844.739029
1179.522240,76.609550,-1776.494261,10140.821405
1179.522556,536.266849,-444.123565,9770.718434
1179.522872,229.828649,444.123565,8586.388927
1179.523188,-153.219100,-444.123565,8660.409521
1179.523503,-229.828649,-1258.350101,9622.677246
1179.523819,229.828649,-1924.535449,10510.924376
1179.524135,1149.143247,-370.102971,9474.636058
1179.524451,383.047749,222.061783,8364.327145
1179.524766,0.000000,-0.000000,9178.553681
1179.525082,0.000000,-1258.350101,9326.594869
1179.525398,689.485948,-518.144159,9844.739029
1179.525714,1072.533697,444.123565,9178.553681
1179.526029,536.266849,-74.020594,8808.450710
1179.526345,229.828649,-1036.288319,9178.553681
1179.526661,0.000000,-1554.432478,10140.821405
1179.526977,995.924147,-888.247130,10066.800811
1179.527292,1762.019645,370.102971,9400.615463
1179.527608,1149.143247,888.247130,8808.450710
1179.527924,1225.752797,296.082377,9548.656652
1179.528240,1532.190996,-74.020594,9104.533087
1179.528555,1915.238745,-0.000000,9548.656652
1179.528871,1455.581446,888.247130,9696.697840
1179.529187,919.314598,666.185348,8512.368333
1179.529503,995.924147,296.082377,9326.594869
1179.529818,995.924147,-296.082377,10066.800811
1179.530134,919.314598,-74.020594,9770.718434
1179.530450,612.876398,1110.308913,8734.430116
1179.530765,76.609550,444.123565,9548.656652
1179.531081,-306.438199,-222.061783,10066.800811
1179.531397,-383.047749,-592.164754,10436.903782
1179.531713,0.000000,-666.185348,10214.842000
1179.532028,306.438199,-0.000000,9474.636058
1179.532344,-229.828649,-370.102971,9844.739029
1179.532660,-612.876398,-1036.288319,9770.718434
1179.532976,229.828649,-888.247130,9770.718434
1179.533291,689.485948,-74.020594,9474.636058
1179.533607,919.314598,814.226536,9104.533087
1179.533923,536.266849,444.123565,9400.615463
1179.534239,383.047749,-148.041188,8438.347739
1179.534554,229.828649,-666.185348,9400.615463
1179.534870,1378.971896,-518.144159,10436.903782
1179.535186,1532.190996,222.061783,9104.533087
1179.535502,383.047749,-0.000000,8734.430116
1179.535817,0.000000,-518.144159,9548.656652
1179.536133,766.095498,-1332.370696,10288.862594
1179.536449,1225.752797,-0.000000,9770.718434
1179.536765,842.705048,1554.432478,8660.409521
1179.537080,229.828649,-74.020594,9178.553681
1179.537396,-919.314598,-1184.329507,9992.780217
1179.537712,-229.828649,-962.267725,10288.862594
1179.538028,536.266849,-148.041188,9622.677246
1179.538343,306.438199,-0.000000,9252.574275
1179.538659,-766.095498,-444.123565,9696.697840
1179.538975,0.000000,-962.267725,9992.780217
1179.539291,383.047749,-962.267725,9844.739029
1179.539606,612.876398,740.205942,9400.615463
1179.539922,995.924147,962.267725,8660.409521
1179.540238,842.705048,148.041188,8808.450710
1179.540554,383.047749,592.164754,8956.491898
1179.540869,1072.533697,-592.164754,9548.656652
1179.541185,1072.533697,-0.000000,8808.450710
1179.541501,459.657299,666.185348,8290.306550
1179.541817,0.000000,-370.102971,9178.553681
1179.542132,153.219100,-888.247130,9844.739029
1179.542448,536.266849,-1554.432478,10510.924376
1179.542764,919.314598,-74.020594,9474.636058
1179.543080,612.876398,814.226536,8216.285956
1179.543395,153.219100,-222.061783,9474.636058
1179.543711,0.000000,-888.247130,9918.759623
1179.544027,1225.752797,-370.102971,9696.697840
1179.544343,1302.362347,296.082377,9400.615463
1179.544658,459.657299,296.082377,8586.388927
1179.544974,0.000000,-444.123565,9030.512492
1179.545290,0.000000,-592.164754,8882.471304
1179.545606,229.828649,-1184.329507,9992.780217
1179.545921,1302.362347,-148.041188,10288.862594
1179.546237,306.438199,222.061783,9030.512492
1179.546553,-459.657299,-518.144159,9178.553681
1179.546869,-306.438199,-1332.370696,10510.924376
1179.547184,459.657299,-814.226536,10140.821405
1179.547500,1378.971896,370.102971,9474.636058
1179.547816,0.000000,296.082377,8216.285956
1179.548132,-383.047749,-222.061783,10066.800811
1179.548447,153.219100,-1036.288319,10066.800811
1179.548763,229.828649,-518.144159,10214.842000
1179.549079,766.095498,962.267725,8660.409521
1179.549395,-306.438199,148.041188,8882.471304
1179.549710,-229.828649,-666.185348,9548.656652
1179.550026,0.000000,-1998.556043,10881.027347
1179.550342,766.095498,-1184.329507,10881.027347
1179.550658,1072.533697,444.123565,9326.594869
1179.550973,536.266849,518.144159,8364.327145
1179.551289,1072.533697,-518.144159,9474.636058
1179.551605,1225.752797,-1110.308913,9622.677246
1179.551921,1685.410096,-0.000000,9622.677246
1179.552236,2145.067394,1184.329507,9474.636058
1179.552552,842.705048,592.164754,7846.182985
1179.552868,536.266849,296.082377,8808.450710
1179.553184,229.828649,-740.205942,10066.800811
1179.553499,1072.533697,-666.185348,10510.924376
1179.553815,689.485948,222.061783,9400.615463
1179.554131,-766.095498,-592.164754,9252.574275
1179.554447,-1072.533697,-1776.494261,10584.944971
1179.554762,-612.876398,-2368.659014,10881.027347
1179.555078,76.609550,-370.102971,9992.780217
1179.555394,459.657299,814.226536,9770.718434
1179.555710,153.219100,148.041188,8956.491898
1179.556025,229.828649,-296.082377,9104.533087
1179.556341,536.266849,-1110.308913,9992.780217
1179.556657,1378.971896,-370.102971,9992.780217
1179.556973,1455.581446,518.144159,8586.388927
1179.557288,842.705048,518.144159,7920.203579
1179.557604,1149.143247,-444.123565,9474.636058
1179.557920,1455.581446,-666.185348,10066.800811
1179.558236,1838.629195,666.185348,8290.306550
1179.558551,1685.410096,814.226536,8364.327145
1179.558867,-153.219100,-0.000000,9104.533087
1179.559183,0.000000,-296.082377,9696.697840
1179.559499,76.609550,-1406.391290,10140.821405
1179.559814,383.047749,-296.082377,9770.718434
1179.560130,0.000000,296.082377,9474.636058
1179.560446,-536.266849,-1332.370696,8882.471304
1179.560762,-612.876398,-1036.288319,9622.677246
1179.561077,0.000000,-1332.370696,10288.862594
1179.561393,766.095498,592.164754,8956.491898
1179.561709,153.219100,1258.350101,8290.306550
1179.562025,-919.314598,-0.000000,8882.471304
1179.562340,0.000000,-370.102971,10140.821405
1179.562656,0.000000,-222.061783,9326.594869
1179.562972,1149.143247,962.267725,9474.636058
1179.563288,306.438199,962.267725,8364.327145
1179.563603,-76.609550,-0.000000,8734.430116
1179.563919,306.438199,-1110.308913,10066.800811
1179.564235,383.047749,-814.226536,9844.739029
1179.564550,995.924147,592.164754,9622.677246
1179.564866,229.828649,962.267725,8586.388927
1179.565182,-306.438199,518.144159,8882.471304
1179.565498,0.000000,-814.226536,10658.965565
1179.565813,306.438199,-1406.391290,10955.047942
1179.566129,612.876398,222.061783,9770.718434
1179.566445,383.047749,666.185348,8734.430116
1179.566761,0.000000,-222.061783,9696.697840
1179.567076,536.266849,-1110.308913,10288.862594
1179.567392,536.266849,-592.164754,9918.759623
1179.567708,1455.581446,370.102971,9400.615463
1179.568024,459.657299,222.061783,8734.430116
1179.568339,153.219100,-74.020594,9474.636058
1179.568655,-383.047749,-370.102971,10214.842000
1179.568971,459.657299,-592.164754,10140.821405
1179.569287,1608.800546,296.082377,9474.636058
1179.569602,536.266849,222.061783,9104.533087
1179.569918,153.219100,-1480.411884,9622.677246
1179.570234,766.095498,-1998.556043,10955.047942
1179.570550,1225.752797,-518.144159,9696.697840
1179.570865,1149.143247,1110.308913,9400.615463
1179.571181,536.266849,962.267725,8364.327145
1179.571497,306.438199,296.082377,9770.718434
1179.571813,153.219100,-814.226536,10436.903782
1179.572128,689.485948,-222.061783,9622.677246
1179.572444,1302.362347,1258.350101,8660.409521
1179.572760,76.609550,222.061783,9178.553681
1179.573076,0.000000,-962.267725,10510.924376
1179.573391,383.047749,-1998.556043,10140.821405
1179.573707,919.314598,-740.205942,10288.862594
1179.574023,995.924147,74.020594,8734.430116
1179.574339,383.047749,-0.000000,9844.739029
1179.574654,689.485948,-370.102971,9918.759623
1179.574970,536.266849,-148.041188,9104.533087
1179.575286,1532.190996,592.164754,9696.697840
1179.575602,2145.067394,1258.350101,8364.327145
1179.575917,919.314598,592.164754,7772.162391
1179.576233,919.314598,-0.000000,9252.574275
1179.576549,689.485948,-1110.308913,9252.574275
1179.576865,1072.533697,-592.164754,9474.636058
1179.577180,612.876398,370.102971,9326.594869
1179.577496,-459.657299,-74.020594,8808.450710
1179.577812,-1302.362347,-888.247130,9918.759623
1179.578128,-766.095498,-1554.432478,10881.027347
1179.578443,229.828649,-814.226536,10140.821405
1179.578759,0.000000,740.205942,9252.574275
1179.579075,-306.438199,-444.123565,8734.430116
1179.579391,-229.828649,-2146.597232,9474.636058
1179.579706,536.266849,-1998.556043,9548.656652
1179.580022,1762.019645,-222.061783,9844.739029
1179.580338,1302.362347,518.144159,8438.347739
1179.580654,766.095498,592.164754,7920.203579
1179.580969,459.657299,222.061783,8734.430116
1179.581285,995.924147,-814.226536,9548.656652
1179.581601,1608.800546,222.061783,9030.512492
1179.581917,1225.752797,592.164754,9474.636058
1179.582232,76.609550,-592.164754,9252.574275
1179.582548,229.828649,-962.267725,9696.697840
1179.582864,689.485948,-1258.350101,10362.883188
1179.583180,1072.533697,-0.000000,9992.780217
1179.583495,76.609550,370.102971,9104.533087
1179.583811,-76.609550,-222.061783,9326.594869
1179.584127,-229.828649,-1258.350101,10214.842000
1179.584443,459.657299,-1406.391290,11029.068536
1179.584758,1455.581446,296.082377,10288.862594
1179.585074,536.266849,-74.020594,9178.553681
1179.585390,612.876398,-296.082377,9622.677246
1179.585706,1225.752797,-888.247130,9178.553681
1179.586021,2221.676944,-1110.308913,9770.718434
1179.586337,2145.067394,-148.041188,10214.842000
1179.586653,1072.533697,-222.061783,9104.533087
1179.586969,689.485948,222.061783,8586.388927
1179.587284,689.485948,-370.102971,9548.656652
1179.587600,919.314598,-592.164754,10214.842000
1179.587916,1608.800546,518.144159,8808.450710
1179.588232,76.609550,148.041188,8808.450710
1179.588547,-536.266849,-1332.370696,9622.677246
1179.588863,-766.095498,-2738.761985,10807.006753
1179.589179,-766.095498,-2738.761985,10807.006753
1179.589495,-306.438199,-1258.350101,10510.924376
1179.589810,-689.485948,-1480.411884,9104.533087
1179.590126,-1378.971896,-1406.391290,10362.883188
1179.590442,-1378.971896,-2072.576638,10881.027347
1179.590758,0.000000,-1406.391290,10066.800811
1179.591073,383.047749,296.082377,9400.615463
1179.591389,0.000000,-148.041188,8216.285956
1179.591705,612.876398,-518.144159,8882.471304
1179.592021,1072.533697,-1628.453072,8956.491898
1179.592336,1532.190996,-1702.473667,9696.697840
1179.592652,1762.019645,-1184.329507,9104.533087
1179.592968,995.924147,-814.226536,8068.244768
1179.593284,459.657299,-1776.494261,8956.491898
1179.593599,306.438199,-1998.556043,9992.780217
1179.593915,1149.143247,-1036.288319,9844.739029
1179.594231,1532.190996,370.102971,9326.594869
1179.594546,153.219100,-444.123565,8660.409521
1179.594862,-229.828649,-1554.432478,9252.574275
1179.595178,459.657299,-2368.659014,9770.718434
1179.595494,995.924147,-2442.679609,9548.656652
1179.595809,1225.752797,-1554.432478,9696.697840
1179.596125,2221.676944,-2146.597232,9622.677246
1179.596441,2298.286494,-2664.741391,8808.450710
1179.596757,1991.848295,-2664.741391,9252.574275
1179.597072,2681.334243,-2442.679609,10436.903782
1179.597388,3677.258390,-1702.473667,9326.594869
1179.597704,3907.087040,-592.164754,7846.182985
1179.598020,4060.306139,-666.185348,8586.388927
1179.598335,4213.525239,-1554.432478,9030.512492
1179.598651,4596.572988,-1258.350101,8586.388927
1179.598967,4519.963438,-740.205942,8660.409521
1179.599282,3600.648841,-814.226536,8734.430116
1179.599598,3064.381992,-1776.494261,8882.471304
1179.599914,2221.676944,-2072.576638,9918.759623
1179.600230,1608.800546,-2220.617826,11029.068536
1179.600545,1608.800546,-2368.659014,10584.944971
1179.600861,1149.143247,-1924.535449,10066.800811
1179.601177,1302.362347,-2294.638420,9992.780217
1179.601493,1455.581446,-3404.947333,11325.150913
1179.601808,1225.752797,-3108.864956,10732.986159
1179.602124,2604.724693,-2368.659014,10584.944971
1179.602440,3447.429741,-1850.514855,9622.677246
1179.602756,3907.087040,-1406.391290,8660.409521
1179.603071,3753.867940,-1702.473667,9696.697840
1179.603387,3907.087040,-1184.329507,9326.594869
1179.603703,4366.744339,-592.164754,8512.368333
1179.604019,4443.353888,-518.144159,8660.409521
1179.604334,4673.182538,-296.082377,9104.533087
1179.604650,4136.915689,-962.267725,9104.533087
1179.604966,3677.258390,-1776.494261,9326.594869
1179.605281,2911.162892,-2072.576638,9548.656652
1179.605597,2987.772442,-2368.659014,9474.636058
1179.605913,2987.772442,-2368.659014,10362.883188
1179.606229,1915.238745,-1924.535449,9474.636058
1179.606544,2145.067394,-2886.803174,10362.883188
1179.606860,2221.676944,-2812.782580,9992.780217
1179.607176,1915.238745,-2664.741391,9622.677246
1179.607492,2298.286494,-2886.803174,9844.739029
1179.607807,2528.115143,-2516.700203,9918.759623
1179.608123,2604.724693,-2294.638420,9622.677246
1179.608439,3677.258390,-1628.453072,9696.697840
1179.608755,3524.039291,-1850.514855,9030.512492
1179.609070,3524.039291,-1702.473667,8512.368333
1179.609386,3294.210641,-1110.308913,8734.430116
1179.609702,2987.772442,-962.267725,8808.450710
1179.610017,2911.162892,-740.205942,8438.347739
1179.610333,2374.896044,-148.041188,8956.491898
1179.610649,1838.629195,-1406.391290,8364.327145
1179.610965,1685.410096,-2294.638420,8512.368333
1179.611280,459.657299,-2738.761985,9474.636058
1179.611596,0.000000,-2738.761985,9770.718434
1179.611912,612.876398,-3256.906145,10436.903782
1179.612228,383.047749,-3552.988522,10436.903782
1179.612543,-306.438199,-2960.823768,10288.862594
1179.612859,0.000000,-3627.009116,11103.089130
1179.613175,229.828649,-3849.070898,10288.862594
1179.613491,1072.533697,-2738.761985,9844.739029
1179.613806,1225.752797,-2146.597232,9844.739029
1179.614122,2451.505594,-2220.617826,9696.697840
1179.614438,3064.381992,-1554.432478,9178.553681
1179.614754,3447.429741,-1702.473667,8734.430116
1179.615069,3907.087040,-2368.659014,8364.327145
1179.615385,4596.572988,-2072.576638,8586.388927
1179.615701,4136.915689,-1480.411884,8734.430116
1179.616016,3600.648841,-1332.370696,8808.450710
1179.616332,3447.429741,-1702.473667,9400.615463
1179.616648,3217.601092,-2146.597232,9326.594869
1179.616964,2451.505594,-2368.659014,10066.800811
1179.617279,1838.629195,-2664.741391,10436.903782
1179.617595,1838.629195,-2812.782580,10140.821405
1179.617911,2068.457845,-2886.803174,9918.759623
1179.618227,1608.800546,-2738.761985,10510.924376
1179.618542,1762.019645,-2664.741391,10288.862594
1179.618858,1685.410096,-3034.844362,10214.842000
1179.619174,2068.457845,-2960.823768,9992.780217
1179.619490,2451.505594,-2516.700203,9474.636058
1179.619805,2911.162892,-2220.617826,9696.697840
1179.620121,3600.648841,-2220.617826,9548.656652
1179.620437,4366.744339,-2368.659014,9548.656652
1179.620752,4519.963438,-2072.576638,8956.491898
1179.621068,4596.572988,-1850.514855,8882.471304
1179.621384,4749.792088,-1850.514855,9252.574275
1179.621700,5132.839837,-1628.453072,9400.615463
1179.622015,4673.182538,-1480.411884,8512.368333
1179.622331,4596.572988,-962.267725,8734.430116
1179.622647,3677.258390,-1258.350101,9030.512492
1179.622963,3524.039291,-1554.432478,9326.594869
1179.623278,3064.381992,-1776.494261,9104.533087
1179.623594,2145.067394,-2294.638420,9252.574275
1179.623910,995.924147,-2664.741391,10510.924376
1179.624226,536.266849,-4071.132681,11177.109724
1179.624541,766.095498,-4145.153275,11029.068536
1179.624857,689.485948,-3552.988522,10584.944971
1179.625173,689.485948,-2812.782580,9696.697840
1179.625489,1072.533697,-2442.679609,9770.718434
1179.625804,1608.800546,-1924.535449,9844.739029
1179.626120,2757.943793,-1702.473667,9104.533087
1179.626436,2681.334243,-1184.329507,8734.430116
1179.626751,2681.334243,-1480.411884,8586.388927
1179.627067,3064.381992,-2368.659014,9030.512492
1179.627383,3600.648841,-2516.700203,9474.636058
1179.627699,4060.306139,-2442.679609,9104.533087
1179.628014,4519.963438,-1924.535449,8808.450710
1179.628330,3907.087040,-1480.411884,8586.388927
1179.628646,4290.134789,-1406.391290,8586.388927
1179.628962,3140.991542,-888.247130,8734.430116
1179.629277,3447.429741,-222.061783,8734.430116
1179.629593,2451.505594,-592.164754,9252.574275
1179.629909,1685.410096,-1998.556043,9622.677246
1179.630225,1225.752797,-3478.967927,10510.924376
1179.630540,612.876398,-4219.173869,10807.006753
1179.630856,919.314598,-4219.173869,10881.027347
1179.631172,612.876398,-3108.864956,10214.842000
1179.631487,1302.362347,-2368.659014,9770.718434
1179.631803,1915.238745,-1850.514855,9770.718434
1179.632119,1762.019645,-1110.308913,9400.615463
1179.632435,2451.505594,-222.061783,8734.430116
1179.632750,2451.505594,-222.061783,8586.388927
1179.633066,2987.772442,-518.144159,8216.285956
1179.633382,3140.991542,-1554.432478,8882.471304
1179.633698,3600.648841,-2664.741391,9474.636058
1179.634013,3524.039291,-3627.009116,9696.697840
1179.634329,3064.381992,-3701.029710,9918.759623
1179.634645,2911.162892,-3775.050304,9992.780217
1179.634961,2987.772442,-3256.906145,10214.842000
1179.635276,3064.381992,-2072.576638,9844.739029
1179.635592,2604.724693,-1406.391290,9474.636058
1179.635908,2528.115143,-740.205942,9400.615463
1179.636224,2145.067394,-518.144159,8660.409521
1179.636539,2068.457845,-666.185348,8660.409521
1179.636855,1532.190996,-1184.329507,8586.388927
1179.637171,1225.752797,-1702.473667,9178.553681
1179.637486,1149.143247,-2812.782580,9474.636058
1179.637802,766.095498,-4663.297435,10510.924376
1179.638118,612.876398,-5255.462188,11251.130318
1179.638434,306.438199,-5329.482782,11695.253884
1179.638749,1225.752797,-4737.318029,11695.253884
1179.639065,1991.848295,-3775.050304,11029.068536
1179.639381,3140.991542,-2664.741391,10214.842000
1179.639697,3907.087040,-1702.473667,9326.594869
1179.640012,4903.011187,-1184.329507,8290.306550
1179.640328,5515.887586,-518.144159,7328.038826
1179.640644,6128.763984,-0.000000,7105.977043
1179.640960,5286.058936,-0.000000,6587.832884
1179.641275,4596.572988,-74.020594,7254.018232
1179.641591,3907.087040,-592.164754,7846.182985
1179.641907,2145.067394,-1332.370696,8512.368333
1179.642222,612.876398,-2516.700203,9548.656652
1179.642538,-459.657299,-3330.926739,10732.986159
1179.642854,-842.705048,-4515.256246,11695.253884
1179.643170,-842.705048,-4959.379811,12213.398043
1179.643485,-459.657299,-5181.441594,12065.356855
1179.643801,306.438199,-4589.276840,11991.336260
1179.644117,1072.533697,-4663.297435,11029.068536
1179.644433,2374.896044,-3627.009116,10362.883188
1179.644748,3830.477490,-2442.679609,9474.636058
1179.645064,5056.230287,-1184.329507,7772.162391
1179.645380,6205.373534,666.185348,7179.997637
1179.645696,6665.030833,1480.411884,6513.812290
1179.646011,6358.592633,1184.329507,6513.812290
1179.646327,6358.592633,370.102971,6957.935855
1179.646643,4979.620737,-666.185348,7550.100608
1179.646959,3907.087040,-1850.514855,8956.491898
1179.647274,2604.724693,-3552.988522,9918.759623
1179.647590,1608.800546,-4219.173869,11177.109724
1179.647906,459.657299,-4515.256246,11621.233289
1179.648221,-919.314598,-3997.112087,11769.274478
1179.648537,-1685.410096,-3701.029710,11399.171507
1179.648853,-1302.362347,-3330.926739,11325.150913
1179.649169,-306.438199,-3034.844362,10955.047942
1179.649484,153.219100,-2738.761985,10066.800811
1179.649800,1302.362347,-1998.556043,9030.512492
1179.650116,2528.115143,-1406.391290,8808.450710
1179.650432,3217.601092,-1406.391290,8216.285956
1179.650747,3677.258390,-1258.350101,8216.285956
1179.651063,4213.525239,-1628.453072,8364.327145
1179.651379,3753.867940,-1924.535449,8586.388927
1179.651695,3677.258390,-1998.556043,9104.533087
1179.652010,2757.943793,-2072.576638,9474.636058
1179.652326,2528.115143,-1702.473667,9696.697840
1179.652642,2374.896044,-1480.411884,9548.656652
1179.652957,2298.286494,-1258.350101,9474.636058
1179.653273,1685.410096,-1628.453072,9548.656652
1179.653589,1838.629195,-2294.638420,10066.800811
1179.653905,1838.629195,-2664.741391,9844.739029
1179.654220,1915.238745,-2590.720797,9918.759623
1179.654536,1762.019645,-2368.659014,9548.656652
1179.654852,1455.581446,-2220.617826,9622.677246
1179.655168,2145.067394,-1998.556043,9622.677246
1179.655483,1762.019645,-1702.473667,9770.718434
1179.655799,1915.238745,-1702.473667,9992.780217
1179.656115,2145.067394,-1480.411884,10362.883188
1179.656431,2145.067394,-1628.453072,9474.636058
1179.656746,2374.896044,-1258.350101,9252.574275
1179.657062,2298.286494,-518.144159,9030.512492
1179.657378,2298.286494,-370.102971,8808.450710
1179.657694,1991.848295,-814.226536,8808.450710
1179.658009,1915.238745,-962.267725,8808.450710
1179.658325,1532.190996,-1480.411884,9326.594869
1179.658641,1302.362347,-1776.494261,9326.594869
1179.658956,1608.800546,-2294.638420,9844.739029
1179.659272,1608.800546,-2738.761985,10214.842000
1179.659588,1838.629195,-2368.659014,10436.903782
1179.659904,1838.629195,-2590.720797,10510.924376
1179.660219,2221.676944,-2664.741391,10214.842000
1179.660535,2451.505594,-2294.638420,9918.759623
1179.660851,3140.991542,-1628.453072,9844.739029
1179.661167,2987.772442,-1258.350101,9474.636058
1179.661482,2987.772442,-1258.350101,9400.615463
1179.661798,3140.991542,-1184.329507,9178.553681
1179.662114,2987.772442,-1332.370696,9104.533087
1179.662430,3677.258390,-1554.432478,9252.574275
1179.662745,3524.039291,-1702.473667,9326.594869
1179.663061,3677.258390,-2294.638420,9474.636058
1179.663377,4060.306139,-2516.700203,9696.697840
1179.663692,4290.134789,-2886.803174,9918.759623
1179.664008,4596.572988,-3034.844362,10066.800811
1179.664324,4290.134789,-3256.906145,9770.718434
1179.664640,3830.477490,-3034.844362,9918.759623
1179.664955,3140.991542,-2738.761985,10140.821405
1179.665271,2987.772442,-2812.782580,10066.800811
1179.665587,2528.115143,-2368.659014,9918.759623
1179.665903,2451.505594,-2368.659014,9474.636058
1179.666218,2834.553343,-2368.659014,9252.574275
1179.666534,2757.943793,-2590.720797,9104.533087
1179.666850,2604.724693,-2886.803174,9326.594869
1179.667166,2834.553343,-3330.926739,9474.636058
1179.667481,2681.334243,-3701.029710,9844.739029
1179.667797,2528.115143,-3775.050304,10066.800811
1179.668113,2604.724693,-3923.091493,9918.759623
1179.668428,2987.772442,-3627.009116,9918.759623
1179.668744,2757.943793,-3552.988522,9548.656652
1179.669060,2834.553343,-3330.926739,9548.656652
1179.669376,2911.162892,-3182.885551,8882.471304
1179.669691,3294.210641,-2664.741391,8734.430116
1179.670007,3447.429741,-2220.617826,8512.368333
1179.670323,2911.162892,-2368.659014,8364.327145
1179.670639,2987.772442,-2368.659014,8660.409521
1179.670954,2604.724693,-3108.864956,9104.533087
1179.671270,2681.334243,-3552.988522,9474.636058
1179.671586,2374.896044,-4145.153275,9696.697840
1179.671902,2374.896044,-4219.173869,9770.718434
1179.672217,2374.896044,-4367.215058,10066.800811
1179.672533,2528.115143,-4145.153275,9918.759623
1179.672849,2757.943793,-3404.947333,9474.636058
1179.673165,3064.381992,-2442.679609,8808.450710
1179.673480,2604.724693,-1554.432478,7920.203579
1179.673796,2604.724693,-1184.329507,8290.306550
1179.674112,2451.505594,-888.247130,7846.182985
1179.674427,1838.629195,-518.144159,7920.203579
1179.674743,1532.190996,-1036.288319,7994.224174
1179.675059,842.705048,-1924.535449,8882.471304
1179.675375,536.266849,-3182.885551,9770.718434
1179.675690,76.609550,-3849.070898,10955.047942
1179.676006,306.438199,-4293.194464,11177.109724
1179.676322,689.485948,-4589.276840,11251.130318
1179.676638,1072.533697,-4589.276840,11251.130318
1179.676953,1991.848295,-3775.050304,11103.089130
1179.677269,2987.772442,-2516.700203,10288.862594
1179.677585,3524.039291,-1332.370696,9696.697840
1179.677901,4596.572988,-222.061783,8512.368333
1179.678216,4366.744339,814.226536,7254.018232
1179.678532,4749.792088,1406.391290,6883.915261
1179.678848,4519.963438,1258.350101,6883.915261
1179.679163,3907.087040,1332.370696,7846.182985
1179.679479,2911.162892,444.123565,8290.306550
1179.679795,1762.019645,-740.205942,9178.553681
1179.680111,383.047749,-1776.494261,10140.821405
1179.680426,-153.219100,-3034.844362,11769.274478
1179.680742,-689.485948,-4589.276840,12657.521608
1179.681058,-766.095498,-4737.318029,13175.665768
1179.681374,-383.047749,-4589.276840,12879.583391
1179.681689,383.047749,-3997.112087,12361.439231
1179.682005,1532.190996,-3182.885551,11695.253884
1179.682321,2757.943793,-1776.494261,10584.944971
1179.682637,4213.525239,-222.061783,8882.471304
1179.682952,5362.668486,814.226536,7624.121203
1179.683268,6511.811733,1850.514855,6957.935855
1179.683584,7354.516781,2590.720797,6883.915261
1179.683900,6205.373534,1850.514855,7105.977043
1179.684215,5592.497135,666.185348,7846.182985
1179.684531,4290.134789,-814.226536,8808.450710
1179.684847,3294.210641,-2590.720797,10510.924376
1179.685162,2068.457845,-3701.029710,11473.192101
1179.685478,1225.752797,-4293.194464,11695.253884
1179.685794,0.000000,-4293.194464,11917.315666
1179.686110,-306.438199,-3552.988522,11695.253884
1179.686425,229.828649,-2886.803174,11547.212695
1179.686741,842.705048,-2294.638420,10584.944971
1179.687057,1532.190996,-2220.617826,9474.636058
1179.687373,2298.286494,-1776.494261,9030.512492
1179.687688,2987.772442,-1998.556043,8808.450710
1179.688004,4136.915689,-2442.679609,8364.327145
1179.688320,4903.011187,-2146.597232,8290.306550
1179.688636,4979.620737,-2368.659014,8142.265362
1179.688951,4826.401637,-2886.803174,8734.430116
1179.689267,4903.011187,-3330.926739,9400.615463
1179.689583,5056.230287,-2960.823768,9178.553681
1179.689898,3983.696590,-2294.638420,8512.368333
1179.690214,3830.477490,-1258.350101,8808.450710
1179.690530,2987.772442,-1480.411884,8734.430116
1179.690846,2681.334243,-2368.659014,9178.553681
1179.691161,2221.676944,-3108.864956,9030.512492
1179.691477,1149.143247,-3701.029710,9400.615463
1179.691793,689.485948,-4367.215058,9252.574275
1179.692109,1302.362347,-4589.276840,9696.697840
1179.692424,1455.581446,-3849.070898,9696.697840
1179.692740,1455.581446,-2886.803174,9178.553681
1179.693056,689.485948,-3108.864956,9770.718434
1179.693372,995.924147,-3478.967927,10214.842000
1179.693687,1532.190996,-3627.009116,10066.800811
1179.694003,1378.971896,-3849.070898,9992.780217
1179.694319,2298.286494,-3627.009116,9770.718434
1179.694634,2451.505594,-3404.947333,9326.594869
1179.694950,3217.601092,-2516.700203,8660.409521
1179.695266,3447.429741,-2220.617826,7920.203579
1179.695582,3830.477490,-962.267725,8364.327145
1179.695897,3370.820191,-1924.535449,8512.368333
1179.696213,3447.429741,-1776.494261,9030.512492
1179.696529,3294.210641,-888.247130,8364.327145
1179.696844,2911.162892,-2072.576638,8586.388927
1179.697160,3294.210641,-1702.473667,9178.553681
1179.697476,2221.676944,-2220.617826,9104.533087
1179.697791,1532.190996,-2146.597232,9400.615463
1179.698107,1072.533697,-2812.782580,10066.800811
1179.698423,306.438199,-3330.926739,10955.047942
1179.698738,153.219100,-3627.009116,11325.150913
1179.699054,-536.266849,-3552.988522,11251.130318
1179.699370,-153.219100,-3330.926739,11251.130318
1179.699686,995.924147,-2886.803174,10807.006753
1179.700001,1608.800546,-2812.782580,10288.862594
1179.700317,2374.896044,-2368.659014,10881.027347
1179.700633,3753.867940,-1480.411884,9252.574275
1179.700948,4673.182538,-962.267725,7994.224174
1179.701264,5745.716235,-814.226536,8216.285956
1179.701580,6281.983084,-962.267725,8068.244768
1179.701895,5745.716235,-148.041188,7920.203579
1179.702211,4903.011187,-296.082377,7772.162391
1179.702527,4290.134789,-1184.329507,9104.533087
1179.702843,2987.772442,-592.164754,9104.533087
1179.703158,2221.676944,-592.164754,9622.677246
1179.703474,1532.190996,-1702.473667,9918.759623
1179.703790,536.266849,-2812.782580,10807.006753
1179.704105,0.000000,-2886.803174,11399.171507
1179.704421,0.000000,-3404.947333,11473.192101
1179.704737,0.000000,-3701.029710,11695.253884
1179.705052,-536.266849,-3330.926739,11621.233289
1179.705368,1455.581446,-3182.885551,10881.027347
1179.705684,2068.457845,-3034.844362,10510.924376
1179.706000,2757.943793,-1036.288319,9548.656652
1179.706315,3370.820191,-148.041188,8290.306550
1179.706631,4596.572988,-222.061783,8364.327145
1179.706947,5056.230287,518.144159,8216.285956
1179.707262,5209.449386,370.102971,8290.306550
1179.707578,4596.572988,666.185348,6661.853478
1179.707894,3217.601092,222.061783,7179.997637
1179.708209,2911.162892,-1332.370696,8438.347739
1179.708525,2374.896044,-1332.370696,9918.759623
1179.708841,1915.238745,-1628.453072,10140.821405
1179.709157,689.485948,-2146.597232,9474.636058
1179.709472,-153.219100,-3997.112087,10658.965565
1179.709788,-383.047749,-4811.338623,11473.192101
1179.710104,459.657299,-3034.844362,11177.109724
1179.710419,1225.752797,-3256.906145,10658.965565
1179.710735,2374.896044,-2516.700203,10288.862594
1179.711051,3140.991542,-2368.659014,9400.615463
1179.711366,3524.039291,-2738.761985,8142.265362
1179.711682,4443.353888,-1110.308913,7920.203579
1179.711998,4443.353888,-444.123565,8068.244768
1179.712314,5362.668486,1184.329507,6883.915261
1179.712629,5209.449386,814.226536,7031.956449
1179.712945,3830.477490,814.226536,7105.977043
1179.713261,3524.039291,-444.123565,7994.224174
1179.713576,2298.286494,-1776.494261,9178.553681
1179.713892,1455.581446,-1924.535449,9548.656652
1179.714208,1072.533697,-2368.659014,9622.677246
1179.714523,612.876398,-3330.926739,11547.212695
1179.714839,0.000000,-3108.864956,11325.150913
1179.715155,-76.609550,-3108.864956,10955.047942
1179.715471,0.000000,-2146.597232,10584.944971
1179.715786,536.266849,-1332.370696,10214.842000
1179.716102,919.314598,-1332.370696,9178.553681
1179.716418,995.924147,-370.102971,9400.615463
1179.716733,1072.533697,-888.247130,9992.780217
1179.717049,2068.457845,-296.082377,8438.347739
1179.717365,1302.362347,1110.308913,7772.162391
1179.717680,1685.410096,740.205942,8808.450710
1179.717996,1225.752797,296.082377,8808.450710
1179.718312,306.438199,-814.226536,9030.512492
1179.718628,0.000000,-1406.391290,11029.068536
1179.718943,383.047749,-1850.514855,10510.924376
1179.719259,153.219100,-1480.411884,9918.759623
1179.719575,-459.657299,-962.267725,10436.903782
1179.719890,76.609550,-2146.597232,10881.027347
1179.720206,536.266849,-1258.350101,10955.047942
1179.720522,919.314598,-296.082377,10362.883188
1179.720837,919.314598,-666.185348,8956.491898
1179.721153,1225.752797,-888.247130,9918.759623
1179.721469,1991.848295,-666.185348,9104.533087
1179.721784,1378.971896,-370.102971,8586.388927
1179.722100,1378.971896,-666.185348,9992.780217
1179.722416,1072.533697,-222.061783,9918.759623
1179.722732,459.657299,-222.061783,9252.574275
1179.723047,-383.047749,-740.205942,9104.533087
1179.723363,-766.095498,-962.267725,9696.697840
1179.723679,153.219100,-518.144159,10584.944971
1179.723994,229.828649,74.020594,9030.512492
1179.724310,0.000000,444.123565,8956.491898
1179.724626,-612.876398,-518.144159,9400.615463
1179.724941,-383.047749,-1480.411884,9474.636058
1179.725257,229.828649,-1258.350101,10140.821405
1179.725573,766.095498,-296.082377,8956.491898
1179.725889,76.609550,-444.123565,9030.512492
1179.726204,-612.876398,-592.164754,9474.636058
1179.726520,153.219100,-1184.329507,10881.027347
1179.726836,766.095498,-666.185348,9844.739029
1179.727151,995.924147,-0.000000,9178.553681
1179.727467,612.876398,-0.000000,8660.409521
1179.727783,153.219100,-444.123565,9104.533087
1179.728098,306.438199,-592.164754,9400.615463
1179.728414,766.095498,-148.041188,10214.842000
1179.728730,229.828649,740.205942,8882.471304
1179.729046,-536.266849,296.082377,8808.450710
1179.729361,-1378.971896,-814.226536,8882.471304
1179.729677,-842.705048,-1628.453072,9770.718434
1179.729993,229.828649,-1258.350101,10066.800811
1179.730308,383.047749,-1406.391290,9474.636058
1179.730624,-306.438199,-518.144159,9178.553681
1179.730940,0.000000,-296.082377,8882.471304
1179.731255,383.047749,-296.082377,9104.533087
1179.731571,1302.362347,888.247130,9474.636058
1179.731887,842.705048,1406.391290,8586.388927
1179.732203,76.609550,518.144159,8364.327145
1179.732518,76.609550,-222.061783,9622.677246
1179.732834,229.828649,-888.247130,10732.986159
1179.733150,689.485948,222.061783,9474.636058
1179.733465,842.705048,814.226536,9030.512492
1179.733781,766.095498,666.185348,9178.553681
1179.734097,766.095498,-0.000000,9918.759623
1179.734412,1225.752797,-666.185348,10436.903782
1179.734728,1838.629195,-74.020594,9622.677246
1179.735044,2221.676944,592.164754,9104.533087
1179.735360,1915.238745,1332.370696,8586.388927
1179.735675,1685.410096,1332.370696,8660.409521
1179.735991,1762.019645,1184.329507,9326.594869
1179.736307,1838.629195,1258.350101,9548.656652
1179.736622,1532.190996,962.267725,8808.450710
1179.736938,919.314598,814.226536,9104.533087
1179.737254,-459.657299,-1110.308913,10214.842000
1179.737569,-459.657299,-2220.617826,11325.150913
1179.737885,0.000000,-1258.350101,11325.150913
1179.738201,229.828649,-370.102971,10436.903782
1179.738517,-766.095498,518.144159,9844.739029
1179.738832,-1762.019645,-1258.350101,10066.800811
1179.739148,-919.314598,-1628.453072,10955.047942
1179.739464,459.657299,-148.041188,10066.800811
1179.739779,919.314598,-0.000000,8734.430116
1179.740095,0.000000,-148.041188,9030.512492
1179.740411,306.438199,-1554.432478,9548.656652
1179.740726,842.705048,-1110.308913,9770.718434
1179.741042,1378.971896,1036.288319,8734.430116
1179.741358,612.876398,1406.391290,7698.141797
1179.741674,0.000000,666.185348,8586.388927
1179.741989,-306.438199,-814.226536,9992.780217
1179.742305,229.828649,-888.247130,10510.924376
1179.742621,842.705048,-888.247130,10510.924376
1179.742936,-612.876398,-1702.473667,10510.924376
1179.743252,-766.095498,-1036.288319,9548.656652
1179.743568,-459.657299,-1628.453072,9992.780217
1179.743883,0.000000,-888.247130,10066.800811
1179.744199,229.828649,-0.000000,9696.697840
1179.744515,153.219100,-0.000000,9030.512492
1179.744831,0.000000,-0.000000,8290.306550
1179.745146,76.609550,-370.102971,8808.450710
1179.745462,1225.752797,-592.164754,9844.739029
1179.745778,1608.800546,-0.000000,8512.368333
1179.746093,919.314598,740.205942,8216.285956
1179.746409,229.828649,296.082377,8364.327145
1179.746725,153.219100,-1110.308913,8808.450710
1179.747040,383.047749,-814.226536,9918.759623
1179.747356,306.438199,74.020594,9178.553681
1179.747672,383.047749,740.205942,8660.409521
1179.747987,-306.438199,-222.061783,8660.409521
1179.748303,-766.095498,-1628.453072,10658.965565
1179.748619,153.219100,-1554.432478,11177.109724
1179.748935,0.000000,-296.082377,9178.553681
1179.749250,229.828649,740.205942,8586.388927
1179.749566,-76.609550,-370.102971,9030.512492
1179.749882,153.219100,-1332.370696,10436.903782
1179.750197,1455.581446,-0.000000,9992.780217
1179.750513,1378.971896,740.205942,8586.388927
1179.750829,1149.143247,962.267725,8142.265362
1179.751144,612.876398,814.226536,8808.450710
1179.751460,995.924147,-222.061783,9326.594869
1179.751776,1302.362347,888.247130,9474.636058
1179.752092,1225.752797,666.185348,9030.512492
1179.752407,0.000000,370.102971,9252.574275
1179.752723,0.000000,-1258.350101,9770.718434
1179.753039,-536.266849,-1998.556043,10288.862594
1179.753354,459.657299,-1110.308913,10436.903782
1179.753670,76.609550,-0.000000,9474.636058
1179.753986,76.609550,444.123565,8956.491898
1179.754301,-1072.533697,74.020594,9548.656652
1179.754617,-459.657299,-1406.391290,11399.171507
1179.754933,842.705048,-518.144159,10732.986159
1179.755249,459.657299,296.082377,8882.471304
1179.755564,0.000000,444.123565,8660.409521
1179.755880,0.000000,-814.226536,9992.780217
1179.756196,919.314598,-1406.391290,10510.924376
1179.756511,1378.971896,518.144159,10066.800811
1179.756827,919.314598,962.267725,8068.244768
1179.757143,766.095498,814.226536,8734.430116
1179.757458,153.219100,222.061783,9178.553681
1179.757774,689.485948,-296.082377,10658.965565
1179.758090,1378.971896,-222.061783,10436.903782
1179.758406,-76.609550,1628.453072,8808.450710
1179.758721,536.266849,-148.041188,9992.780217
1179.759037,229.828649,-1258.350101,9474.636058
1179.759353,153.219100,-666.185348,10510.924376
1179.759668,1378.971896,-1628.453072,10584.944971
1179.759984,1455.581446,370.102971,9474.636058
1179.760300,229.828649,814.226536,9104.533087
1179.760615,0.000000,-296.082377,9770.718434
1179.760931,1455.581446,-666.185348,10288.862594
1179.761247,919.314598,666.185348,8734.430116
1179.761563,1455.581446,1628.453072,8142.265362
1179.761878,536.266849,370.102971,8586.388927
1179.762194,0.000000,-1776.494261,9474.636058
1179.762510,1072.533697,-1628.453072,10807.006753
1179.762825,995.924147,-814.226536,9622.677246
1179.763141,995.924147,-148.041188,9104.533087
1179.763457,459.657299,962.267725,8290.306550
1179.763772,-766.095498,-888.247130,9178.553681
1179.764088,612.876398,-1036.288319,11473.192101
1179.764404,995.924147,296.082377,9992.780217
1179.764720,306.438199,888.247130,8438.347739
1179.765035,-153.219100,-222.061783,8734.430116
1179.765351,-383.047749,-2072.576638,9696.697840
1179.765667,1225.752797,-1332.370696,9918.759623
1179.765982,1072.533697,-296.082377,9844.739029
1179.766298,612.876398,-0.000000,8586.388927
1179.766614,0.000000,-0.000000,8364.327145
1179.766929,76.609550,-1110.308913,9844.739029
1179.767245,1072.533697,-740.205942,9622.677246
1179.767561,1302.362347,592.164754,8882.471304
1179.767877,766.095498,370.102971,8734.430116
1179.768192,459.657299,-296.082377,9252.574275
1179.768508,766.095498,-1258.350101,9918.759623
1179.768824,1378.971896,-1332.370696,9474.636058
1179.769139,919.314598,-148.041188,9030.512492
1179.769455,0.000000,296.082377,8290.306550
1179.769771,-383.047749,-0.000000,8734.430116
1179.770086,-612.876398,-1110.308913,10510.924376
1179.770402,0.000000,-1036.288319,10807.006753
1179.770718,-229.828649,-74.020594,9770.718434
1179.771033,-459.657299,148.041188,9400.615463
1179.771349,-612.876398,-1036.288319,9104.533087
1179.771665,0.000000,-1702.473667,10214.842000
1179.771981,1685.410096,-444.123565,9844.739029
1179.772296,1149.143247,148.041188,8438.347739
1179.772612,766.095498,814.226536,8882.471304
1179.772928,306.438199,-0.000000,9400.615463
1179.773243,459.657299,-518.144159,9252.574275
1179.773559,1455.581446,370.102971,9844.739029
1179.773875,1608.800546,1110.308913,8734.430116
1179.774190,536.266849,444.123565,9178.553681
1179.774506,612.876398,-518.144159,9548.656652
1179.774822,842.705048,-2220.617826,9918.759623
1179.775138,842.705048,-370.102971,9844.739029
1179.775453,766.095498,296.082377,9474.636058
1179.775769,306.438199,-0.000000,9104.533087
1179.776085,-459.657299,-962.267725,10214.842000
1179.776400,-536.266849,-1332.370696,10658.965565
1179.776716,459.657299,-0.000000,10362.883188
1179.777032,306.438199,518.144159,8660.409521
1179.777347,0.000000,296.082377,9326.594869
1179.777663,-229.828649,-592.164754,8956.491898
1179.777979,995.924147,-592.164754,10807.006753
1179.778295,1302.362347,74.020594,9696.697840
1179.778610,689.485948,444.123565,9030.512492
1179.778926,612.876398,740.205942,9474.636058
1179.779242,0.000000,-0.000000,8734.430116
1179.779557,689.485948,222.061783,9770.718434
1179.779873,1302.362347,1036.288319,9326.594869
1179.780189,536.266849,962.267725,9326.594869
1179.780504,0.000000,518.144159,9326.594869
1179.780820,0.000000,-666.185348,9696.697840
1179.781136,306.438199,-1110.308913,10066.800811
1179.781452,919.314598,-0.000000,9696.697840
1179.781767,842.705048,518.144159,9104.533087
1179.782083,229.828649,-148.041188,9178.553681
1179.782399,-536.266849,-592.164754,10436.903782
1179.782714,766.095498,-222.061783,10066.800811
1179.783030,919.314598,1110.308913,8956.491898
1179.783346,612.876398,740.205942,8142.265362
1179.783661,306.438199,222.061783,9030.512492
1179.783977,1149.143247,-1332.370696,10214.842000
1179.784293,995.924147,-1036.288319,9992.780217
1179.784609,1149.143247,-222.061783,8512.368333
1179.784924,612.876398,444.123565,9400.615463
1179.785240,76.609550,-0.000000,8956.491898
1179.785556,-612.876398,-814.226536,8808.450710
1179.785871,229.828649,296.082377,10881.027347
1179.786187,536.266849,370.102971,9474.636058
1179.786503,0.000000,444.123565,9104.533087
1179.786818,-536.266849,-74.020594,9252.574275
1179.787134,-842.705048,-1480.411884,10140.821405
1179.787450,306.438199,-1184.329507,9992.780217
1179.787766,919.314598,222.061783,9548.656652
1179.788081,0.000000,518.144159,8882.471304
1179.788397,-766.095498,-148.041188,9400.615463
1179.788713,-919.314598,-1702.473667,10066.800811
1179.789028,0.000000,-740.205942,9770.718434
1179.789344,536.266849,-0.000000,9918.759623
1179.789660,76.609550,740.205942,8734.430116
1179.789975,0.000000,-0.000000,8216.285956
1179.790291,-306.438199,-1258.350101,9844.739029
1179.790607,689.485948,-814.226536,9622.677246
1179.790923,689.485948,-370.102971,8808.450710
1179.791238,153.219100,-74.020594,8882.471304
1179.791554,-459.657299,-888.247130,8956.491898
1179.791870,-612.876398,-1554.432478,10807.006753
1179.792185,459.657299,-814.226536,10288.862594
1179.792501,229.828649,-74.020594,9400.615463
1179.792817,0.000000,814.226536,9178.553681
1179.793132,-153.219100,-0.000000,8660.409521
1179.793448,0.000000,-444.123565,9474.636058
1179.793764,1225.752797,-296.082377,9696.697840
1179.794080,459.657299,-666.185348,9104.533087
1179.794395,536.266849,-0.000000,9474.636058
1179.794711,0.000000,-222.061783,9252.574275
1179.795025,0.000000,-1110.308913,10066.800811
1179.795341,1072.533697,-0.000000,10584.944971
1179.795657,919.314598,1110.308913,8438.347739
1179.795973,766.095498,1332.370696,9400.615463
1179.796289,842.705048,-518.144159,10140.821405
1179.796604,1072.533697,-1110.308913,9770.718434
1179.796920,1685.410096,296.082377,9844.739029
1179.797236,1915.238745,296.082377,8956.491898
1179.797552,842.705048,888.247130,8882.471304
1179.797868,766.095498,-222.061783,8956.491898
1179.798183,842.705048,-296.082377,9844.739029
1179.798499,1608.800546,296.082377,10362.883188
1179.798815,1302.362347,888.247130,9474.636058
1179.799131,306.438199,370.102971,8956.491898
1179.799447,459.657299,-1258.350101,10288.862594
1179.799762,689.485948,-962.267725,10214.842000
1179.800078,1225.752797,-518.144159,9918.759623
1179.800394,536.266849,-0.000000,9696.697840
1179.800710,229.828649,-0.000000,9696.697840
1179.801026,-536.266849,-222.061783,8808.450710
1179.801341,459.657299,-444.123565,10732.986159
1179.801657,1072.533697,-74.020594,9622.677246
1179.801973,229.828649,444.123565,8512.368333
1179.802289,-306.438199,-444.123565,9178.553681
1179.802605,0.000000,-1628.453072,9770.718434
1179.802920,229.828649,-1258.350101,10140.821405
1179.803236,612.876398,-222.061783,8808.450710
1179.803552,306.438199,592.164754,8586.388927
1179.803868,76.609550,-0.000000,9326.594869
1179.804184,-612.876398,-1258.350101,9696.697840
1179.804499,0.000000,-592.164754,10288.862594
1179.804815,536.266849,-0.000000,9178.553681
1179.805131,0.000000,370.102971,8512.368333
1179.805447,-766.095498,-74.020594,9178.553681
1179.805763,-612.876398,-1776.494261,9178.553681
1179.806078,536.266849,-1406.391290,10214.842000
1179.806394,612.876398,-0.000000,9030.512492
1179.806710,536.266849,370.102971,8734.430116
1179.807026,766.095498,-0.000000,8290.306550
1179.807342,0.000000,-740.205942,9030.512492
1179.807657,612.876398,-444.123565,10510.924376
1179.807973,1149.143247,444.123565,8808.450710
1179.808289,1072.533697,666.185348,7846.182985
1179.808605,229.828649,-444.123565,9178.553681
1179.808921,383.047749,-1184.329507,9548.656652
1179.809236,842.705048,-222.061783,9696.697840
1179.809552,766.095498,1184.329507,9030.512492
1179.809868,995.924147,1184.329507,9030.512492
1179.810184,0.000000,592.164754,8142.265362
1179.810500,-612.876398,-962.267725,10140.821405
1179.810815,306.438199,-962.267725,10955.047942
1179.811131,766.095498,-74.020594,9844.739029
1179.811447,0.000000,222.061783,9548.656652
1179.811763,-459.657299,-0.000000,9326.594869
1179.812079,306.438199,-740.205942,10658.965565
1179.812394,1608.800546,518.144159,9770.718434
1179.812710,1762.019645,1258.350101,8660.409521
1179.813026,995.924147,740.205942,9030.512492
1179.813342,383.047749,-0.000000,9104.533087
1179.813658,689.485948,-740.205942,10066.800811
1179.813973,1532.190996,-0.000000,10140.821405
1179.814289,1302.362347,814.226536,9178.553681
1179.814605,306.438199,740.205942,8808.450710
1179.814921,153.219100,-666.185348,9474.636058
1179.815237,229.828649,-1924.535449,10807.006753
1179.815552,766.095498,-1036.288319,10584.944971
1179.815868,1225.752797,-370.102971,9770.718434
1179.816184,0.000000,222.061783,9548.656652
1179.816500,0.000000,-222.061783,9696.697840
1179.816816,306.438199,-814.226536,10510.924376
1179.817131,919.314598,-74.020594,10066.800811
1179.817447,536.266849,1036.288319,9178.553681
1179.817763,0.000000,222.061783,9030.512492
1179.818079,0.000000,-1776.494261,9844.739029
1179.818395,153.219100,-1628.453072,10955.047942
1179.818710,842.705048,-518.144159,8956.491898
1179.819026,995.924147,-0.000000,8808.450710
1179.819342,306.438199,518.144159,8882.471304
1179.819658,-306.438199,-962.267725,9474.636058
1179.819974,766.095498,-370.102971,10140.821405
1179.820289,1072.533697,-0.000000,9252.574275
1179.820605,1225.752797,296.082377,8290.306550
1179.820921,766.095498,-518.144159,9104.533087
1179.821237,0.000000,-1998.556043,8956.491898
1179.821552,612.876398,-1924.535449,10362.883188
1179.821868,1149.143247,-740.205942,8660.409521
1179.822184,612.876398,-370.102971,9030.512492
1179.822500,0.000000,296.082377,8882.471304
1179.822816,0.000000,-148.041188,8586.388927
1179.823131,153.219100,-518.144159,9326.594869
1179.823447,229.828649,666.185348,9474.636058
1179.823763,306.438199,-666.185348,8438.347739
1179.824079,-306.438199,-296.082377,8808.450710
1179.824395,-919.314598,-1036.288319,9252.574275
1179.824710,-306.438199,-1998.556043,10362.883188
1179.825026,766.095498,296.082377,9400.615463
1179.825342,0.000000,-0.000000,8808.450710
1179.825658,-536.266849,-0.000000,9178.553681
1179.825974,-153.219100,-814.226536,10066.800811
1179.826289,153.219100,-444.123565,10214.842000
1179.826605,842.705048,1036.288319,8956.491898
1179.826921,612.876398,1480.411884,8660.409521
1179.827237,306.438199,370.102971,8216.285956
1179.827553,612.876398,-444.123565,9918.759623
1179.827868,919.314598,-0.000000,9844.739029
1179.828184,995.924147,296.082377,9326.594869
1179.828500,919.314598,592.164754,9104.533087
1179.828816,-229.828649,74.020594,8956.491898
1179.829132,0.000000,-370.102971,10732.986159
1179.829447,842.705048,-0.000000,10732.986159
1179.829763,0.000000,888.247130,9252.574275
1179.830079,0.000000,740.205942,9178.553681
1179.830395,0.000000,-444.123565,9696.697840
1179.830711,153.219100,-1850.514855,11103.089130
1179.831026,995.924147,-888.247130,10955.047942
1179.831342,612.876398,-148.041188,9252.574275
1179.831658,612.876398,-74.020594,10362.883188
1179.831974,612.876398,370.102971,9622.677246
1179.832290,383.047749,-296.082377,9252.574275
1179.832605,1072.533697,370.102971,10436.903782
1179.832921,842.705048,592.164754,9622.677246
