#time,accel_x,accel_y,accel_z
672.819981,459.657299,740.205942,10510.924376
672.820296,306.438199,1036.288319,9622.677246
672.820612,689.485948,1406.391290,9400.615463
672.820927,766.095498,1480.411884,9548.656652
672.821243,919.314598,1258.350101,9474.636058
672.821558,842.705048,1036.288319,9548.656652
672.821874,766.095498,1184.329507,9918.759623
672.822190,612.876398,1110.308913,9918.759623
672.822505,229.828649,1110.308913,10362.883188
672.822821,612.876398,1480.411884,9844.739029
672.823136,612.876398,1702.473667,9474.636058
672.823452,919.314598,1554.432478,9400.615463
672.823767,1225.752797,1332.370696,9400.615463
672.824083,1378.971896,518.144159,9548.656652
672.824398,1455.581446,222.061783,9770.718434
672.824714,1378.971896,222.061783,9992.780217
672.825029,1762.019645,-148.041188,9548.656652
672.825345,1991.848295,148.041188,9918.759623
672.825661,2068.457845,444.123565,9548.656652
672.825976,2221.676944,962.267725,9400.615463
672.826292,2374.896044,1036.288319,8956.491898
672.826607,2604.724693,1110.308913,9104.533087
672.826923,2681.334243,1332.370696,9030.512492
672.827238,2604.724693,1554.432478,9030.512492
672.827554,2911.162892,1480.411884,9252.574275
672.827869,3064.381992,1406.391290,9178.553681
672.828185,3064.381992,1184.329507,9252.574275
672.828500,3370.820191,1332.370696,8956.491898
672.828816,3447.429741,1406.391290,9178.553681
672.829131,3677.258390,1702.473667,9104.533087
672.829447,3753.867940,1184.329507,9030.512492
672.829763,4136.915689,1554.432478,9326.594869
672.830078,3907.087040,1702.473667,9400.615463
672.830394,4060.306139,2294.638420,9178.553681
672.830709,4213.525239,2738.761985,9178.553681
672.831025,3753.867940,3034.844362,8882.471304
672.831340,4213.525239,3330.926739,8882.471304
672.831656,4060.306139,3256.906145,9030.512492
672.831971,4136.915689,3256.906145,8808.450710
672.832287,4290.134789,2886.803174,9548.656652
672.832602,4213.525239,3330.926739,9252.574275
672.832918,4366.744339,3849.070898,9326.594869
672.833234,4596.572988,3997.112087,9104.533087
672.833549,4443.353888,4441.235652,9326.594869
672.833865,4443.353888,4071.132681,8882.471304
672.834180,4290.134789,4145.153275,9474.636058
672.834496,3753.867940,4071.132681,9548.656652
672.834811,3294.210641,3627.009116,9844.739029
672.835127,2757.943793,3330.926739,10140.821405
672.835442,2451.505594,3330.926739,10140.821405
672.835758,2145.067394,3330.926739,10732.986159
672.836073,1608.800546,3330.926739,10436.903782
672.836389,1149.143247,3404.947333,10362.883188
672.836704,1149.143247,3627.009116,9992.780217
672.837020,1532.190996,3701.029710,9844.739029
672.837336,1532.190996,3108.864956,10066.800811
672.837651,1225.752797,2442.679609,10362.883188
672.837967,1608.800546,2072.576638,10362.883188
672.838282,1991.848295,1184.329507,10288.862594
672.838598,1915.238745,1110.308913,11029.068536
672.838913,1991.848295,1110.308913,11029.068536
672.839229,1991.848295,1554.432478,10807.006753
672.839544,2451.505594,1924.535449,10807.006753
672.839860,2834.553343,2664.741391,10066.800811
672.840175,3447.429741,3478.967927,9400.615463
672.840491,3677.258390,3478.967927,8882.471304
672.840807,4213.525239,3478.967927,8364.327145
672.841122,4443.353888,3404.947333,7920.203579
672.841438,4136.915689,3330.926739,7772.162391
672.841753,3907.087040,2812.782580,8068.244768
672.842069,2681.334243,2146.597232,8290.306550
672.842384,1685.410096,1480.411884,8882.471304
672.842700,842.705048,370.102971,9474.636058
672.843015,-536.266849,-666.185348,10584.944971
672.843331,-1149.143247,-1554.432478,11473.192101
672.843646,-2068.457845,-2294.638420,12361.439231
672.843962,-2451.505594,-2812.782580,12657.521608
672.844278,-2528.115143,-2146.597232,12879.583391
672.844593,-1838.629195,-888.247130,12139.377449
672.844909,-459.657299,296.082377,10584.944971
672.845224,1378.971896,1480.411884,9104.533087
672.845540,3370.820191,2294.638420,7698.141797
672.845856,3677.258390,3182.885551,6143.709319
672.846172,4903.011187,3034.844362,5477.523971
672.846488,5822.325785,2442.679609,5033.400406
672.846804,6052.154434,2072.576638,5255.462188
672.847119,5669.106685,814.226536,6291.750507
672.847435,4213.525239,-666.185348,7476.080014
672.847751,2681.334243,-2220.617826,9326.594869
672.848067,612.876398,-3330.926739,11399.171507
672.848383,-612.876398,-3997.112087,12953.603985
672.848699,-1455.581446,-3849.070898,13915.871710
672.849014,-1608.800546,-2960.823768,13397.727550
672.849330,-995.924147,-1628.453072,12287.418637
672.849646,229.828649,-0.000000,10807.006753
672.849962,1762.019645,1480.411884,8586.388927
672.850278,3447.429741,2368.659014,7846.182985
672.850594,5056.230287,2220.617826,6143.709319
672.850909,6971.469032,1406.391290,5255.462188
672.851225,7507.735880,1554.432478,5181.441594
672.851541,7201.297681,2294.638420,5403.503377
672.851857,6358.592633,1924.535449,6143.709319
672.852173,5669.106685,962.267725,7994.224174
672.852488,3830.477490,148.041188,9474.636058
672.852804,2298.286494,-1406.391290,11251.130318
672.853120,459.657299,-1258.350101,11991.336260
672.853436,-1762.019645,-740.205942,11769.274478
672.853752,-1608.800546,-0.000000,12139.377449
672.854068,-1455.581446,518.144159,11843.295072
672.854383,-1072.533697,1258.350101,11547.212695
672.854699,-1378.971896,1036.288319,10510.924376
672.855015,-459.657299,-0.000000,10362.883188
672.855331,383.047749,-888.247130,10288.862594
672.855647,1838.629195,-666.185348,9400.615463
672.855963,2451.505594,1332.370696,8290.306550
672.856278,2757.943793,3182.885551,8068.244768
672.856594,2528.115143,3182.885551,7772.162391
672.856910,2374.896044,2516.700203,8142.265362
672.857226,2068.457845,1998.556043,8660.409521
672.857542,1302.362347,962.267725,9104.533087
672.857858,306.438199,370.102971,10436.903782
672.858173,-766.095498,-0.000000,11547.212695
672.858489,-1532.190996,518.144159,12213.398043
672.858805,-1762.019645,814.226536,11843.295072
672.859121,-1455.581446,1406.391290,11103.089130
672.859437,-1532.190996,1628.453072,10732.986159
672.859753,-1762.019645,1850.514855,10362.883188
672.860068,-612.876398,1110.308913,9252.574275
672.860384,0.000000,962.267725,8290.306550
672.860700,689.485948,888.247130,8142.265362
672.861016,306.438199,-74.020594,8364.327145
672.861332,-536.266849,-666.185348,9104.533087
672.861648,-766.095498,-1110.308913,10214.842000
672.861963,-1455.581446,-1258.350101,11177.109724
672.862279,-1838.629195,-148.041188,11473.192101
672.862595,-2374.896044,1480.411884,10732.986159
672.862911,-1762.019645,3330.926739,9400.615463
672.863227,-1072.533697,3627.009116,8882.471304
672.863542,306.438199,2960.823768,8364.327145
672.863858,689.485948,1924.535449,8216.285956
672.864174,459.657299,814.226536,8364.327145
672.864490,842.705048,-296.082377,8142.265362
672.864806,536.266849,-1480.411884,9178.553681
672.865122,536.266849,-1258.350101,10214.842000
672.865437,383.047749,-740.205942,9918.759623
672.865753,-383.047749,-0.000000,9474.636058
672.866069,-612.876398,518.144159,9326.594869
672.866385,-995.924147,222.061783,8882.471304
672.866701,153.219100,-296.082377,9770.718434
672.867017,-383.047749,-148.041188,9548.656652
672.867332,-229.828649,296.082377,9622.677246
672.867648,0.000000,-592.164754,10066.800811
672.867964,306.438199,-518.144159,10362.883188
672.868280,536.266849,-888.247130,10584.944971
672.868596,919.314598,-666.185348,10066.800811
672.868912,1685.410096,-0.000000,8956.491898
672.869227,2451.505594,222.061783,7698.141797
672.869543,4136.915689,666.185348,7254.018232
672.869859,4673.182538,740.205942,6957.935855
672.870175,3983.696590,-148.041188,7994.224174
672.870491,3600.648841,-518.144159,8290.306550
672.870807,2528.115143,-1110.308913,8290.306550
672.871122,1378.971896,-1332.370696,9918.759623
672.871438,229.828649,-1554.432478,11399.171507
672.871754,-995.924147,-1776.494261,11103.089130
672.872070,-1762.019645,-814.226536,10436.903782
672.872386,-1685.410096,-1184.329507,9992.780217
672.872701,-766.095498,-1110.308913,10510.924376
672.873017,0.000000,-2294.638420,10214.842000
672.873333,0.000000,-2072.576638,9918.759623
672.873649,229.828649,-1998.556043,9622.677246
672.873965,1225.752797,-2146.597232,9474.636058
672.874281,1915.238745,-1480.411884,9992.780217
672.874596,1838.629195,-1184.329507,9474.636058
672.874912,2298.286494,-0.000000,8290.306550
672.875228,2374.896044,888.247130,7550.100608
672.875544,2528.115143,888.247130,7402.059420
672.875860,2681.334243,740.205942,7772.162391
672.876176,1378.971896,444.123565,8290.306550
672.876491,536.266849,-296.082377,8956.491898
672.876807,-153.219100,-962.267725,9770.718434
672.877123,-1072.533697,-1628.453072,10807.006753
672.877439,-1225.752797,-2146.597232,11769.274478
672.877755,-2681.334243,-2072.576638,11695.253884
672.878071,-2451.505594,-1554.432478,10807.006753
672.878386,-2298.286494,-1628.453072,10140.821405
672.878702,-919.314598,-1184.329507,9622.677246
672.879018,-459.657299,-814.226536,9548.656652
672.879334,0.000000,-888.247130,8808.450710
672.879650,76.609550,-666.185348,8956.491898
672.879966,536.266849,-370.102971,9030.512492
672.880281,612.876398,-0.000000,9474.636058
672.880597,766.095498,222.061783,9474.636058
672.880913,76.609550,888.247130,9104.533087
672.881229,229.828649,1184.329507,8438.347739
672.881545,919.314598,1036.288319,8438.347739
672.881861,1225.752797,962.267725,8808.450710
672.882176,689.485948,296.082377,9104.533087
672.882492,229.828649,148.041188,9104.533087
672.882808,0.000000,-74.020594,9474.636058
672.883124,-229.828649,-148.041188,10066.800811
672.883440,-689.485948,-0.000000,10807.006753
672.883755,-919.314598,-0.000000,10214.842000
672.884071,-1685.410096,222.061783,9400.615463
672.884387,-1149.143247,296.082377,9104.533087
672.884703,-383.047749,148.041188,9474.636058
672.885019,-383.047749,-74.020594,9548.656652
672.885335,-766.095498,-148.041188,9992.780217
672.885650,-842.705048,-370.102971,9696.697840
672.885966,-459.657299,-222.061783,10140.821405
672.886282,0.000000,296.082377,10732.986159
672.886598,153.219100,518.144159,10881.027347
672.886914,536.266849,888.247130,9474.636058
672.887230,1302.362347,1628.453072,8438.347739
672.887545,2604.724693,2146.597232,7846.182985
672.887861,3524.039291,1850.514855,7994.224174
672.888177,3140.991542,962.267725,8142.265362
672.888493,2757.943793,962.267725,7846.182985
672.888809,1991.848295,666.185348,8364.327145
672.889125,1532.190996,444.123565,9918.759623
672.889440,1225.752797,-74.020594,10732.986159
672.889756,153.219100,-370.102971,11029.068536
672.890072,-842.705048,-296.082377,10881.027347
672.890388,-459.657299,-148.041188,10436.903782
672.890704,0.000000,-666.185348,10732.986159
672.891020,76.609550,-740.205942,10955.047942
672.891335,229.828649,-444.123565,10288.862594
672.891651,612.876398,-518.144159,10140.821405
672.891967,1225.752797,-296.082377,10140.821405
672.892283,1762.019645,-0.000000,10140.821405
672.892599,2298.286494,740.205942,9992.780217
672.892915,2221.676944,1776.494261,9104.533087
672.893230,2911.162892,2146.597232,7846.182985
672.893546,3983.696590,1924.535449,7105.977043
672.893862,4213.525239,1554.432478,7994.224174
672.894178,3677.258390,740.205942,8364.327145
672.894494,2298.286494,222.061783,8290.306550
672.894809,1149.143247,-518.144159,8660.409521
672.895125,153.219100,-370.102971,10510.924376
672.895441,-536.266849,-666.185348,11399.171507
672.895757,-1685.410096,-740.205942,11103.089130
672.896073,-2451.505594,-1110.308913,10807.006753
672.896389,-2528.115143,-1184.329507,10436.903782
672.896704,-1762.019645,-1850.514855,10510.924376
672.897020,-995.924147,-1480.411884,10436.903782
672.897336,-766.095498,-1332.370696,9770.718434
672.897652,-612.876398,-1406.391290,8882.471304
672.897968,229.828649,-666.185348,9030.512492
672.898284,383.047749,-74.020594,9178.553681
672.898599,766.095498,740.205942,9178.553681
672.898915,766.095498,518.144159,8290.306550
672.899231,689.485948,740.205942,7772.162391
672.899547,1302.362347,296.082377,7550.100608
672.899863,1762.019645,-296.082377,8364.327145
672.900179,1302.362347,-666.185348,8660.409521
672.900494,229.828649,-1110.308913,8882.471304
672.900810,-383.047749,-1480.411884,9252.574275
672.901126,-1072.533697,-1702.473667,9918.759623
672.901442,-1302.362347,-1406.391290,10436.903782
672.901758,-2374.896044,-1258.350101,10436.903782
672.902074,-2221.676944,-2146.597232,10288.862594
672.902389,-2451.505594,-1998.556043,9474.636058
672.902705,-1608.800546,-1776.494261,9104.533087
672.903021,-689.485948,-2220.617826,9844.739029
672.903337,-689.485948,-2294.638420,9622.677246
672.903653,0.000000,-1924.535449,9474.636058
672.903968,0.000000,-1628.453072,9696.697840
672.904284,383.047749,-740.205942,9992.780217
672.904600,689.485948,222.061783,9918.759623
672.904916,995.924147,1258.350101,8882.471304
672.905232,1302.362347,1332.370696,8438.347739
672.905548,2068.457845,1184.329507,7624.121203
672.905863,2834.553343,962.267725,8290.306550
672.906179,2681.334243,444.123565,8586.388927
672.906495,2451.505594,-296.082377,8808.450710
672.906811,1225.752797,-740.205942,9622.677246
672.907127,766.095498,-740.205942,10066.800811
672.907443,153.219100,-1036.288319,11251.130318
672.907758,-536.266849,-888.247130,11177.109724
672.908074,-1378.971896,-740.205942,10658.965565
672.908390,-1072.533697,-888.247130,9992.780217
672.908706,-306.438199,-740.205942,10066.800811
672.909022,383.047749,-888.247130,10140.821405
672.909338,229.828649,-888.247130,9992.780217
672.909653,536.266849,-888.247130,9326.594869
672.909969,919.314598,-592.164754,9178.553681
672.910285,1532.190996,-222.061783,9844.739029
672.910601,2145.067394,518.144159,9474.636058
672.910917,2298.286494,1258.350101,8660.409521
672.911233,2298.286494,1258.350101,7846.182985
672.911548,3140.991542,1850.514855,7402.059420
672.911864,3600.648841,1850.514855,7920.203579
672.912180,2834.553343,962.267725,8290.306550
672.912496,1915.238745,-0.000000,8734.430116
672.912812,919.314598,-370.102971,9178.553681
672.913128,0.000000,-888.247130,10658.965565
672.913443,-766.095498,-1036.288319,11547.212695
672.913759,-1455.581446,-444.123565,11769.274478
672.914075,-2298.286494,-370.102971,10658.965565
672.914391,-2451.505594,-296.082377,10510.924376
672.914707,-1378.971896,-296.082377,10288.862594
672.915022,-689.485948,-0.000000,9992.780217
672.915338,0.000000,-0.000000,9548.656652
672.915654,229.828649,-888.247130,9474.636058
672.915970,383.047749,-74.020594,9178.553681
672.916286,1302.362347,296.082377,9326.594869
672.916602,1762.019645,740.205942,9474.636058
672.916917,1838.629195,1554.432478,9030.512492
672.917233,1838.629195,1554.432478,7994.224174
672.917549,1991.848295,1628.453072,7698.141797
672.917865,2374.896044,1406.391290,8290.306550
672.918181,1915.238745,888.247130,8660.409521
672.918497,766.095498,444.123565,8808.450710
672.918812,536.266849,-370.102971,8956.491898
672.919128,-919.314598,-888.247130,10140.821405
672.919444,-1455.581446,-1332.370696,11473.192101
672.919760,-2221.676944,-666.185348,11621.233289
672.920076,-2681.334243,-740.205942,10584.944971
672.920392,-2298.286494,-962.267725,9992.780217
672.920707,-1608.800546,-814.226536,10362.883188
672.921023,-689.485948,-444.123565,9992.780217
672.921339,-766.095498,-444.123565,9474.636058
672.921655,0.000000,-592.164754,9326.594869
672.921971,536.266849,-592.164754,8882.471304
672.922287,612.876398,-222.061783,9696.697840
672.922602,1302.362347,222.061783,9696.697840
672.922918,1532.190996,814.226536,8956.491898
672.923234,1149.143247,1184.329507,8068.244768
672.923550,1378.971896,814.226536,7772.162391
672.923866,2068.457845,148.041188,8734.430116
672.924182,1838.629195,-296.082377,9252.574275
672.924497,766.095498,-666.185348,9178.553681
672.924813,229.828649,-814.226536,9548.656652
672.925129,-229.828649,-1258.350101,9918.759623
672.925445,-536.266849,-1036.288319,11103.089130
672.925761,-689.485948,-1110.308913,11399.171507
672.926076,-1072.533697,-1110.308913,10584.944971
672.926392,-1149.143247,-814.226536,9548.656652
672.926708,0.000000,-888.247130,9326.594869
672.927024,919.314598,-888.247130,9918.759623
672.927340,1149.143247,-814.226536,9400.615463
672.927656,1378.971896,-666.185348,8586.388927
672.927971,1302.362347,-370.102971,8956.491898
672.928287,1915.238745,-148.041188,9104.533087
672.928603,2221.676944,222.061783,9548.656652
672.928919,2145.067394,740.205942,8956.491898
672.929235,1838.629195,666.185348,8364.327145
672.929551,2451.505594,592.164754,8068.244768
672.929866,3140.991542,444.123565,8290.306550
672.930182,2604.724693,-74.020594,8882.471304
672.930498,1532.190996,-296.082377,9178.553681
672.930814,1149.143247,-740.205942,9400.615463
672.931130,612.876398,-962.267725,9844.739029
672.931446,0.000000,-592.164754,11029.068536
672.931761,-612.876398,-370.102971,10955.047942
672.932077,-919.314598,-888.247130,10214.842000
672.932393,-229.828649,-888.247130,9770.718434
672.932709,0.000000,-814.226536,9474.636058
672.933025,76.609550,-592.164754,9696.697840
672.933341,459.657299,-592.164754,9696.697840
672.933656,536.266849,-222.061783,9252.574275
672.933972,612.876398,-444.123565,8882.471304
672.934288,689.485948,-0.000000,9400.615463
672.934604,1149.143247,296.082377,10140.821405
672.934920,1225.752797,444.123565,9548.656652
672.935236,1149.143247,814.226536,8808.450710
672.935551,1149.143247,1406.391290,8438.347739
672.935867,1838.629195,1110.308913,8290.306550
672.936183,1762.019645,-148.041188,8956.491898
672.936499,459.657299,518.144159,9030.512492
672.936815,-536.266849,-222.061783,8956.491898
672.937130,-689.485948,-1702.473667,10807.006753
672.937446,-1378.971896,-814.226536,11029.068536
672.937762,-2221.676944,-888.247130,11473.192101
672.938078,-2374.896044,-666.185348,10955.047942
672.938394,-2221.676944,-888.247130,10066.800811
672.938710,-1072.533697,-296.082377,9030.512492
672.939025,229.828649,-0.000000,9622.677246
672.939341,-306.438199,-222.061783,9178.553681
672.939657,383.047749,-592.164754,9548.656652
672.939973,153.219100,-962.267725,8956.491898
672.940289,612.876398,-444.123565,9770.718434
672.940605,1072.533697,-0.000000,9844.739029
672.940920,1378.971896,666.185348,9400.615463
672.941236,1225.752797,1480.411884,8068.244768
672.941552,1838.629195,1332.370696,7772.162391
672.941868,2451.505594,1628.453072,8142.265362
672.942184,2374.896044,888.247130,8586.388927
672.942500,1532.190996,-148.041188,8882.471304
672.942815,536.266849,-888.247130,9030.512492
672.943131,-153.219100,-962.267725,9548.656652
672.943447,-383.047749,-814.226536,10955.047942
672.943763,-1072.533697,-222.061783,11177.109724
672.944079,-1608.800546,-0.000000,10510.924376
672.944395,-1532.190996,-74.020594,9992.780217
672.944710,-766.095498,-740.205942,9474.636058
672.945026,536.266849,-1258.350101,10288.862594
672.945342,306.438199,-592.164754,9770.718434
672.945658,306.438199,-666.185348,9400.615463
672.945974,842.705048,-666.185348,9622.677246
672.946289,1225.752797,-148.041188,9400.615463
672.946605,1455.581446,296.082377,10214.842000
672.946921,1685.410096,888.247130,9326.594869
672.947237,1685.410096,962.267725,8364.327145
672.947552,2145.067394,1110.308913,7698.141797
672.947868,3064.381992,740.205942,8068.244768
672.948184,3140.991542,444.123565,8734.430116
672.948500,2374.896044,-148.041188,8660.409521
672.948815,919.314598,-740.205942,8808.450710
672.949131,383.047749,-1110.308913,9770.718434
672.949447,0.000000,-1406.391290,10955.047942
672.949763,-919.314598,-1332.370696,11103.089130
672.950078,-1455.581446,-962.267725,10584.944971
672.950394,-1532.190996,-888.247130,9770.718434
672.950710,-1225.752797,-1110.308913,9548.656652
672.951025,0.000000,-1480.411884,9844.739029
672.951341,153.219100,-1480.411884,9548.656652
672.951657,0.000000,-1036.288319,9400.615463
672.951973,536.266849,-1110.308913,9104.533087
672.952288,995.924147,-1036.288319,9622.677246
672.952604,995.924147,-0.000000,9622.677246
672.952920,1378.971896,296.082377,9104.533087
672.953236,1608.800546,962.267725,8142.265362
672.953551,2145.067394,1036.288319,7920.203579
672.953867,2451.505594,1184.329507,7846.182985
672.954183,2451.505594,1184.329507,8734.430116
672.954499,1608.800546,-0.000000,8808.450710
672.954814,689.485948,296.082377,9030.512492
672.955130,0.000000,-592.164754,9474.636058
672.955446,-842.705048,-666.185348,10510.924376
672.955762,-1225.752797,-962.267725,11547.212695
672.956077,-2221.676944,-740.205942,10955.047942
672.956393,-2374.896044,-666.185348,10436.903782
672.956709,-1915.238745,-444.123565,9918.759623
672.957025,-612.876398,-740.205942,9844.739029
672.957340,0.000000,-666.185348,10066.800811
672.957656,0.000000,-370.102971,9326.594869
672.957972,0.000000,-518.144159,9030.512492
672.958287,842.705048,-518.144159,9474.636058
672.958603,1378.971896,-0.000000,9696.697840
672.958919,1302.362347,740.205942,9474.636058
672.959235,1608.800546,1406.391290,8438.347739
672.959550,1838.629195,1850.514855,7698.141797
672.959866,2451.505594,1776.494261,7624.121203
672.960182,2374.896044,1184.329507,8438.347739
672.960498,1455.581446,370.102971,8808.450710
672.960813,306.438199,-370.102971,9474.636058
672.961129,-153.219100,-962.267725,10140.821405
672.961445,-766.095498,-814.226536,10955.047942
672.961761,-919.314598,-888.247130,11843.295072
672.962076,-1685.410096,-740.205942,10881.027347
672.962392,-2145.067394,-370.102971,10214.842000
672.962708,-1455.581446,-666.185348,9992.780217
672.963024,-689.485948,-740.205942,10140.821405
672.963339,0.000000,-1110.308913,9844.739029
672.963655,0.000000,-1036.288319,9400.615463
672.963971,76.609550,-592.164754,9104.533087
672.964287,995.924147,-518.144159,9622.677246
672.964602,1378.971896,-0.000000,9696.697840
672.964918,1915.238745,962.267725,9548.656652
672.965234,1762.019645,1110.308913,8512.368333
672.965549,2221.676944,1406.391290,7624.121203
672.965865,2604.724693,1184.329507,7624.121203
672.966181,3677.258390,370.102971,8586.388927
672.966497,1991.848295,148.041188,9252.574275
672.966812,1685.410096,-222.061783,9178.553681
672.967128,766.095498,-592.164754,9326.594869
672.967444,-153.219100,-962.267725,10214.842000
672.967760,-766.095498,-740.205942,11325.150913
672.968075,-1149.143247,-666.185348,10510.924376
672.968391,-1378.971896,-592.164754,9844.739029
672.968707,-766.095498,-444.123565,9622.677246
672.969023,-229.828649,-592.164754,9844.739029
672.969338,229.828649,-592.164754,9992.780217
672.969654,459.657299,-592.164754,9252.574275
672.969970,383.047749,-222.061783,9104.533087
672.970286,919.314598,-148.041188,9548.656652
672.970601,1378.971896,444.123565,9548.656652
672.970917,1378.971896,666.185348,9474.636058
672.971233,1225.752797,962.267725,8956.491898
672.971549,1685.410096,962.267725,7920.203579
672.971864,2145.067394,1184.329507,7550.100608
672.972180,2451.505594,888.247130,8586.388927
672.972496,1608.800546,222.061783,8956.491898
672.972811,689.485948,-0.000000,8512.368333
672.973127,-229.828649,-518.144159,9326.594869
672.973443,-766.095498,-1110.308913,10658.965565
672.973759,-1149.143247,-1036.288319,11473.192101
672.974074,-2298.286494,-1184.329507,10807.006753
672.974390,-2451.505594,-1258.350101,10362.883188
672.974706,-1991.848295,-1332.370696,9844.739029
672.975022,-842.705048,-1036.288319,9992.780217
672.975337,-689.485948,-1036.288319,9696.697840
672.975653,-919.314598,-1184.329507,9548.656652
672.975969,-383.047749,-962.267725,9178.553681
672.976285,153.219100,-740.205942,9178.553681
672.976600,1072.533697,-222.061783,9548.656652
672.976916,1149.143247,296.082377,9548.656652
672.977232,1378.971896,740.205942,8512.368333
672.977548,1225.752797,518.144159,7994.224174
672.977863,2221.676944,666.185348,7994.224174
672.978179,2145.067394,-0.000000,8586.388927
672.978495,1455.581446,-0.000000,8734.430116
672.978811,842.705048,-370.102971,9252.574275
672.979126,-229.828649,-1332.370696,9770.718434
672.979442,-919.314598,-1110.308913,10807.006753
672.979758,-1302.362347,-1110.308913,11473.192101
672.980073,-1915.238745,-518.144159,11177.109724
672.980389,-1991.848295,-740.205942,10510.924376
672.980705,-1532.190996,-1036.288319,9548.656652
672.981021,-306.438199,-1110.308913,9918.759623
672.981336,0.000000,-962.267725,9992.780217
672.981652,459.657299,-814.226536,9548.656652
672.981968,766.095498,-814.226536,9104.533087
672.982284,842.705048,-222.061783,9104.533087
672.982599,1991.848295,222.061783,9770.718434
672.982915,2451.505594,444.123565,9548.656652
672.983231,2374.896044,1332.370696,8660.409521
672.983547,2221.676944,1332.370696,7624.121203
672.983862,2681.334243,888.247130,7920.203579
672.984178,3140.991542,518.144159,8586.388927
672.984494,2221.676944,444.123565,9030.512492
672.984810,1532.190996,-74.020594,8660.409521
672.985125,842.705048,-592.164754,9104.533087
672.985441,0.000000,-962.267725,10510.924376
672.985757,-459.657299,-888.247130,11399.171507
672.986073,-919.314598,-666.185348,11251.130318
672.986388,-1685.410096,-370.102971,10436.903782
672.986704,-689.485948,-222.061783,9474.636058
672.987020,229.828649,-74.020594,9696.697840
672.987335,536.266849,-0.000000,9696.697840
672.987651,766.095498,-0.000000,9474.636058
672.987967,1149.143247,-222.061783,9030.512492
672.988283,995.924147,-0.000000,9326.594869
672.988598,1532.190996,444.123565,9770.718434
672.988914,2374.896044,666.185348,9696.697840
672.989230,1915.238745,1702.473667,8586.388927
672.989546,1685.410096,1628.453072,7772.162391
672.989861,2298.286494,1258.350101,7698.141797
672.990177,2451.505594,962.267725,8068.244768
672.990493,2068.457845,-0.000000,9178.553681
672.990809,919.314598,-518.144159,9326.594869
672.991124,76.609550,-962.267725,9622.677246
672.991440,-766.095498,-1258.350101,10584.944971
672.991756,-1149.143247,-1110.308913,11547.212695
672.992072,-2068.457845,-1110.308913,11251.130318
672.992387,-2451.505594,-888.247130,10436.903782
672.992703,-2145.067394,-814.226536,9992.780217
672.993019,-995.924147,-962.267725,9918.759623
672.993335,-229.828649,-666.185348,9622.677246
672.993650,-383.047749,-814.226536,9474.636058
672.993966,0.000000,-518.144159,9252.574275
672.994282,459.657299,-592.164754,9400.615463
672.994597,766.095498,-0.000000,9548.656652
672.994913,1149.143247,370.102971,9918.759623
672.995229,995.924147,592.164754,8956.491898
672.995545,1378.971896,740.205942,7994.224174
672.995860,1915.238745,666.185348,7624.121203
672.996176,2298.286494,222.061783,8808.450710
672.996492,1608.800546,-74.020594,9252.574275
672.996808,459.657299,-518.144159,9696.697840
672.997123,0.000000,-740.205942,9326.594869
672.997439,-612.876398,-962.267725,10140.821405
672.997755,-1072.533697,-888.247130,11103.089130
672.998071,-1225.752797,-962.267725,10732.986159
672.998386,-1915.238745,-1036.288319,10362.883188
672.998702,-1608.800546,-962.267725,9474.636058
672.999018,-995.924147,-1110.308913,9696.697840
672.999334,-153.219100,-1258.350101,10214.842000
672.999649,0.000000,-888.247130,9844.739029
672.999965,0.000000,-814.226536,9030.512492
673.000281,689.485948,-888.247130,9474.636058
673.000597,1225.752797,-370.102971,9622.677246
673.000912,1762.019645,-0.000000,9696.697840
673.001228,1378.971896,592.164754,8734.430116
673.001544,1608.800546,962.267725,7846.182985
673.001859,2221.676944,666.185348,7624.121203
673.002175,2681.334243,814.226536,8068.244768
673.002491,2298.286494,370.102971,8660.409521
673.002807,1915.238745,-444.123565,8660.409521
673.003122,612.876398,-518.144159,9178.553681
673.003438,0.000000,-888.247130,10362.883188
673.003754,-689.485948,-1184.329507,11251.130318
673.004070,-919.314598,-962.267725,10881.027347
673.004385,-1685.410096,-666.185348,10584.944971
673.004701,-1532.190996,-666.185348,9474.636058
673.005017,-689.485948,-740.205942,10066.800811
673.005333,0.000000,-666.185348,9918.759623
673.005648,0.000000,-518.144159,9252.574275
673.005964,229.828649,-888.247130,9030.512492
673.006280,536.266849,-814.226536,9104.533087
673.006596,1302.362347,-370.102971,9770.718434
673.006911,1762.019645,-0.000000,9622.677246
673.007227,1762.019645,666.185348,8808.450710
673.007543,1608.800546,1332.370696,7772.162391
673.007858,2681.334243,1554.432478,7105.977043
673.008174,2757.943793,1036.288319,7920.203579
673.008490,2221.676944,666.185348,8586.388927
673.008806,1225.752797,-148.041188,8660.409521
673.009121,306.438199,-518.144159,9252.574275
673.009437,0.000000,-1036.288319,9992.780217
673.009753,-766.095498,-740.205942,10881.027347
673.010069,-1608.800546,-666.185348,10881.027347
673.010384,-2145.067394,-592.164754,10732.986159
673.010700,-2068.457845,-296.082377,9770.718434
673.011016,-919.314598,-296.082377,9918.759623
673.011332,-612.876398,-444.123565,9844.739029
673.011647,-383.047749,-370.102971,9770.718434
673.011963,0.000000,-740.205942,9696.697840
673.012279,306.438199,-518.144159,9548.656652
673.012595,612.876398,222.061783,9844.739029
673.012910,1149.143247,814.226536,9918.759623
673.013226,1532.190996,1998.556043,8734.430116
673.013542,1762.019645,1184.329507,8364.327145
673.013858,1915.238745,1628.453072,8068.244768
673.014173,2068.457845,1554.432478,8216.285956
673.014489,1838.629195,296.082377,9326.594869
673.014805,995.924147,518.144159,9548.656652
673.015120,383.047749,-222.061783,9178.553681
673.015436,-306.438199,-370.102971,10214.842000
673.015752,-306.438199,-444.123565,11547.212695
673.016068,-1072.533697,-370.102971,11177.109724
673.016383,-1225.752797,-222.061783,11177.109724
673.016699,-1455.581446,-0.000000,9548.656652
673.017015,-383.047749,-296.082377,9918.759623
673.017331,306.438199,-0.000000,9696.697840
673.017646,0.000000,-444.123565,9696.697840
673.017962,383.047749,-222.061783,9326.594869
673.018278,766.095498,-222.061783,9178.553681
673.018594,1149.143247,-0.000000,9696.697840
673.018909,1532.190996,296.082377,10288.862594
673.019225,1762.019645,962.267725,9030.512492
673.019541,1532.190996,1554.432478,7994.224174
673.019857,2221.676944,1480.411884,7772.162391
673.020172,2834.553343,814.226536,8808.450710
673.020488,2451.505594,592.164754,8882.471304
673.020804,1685.410096,444.123565,8956.491898
673.021120,919.314598,-740.205942,8956.491898
673.021435,0.000000,-1406.391290,10288.862594
673.021751,0.000000,-1258.350101,11103.089130
673.022067,-1149.143247,-1258.350101,10881.027347
673.022382,-1608.800546,-1036.288319,10584.944971
673.022698,-1532.190996,-888.247130,9548.656652
673.023014,-1072.533697,-1036.288319,9474.636058
673.023330,0.000000,-814.226536,9918.759623
673.023645,-229.828649,-1258.350101,9400.615463
673.023961,76.609550,-1480.411884,9326.594869
673.024277,383.047749,-1480.411884,9178.553681
673.024593,459.657299,-1332.370696,9918.759623
673.024908,1225.752797,-814.226536,10066.800811
673.025224,1072.533697,-0.000000,8956.491898
673.025540,1378.971896,518.144159,7846.182985
673.025856,1762.019645,740.205942,7550.100608
673.026171,2298.286494,518.144159,7772.162391
673.026487,2068.457845,148.041188,8364.327145
673.026803,995.924147,-740.205942,8512.368333
673.027119,153.219100,-1776.494261,9326.594869
673.027434,-459.657299,-1850.514855,10214.842000
673.027750,-612.876398,-1554.432478,10584.944971
673.028066,-1532.190996,-1184.329507,10732.986159
673.028382,-2528.115143,-1480.411884,10362.883188
673.028697,-1991.848295,-1036.288319,9474.636058
673.029013,-1302.362347,-1036.288319,9326.594869
673.029329,-536.266849,-1258.350101,9770.718434
673.029644,-536.266849,-1628.453072,9696.697840
673.029960,-306.438199,-1998.556043,9178.553681
673.030276,0.000000,-1184.329507,9326.594869
673.030592,842.705048,-592.164754,9474.636058
673.030907,1302.362347,-0.000000,9696.697840
673.031223,1608.800546,222.061783,9030.512492
673.031539,1072.533697,444.123565,8290.306550
673.031855,1685.410096,888.247130,7772.162391
673.032170,2451.505594,666.185348,7846.182985
673.032486,2451.505594,740.205942,8512.368333
673.032802,1532.190996,444.123565,8882.471304
673.033118,612.876398,-444.123565,9252.574275
673.033433,0.000000,-592.164754,10066.800811
673.033749,-383.047749,-296.082377,10955.047942
673.034065,-842.705048,-518.144159,11029.068536
673.034381,-1762.019645,-518.144159,10881.027347
673.034696,-1838.629195,-888.247130,10510.924376
673.035012,-995.924147,-222.061783,10066.800811
673.035328,0.000000,-370.102971,10362.883188
673.035644,0.000000,-222.061783,9918.759623
673.035959,0.000000,-370.102971,9548.656652
673.036275,306.438199,-74.020594,9400.615463
673.036591,1149.143247,-0.000000,9770.718434
673.036906,1532.190996,592.164754,10066.800811
673.037222,1838.629195,1554.432478,9326.594869
673.037538,1762.019645,1628.453072,8586.388927
673.037854,1991.848295,1406.391290,8068.244768
673.038169,2604.724693,1480.411884,8216.285956
673.038485,2528.115143,1406.391290,8734.430116
673.038801,1608.800546,666.185348,9252.574275
673.039117,612.876398,148.041188,9474.636058
673.039432,153.219100,-222.061783,10140.821405
673.039748,-842.705048,-518.144159,11177.109724
673.040064,-995.924147,-592.164754,11843.295072
673.040380,-1915.238745,-518.144159,11251.130318
673.040695,-1991.848295,-1184.329507,10584.944971
673.041011,-1302.362347,-444.123565,10140.821405
673.041327,-229.828649,-370.102971,10066.800811
673.041643,76.609550,-222.061783,9992.780217
673.041958,76.609550,-0.000000,9252.574275
673.042274,459.657299,-0.000000,9252.574275
673.042590,1149.143247,-0.000000,9918.759623
673.042906,1455.581446,222.061783,9548.656652
673.043221,1455.581446,962.267725,9252.574275
673.043537,1532.190996,1554.432478,8142.265362
673.043853,2374.896044,1702.473667,7772.162391
673.044168,3064.381992,1406.391290,8068.244768
673.044484,2834.553343,1332.370696,8142.265362
673.044800,1991.848295,814.226536,8438.347739
673.045116,995.924147,-0.000000,8660.409521
673.045431,229.828649,-814.226536,9622.677246
673.045747,-536.266849,-962.267725,10807.006753
673.046063,-919.314598,-1110.308913,11399.171507
673.046379,-1762.019645,-740.205942,10732.986159
673.046694,-1915.238745,-592.164754,9918.759623
673.047010,-1302.362347,-592.164754,9770.718434
673.047326,-383.047749,-518.144159,9844.739029
673.047641,0.000000,-592.164754,9622.677246
673.047957,76.609550,-962.267725,9030.512492
673.048273,459.657299,-1184.329507,8882.471304
673.048588,919.314598,-1110.308913,9696.697840
673.048904,1455.581446,-222.061783,9400.615463
673.049220,1608.800546,740.205942,9104.533087
673.049535,1685.410096,962.267725,8142.265362
673.049851,2145.067394,1554.432478,7328.038826
673.050167,2604.724693,1036.288319,7476.080014
673.050482,2451.505594,296.082377,8142.265362
673.050798,1378.971896,-296.082377,9104.533087
673.051114,919.314598,-592.164754,9178.553681
673.051429,0.000000,-1480.411884,9770.718434
673.051745,-689.485948,-1332.370696,10807.006753
673.052061,-1302.362347,-1184.329507,11399.171507
673.052376,-2451.505594,-888.247130,10658.965565
673.052692,-2145.067394,-1110.308913,10140.821405
673.053008,-1991.848295,-1628.453072,10288.862594
673.053323,-995.924147,-1702.473667,10362.883188
673.053639,-842.705048,-1776.494261,10288.862594
673.053955,-383.047749,-1480.411884,9696.697840
673.054270,0.000000,-1184.329507,9178.553681
673.054586,612.876398,-592.164754,9400.615463
673.054902,1378.971896,148.041188,9696.697840
673.055217,1455.581446,518.144159,9178.553681
673.055533,1685.410096,888.247130,8438.347739
673.055849,2221.676944,962.267725,7624.121203
673.056164,2681.334243,592.164754,7994.224174
673.056480,2757.943793,370.102971,8734.430116
673.056796,1838.629195,222.061783,8882.471304
673.057111,766.095498,-296.082377,9030.512492
673.057427,153.219100,-814.226536,9622.677246
673.057743,-536.266849,-962.267725,10807.006753
673.058058,-1072.533697,-1036.288319,11621.233289
673.058374,-2298.286494,-1332.370696,11251.130318
673.058690,-2451.505594,-1184.329507,10510.924376
673.059005,-1762.019645,-1184.329507,10214.842000
673.059321,-536.266849,-1110.308913,10066.800811
673.059636,-536.266849,-888.247130,9992.780217
673.059952,0.000000,-888.247130,9474.636058
673.060268,383.047749,-814.226536,9400.615463
673.060583,1072.533697,-222.061783,9326.594869
673.060899,1838.629195,-74.020594,9474.636058
673.061215,2068.457845,518.144159,9326.594869
673.061530,1608.800546,888.247130,8364.327145
673.061846,2451.505594,1258.350101,7105.977043
673.062162,2911.162892,1332.370696,7698.141797
673.062477,2911.162892,814.226536,8068.244768
673.062793,1991.848295,444.123565,8882.471304
673.063109,1302.362347,-148.041188,8882.471304
673.063424,153.219100,-592.164754,9474.636058
673.063740,-229.828649,-888.247130,10955.047942
673.064056,-612.876398,-888.247130,11473.192101
673.064371,-1532.190996,-666.185348,10955.047942
673.064687,-2374.896044,-814.226536,10288.862594
673.065003,-1532.190996,-518.144159,9770.718434
673.065318,-306.438199,-370.102971,9992.780217
673.065634,-229.828649,-444.123565,9992.780217
673.065950,-153.219100,-74.020594,9326.594869
673.066265,229.828649,-0.000000,9104.533087
673.066581,766.095498,-444.123565,9474.636058
673.066897,1225.752797,296.082377,9770.718434
673.067212,1532.190996,1184.329507,9030.512492
673.067528,1762.019645,1554.432478,8290.306550
673.067844,2451.505594,1628.453072,7550.100608
673.068159,2911.162892,1850.514855,7920.203579
673.068475,2834.553343,1184.329507,8512.368333
673.068791,2451.505594,592.164754,8808.450710
673.069106,1072.533697,296.082377,8734.430116
673.069422,1225.752797,-666.185348,9474.636058
673.069738,-306.438199,-592.164754,10807.006753
673.070053,-995.924147,-518.144159,11325.150913
673.070369,-2068.457845,-370.102971,11103.089130
673.070685,-2298.286494,-592.164754,10288.862594
673.071000,-1685.410096,-740.205942,9918.759623
673.071316,-1149.143247,-370.102971,10510.924376
673.071632,-383.047749,-666.185348,10362.883188
673.071947,-612.876398,-740.205942,9696.697840
673.072263,-229.828649,-666.185348,9548.656652
673.072579,229.828649,-888.247130,9622.677246
673.072894,766.095498,-0.000000,10140.821405
673.073210,1225.752797,740.205942,9696.697840
673.073525,1532.190996,1554.432478,8586.388927
673.073841,1915.238745,1998.556043,7624.121203
673.074157,3064.381992,1628.453072,7624.121203
673.074472,3294.210641,888.247130,8290.306550
673.074788,2374.896044,444.123565,8586.388927
673.075104,1532.190996,-0.000000,8586.388927
673.075419,919.314598,-444.123565,9178.553681
673.075735,0.000000,-518.144159,10510.924376
673.076051,-383.047749,-740.205942,11251.130318
673.076366,-1608.800546,-814.226536,10732.986159
673.076682,-2145.067394,-666.185348,10140.821405
673.076998,-1532.190996,-1184.329507,9918.759623
673.077313,-689.485948,-1628.453072,10140.821405
673.077629,-306.438199,-1184.329507,9844.739029
673.077945,-459.657299,-1258.350101,9474.636058
673.078260,0.000000,-1406.391290,9104.533087
673.078576,766.095498,-1480.411884,9548.656652
673.078892,919.314598,-666.185348,10066.800811
673.079207,1532.190996,-0.000000,9548.656652
673.079523,1455.581446,888.247130,8808.450710
673.079839,2221.676944,1036.288319,7994.224174
673.080154,2911.162892,1110.308913,7624.121203
673.080470,3370.820191,1332.370696,8068.244768
673.080786,2834.553343,222.061783,8512.368333
673.081101,1915.238745,-74.020594,8216.285956
673.081417,1072.533697,-666.185348,9030.512492
673.081733,153.219100,-1332.370696,10436.903782
673.082048,0.000000,-962.267725,11103.089130
673.082364,-1532.190996,-666.185348,10955.047942
673.082680,-2068.457845,-740.205942,10140.821405
673.082995,-1532.190996,-888.247130,9548.656652
673.083311,-919.314598,-1184.329507,9918.759623
673.083627,-612.876398,-1480.411884,10214.842000
673.083942,-995.924147,-1628.453072,9992.780217
673.084258,-459.657299,-1406.391290,9622.677246
673.084574,-229.828649,-1406.391290,9770.718434
673.084889,689.485948,-1036.288319,9992.780217
673.085205,919.314598,-0.000000,9844.739029
673.085521,1072.533697,888.247130,8882.471304
673.085836,1378.971896,1110.308913,7846.182985
673.086152,2374.896044,814.226536,7254.018232
673.086468,3064.381992,888.247130,7772.162391
673.086783,2451.505594,370.102971,8142.265362
673.087099,1608.800546,-0.000000,8290.306550
673.087414,919.314598,-518.144159,8586.388927
673.087730,229.828649,-1036.288319,10214.842000
673.088046,-459.657299,-666.185348,10658.965565
673.088361,-1072.533697,-1036.288319,10955.047942
673.088677,-2374.896044,-1184.329507,9992.780217
673.088993,-2068.457845,-1480.411884,9918.759623
673.089308,-1455.581446,-1406.391290,10362.883188
673.089624,-919.314598,-1110.308913,10362.883188
673.089940,-995.924147,-1110.308913,9844.739029
673.090255,-689.485948,-1258.350101,9178.553681
673.090571,0.000000,-1110.308913,9178.553681
673.090887,229.828649,-518.144159,10140.821405
673.091202,766.095498,-222.061783,10066.800811
673.091518,995.924147,222.061783,9104.533087
673.091834,1149.143247,888.247130,8142.265362
673.092149,2374.896044,1036.288319,7772.162391
673.092465,2528.115143,888.247130,7920.203579
673.092781,2451.505594,814.226536,8438.347739
673.093096,1685.410096,370.102971,8660.409521
673.093412,1149.143247,-222.061783,8660.409521
673.093728,229.828649,-444.123565,9770.718434
673.094043,0.000000,-740.205942,11103.089130
673.094359,-919.314598,-814.226536,10881.027347
673.094675,-1685.410096,-518.144159,10510.924376
673.094990,-1302.362347,-444.123565,9992.780217
673.095306,-766.095498,-962.267725,10066.800811
673.095622,-306.438199,-740.205942,10288.862594
673.095937,0.000000,-518.144159,10140.821405
673.096253,0.000000,-740.205942,9474.636058
673.096569,459.657299,-370.102971,9992.780217
673.096884,1072.533697,222.061783,9548.656652
673.097200,1685.410096,740.205942,9770.718434
673.097516,1991.848295,1332.370696,9104.533087
673.097831,1915.238745,1480.411884,7624.121203
673.098147,2834.553343,1406.391290,7624.121203
673.098463,3294.210641,1036.288319,8216.285956
673.098778,2834.553343,888.247130,8586.388927
673.099094,1991.848295,666.185348,8660.409521
673.099410,1225.752797,148.041188,8956.491898
673.099725,0.000000,-444.123565,9844.739029
673.100041,0.000000,-370.102971,10807.006753
673.100357,-919.314598,-370.102971,11029.068536
673.100672,-2298.286494,-814.226536,10584.944971
673.100988,-1991.848295,-888.247130,9992.780217
673.101303,-1072.533697,-814.226536,10066.800811
673.101619,-766.095498,-666.185348,9992.780217
673.101935,-766.095498,-592.164754,9992.780217
673.102250,-536.266849,-740.205942,9548.656652
673.102566,-153.219100,-518.144159,9918.759623
673.102882,766.095498,-74.020594,9844.739029
673.103197,1072.533697,518.144159,9548.656652
673.103513,1302.362347,1110.308913,8882.471304
673.103829,1608.800546,1776.494261,7772.162391
673.104144,2068.457845,1554.432478,7402.059420
673.104460,2681.334243,1036.288319,7772.162391
673.104776,2145.067394,518.144159,8734.430116
673.105091,1378.971896,148.041188,8438.347739
673.105407,612.876398,-74.020594,8882.471304
673.105723,0.000000,-666.185348,10510.924376
673.106038,-919.314598,-1110.308913,11103.089130
673.106354,-1532.190996,-444.123565,11251.130318
673.106670,-2221.676944,-592.164754,10214.842000
673.106985,-2298.286494,-666.185348,9918.759623
673.107301,-1225.752797,-1036.288319,10362.883188
673.107617,-766.095498,-666.185348,9844.739029
673.107932,-459.657299,-666.185348,9918.759623
673.108248,-383.047749,-1036.288319,9252.574275
673.108564,0.000000,-1036.288319,9400.615463
673.108879,842.705048,-814.226536,10066.800811
673.109195,1378.971896,-74.020594,9918.759623
673.109511,1225.752797,740.205942,8882.471304
673.109826,1762.019645,1406.391290,8068.244768
673.110142,2374.896044,1332.370696,7698.141797
673.110458,3447.429741,1406.391290,8068.244768
673.110773,2757.943793,814.226536,8290.306550
673.111089,1838.629195,-0.000000,8438.347739
673.111405,1225.752797,-592.164754,8660.409521
673.111720,459.657299,-962.267725,10214.842000
673.112036,-766.095498,-888.247130,11029.068536
673.112352,-1149.143247,-962.267725,11547.212695
673.112667,-1991.848295,-1036.288319,10658.965565
673.112983,-2145.067394,-962.267725,9696.697840
673.113299,-1149.143247,-1332.370696,10288.862594
673.113614,-383.047749,-1258.350101,10288.862594
673.113930,-536.266849,-1184.329507,10066.800811
673.114246,-383.047749,-1184.329507,9252.574275
673.114561,459.657299,-1110.308913,9400.615463
673.114877,1302.362347,-222.061783,9992.780217
673.115192,1685.410096,-0.000000,9844.739029
673.115508,1762.019645,1184.329507,8882.471304
673.115824,1991.848295,962.267725,7772.162391
673.116139,2451.505594,666.185348,7550.100608
673.116455,3600.648841,518.144159,8216.285956
673.116771,2834.553343,296.082377,8586.388927
673.117086,1915.238745,-0.000000,8660.409521
673.117402,919.314598,-444.123565,8808.450710
673.117718,153.219100,-814.226536,10066.800811
673.118033,-229.828649,-1184.329507,11177.109724
673.118349,-842.705048,-888.247130,11251.130318
673.118665,-1762.019645,-740.205942,10362.883188
673.118980,-1915.238745,-1036.288319,10066.800811
673.119296,-1302.362347,-1480.411884,10140.821405
673.119612,-766.095498,-962.267725,10658.965565
673.119927,-229.828649,-1110.308913,9918.759623
673.120243,-229.828649,-1110.308913,9104.533087
673.120559,0.000000,-666.185348,9178.553681
673.120874,766.095498,-444.123565,9770.718434
673.121190,919.314598,444.123565,9252.574275
673.121506,1378.971896,888.247130,9178.553681
673.121821,1378.971896,962.267725,7994.224174
673.122137,1532.190996,1184.329507,7476.080014
673.122453,2911.162892,962.267725,8068.244768
673.122768,2451.505594,296.082377,8882.471304
673.123084,1762.019645,-0.000000,8734.430116
673.123400,919.314598,-370.102971,8808.450710
673.123715,306.438199,-222.061783,9622.677246
673.124031,-306.438199,-592.164754,10807.006753
673.124347,-766.095498,-444.123565,11251.130318
673.124662,-1762.019645,-74.020594,10732.986159
673.124978,-1838.629195,-296.082377,9548.656652
673.125294,-1302.362347,-592.164754,9844.739029
673.125609,-459.657299,-888.247130,10140.821405
673.125925,-383.047749,-814.226536,9844.739029
673.126241,-536.266849,-518.144159,9622.677246
673.126556,-229.828649,-666.185348,9474.636058
673.126872,383.047749,-148.041188,10140.821405
673.127188,536.266849,222.061783,9844.739029
673.127503,919.314598,888.247130,9474.636058
673.127819,1072.533697,1332.370696,8586.388927
673.128135,1838.629195,1554.432478,7550.100608
673.128450,2528.115143,1332.370696,8142.265362
673.128766,2451.505594,740.205942,9326.594869
673.129081,1762.019645,148.041188,8660.409521
673.129397,919.314598,-370.102971,8660.409521
673.129713,536.266849,-444.123565,9992.780217
673.130028,306.438199,-592.164754,11029.068536
673.130344,-536.266849,-296.082377,11103.089130
673.130660,-1455.581446,-0.000000,10807.006753
673.130975,-1838.629195,-222.061783,9770.718434
673.131291,-995.924147,-222.061783,9918.759623
673.131607,0.000000,-666.185348,10140.821405
673.131922,-153.219100,-1110.308913,10140.821405
673.132238,-306.438199,-888.247130,9622.677246
673.132554,-153.219100,-814.226536,9178.553681
673.132869,689.485948,-666.185348,10214.842000
673.133185,1072.533697,-0.000000,10362.883188
673.133501,1072.533697,1184.329507,9474.636058
673.133816,1302.362347,1036.288319,8364.327145
673.134132,1991.848295,1036.288319,7920.203579
673.134448,3217.601092,962.267725,7772.162391
673.134763,2987.772442,518.144159,8438.347739
673.135079,2528.115143,-0.000000,8660.409521
673.135395,1762.019645,-518.144159,8660.409521
673.135710,1302.362347,-74.020594,9030.512492
673.136026,612.876398,-74.020594,10362.883188
673.136342,0.000000,-296.082377,11029.068536
673.136657,-689.485948,-148.041188,10362.883188
673.136973,-919.314598,-222.061783,9474.636058
673.137289,-919.314598,-444.123565,9400.615463
673.137604,153.219100,-962.267725,9696.697840
673.137920,229.828649,-962.267725,9992.780217
673.138236,612.876398,-666.185348,9178.553681
673.138551,306.438199,-518.144159,9030.512492
673.138867,459.657299,-296.082377,10066.800811
673.139183,919.314598,-222.061783,10214.842000
673.139498,689.485948,592.164754,9622.677246
673.139814,919.314598,740.205942,8660.409521
673.140130,1378.971896,518.144159,7920.203579
673.140445,2221.676944,814.226536,8216.285956
673.140761,2221.676944,666.185348,8660.409521
673.141077,1762.019645,296.082377,8512.368333
673.141392,766.095498,-222.061783,8364.327145
673.141708,76.609550,-370.102971,9400.615463
673.142023,-229.828649,-740.205942,10955.047942
673.142339,-766.095498,-740.205942,11177.109724
673.142655,-1455.581446,-370.102971,10584.944971
673.142970,-1991.848295,-666.185348,9844.739029
673.143286,-995.924147,-518.144159,9474.636058
673.143602,-306.438199,-666.185348,9696.697840
673.143917,-842.705048,-1184.329507,9770.718434
673.144233,-612.876398,-814.226536,9474.636058
673.144549,-536.266849,-1554.432478,9326.594869
673.144864,0.000000,-1332.370696,10362.883188
673.145180,0.000000,-518.144159,10288.862594
673.145496,306.438199,-0.000000,9992.780217
673.145811,153.219100,444.123565,8734.430116
673.146127,919.314598,814.226536,7920.203579
673.146443,2068.457845,-0.000000,8216.285956
673.146758,2374.896044,-74.020594,8734.430116
673.147074,1532.190996,-148.041188,8438.347739
673.147390,689.485948,-518.144159,8660.409521
673.147705,612.876398,-666.185348,9252.574275
673.148021,0.000000,-888.247130,10288.862594
673.148337,-536.266849,-740.205942,11251.130318
673.148652,-1378.971896,-666.185348,9992.780217
673.148968,-1915.238745,-1184.329507,9696.697840
673.149284,-1072.533697,-1332.370696,9992.780217
673.149600,-383.047749,-1258.350101,9918.759623
673.149915,0.000000,-888.247130,9918.759623
673.150231,0.000000,-814.226536,9844.739029
673.150547,0.000000,-962.267725,9178.553681
673.150862,76.609550,-592.164754,10214.842000
673.151178,842.705048,-296.082377,9918.759623
673.151494,1608.800546,518.144159,9030.512492
673.151809,1302.362347,666.185348,8660.409521
673.152125,1532.190996,666.185348,7476.080014
673.152441,2604.724693,592.164754,8068.244768
673.152757,2681.334243,370.102971,8364.327145
673.153072,2298.286494,518.144159,8142.265362
673.153388,1378.971896,148.041188,8586.388927
673.153704,842.705048,-74.020594,8956.491898
673.154019,383.047749,-74.020594,10066.800811
673.154335,-153.219100,-296.082377,10955.047942
673.154651,-842.705048,-518.144159,10881.027347
673.154966,-1455.581446,-518.144159,9844.739029
673.155282,-842.705048,-814.226536,9548.656652
673.155598,0.000000,-740.205942,10066.800811
673.155914,-306.438199,-592.164754,9992.780217
673.156229,-459.657299,-1036.288319,9992.780217
673.156545,-153.219100,-962.267725,9770.718434
673.156861,0.000000,-1036.288319,9918.759623
673.157176,153.219100,-222.061783,10288.862594
673.157492,306.438199,222.061783,10436.903782
673.157808,689.485948,518.144159,9104.533087
673.158123,1685.410096,1628.453072,7994.224174
673.158439,2681.334243,1406.391290,7772.162391
673.158755,2911.162892,1258.350101,8290.306550
673.159071,2451.505594,666.185348,8808.450710
673.159386,1915.238745,-0.000000,8586.388927
673.159702,1225.752797,-148.041188,9030.512492
673.160018,766.095498,-222.061783,10436.903782
673.160333,383.047749,-370.102971,11029.068536
673.160649,-766.095498,296.082377,10881.027347
673.160965,-1225.752797,-0.000000,9770.718434
673.161280,-1149.143247,-296.082377,9548.656652
673.161596,0.000000,-444.123565,9992.780217
673.161912,-383.047749,-370.102971,9992.780217
673.162227,-459.657299,-740.205942,9992.780217
673.162543,-306.438199,-962.267725,9474.636058
673.162859,-536.266849,-1332.370696,10510.924376
673.163175,0.000000,-148.041188,10732.986159
673.163490,383.047749,518.144159,10362.883188
673.163806,689.485948,1332.370696,8808.450710
673.164122,1149.143247,1554.432478,8068.244768
673.164437,2298.286494,1332.370696,7920.203579
673.164753,2834.553343,1110.308913,8438.347739
673.165069,2451.505594,518.144159,8586.388927
673.165384,1685.410096,-0.000000,9030.512492
673.165700,1455.581446,-370.102971,8956.491898
673.166016,612.876398,-0.000000,10066.800811
673.166332,0.000000,296.082377,10807.006753
673.166647,-612.876398,-74.020594,10362.883188
673.166963,-1762.019645,-0.000000,9918.759623
673.167279,-1225.752797,-370.102971,9548.656652
673.167594,-306.438199,-518.144159,10066.800811
673.167910,-153.219100,-814.226536,9992.780217
673.168226,-842.705048,-962.267725,9844.739029
673.168541,-766.095498,-1332.370696,9548.656652
673.168857,-612.876398,-1554.432478,10140.821405
673.169173,0.000000,-666.185348,10732.986159
673.169489,383.047749,74.020594,9992.780217
673.169804,383.047749,-0.000000,9326.594869
673.170120,995.924147,370.102971,8068.244768
673.170436,2298.286494,592.164754,8142.265362
673.170751,2681.334243,518.144159,8364.327145
673.171067,1991.848295,518.144159,8364.327145
673.171383,1762.019645,-0.000000,8216.285956
673.171698,1608.800546,-444.123565,8438.347739
673.172014,1149.143247,-666.185348,10066.800811
673.172330,229.828649,-814.226536,10436.903782
673.172646,-612.876398,-592.164754,10362.883188
673.172961,-1149.143247,-888.247130,9992.780217
673.173277,-919.314598,-1110.308913,9622.677246
673.173593,-383.047749,-1110.308913,9992.780217
673.173908,-153.219100,-1036.288319,10066.800811
673.174224,-459.657299,-1480.411884,9918.759623
673.174540,-689.485948,-1554.432478,9252.574275
673.174855,-229.828649,-1628.453072,9992.780217
673.175171,306.438199,-1036.288319,10436.903782
673.175487,612.876398,-592.164754,10288.862594
673.175803,1072.533697,296.082377,9030.512492
673.176118,919.314598,444.123565,8142.265362
673.176434,2145.067394,814.226536,7994.224174
673.176750,2834.553343,666.185348,8364.327145
673.177065,2374.896044,296.082377,8142.265362
673.177381,1685.410096,148.041188,8438.347739
673.177697,1072.533697,-888.247130,9030.512492
673.178012,766.095498,-1110.308913,10214.842000
673.178328,229.828649,-888.247130,10732.986159
673.178644,-1072.533697,-1110.308913,10584.944971
673.178960,-1685.410096,-1036.288319,9918.759623
673.179275,-1608.800546,-888.247130,9474.636058
673.179591,-766.095498,-888.247130,10288.862594
673.179907,-383.047749,-888.247130,10362.883188
673.180222,-689.485948,-1110.308913,9770.718434
673.180538,-842.705048,-1258.350101,9622.677246
673.180854,0.000000,-1480.411884,9622.677246
673.181169,459.657299,-814.226536,10436.903782
673.181485,612.876398,148.041188,9918.759623
673.181801,995.924147,1036.288319,8660.409521
673.182117,1302.362347,1036.288319,7624.121203
673.182432,2145.067394,1036.288319,7698.141797
673.182748,2451.505594,1036.288319,8216.285956
673.183064,1915.238745,888.247130,8586.388927
673.183379,1455.581446,296.082377,8882.471304
673.183695,995.924147,-148.041188,8660.409521
673.184011,766.095498,-148.041188,10214.842000
673.184326,0.000000,-444.123565,10955.047942
673.184642,-306.438199,-296.082377,10362.883188
673.184958,-1378.971896,222.061783,10066.800811
673.185274,-1378.971896,-518.144159,9770.718434
673.185589,-383.047749,-444.123565,10140.821405
673.185905,0.000000,-444.123565,9992.780217
673.186221,-229.828649,-74.020594,9696.697840
673.186536,-383.047749,-962.267725,9326.594869
673.186852,0.000000,-518.144159,9696.697840
673.187168,612.876398,-0.000000,10362.883188
673.187483,995.924147,592.164754,9992.780217
673.187799,1302.362347,962.267725,9030.512492
673.188115,1225.752797,1110.308913,8142.265362
673.188431,2068.457845,1110.308913,7994.224174
673.188746,2681.334243,888.247130,8438.347739
673.189062,2451.505594,814.226536,8660.409521
673.189378,1685.410096,296.082377,9104.533087
673.189693,919.314598,-222.061783,8882.471304
673.190009,383.047749,-370.102971,9918.759623
673.190325,0.000000,-296.082377,10807.006753
673.190640,-459.657299,-740.205942,10955.047942
673.190956,-766.095498,-592.164754,10140.821405
673.191272,-1149.143247,-370.102971,9474.636058
673.191588,-459.657299,-666.185348,10066.800811
673.191903,76.609550,-666.185348,10066.800811
673.192219,-383.047749,-740.205942,9696.697840
673.192535,-383.047749,-518.144159,9326.594869
673.192850,0.000000,-740.205942,9474.636058
673.193166,536.266849,-518.144159,10510.924376
673.193482,842.705048,222.061783,9844.739029
673.193797,1149.143247,666.185348,9178.553681
673.194113,1685.410096,1258.350101,8216.285956
673.194429,2221.676944,1258.350101,7402.059420
673.194745,2757.943793,1184.329507,8438.347739
673.195060,2374.896044,888.247130,8512.368333
673.195376,1915.238745,296.082377,8882.471304
673.195692,1225.752797,-222.061783,8882.471304
673.196007,459.657299,-666.185348,10140.821405
673.196323,0.000000,-740.205942,11103.089130
673.196639,-842.705048,-370.102971,11177.109724
673.196954,-1532.190996,-370.102971,10288.862594
673.197270,-1302.362347,-592.164754,9548.656652
673.197586,-612.876398,-592.164754,9770.718434
673.197902,-383.047749,-370.102971,10066.800811
673.198217,76.609550,-296.082377,9474.636058
673.198533,306.438199,-888.247130,9326.594869
673.198849,536.266849,-592.164754,9474.636058
673.199164,1302.362347,-296.082377,9918.759623
673.199480,1838.629195,222.061783,9622.677246
673.199796,1685.410096,1036.288319,8586.388927
673.200111,1532.190996,888.247130,7772.162391
673.200427,2528.115143,1184.329507,7624.121203
673.200743,3064.381992,962.267725,7846.182985
673.201059,2451.505594,666.185348,8808.450710
673.201374,1532.190996,-222.061783,8586.388927
673.201690,842.705048,-444.123565,9030.512492
673.202006,0.000000,-592.164754,9844.739029
673.202321,-536.266849,-962.267725,10955.047942
673.202637,-1302.362347,-888.247130,11473.192101
673.202953,-1991.848295,-1036.288319,10436.903782
673.203268,-2068.457845,-1110.308913,9844.739029
673.203584,-1532.190996,-1332.370696,10140.821405
673.203900,-536.266849,-1332.370696,10214.842000
673.204216,-766.095498,-1258.350101,9918.759623
673.204531,76.609550,-1110.308913,9252.574275
673.204847,76.609550,-1036.288319,9400.615463
673.205163,766.095498,-370.102971,9770.718434
673.205478,995.924147,370.102971,9770.718434
673.205794,1225.752797,740.205942,8882.471304
673.206110,1225.752797,666.185348,7476.080014
673.206425,1608.800546,518.144159,7550.100608
673.206741,2451.505594,148.041188,8734.430116
673.207057,1991.848295,-222.061783,9030.512492
673.207373,1072.533697,-0.000000,8512.368333
673.207688,536.266849,-814.226536,8586.388927
673.208004,-153.219100,-1258.350101,10140.821405
673.208320,-612.876398,-1184.329507,11177.109724
673.208635,-1302.362347,-962.267725,11177.109724
673.208951,-2068.457845,-1332.370696,10584.944971
673.209267,-2221.676944,-1702.473667,9844.739029
673.209582,-689.485948,-1406.391290,10066.800811
673.209898,-383.047749,-1406.391290,10140.821405
673.210214,-229.828649,-1110.308913,9918.759623
673.210530,-153.219100,-1258.350101,9104.533087
673.210845,459.657299,-518.144159,9252.574275
673.211161,842.705048,-370.102971,10066.800811
673.211477,1608.800546,370.102971,9992.780217
673.211792,1685.410096,1036.288319,8808.450710
673.212108,2145.067394,1332.370696,7698.141797
673.212424,2911.162892,1184.329507,7476.080014
673.212739,3907.087040,1258.350101,7994.224174
673.213055,3294.210641,814.226536,7994.224174
673.213371,2298.286494,370.102971,8660.409521
673.213687,1302.362347,-148.041188,8512.368333
673.214002,306.438199,-814.226536,9844.739029
673.214318,0.000000,-740.205942,11029.068536
673.214634,-1072.533697,-888.247130,11325.150913
673.214949,-1762.019645,-740.205942,10436.903782
673.215265,-1608.800546,-1036.288319,9696.697840
673.215581,-842.705048,-1110.308913,9696.697840
673.215896,-229.828649,-888.247130,9992.780217
673.216212,0.000000,-888.247130,9770.718434
673.216528,-76.609550,-1036.288319,9696.697840
673.216843,76.609550,-814.226536,9474.636058
673.217159,459.657299,-518.144159,9844.739029
673.217475,1149.143247,518.144159,9918.759623
673.217791,1838.629195,1332.370696,9252.574275
673.218106,1378.971896,1628.453072,7920.203579
673.218422,2221.676944,1332.370696,7772.162391
673.218738,2911.162892,1184.329507,8068.244768
673.219053,2604.724693,814.226536,8512.368333
673.219369,1915.238745,518.144159,8660.409521
673.219685,536.266849,-740.205942,9030.512492
673.220000,0.000000,-962.267725,10584.944971
673.220316,-536.266849,-296.082377,11029.068536
673.220632,-1685.410096,-370.102971,11399.171507
673.220948,-1685.410096,-814.226536,10881.027347
673.221263,-2068.457845,-814.226536,9992.780217
673.221579,-1378.971896,-888.247130,10362.883188
673.221895,-153.219100,-888.247130,10436.903782
673.222210,-306.438199,-518.144159,9992.780217
673.222526,-306.438199,-740.205942,9400.615463
673.222842,76.609550,-666.185348,9992.780217
673.223157,689.485948,-0.000000,10214.842000
673.223473,1072.533697,814.226536,10066.800811
673.223789,1608.800546,1184.329507,8882.471304
673.224105,1685.410096,962.267725,8216.285956
673.224420,2451.505594,1554.432478,7476.080014
673.224736,3064.381992,1406.391290,7698.141797
673.225052,3140.991542,814.226536,8438.347739
673.225367,1991.848295,888.247130,8364.327145
673.225683,995.924147,222.061783,8512.368333
673.225999,536.266849,-222.061783,9474.636058
673.226314,-229.828649,-666.185348,10955.047942
673.226630,-1225.752797,-592.164754,11251.130318
673.226946,-2068.457845,-814.226536,11029.068536
673.227262,-2068.457845,-1036.288319,9844.739029
673.227577,-1455.581446,-1110.308913,10066.800811
673.227893,-459.657299,-962.267725,10436.903782
673.228209,-459.657299,-814.226536,9696.697840
673.228524,-306.438199,-962.267725,9622.677246
673.228840,153.219100,-888.247130,9474.636058
673.229156,766.095498,-444.123565,9770.718434
673.229471,1149.143247,444.123565,9622.677246
673.229787,1762.019645,1036.288319,8882.471304
673.230103,2221.676944,962.267725,7550.100608
673.230419,2451.505594,888.247130,7402.059420
673.230734,3217.601092,888.247130,7994.224174
673.231050,3140.991542,592.164754,8216.285956
673.231366,2374.896044,296.082377,8364.327145
673.231681,1608.800546,-0.000000,8438.347739
673.231997,766.095498,-666.185348,9252.574275
673.232313,0.000000,-962.267725,10732.986159
673.232628,-689.485948,-1184.329507,11103.089130
673.232944,-1685.410096,-1184.329507,10658.965565
673.233260,-2374.896044,-1480.411884,10140.821405
673.233576,-1532.190996,-1406.391290,10066.800811
673.233891,-689.485948,-1332.370696,10066.800811
673.234207,-919.314598,-1184.329507,10140.821405
673.234523,-995.924147,-1258.350101,9770.718434
673.234838,-459.657299,-1406.391290,9622.677246
673.235154,76.609550,-1258.350101,9770.718434
673.235470,919.314598,-370.102971,10066.800811
673.235785,1072.533697,370.102971,9400.615463
673.236101,1991.848295,814.226536,8364.327145
673.236417,2221.676944,888.247130,7772.162391
673.236733,3064.381992,1036.288319,8068.244768
673.237048,2987.772442,592.164754,8512.368333
673.237364,2221.676944,592.164754,8142.265362
673.237680,1532.190996,-370.102971,8290.306550
673.237995,919.314598,-740.205942,9474.636058
673.238311,229.828649,-888.247130,10955.047942
673.238627,-536.266849,-666.185348,11325.150913
673.238942,-1455.581446,-740.205942,10881.027347
673.239258,-2451.505594,-740.205942,9992.780217
673.239574,-1608.800546,-1110.308913,9622.677246
673.239890,-612.876398,-1110.308913,10288.862594
673.240205,-383.047749,-814.226536,10140.821405
673.240521,-842.705048,-1110.308913,9696.697840
673.240837,0.000000,-1406.391290,9696.697840
673.241152,153.219100,-1036.288319,10288.862594
673.241468,612.876398,-222.061783,10436.903782
673.241784,995.924147,666.185348,9548.656652
673.242099,1838.629195,1036.288319,8216.285956
673.242415,2145.067394,1036.288319,7476.080014
673.242731,2911.162892,1332.370696,7846.182985
673.243047,2987.772442,1110.308913,8142.265362
673.243362,2374.896044,666.185348,8068.244768
673.243678,1225.752797,222.061783,8512.368333
673.243994,919.314598,-296.082377,9252.574275
673.244309,153.219100,-592.164754,10510.924376
673.244625,-842.705048,-518.144159,11029.068536
673.244941,-1762.019645,-666.185348,10510.924376
673.245256,-2221.676944,-888.247130,10066.800811
673.245572,-1762.019645,-888.247130,9844.739029
673.245888,-842.705048,-740.205942,10362.883188
673.246204,-766.095498,-740.205942,10140.821405
673.246519,-842.705048,-1406.391290,9770.718434
673.246835,-459.657299,-962.267725,9474.636058
673.247151,306.438199,-888.247130,10288.862594
673.247466,919.314598,-74.020594,10140.821405
673.247782,1225.752797,962.267725,9400.615463
673.248098,1455.581446,1850.514855,7994.224174
673.248413,2604.724693,1628.453072,7476.080014
673.248729,3294.210641,1702.473667,7698.141797
673.249045,3447.429741,1332.370696,8216.285956
673.249361,2451.505594,740.205942,8142.265362
673.249676,1302.362347,-74.020594,8364.327145
673.249992,689.485948,-370.102971,9178.553681
673.250308,306.438199,-518.144159,10436.903782
673.250623,-766.095498,-740.205942,11325.150913
673.250939,-1762.019645,-888.247130,10881.027347
673.251255,-2374.896044,-814.226536,10362.883188
673.251570,-1608.800546,-1110.308913,10214.842000
673.251886,-995.924147,-888.247130,10288.862594
673.252202,-689.485948,-592.164754,9992.780217
673.252517,-766.095498,-888.247130,9696.697840
673.252833,-536.266849,-962.267725,9992.780217
673.253149,229.828649,-666.185348,10214.842000
673.253464,842.705048,148.041188,10066.800811
673.253780,1225.752797,1036.288319,9548.656652
673.254096,1072.533697,1406.391290,8364.327145
673.254411,2298.286494,1184.329507,7994.224174
673.254727,2987.772442,1480.411884,7698.141797
673.255043,3217.601092,1554.432478,8438.347739
673.255358,2681.334243,962.267725,8586.388927
673.255674,1838.629195,518.144159,8660.409521
673.255990,995.924147,-296.082377,9178.553681
673.256306,229.828649,-444.123565,10362.883188
673.256621,-383.047749,-592.164754,11177.109724
673.256937,-1455.581446,-888.247130,10881.027347
673.257253,-1991.848295,-1184.329507,10436.903782
673.257568,-1532.190996,-1406.391290,10436.903782
673.257884,-842.705048,-888.247130,10510.924376
673.258200,-536.266849,-962.267725,10436.903782
673.258515,-536.266849,-666.185348,9548.656652
673.258831,0.000000,-814.226536,9474.636058
673.259147,459.657299,-814.226536,9992.780217
673.259462,1302.362347,-74.020594,9770.718434
673.259778,1302.362347,518.144159,9326.594869
673.260094,1608.800546,1110.308913,8364.327145
673.260409,2451.505594,1406.391290,7698.141797
673.260725,2987.772442,1258.350101,7846.182985
673.261041,3294.210641,962.267725,8586.388927
673.261356,2451.505594,370.102971,8290.306550
673.261672,1455.581446,-222.061783,8364.327145
673.261988,1302.362347,-814.226536,9474.636058
673.262304,76.609550,-1110.308913,10732.986159
673.262619,-306.438199,-740.205942,11251.130318
673.262935,-1378.971896,-518.144159,10510.924376
673.263251,-2374.896044,-962.267725,9918.759623
673.263566,-1915.238745,-1184.329507,9918.759623
673.263882,-1149.143247,-1480.411884,9992.780217
673.264198,-842.705048,-1184.329507,10066.800811
673.264513,-995.924147,-1480.411884,9770.718434
673.264829,0.000000,-1406.391290,9474.636058
673.265145,229.828649,-1184.329507,9844.739029
673.265460,995.924147,-518.144159,9918.759623
673.265776,1072.533697,444.123565,9474.636058
673.266092,1225.752797,962.267725,8142.265362
673.266407,1915.238745,1110.308913,7550.100608
673.266723,3217.601092,1184.329507,7994.224174
673.267039,2757.943793,814.226536,8512.368333
673.267354,2374.896044,148.041188,8438.347739
673.267670,1225.752797,-518.144159,8956.491898
673.267986,76.609550,-1184.329507,9474.636058
673.268301,-229.828649,-1258.350101,10807.006753
673.268617,-842.705048,-888.247130,11251.130318
673.268933,-1608.800546,-518.144159,10955.047942
673.269249,-2451.505594,-666.185348,9992.780217
673.269564,-2221.676944,-1036.288319,9622.677246
673.269880,-459.657299,-814.226536,10584.944971
673.270196,-459.657299,-814.226536,10140.821405
673.270511,-306.438199,-740.205942,9474.636058
673.270827,76.609550,-518.144159,8956.491898
673.271143,1149.143247,-888.247130,9400.615463
673.271458,1378.971896,-148.041188,10066.800811
673.271774,1455.581446,740.205942,9474.636058
673.272090,1455.581446,1184.329507,8290.306550
673.272405,1685.410096,1036.288319,7624.121203
673.272721,2757.943793,888.247130,7994.224174
673.273037,3217.601092,1184.329507,8290.306550
673.273352,2221.676944,444.123565,8512.368333
673.273668,1225.752797,-222.061783,8660.409521
673.273984,306.438199,-592.164754,9326.594869
673.274299,-153.219100,-888.247130,10658.965565
673.274615,-995.924147,-740.205942,10955.047942
673.274931,-1762.019645,-444.123565,10807.006753
673.275246,-2145.067394,-962.267725,10362.883188
673.275562,-1608.800546,-888.247130,9918.759623
673.275878,-306.438199,-814.226536,10140.821405
673.276194,-383.047749,-592.164754,10436.903782
673.276509,-76.609550,-370.102971,9622.677246
673.276825,76.609550,-592.164754,9474.636058
673.277141,536.266849,-222.061783,9696.697840
673.277456,1225.752797,444.123565,9844.739029
673.277772,1302.362347,666.185348,9474.636058
673.278088,1762.019645,1258.350101,9030.512492
673.278403,1991.848295,1258.350101,8142.265362
673.278719,2987.772442,1850.514855,7698.141797
673.279035,3064.381992,1776.494261,8660.409521
673.279350,2298.286494,1110.308913,8734.430116
673.279666,1455.581446,222.061783,8512.368333
673.279982,383.047749,-296.082377,9400.615463
673.280297,306.438199,-814.226536,10881.027347
673.280613,-842.705048,-1036.288319,11473.192101
673.280929,-1838.629195,-888.247130,11399.171507
673.281244,-2451.505594,-1036.288319,10658.965565
673.281560,-1762.019645,-1184.329507,10214.842000
673.281876,-612.876398,-1184.329507,10510.924376
673.282191,-306.438199,-740.205942,10066.800811
673.282507,-306.438199,-592.164754,9474.636058
673.282823,0.000000,-888.247130,9178.553681
673.283139,689.485948,-962.267725,9326.594869
673.283454,1378.971896,-74.020594,9844.739029
673.283770,1685.410096,592.164754,9326.594869
673.284086,1762.019645,1406.391290,8586.388927
673.284401,1991.848295,1406.391290,7476.080014
673.284717,2911.162892,1332.370696,7550.100608
673.285033,3217.601092,1406.391290,7920.203579
673.285348,2298.286494,1110.308913,8438.347739
673.285664,1608.800546,-0.000000,8364.327145
673.285980,459.657299,-740.205942,9400.615463
673.286295,229.828649,-962.267725,10436.903782
673.286611,-842.705048,-666.185348,10955.047942
673.286927,-1608.800546,-592.164754,11177.109724
673.287242,-2221.676944,-370.102971,10658.965565
673.287558,-1608.800546,-740.205942,9770.718434
673.287874,-689.485948,-296.082377,10140.821405
673.288189,0.000000,-222.061783,9696.697840
673.288505,0.000000,-444.123565,9548.656652
673.288821,153.219100,-814.226536,9104.533087
673.289137,689.485948,-666.185348,9252.574275
673.289452,1072.533697,-222.061783,9918.759623
673.289768,1302.362347,444.123565,9696.697840
673.290084,1532.190996,1406.391290,8734.430116
673.290399,1915.238745,1480.411884,7698.141797
673.290715,2451.505594,1110.308913,7846.182985
673.291031,3140.991542,1184.329507,8438.347739
673.291346,2451.505594,296.082377,8660.409521
673.291662,1225.752797,-296.082377,8734.430116
673.291978,612.876398,-1036.288319,9400.615463
673.292293,0.000000,-1258.350101,10288.862594
673.292609,-1072.533697,-1258.350101,11103.089130
673.292925,-1991.848295,-1184.329507,11103.089130
673.293240,-2298.286494,-1184.329507,10584.944971
673.293556,-1915.238745,-1332.370696,9770.718434
673.293872,-995.924147,-1406.391290,10066.800811
673.294187,-536.266849,-1036.288319,10066.800811
673.294503,-306.438199,-666.185348,9622.677246
673.294819,0.000000,-962.267725,9030.512492
673.295134,383.047749,-888.247130,9474.636058
673.295450,842.705048,-444.123565,10214.842000
673.295766,842.705048,222.061783,9844.739029
673.296082,1149.143247,592.164754,9030.512492
673.296397,1072.533697,666.185348,8216.285956
673.296713,1991.848295,1110.308913,7920.203579
673.297029,2528.115143,814.226536,8512.368333
673.297344,2068.457845,296.082377,8808.450710
673.297660,1225.752797,-222.061783,8956.491898
673.297976,306.438199,-1036.288319,9030.512492
673.298291,459.657299,-740.205942,10732.986159
673.298607,-612.876398,-814.226536,11029.068536
673.298923,-1072.533697,-666.185348,11251.130318
673.299238,-1991.848295,-888.247130,10362.883188
673.299554,-1608.800546,-740.205942,9548.656652
673.299870,-459.657299,-1258.350101,9622.677246
673.300185,-229.828649,-1110.308913,9844.739029
673.300501,0.000000,-888.247130,9548.656652
673.300817,0.000000,-1184.329507,9178.553681
673.301132,229.828649,-1110.308913,9104.533087
673.301448,1225.752797,-518.144159,10214.842000
673.301764,919.314598,222.061783,9844.739029
673.302079,1225.752797,740.205942,9252.574275
673.302395,1378.971896,1258.350101,8068.244768
673.302711,2221.676944,1036.288319,7698.141797
673.303027,2834.553343,444.123565,7920.203579
673.303342,2298.286494,666.185348,8586.388927
673.303658,1532.190996,-222.061783,8734.430116
673.303974,689.485948,-666.185348,8808.450710
673.304289,-306.438199,-888.247130,9992.780217
673.304605,-229.828649,-962.267725,10955.047942
673.304921,-1302.362347,-592.164754,10881.027347
673.305236,-1915.238745,-814.226536,10362.883188
673.305552,-1915.238745,-1184.329507,10066.800811
673.305868,-766.095498,-1258.350101,10214.842000
673.306183,0.000000,-1406.391290,9918.759623
673.306499,-306.438199,-814.226536,9622.677246
673.306815,76.609550,-888.247130,8882.471304
673.307130,612.876398,-814.226536,9104.533087
673.307446,1072.533697,-222.061783,9474.636058
673.307762,1302.362347,222.061783,9548.656652
673.308077,1455.581446,962.267725,8882.471304
673.308393,1378.971896,1110.308913,7920.203579
673.308709,2145.067394,1184.329507,7105.977043
673.309024,2911.162892,1036.288319,7994.224174
673.309340,2298.286494,592.164754,8586.388927
673.309656,1149.143247,148.041188,8660.409521
673.309972,383.047749,-666.185348,9252.574275
673.310287,-229.828649,-814.226536,10066.800811
673.310603,-306.438199,-1184.329507,11399.171507
673.310919,-1378.971896,-592.164754,11325.150913
673.311234,-2221.676944,-666.185348,10807.006753
673.311550,-2145.067394,-888.247130,10436.903782
673.311866,-919.314598,-518.144159,9992.780217
673.312181,0.000000,-74.020594,10214.842000
673.312497,-229.828649,-0.000000,9696.697840
673.312813,76.609550,-0.000000,9326.594869
673.313128,612.876398,-0.000000,9104.533087
673.313444,919.314598,-0.000000,9770.718434
673.313760,1608.800546,740.205942,10362.883188
673.314075,1608.800546,1628.453072,8956.491898
673.314391,1455.581446,1702.473667,8142.265362
673.314707,2374.896044,1776.494261,7994.224174
673.315022,3370.820191,1702.473667,8290.306550
673.315338,2834.553343,1184.329507,8808.450710
673.315654,1532.190996,666.185348,9030.512492
673.315970,766.095498,-518.144159,9252.574275
673.316285,153.219100,-888.247130,10584.944971
673.316601,-229.828649,-370.102971,11251.130318
673.316917,-1072.533697,-148.041188,11399.171507
673.317232,-1532.190996,-370.102971,10362.883188
673.317548,-1455.581446,-740.205942,9844.739029
673.317864,-689.485948,-666.185348,10140.821405
673.318179,689.485948,-888.247130,10066.800811
673.318495,229.828649,-296.082377,9622.677246
673.318811,459.657299,-148.041188,9104.533087
673.319126,842.705048,-148.041188,8882.471304
673.319442,1532.190996,-0.000000,9992.780217
673.319758,1532.190996,666.185348,9474.636058
673.320073,1685.410096,1258.350101,8882.471304
673.320389,1685.410096,814.226536,8660.409521
673.320705,2298.286494,962.267725,7920.203579
673.321020,2834.553343,1036.288319,8142.265362
673.321336,2681.334243,740.205942,8734.430116
673.321652,1302.362347,296.082377,8512.368333
673.321967,689.485948,-370.102971,8882.471304
673.322283,0.000000,-814.226536,10066.800811
673.322599,-1149.143247,-962.267725,11547.212695
673.322915,-1455.581446,-1332.370696,11399.171507
673.323230,-1991.848295,-814.226536,10658.965565
673.323546,-1991.848295,-962.267725,9622.677246
673.323862,-1149.143247,-1258.350101,9992.780217
673.324177,-612.876398,-1184.329507,9844.739029
673.324493,-229.828649,-1184.329507,9548.656652
673.324809,-306.438199,-1036.288319,9326.594869
673.325124,0.000000,-888.247130,8734.430116
673.325440,1149.143247,-444.123565,9696.697840
673.325756,1378.971896,222.061783,9844.739029
673.326071,1532.190996,962.267725,8808.450710
673.326387,1302.362347,740.205942,7846.182985
673.326703,2298.286494,518.144159,7402.059420
673.327018,2604.724693,-0.000000,8068.244768
673.327334,2374.896044,-0.000000,8734.430116
673.327650,1149.143247,-814.226536,8734.430116
673.327965,0.000000,-1258.350101,9326.594869
673.328281,-689.485948,-1628.453072,10140.821405
673.328597,-1225.752797,-1702.473667,11473.192101
673.328912,-1762.019645,-1628.453072,11547.212695
673.329228,-2451.505594,-1406.391290,11029.068536
673.329544,-2145.067394,-1332.370696,9918.759623
673.329860,-1149.143247,-1480.411884,9992.780217
673.330175,383.047749,-1110.308913,9770.718434
673.330491,842.705048,-370.102971,9178.553681
673.330807,612.876398,-814.226536,8586.388927
673.331122,842.705048,-814.226536,8808.450710
673.331438,1608.800546,-518.144159,9252.574275
673.331754,2068.457845,296.082377,9548.656652
673.332069,2068.457845,814.226536,8956.491898
673.332385,1915.238745,888.247130,7920.203579
673.332701,2145.067394,518.144159,7550.100608
673.333016,2681.334243,-0.000000,7698.141797
673.333332,2221.676944,222.061783,8808.450710
673.333648,1455.581446,-0.000000,8956.491898
673.333963,153.219100,-296.082377,9030.512492
673.334279,-306.438199,-962.267725,9992.780217
673.334595,-1072.533697,-1184.329507,11103.089130
673.334910,-1685.410096,-814.226536,11473.192101
673.335226,-2221.676944,-888.247130,10881.027347
673.335542,-2145.067394,-962.267725,10288.862594
673.335857,-995.924147,-592.164754,9548.656652
673.336173,229.828649,-666.185348,9992.780217
673.336489,536.266849,-222.061783,9252.574275
673.336805,459.657299,-444.123565,8882.471304
673.337120,766.095498,-444.123565,8956.491898
673.337436,1532.190996,-0.000000,9696.697840
673.337752,1991.848295,888.247130,9844.739029
673.338067,1838.629195,1998.556043,9400.615463
673.338383,1225.752797,1850.514855,8364.327145
673.338699,1838.629195,1702.473667,8068.244768
673.339014,2528.115143,1628.453072,8512.368333
673.339330,2604.724693,1036.288319,8660.409521
673.339646,1072.533697,592.164754,9326.594869
673.339961,459.657299,-74.020594,9400.615463
673.340277,-306.438199,-666.185348,10362.883188
673.340593,-842.705048,-370.102971,11325.150913
673.340908,-1455.581446,-222.061783,11843.295072
673.341224,-2145.067394,-0.000000,11103.089130
673.341540,-2068.457845,222.061783,9770.718434
673.341855,-995.924147,-0.000000,9622.677246
673.342171,76.609550,-0.000000,10066.800811
673.342487,383.047749,-74.020594,9992.780217
673.342803,383.047749,-74.020594,9474.636058
673.343118,766.095498,-0.000000,9178.553681
673.343434,1225.752797,-0.000000,9622.677246
673.343750,1838.629195,592.164754,9622.677246
673.344065,1685.410096,1406.391290,9474.636058
673.344381,1762.019645,1628.453072,8068.244768
673.344697,2221.676944,1554.432478,7698.141797
673.345012,2374.896044,1110.308913,7994.224174
673.345328,1915.238745,740.205942,8808.450710
673.345644,1149.143247,-0.000000,8808.450710
673.345959,689.485948,-518.144159,8586.388927
673.346275,-153.219100,-888.247130,9844.739029
673.346591,-612.876398,-1184.329507,11251.130318
673.346906,-1072.533697,-888.247130,11325.150913
673.347222,-2068.457845,-518.144159,10807.006753
673.347538,-2145.067394,-740.205942,10140.821405
673.347853,-1378.971896,-962.267725,9548.656652
673.348169,-306.438199,-592.164754,9992.780217
673.348485,-76.609550,-740.205942,9696.697840
673.348800,229.828649,-1332.370696,9326.594869
673.349116,229.828649,-962.267725,9178.553681
673.349432,842.705048,-592.164754,9770.718434
673.349748,1608.800546,444.123565,9400.615463
673.350063,1838.629195,1036.288319,9252.574275
673.350374,1608.800546,1184.329507,8438.347739
673.350690,1915.238745,962.267725,7550.100608
673.351006,2451.505594,740.205942,8290.306550
673.351322,2451.505594,296.082377,8512.368333
673.351637,1532.190996,-592.164754,8882.471304
673.351953,612.876398,-814.226536,8956.491898
673.352269,383.047749,-1184.329507,9252.574275
673.352585,-766.095498,-962.267725,10658.965565
673.352901,-919.314598,-962.267725,10881.027347
673.353216,-1915.238745,-1850.514855,10658.965565
673.353532,-2528.115143,-1628.453072,9992.780217
673.353848,-1532.190996,-1776.494261,9770.718434
673.354164,-383.047749,-1924.535449,10066.800811
673.354480,-153.219100,-1776.494261,9696.697840
673.354795,383.047749,-1776.494261,9104.533087
673.355111,306.438199,-1184.329507,8512.368333
673.355427,383.047749,-962.267725,9474.636058
673.355743,1302.362347,-518.144159,9696.697840
673.356058,1455.581446,444.123565,9252.574275
673.356374,1378.971896,740.205942,8290.306550
673.356690,2068.457845,592.164754,7698.141797
673.357006,2757.943793,296.082377,8216.285956
673.357322,2604.724693,370.102971,8438.347739
673.357637,1991.848295,-0.000000,8660.409521
673.357953,842.705048,-296.082377,8586.388927
673.358269,383.047749,-888.247130,9474.636058
673.358585,-459.657299,-1332.370696,10807.006753
673.358901,-995.924147,-1110.308913,11399.171507
673.359216,-1608.800546,-666.185348,10881.027347
673.359532,-2528.115143,-1110.308913,10510.924376
673.359848,-1991.848295,-1184.329507,9992.780217
673.360164,-612.876398,-1184.329507,10288.862594
673.360479,-383.047749,-888.247130,9844.739029
673.360795,-766.095498,-740.205942,9474.636058
673.361111,-153.219100,-1036.288319,9622.677246
673.361427,306.438199,-814.226536,9844.739029
673.361743,1302.362347,-74.020594,9992.780217
673.362058,1915.238745,962.267725,9770.718434
673.362374,1378.971896,1628.453072,8290.306550
673.362690,1915.238745,1850.514855,7550.100608
673.363006,2987.772442,1480.411884,7920.203579
673.363322,3447.429741,1332.370696,8216.285956
673.363637,2528.115143,1184.329507,8290.306550
673.363953,1378.971896,148.041188,8438.347739
673.364269,612.876398,-518.144159,9474.636058
673.364585,0.000000,-518.144159,10807.006753
673.364900,-612.876398,-444.123565,11473.192101
673.365216,-1685.410096,-222.061783,10881.027347
673.365532,-2528.115143,-296.082377,10214.842000
673.365848,-1915.238745,-518.144159,9918.759623
673.366164,-536.266849,-296.082377,10214.842000
673.366479,-383.047749,-222.061783,10288.862594
673.366795,-229.828649,-370.102971,9548.656652
673.367111,0.000000,-666.185348,9474.636058
673.367427,383.047749,-518.144159,9770.718434
673.367743,689.485948,-0.000000,9918.759623
673.368058,1072.533697,1110.308913,10140.821405
673.368374,1302.362347,1332.370696,8512.368333
673.368690,1915.238745,1702.473667,7920.203579
673.369006,2834.553343,1554.432478,7550.100608
673.369321,3294.210641,1110.308913,7994.224174
673.369637,2374.896044,888.247130,8586.388927
673.369953,1532.190996,370.102971,8142.265362
673.370269,459.657299,-518.144159,8956.491898
673.370585,-229.828649,-666.185348,10658.965565
673.370900,-1072.533697,-1036.288319,11473.192101
673.371216,-1608.800546,-814.226536,10955.047942
673.371532,-2604.724693,-1036.288319,10288.862594
673.371848,-2145.067394,-1406.391290,9844.739029
673.372164,-842.705048,-1258.350101,10510.924376
673.372479,0.000000,-1332.370696,10066.800811
673.372795,-383.047749,-814.226536,9622.677246
673.373111,-229.828649,-962.267725,9400.615463
673.373427,229.828649,-888.247130,9696.697840
673.373742,995.924147,-222.061783,10214.842000
673.374058,1302.362347,444.123565,9918.759623
673.374374,1762.019645,1184.329507,8586.388927
673.374690,1991.848295,1332.370696,7550.100608
673.375006,3140.991542,1184.329507,7994.224174
673.375321,3524.039291,1184.329507,7994.224174
673.375637,2604.724693,1110.308913,8216.285956
673.375953,1915.238745,370.102971,8290.306550
673.376269,1455.581446,-518.144159,9252.574275
673.376585,536.266849,-592.164754,10584.944971
673.376900,-383.047749,-740.205942,11103.089130
673.377216,-1302.362347,-962.267725,10955.047942
673.377532,-1915.238745,-888.247130,10510.924376
673.377848,-1608.800546,-1258.350101,9770.718434
673.378163,-536.266849,-1480.411884,9992.780217
673.378479,-383.047749,-1406.391290,10288.862594
673.378795,0.000000,-1480.411884,9400.615463
673.379111,-153.219100,-1406.391290,9474.636058
673.379427,153.219100,-1110.308913,9474.636058
673.379742,1149.143247,-592.164754,9918.759623
673.380058,1685.410096,222.061783,9696.697840
673.380374,1532.190996,740.205942,8438.347739
673.380690,2145.067394,1110.308913,7550.100608
673.381005,2987.772442,1036.288319,7105.977043
673.381321,3600.648841,740.205942,7994.224174
673.381637,2987.772442,444.123565,8142.265362
673.381953,1838.629195,-296.082377,8290.306550
673.382269,1072.533697,-888.247130,8956.491898
673.382584,306.438199,-888.247130,10066.800811
673.382900,-612.876398,-666.185348,10881.027347
673.383216,-1838.629195,-592.164754,10881.027347
673.383532,-2221.676944,-814.226536,10436.903782
673.383848,-2145.067394,-740.205942,10066.800811
673.384163,-1149.143247,-1036.288319,9918.759623
673.384479,-1149.143247,-1036.288319,10066.800811
673.384795,-995.924147,-1554.432478,10066.800811
673.385111,-919.314598,-1332.370696,9770.718434
673.385426,-383.047749,-1332.370696,9992.780217
673.385742,0.000000,-444.123565,10140.821405
673.386058,689.485948,444.123565,10140.821405
673.386374,1149.143247,962.267725,9030.512492
673.386690,1378.971896,1480.411884,8142.265362
673.387005,2145.067394,1628.453072,7846.182985
673.387321,3217.601092,1036.288319,7920.203579
673.387637,2681.334243,370.102971,8290.306550
673.387953,1915.238745,444.123565,8586.388927
673.388269,919.314598,-370.102971,8808.450710
673.388584,306.438199,-592.164754,9918.759623
673.388900,-153.219100,-370.102971,11029.068536
673.389216,-1455.581446,-518.144159,11029.068536
673.389532,-2604.724693,-666.185348,9918.759623
673.389847,-2374.896044,-1110.308913,9992.780217
673.390163,-1225.752797,-1036.288319,10807.006753
673.390479,-612.876398,-1184.329507,10362.883188
673.390795,-1149.143247,-1184.329507,9622.677246
673.391111,-689.485948,-962.267725,9918.759623
673.391426,-306.438199,-1036.288319,10288.862594
673.391742,383.047749,-148.041188,10436.903782
673.392058,919.314598,666.185348,9770.718434
673.392374,459.657299,1184.329507,8808.450710
673.392690,1532.190996,1036.288319,7994.224174
673.393005,2757.943793,1110.308913,7624.121203
673.393321,3524.039291,1036.288319,7846.182985
673.393637,2987.772442,1036.288319,8512.368333
673.393953,2298.286494,444.123565,8290.306550
673.394268,1378.971896,-0.000000,8290.306550
673.394584,612.876398,-296.082377,9844.739029
673.394900,0.000000,-444.123565,10807.006753
673.395216,-1072.533697,-518.144159,10807.006753
673.395532,-2068.457845,-518.144159,10658.965565
673.395847,-1915.238745,-1184.329507,9918.759623
673.396163,-919.314598,-1036.288319,10362.883188
673.396479,-689.485948,-1036.288319,10362.883188
673.396795,-919.314598,-888.247130,9770.718434
673.397111,-536.266849,-1628.453072,9548.656652
673.397426,0.000000,-1258.350101,9474.636058
673.397742,383.047749,-962.267725,10436.903782
673.398058,612.876398,-222.061783,10584.944971
673.398374,1302.362347,370.102971,9104.533087
673.398689,1608.800546,740.205942,7772.162391
673.399005,2911.162892,1480.411884,7105.977043
673.399321,3830.477490,1110.308913,7846.182985
673.399637,2987.772442,888.247130,8142.265362
673.399953,2068.457845,666.185348,7994.224174
673.400268,1532.190996,-222.061783,8660.409521
673.400584,766.095498,-592.164754,9548.656652
673.400900,76.609550,-592.164754,10881.027347
673.401216,-766.095498,-444.123565,10955.047942
673.401532,-1608.800546,-1258.350101,10288.862594
673.401847,-1838.629195,-1110.308913,9622.677246
673.402163,-1225.752797,-1036.288319,10140.821405
673.402479,-766.095498,-1036.288319,10066.800811
673.402795,-689.485948,-888.247130,9918.759623
673.403110,-842.705048,-1036.288319,9844.739029
673.403426,-153.219100,-1332.370696,9844.739029
673.403742,306.438199,-592.164754,10140.821405
673.404058,689.485948,444.123565,10140.821405
673.404374,1608.800546,1184.329507,9104.533087
673.404689,1685.410096,1480.411884,8216.285956
673.405005,2451.505594,1924.535449,7254.018232
673.405321,3600.648841,1850.514855,7920.203579
673.405637,3064.381992,1258.350101,8068.244768
673.405953,2681.334243,962.267725,8734.430116
673.406268,1378.971896,-0.000000,9104.533087
673.406584,842.705048,-74.020594,9548.656652
673.406900,0.000000,-0.000000,10881.027347
673.407216,-766.095498,-0.000000,10881.027347
673.407531,-1608.800546,-222.061783,10584.944971
673.407847,-1608.800546,-592.164754,10066.800811
673.408163,-1149.143247,-888.247130,10362.883188
673.408479,-919.314598,-740.205942,10584.944971
673.408795,-689.485948,-888.247130,10436.903782
673.409110,-995.924147,-1702.473667,10140.821405
673.409426,-612.876398,-1110.308913,10214.842000
673.409742,-153.219100,-518.144159,10658.965565
673.410058,306.438199,222.061783,10436.903782
673.410373,383.047749,1110.308913,9400.615463
673.410689,995.924147,814.226536,8734.430116
673.411005,2451.505594,1332.370696,7624.121203
673.411321,3140.991542,1480.411884,7402.059420
673.411637,2987.772442,1110.308913,8216.285956
673.411952,2068.457845,148.041188,8216.285956
673.412268,1149.143247,-296.082377,8734.430116
673.412584,919.314598,-222.061783,9918.759623
673.412900,76.609550,-222.061783,10362.883188
673.413216,-766.095498,-148.041188,10362.883188
673.413531,-1455.581446,-444.123565,10436.903782
673.413847,-1608.800546,-814.226536,9770.718434
673.414163,-995.924147,-1036.288319,10214.842000
673.414479,-459.657299,-1110.308913,9918.759623
673.414794,-842.705048,-1480.411884,9696.697840
673.415110,-536.266849,-1554.432478,9918.759623
673.415426,-536.266849,-2146.597232,9696.697840
673.415742,-306.438199,-1332.370696,10807.006753
673.416058,383.047749,-592.164754,10584.944971
673.416373,383.047749,-0.000000,9326.594869
673.416689,1532.190996,296.082377,8586.388927
673.417005,1915.238745,740.205942,7254.018232
673.417321,3064.381992,962.267725,7920.203579
673.417637,3370.820191,592.164754,8142.265362
673.417952,2451.505594,296.082377,7698.141797
673.418268,1915.238745,-370.102971,8216.285956
673.418584,1072.533697,-1036.288319,9696.697840
673.418900,306.438199,-962.267725,10584.944971
673.419215,-306.438199,-814.226536,10658.965565
673.419531,-1378.971896,-888.247130,10362.883188
673.419847,-1455.581446,-1036.288319,10288.862594
673.420163,-766.095498,-1332.370696,9696.697840
673.420479,-459.657299,-1110.308913,10140.821405
673.420794,-919.314598,-1258.350101,9918.759623
673.421110,-536.266849,-1702.473667,9474.636058
673.421426,-459.657299,-1554.432478,10066.800811
673.421742,-153.219100,-1406.391290,10584.944971
673.422058,76.609550,-518.144159,10584.944971
673.422373,766.095498,-0.000000,9696.697840
673.422689,919.314598,370.102971,8364.327145
673.423005,1608.800546,888.247130,7920.203579
673.423321,2987.772442,740.205942,8068.244768
673.423636,3217.601092,814.226536,7994.224174
673.423952,2528.115143,444.123565,7994.224174
673.424268,1915.238745,-0.000000,8512.368333
673.424584,1455.581446,-0.000000,9104.533087
673.424900,612.876398,-592.164754,10288.862594
673.425215,0.000000,-0.000000,10584.944971
673.425531,-995.924147,-370.102971,10288.862594
673.425847,-1302.362347,-592.164754,9474.636058
673.426163,-995.924147,-740.205942,9548.656652
673.426479,-689.485948,-888.247130,9992.780217
673.426794,-766.095498,-888.247130,9992.780217
673.427110,-842.705048,-1924.535449,9844.739029
673.427426,-1149.143247,-1332.370696,10214.842000
673.427742,-689.485948,-1110.308913,10807.006753
673.428057,-76.609550,-518.144159,10807.006753
673.428373,-153.219100,962.267725,9992.780217
673.428689,0.000000,1110.308913,8808.450710
673.429005,1685.410096,814.226536,8142.265362
673.429321,2757.943793,1110.308913,7994.224174
673.429636,2834.553343,1332.370696,8364.327145
673.429952,2604.724693,740.205942,8142.265362
673.430268,2145.067394,370.102971,8142.265362
673.430584,1302.362347,-0.000000,9474.636058
673.430900,766.095498,-74.020594,10066.800811
673.431215,229.828649,-0.000000,10881.027347
673.431531,-842.705048,-296.082377,10658.965565
673.431847,-1532.190996,-296.082377,9918.759623
673.432163,-842.705048,-888.247130,9770.718434
673.432478,-229.828649,-814.226536,10436.903782
673.432794,-612.876398,-518.144159,9770.718434
673.433110,-766.095498,-1036.288319,9696.697840
673.433426,-459.657299,-1628.453072,10066.800811
673.433742,-689.485948,-1332.370696,10732.986159
673.434057,-76.609550,-370.102971,10584.944971
673.434373,229.828649,740.205942,9992.780217
673.434689,383.047749,592.164754,8882.471304
673.435005,1838.629195,1332.370696,8438.347739
673.435321,2834.553343,1110.308913,8142.265362
673.435636,3064.381992,1258.350101,7846.182985
673.435952,2528.115143,1110.308913,8290.306550
673.436268,2145.067394,370.102971,7994.224174
673.436584,2145.067394,-0.000000,9030.512492
673.436899,1532.190996,370.102971,10140.821405
673.437215,689.485948,370.102971,10288.862594
673.437531,-306.438199,148.041188,10066.800811
673.437847,-842.705048,-0.000000,9400.615463
673.438163,-383.047749,-370.102971,9400.615463
673.438478,76.609550,-370.102971,9918.759623
673.438794,-153.219100,-740.205942,10066.800811
673.439110,-689.485948,-1110.308913,9548.656652
673.439426,-459.657299,-1258.350101,10066.800811
673.439741,-459.657299,-1332.370696,10510.924376
673.440057,-383.047749,-222.061783,10584.944971
673.440373,153.219100,740.205942,10066.800811
673.440689,0.000000,814.226536,8660.409521
673.441005,1149.143247,962.267725,7994.224174
673.441320,2604.724693,888.247130,8068.244768
673.441636,2911.162892,962.267725,8216.285956
673.441952,2221.676944,444.123565,8290.306550
673.442268,1838.629195,-0.000000,8290.306550
673.442584,1608.800546,-74.020594,9104.533087
673.442899,842.705048,296.082377,9992.780217
673.443215,229.828649,370.102971,10584.944971
673.443531,-383.047749,370.102971,9844.739029
673.443847,-1455.581446,-222.061783,9474.636058
673.444162,-842.705048,-444.123565,9770.718434
673.444478,0.000000,-888.247130,10288.862594
673.444794,-536.266849,-1110.308913,10066.800811
673.445110,-1149.143247,-1332.370696,9918.759623
673.445426,-1225.752797,-2072.576638,9992.780217
673.445741,-919.314598,-1702.473667,10658.965565
673.446057,-536.266849,-888.247130,10807.006753
673.446373,-383.047749,-222.061783,10436.903782
673.446689,76.609550,74.020594,9770.718434
673.447005,229.828649,296.082377,8808.450710
673.447320,1915.238745,518.144159,7920.203579
673.447636,2374.896044,518.144159,8216.285956
673.447952,1991.848295,222.061783,8364.327145
673.448268,1685.410096,-0.000000,8364.327145
673.448583,1302.362347,-592.164754,8882.471304
673.448899,766.095498,-444.123565,9844.739029
673.449215,229.828649,-666.185348,10732.986159
673.449531,-306.438199,-518.144159,10140.821405
673.449847,-1149.143247,-592.164754,9474.636058
673.450162,-689.485948,-740.205942,9770.718434
673.450478,153.219100,-592.164754,10066.800811
673.450794,-612.876398,-740.205942,9770.718434
673.451110,-612.876398,-814.226536,9548.656652
673.451426,-842.705048,-1258.350101,9696.697840
673.451741,-306.438199,-962.267725,10214.842000
673.452057,0.000000,-666.185348,10807.006753
673.452373,153.219100,-0.000000,10362.883188
673.452689,612.876398,222.061783,9326.594869
673.453005,1455.581446,888.247130,8364.327145
673.453321,2451.505594,1406.391290,7772.162391
673.453636,3064.381992,1628.453072,8364.327145
673.453952,2528.115143,1110.308913,8068.244768
673.454268,2068.457845,518.144159,8290.306550
673.454584,1762.019645,-444.123565,8808.450710
673.454900,1378.971896,-444.123565,9474.636058
673.455216,612.876398,-222.061783,10510.924376
673.455532,0.000000,-222.061783,9770.718434
673.455847,-995.924147,-370.102971,9400.615463
673.456163,-842.705048,-518.144159,9474.636058
673.456479,229.828649,-888.247130,9992.780217
673.456795,0.000000,-888.247130,9770.718434
673.457111,-919.314598,-1406.391290,9770.718434
673.457427,-383.047749,-1480.411884,9696.697840
673.457742,-383.047749,-1702.473667,10436.903782
673.458058,0.000000,-962.267725,10584.944971
673.458374,153.219100,148.041188,9770.718434
673.458690,459.657299,592.164754,8586.388927
673.459006,919.314598,666.185348,8142.265362
673.459322,2068.457845,666.185348,7994.224174
673.459638,2528.115143,370.102971,7698.141797
673.459953,2145.067394,518.144159,8290.306550
673.460269,1532.190996,-222.061783,8438.347739
673.460585,1149.143247,-666.185348,9030.512492
673.460901,536.266849,-296.082377,9992.780217
673.461217,0.000000,-370.102971,11029.068536
673.461533,-1149.143247,-444.123565,10658.965565
673.461848,-1915.238745,-370.102971,10288.862594
673.462164,-1455.581446,-666.185348,9622.677246
673.462480,-153.219100,-962.267725,10510.924376
673.462796,-689.485948,-814.226536,10510.924376
673.463112,-689.485948,-592.164754,9548.656652
673.463428,-689.485948,-962.267725,9400.615463
673.463743,-459.657299,-814.226536,10066.800811
673.464059,766.095498,-0.000000,10288.862594
673.464375,536.266849,962.267725,9844.739029
673.464691,689.485948,1332.370696,9030.512492
673.465007,1455.581446,962.267725,8586.388927
673.465323,2451.505594,666.185348,8068.244768
673.465639,3064.381992,592.164754,8512.368333
673.465954,1991.848295,-0.000000,8586.388927
673.466270,1378.971896,-296.082377,8660.409521
673.466586,995.924147,-222.061783,9252.574275
673.466902,689.485948,-0.000000,10288.862594
673.467218,383.047749,-0.000000,11251.130318
673.467534,-689.485948,-0.000000,10288.862594
673.467849,-1302.362347,-0.000000,9548.656652
673.468165,-995.924147,-592.164754,9252.574275
673.468481,459.657299,-370.102971,10066.800811
673.468797,153.219100,-814.226536,9844.739029
673.469113,0.000000,-888.247130,9474.636058
673.469429,0.000000,-1406.391290,10066.800811
673.469745,0.000000,-1332.370696,10288.862594
673.470060,612.876398,-296.082377,10288.862594
673.470376,612.876398,518.144159,9844.739029
673.470692,689.485948,1258.350101,9030.512492
673.471008,1455.581446,962.267725,8290.306550
673.471324,2528.115143,1036.288319,7698.141797
673.471640,2911.162892,962.267725,8142.265362
673.471955,2298.286494,444.123565,8808.450710
673.472271,1455.581446,-74.020594,8512.368333
673.472587,919.314598,-592.164754,9030.512492
673.472903,153.219100,-592.164754,10214.842000
673.473219,0.000000,-1036.288319,10807.006753
673.473535,-1072.533697,-444.123565,10584.944971
673.473850,-1532.190996,-740.205942,9992.780217
673.474166,-1072.533697,-962.267725,9474.636058
673.474482,-76.609550,-740.205942,9992.780217
673.474798,0.000000,-1036.288319,9474.636058
673.475114,-459.657299,-1110.308913,9252.574275
673.475430,-536.266849,-1554.432478,9474.636058
673.475746,0.000000,-1110.308913,9770.718434
673.476061,383.047749,-444.123565,10066.800811
673.476377,689.485948,370.102971,9622.677246
673.476693,612.876398,814.226536,8956.491898
673.477009,995.924147,666.185348,8068.244768
673.477325,2068.457845,518.144159,7920.203579
673.477641,2604.724693,592.164754,8660.409521
673.477956,2221.676944,222.061783,9030.512492
673.478272,1455.581446,-0.000000,8290.306550
673.478588,995.924147,-666.185348,9104.533087
673.478904,383.047749,-814.226536,10362.883188
673.479220,229.828649,-222.061783,10732.986159
673.479536,-1072.533697,-222.061783,10436.903782
673.479852,-1685.410096,-592.164754,10288.862594
673.480167,-1149.143247,-1110.308913,9770.718434
673.480483,-229.828649,-888.247130,10140.821405
673.480799,0.000000,-1036.288319,10288.862594
673.481115,-229.828649,-740.205942,9474.636058
673.481431,-229.828649,-1406.391290,9474.636058
673.481747,229.828649,-1036.288319,9326.594869
673.482062,612.876398,-444.123565,9992.780217
673.482378,842.705048,-0.000000,10066.800811
673.482694,995.924147,666.185348,8808.450710
673.483010,1225.752797,666.185348,7994.224174
673.483326,2145.067394,518.144159,8142.265362
673.483642,2604.724693,444.123565,8068.244768
673.483957,2145.067394,444.123565,7920.203579
673.484273,1072.533697,-222.061783,8142.265362
673.484589,383.047749,-1036.288319,9104.533087
673.484905,0.000000,-1184.329507,10436.903782
673.485221,-306.438199,-1258.350101,11029.068536
673.485537,-1149.143247,-666.185348,10881.027347
673.485853,-1915.238745,-518.144159,10066.800811
673.486168,-1608.800546,-592.164754,9474.636058
673.486484,-459.657299,-1036.288319,10288.862594
673.486800,-306.438199,-814.226536,10214.842000
673.487116,-306.438199,-888.247130,9474.636058
673.487432,-459.657299,-1258.350101,9400.615463
673.487748,0.000000,-1258.350101,9844.739029
673.488063,766.095498,-222.061783,10436.903782
673.488379,612.876398,518.144159,9992.780217
673.488695,919.314598,1332.370696,9030.512492
673.489011,1225.752797,1110.308913,8142.265362
673.489327,2298.286494,1184.329507,7846.182985
673.489643,2911.162892,666.185348,8290.306550
673.489959,2221.676944,740.205942,8586.388927
673.490274,1685.410096,148.041188,8290.306550
673.490590,842.705048,-222.061783,8882.471304
673.490906,766.095498,-518.144159,10436.903782
673.491222,76.609550,-370.102971,10732.986159
673.491538,-689.485948,-148.041188,10732.986159
673.491854,-1072.533697,-74.020594,10214.842000
673.492169,-1149.143247,-444.123565,9696.697840
673.492485,0.000000,-296.082377,9918.759623
673.492801,306.438199,-222.061783,10214.842000
673.493117,-229.828649,-222.061783,9696.697840
673.493433,0.000000,-592.164754,9844.739029
673.493749,0.000000,-814.226536,9918.759623
673.494064,306.438199,-296.082377,10362.883188
673.494380,1072.533697,592.164754,10362.883188
673.494696,612.876398,1036.288319,9770.718434
673.495012,995.924147,1480.411884,8512.368333
673.495328,2374.896044,1110.308913,8216.285956
673.495644,2911.162892,1184.329507,8808.450710
673.495960,2681.334243,1406.391290,8586.388927
673.496275,2221.676944,740.205942,8512.368333
673.496591,1608.800546,444.123565,8512.368333
673.496907,995.924147,222.061783,9770.718434
673.497223,1302.362347,148.041188,10658.965565
673.497539,0.000000,-0.000000,10732.986159
673.497855,-1225.752797,-370.102971,10140.821405
673.498170,-766.095498,-444.123565,9770.718434
673.498486,-229.828649,-592.164754,9696.697840
673.498802,-306.438199,-592.164754,9696.697840
673.499118,-536.266849,-1036.288319,9844.739029
673.499434,-612.876398,-1480.411884,9548.656652
673.499750,-536.266849,-1406.391290,9992.780217
673.500065,0.000000,-888.247130,10362.883188
673.500381,76.609550,-74.020594,10584.944971
673.500697,229.828649,222.061783,9622.677246
673.501013,842.705048,518.144159,8512.368333
673.501329,1762.019645,814.226536,7920.203579
673.501645,2681.334243,592.164754,7772.162391
673.501961,2987.772442,-0.000000,8142.265362
673.502276,1838.629195,-296.082377,8512.368333
673.502592,1378.971896,-666.185348,8734.430116
673.502908,1149.143247,-370.102971,9400.615463
673.503224,383.047749,-296.082377,10214.842000
673.503540,0.000000,-740.205942,10140.821405
673.503856,-1302.362347,-518.144159,9548.656652
673.504171,-1532.190996,-518.144159,9474.636058
673.504487,-612.876398,-888.247130,9844.739029
673.504803,-153.219100,-1110.308913,10214.842000
673.505119,-689.485948,-1258.350101,9770.718434
673.505435,-995.924147,-1332.370696,9548.656652
673.505751,-919.314598,-1480.411884,10140.821405
673.506067,-383.047749,-1258.350101,10732.986159
673.506382,0.000000,-0.000000,10658.965565
673.506698,-229.828649,148.041188,9992.780217
673.507014,306.438199,370.102971,8660.409521
673.507330,1302.362347,-0.000000,7994.224174
673.507646,2528.115143,370.102971,8216.285956
673.507962,2374.896044,444.123565,8586.388927
673.508277,2068.457845,148.041188,8216.285956
673.508593,1608.800546,-444.123565,8364.327145
673.508909,1378.971896,-592.164754,9548.656652
673.509225,842.705048,-444.123565,10140.821405
673.509541,76.609550,-444.123565,10288.862594
673.509857,-766.095498,-888.247130,9992.780217
673.510172,-919.314598,-888.247130,9548.656652
673.510488,-459.657299,-666.185348,9770.718434
673.510804,0.000000,-888.247130,9770.718434
673.511120,-459.657299,-666.185348,9992.780217
673.511436,-689.485948,-1702.473667,9622.677246
673.511752,-536.266849,-2072.576638,9844.739029
673.512068,-153.219100,-1554.432478,10658.965565
673.512383,0.000000,-518.144159,10584.944971
673.512699,0.000000,444.123565,9696.697840
673.513015,536.266849,814.226536,8586.388927
673.513331,1915.238745,1110.308913,7846.182985
673.513647,2681.334243,1332.370696,7994.224174
673.513963,2528.115143,1184.329507,8438.347739
673.514278,1915.238745,296.082377,8068.244768
673.514594,1762.019645,-222.061783,8438.347739
673.514910,995.924147,-74.020594,9548.656652
673.515226,842.705048,-74.020594,10140.821405
673.515542,383.047749,-0.000000,10584.944971
673.515858,-919.314598,148.041188,10288.862594
673.516174,-1225.752797,-74.020594,9548.656652
673.516489,-459.657299,-148.041188,9918.759623
673.516805,0.000000,-296.082377,9770.718434
673.517121,0.000000,-666.185348,10140.821405
673.517437,-229.828649,-740.205942,10140.821405
673.517753,-229.828649,-962.267725,9992.780217
673.518069,0.000000,-518.144159,10510.924376
673.518384,383.047749,-0.000000,10510.924376
673.518700,306.438199,740.205942,9474.636058
673.519016,842.705048,1110.308913,8438.347739
673.519332,1455.581446,1110.308913,8142.265362
673.519648,2451.505594,1702.473667,8364.327145
673.519964,2451.505594,1332.370696,8364.327145
673.520279,1991.848295,296.082377,8438.347739
673.520595,1302.362347,-74.020594,8734.430116
673.520911,919.314598,-74.020594,9844.739029
673.521227,153.219100,-296.082377,10362.883188
673.521543,-306.438199,-0.000000,10807.006753
673.521859,-1455.581446,-370.102971,10362.883188
673.522175,-1149.143247,-222.061783,9844.739029
673.522490,-842.705048,-518.144159,9770.718434
673.522806,-229.828649,-296.082377,10140.821405
673.523122,-536.266849,-740.205942,9844.739029
673.523438,-459.657299,-814.226536,9622.677246
673.523754,-383.047749,-814.226536,9992.780217
673.524070,0.000000,-888.247130,10362.883188
673.524385,229.828649,148.041188,10510.924376
673.524701,153.219100,740.205942,9844.739029
673.525017,383.047749,814.226536,8956.491898
673.525333,1225.752797,814.226536,7994.224174
673.525649,2451.505594,1110.308913,8512.368333
673.525965,2145.067394,296.082377,8364.327145
673.526281,1838.629195,222.061783,8364.327145
673.526596,1455.581446,-444.123565,8660.409521
673.526912,1225.752797,-148.041188,9696.697840
673.527228,689.485948,-74.020594,10140.821405
673.527544,229.828649,-74.020594,10732.986159
673.527860,-766.095498,296.082377,10066.800811
673.528176,-995.924147,-74.020594,9400.615463
673.528491,-383.047749,-592.164754,9474.636058
673.528807,383.047749,-888.247130,9992.780217
673.529123,-76.609550,-666.185348,9548.656652
673.529439,-153.219100,-1184.329507,9178.553681
673.529755,-536.266849,-1702.473667,9696.697840
673.530071,0.000000,-1332.370696,10584.944971
673.530386,153.219100,-222.061783,10362.883188
673.530702,612.876398,296.082377,9770.718434
673.531018,536.266849,518.144159,8882.471304
673.531334,1378.971896,222.061783,7846.182985
673.531650,2681.334243,518.144159,8586.388927
673.531966,3294.210641,370.102971,8142.265362
673.532282,2451.505594,-0.000000,7772.162391
673.532597,2145.067394,-592.164754,8142.265362
673.532913,1225.752797,-814.226536,8956.491898
673.533229,919.314598,-518.144159,9844.739029
673.533545,0.000000,-370.102971,10436.903782
673.533861,-842.705048,-1258.350101,9918.759623
673.534177,-1225.752797,-1184.329507,9622.677246
673.534492,-612.876398,-1628.453072,9844.739029
673.534808,-383.047749,-1554.432478,9844.739029
673.535124,-306.438199,-1554.432478,10066.800811
673.535440,-459.657299,-1628.453072,9992.780217
673.535756,-995.924147,-1258.350101,9474.636058
673.536072,-689.485948,-1184.329507,10288.862594
673.536387,-153.219100,-888.247130,10436.903782
673.536703,0.000000,-0.000000,9918.759623
673.537019,0.000000,148.041188,9400.615463
673.537335,1225.752797,222.061783,8290.306550
673.537651,2374.896044,740.205942,8142.265362
673.537967,2451.505594,814.226536,8290.306550
673.538283,2374.896044,370.102971,8512.368333
673.538598,1608.800546,-222.061783,8290.306550
673.538914,919.314598,-74.020594,9400.615463
673.539230,459.657299,-74.020594,10288.862594
673.539546,-383.047749,-148.041188,10436.903782
673.539862,-1302.362347,-148.041188,10362.883188
673.540178,-1991.848295,-370.102971,10066.800811
673.540493,-1072.533697,-592.164754,9696.697840
673.540809,-306.438199,-666.185348,10510.924376
673.541125,-766.095498,-666.185348,9548.656652
673.541441,-995.924147,-1258.350101,9696.697840
673.541757,-306.438199,-1702.473667,9844.739029
673.542073,-459.657299,-1406.391290,10510.924376
673.542389,-153.219100,-444.123565,10955.047942
673.542704,536.266849,518.144159,10362.883188
673.543020,306.438199,1110.308913,8956.491898
673.543336,1685.410096,1332.370696,7846.182985
673.543652,3217.601092,1406.391290,7624.121203
673.543968,3524.039291,1036.288319,7772.162391
673.544284,2757.943793,888.247130,8142.265362
673.544599,2068.457845,-0.000000,8290.306550
673.544915,1455.581446,-592.164754,9030.512492
673.545231,1225.752797,-222.061783,10214.842000
673.545547,383.047749,-0.000000,10584.944971
673.545863,-612.876398,-0.000000,9918.759623
673.546179,-536.266849,-666.185348,9844.739029
673.546494,-919.314598,-962.267725,9844.739029
673.546810,-459.657299,-740.205942,9918.759623
673.547126,-459.657299,-1036.288319,9844.739029
673.547442,-766.095498,-1184.329507,9474.636058
673.547758,-383.047749,-2294.638420,9918.759623
673.548074,-459.657299,-1480.411884,10510.924376
673.548390,-306.438199,-444.123565,10436.903782
673.548705,-229.828649,518.144159,9992.780217
673.549021,0.000000,444.123565,9474.636058
673.549337,995.924147,888.247130,8068.244768
673.549653,2298.286494,1110.308913,7550.100608
673.549969,2911.162892,1110.308913,8068.244768
673.550285,2374.896044,518.144159,7994.224174
673.550600,1915.238745,-0.000000,8068.244768
673.550916,1378.971896,222.061783,9104.533087
673.551232,919.314598,296.082377,9696.697840
673.551548,306.438199,518.144159,10288.862594
673.551864,-383.047749,592.164754,10214.842000
673.552180,-842.705048,-148.041188,9844.739029
673.552495,-459.657299,-370.102971,9696.697840
673.552811,0.000000,-740.205942,10140.821405
673.553127,-153.219100,-592.164754,9992.780217
673.553443,-612.876398,-592.164754,9770.718434
673.553758,-689.485948,-888.247130,9696.697840
673.554074,-229.828649,-444.123565,10881.027347
673.554390,-383.047749,-148.041188,10658.965565
673.554705,-229.828649,740.205942,10288.862594
673.555021,0.000000,518.144159,9252.574275
673.555337,1149.143247,370.102971,9030.512492
673.555653,2451.505594,814.226536,8438.347739
673.555968,2987.772442,1036.288319,8364.327145
673.556284,2374.896044,962.267725,8290.306550
673.556600,2145.067394,222.061783,8290.306550
673.556915,1378.971896,-74.020594,9030.512492
673.557231,1149.143247,148.041188,9696.697840
673.557547,612.876398,148.041188,10362.883188
673.557862,-306.438199,-74.020594,10066.800811
673.558178,-1225.752797,-592.164754,10214.842000
673.558494,-459.657299,-1480.411884,9844.739029
673.558810,-229.828649,-888.247130,9844.739029
673.559125,-306.438199,-740.205942,9326.594869
673.559441,-919.314598,-1184.329507,9696.697840
673.559757,-306.438199,-1850.514855,9622.677246
673.560072,-306.438199,-1628.453072,10584.944971
673.560388,-383.047749,-962.267725,10436.903782
673.560704,0.000000,-0.000000,10362.883188
673.561020,306.438199,666.185348,9104.533087
673.561335,1149.143247,814.226536,7846.182985
673.561651,2145.067394,814.226536,8216.285956
673.561967,2681.334243,666.185348,8438.347739
673.562282,1915.238745,592.164754,8068.244768
673.562598,1685.410096,-0.000000,8512.368333
673.562914,1378.971896,-0.000000,9326.594869
673.563230,995.924147,-296.082377,10214.842000
673.563545,306.438199,-222.061783,11029.068536
673.563861,-612.876398,-0.000000,10214.842000
673.564177,-1149.143247,-0.000000,9918.759623
673.564492,-229.828649,-592.164754,9326.594869
673.564808,0.000000,-444.123565,9844.739029
673.565124,-383.047749,-222.061783,9548.656652
673.565440,-153.219100,-1258.350101,9400.615463
673.565755,0.000000,-1036.288319,9474.636058
673.566071,-229.828649,-1628.453072,10288.862594
673.566387,0.000000,-962.267725,10362.883188
673.566702,306.438199,-148.041188,10510.924376
673.567018,383.047749,-0.000000,8956.491898
673.567334,1225.752797,148.041188,8364.327145
673.567650,2298.286494,370.102971,8068.244768
673.567965,2757.943793,296.082377,8068.244768
673.568281,2298.286494,148.041188,7994.224174
673.568597,1838.629195,-444.123565,8364.327145
673.568912,1378.971896,-888.247130,8956.491898
673.569228,1225.752797,-740.205942,9770.718434
673.569544,0.000000,-814.226536,10362.883188
673.569860,-383.047749,-222.061783,10362.883188
673.570175,-842.705048,-222.061783,9474.636058
673.570491,-766.095498,-888.247130,9474.636058
673.570807,0.000000,-888.247130,9844.739029
673.571122,-229.828649,-888.247130,9622.677246
673.571438,-536.266849,-888.247130,9474.636058
673.571754,-612.876398,-1332.370696,10288.862594
673.572070,-229.828649,-1184.329507,10288.862594
673.572385,0.000000,-518.144159,10510.924376
673.572701,76.609550,666.185348,10510.924376
673.573017,229.828649,444.123565,9622.677246
673.573332,766.095498,888.247130,8438.347739
673.573648,1991.848295,1258.350101,7772.162391
673.573964,2757.943793,962.267725,8364.327145
673.574280,2374.896044,666.185348,8290.306550
673.574595,1455.581446,592.164754,8216.285956
673.574911,1378.971896,-444.123565,9326.594869
673.575227,919.314598,-0.000000,10066.800811
673.575542,229.828649,-0.000000,10288.862594
673.575858,-612.876398,-74.020594,10214.842000
673.576174,-1608.800546,-222.061783,9844.739029
673.576490,-1302.362347,-518.144159,9696.697840
673.576805,-306.438199,-592.164754,9844.739029
673.577121,-229.828649,-666.185348,9622.677246
673.577437,-842.705048,-888.247130,9918.759623
673.577752,-995.924147,-1184.329507,9770.718434
673.578068,-536.266849,-1258.350101,9992.780217
673.578384,-306.438199,-814.226536,10881.027347
673.578700,0.000000,-0.000000,10510.924376
673.579015,229.828649,518.144159,9400.615463
673.579331,995.924147,814.226536,8512.368333
673.579647,1915.238745,1258.350101,8068.244768
673.579962,2911.162892,1036.288319,8290.306550
673.580278,2681.334243,592.164754,8216.285956
673.580594,1685.410096,222.061783,8216.285956
673.580910,1455.581446,-296.082377,9030.512492
673.581225,919.314598,-444.123565,10140.821405
673.581541,153.219100,-296.082377,10881.027347
673.581857,-536.266849,-74.020594,10807.006753
673.582172,-1302.362347,-296.082377,9844.739029
673.582488,-1149.143247,-1184.329507,9548.656652
673.582804,-229.828649,-1110.308913,10214.842000
673.583120,-76.609550,-1036.288319,10362.883188
673.583435,-689.485948,-1110.308913,9696.697840
673.583751,-842.705048,-1702.473667,9844.739029
673.584067,-842.705048,-1258.350101,10807.006753
673.584382,0.000000,-666.185348,10436.903782
673.584698,459.657299,148.041188,10436.903782
673.585014,459.657299,1036.288319,9030.512492
673.585329,1072.533697,888.247130,8216.285956
673.585645,2604.724693,1406.391290,7846.182985
673.585961,3064.381992,962.267725,7920.203579
673.586277,2681.334243,962.267725,8216.285956
673.586592,2374.896044,666.185348,8290.306550
673.586908,1378.971896,-0.000000,8364.327145
673.587224,1149.143247,-222.061783,9770.718434
673.587539,612.876398,-0.000000,10436.903782
673.587855,-229.828649,-0.000000,10288.862594
673.588171,-1149.143247,-0.000000,9992.780217
673.588487,-995.924147,-592.164754,9326.594869
673.588802,-383.047749,-1036.288319,9918.759623
673.589118,-229.828649,-518.144159,10066.800811
673.589434,-689.485948,-962.267725,9770.718434
673.589749,-612.876398,-1036.288319,9770.718434
673.590065,-383.047749,-1184.329507,9918.759623
673.590381,0.000000,-666.185348,10362.883188
673.590697,536.266849,296.082377,10288.862594
673.591012,766.095498,814.226536,9030.512492
673.591328,1225.752797,1184.329507,8068.244768
673.591644,2374.896044,888.247130,7846.182985
673.591959,3370.820191,666.185348,7994.224174
673.592275,2911.162892,592.164754,8068.244768
673.592591,1991.848295,-148.041188,8216.285956
673.592907,1455.581446,-740.205942,8660.409521
673.593222,1149.143247,-888.247130,9622.677246
673.593538,-153.219100,-518.144159,10732.986159
673.593854,-689.485948,-444.123565,10510.924376
673.594169,-1685.410096,-962.267725,10140.821405
673.594485,-1378.971896,-888.247130,9770.718434
673.594801,0.000000,-1036.288319,9992.780217
673.595117,-459.657299,-1036.288319,9918.759623
673.595432,-1149.143247,-666.185348,9770.718434
673.595748,-919.314598,-1258.350101,9400.615463
673.596064,-536.266849,-1628.453072,10140.821405
673.596379,0.000000,-962.267725,10658.965565
673.596695,0.000000,-370.102971,10362.883188
673.597011,229.828649,222.061783,9992.780217
673.597327,612.876398,444.123565,9030.512492
673.597642,1838.629195,962.267725,8068.244768
673.597958,2451.505594,1258.350101,7846.182985
673.598274,2221.676944,740.205942,8290.306550
673.598589,1838.629195,518.144159,8290.306550
673.598905,1378.971896,-0.000000,8438.347739
673.599221,1072.533697,-444.123565,9844.739029
673.599537,76.609550,-148.041188,10658.965565
673.599852,-766.095498,-74.020594,10436.903782
673.600168,-1378.971896,-222.061783,9918.759623
673.600484,-1608.800546,-444.123565,9696.697840
673.600799,-995.924147,-814.226536,10288.862594
673.601115,-919.314598,-962.267725,10140.821405
673.601431,-1072.533697,-1332.370696,9696.697840
673.601747,-995.924147,-1480.411884,9992.780217
673.602062,-842.705048,-1776.494261,10362.883188
673.602378,153.219100,-1184.329507,11029.068536
673.602694,0.000000,-0.000000,10510.924376
673.603009,229.828649,666.185348,9252.574275
673.603325,995.924147,666.185348,8438.347739
673.603641,2145.067394,962.267725,7698.141797
673.603957,3370.820191,666.185348,8290.306550
673.604272,2987.772442,814.226536,8216.285956
673.604588,2528.115143,518.144159,7772.162391
673.604904,2068.457845,-444.123565,8216.285956
673.605219,1378.971896,-444.123565,9326.594869
673.605535,689.485948,-148.041188,10140.821405
673.605851,0.000000,-370.102971,10288.862594
673.606167,-995.924147,-592.164754,9918.759623
673.606482,-1149.143247,-1184.329507,9770.718434
673.606798,-536.266849,-1258.350101,10214.842000
673.607114,-306.438199,-962.267725,9992.780217
673.607429,-919.314598,-1406.391290,9696.697840
673.607745,-689.485948,-1332.370696,9696.697840
673.608061,-306.438199,-1628.453072,9696.697840
673.608377,0.000000,-888.247130,10362.883188
673.608692,153.219100,-74.020594,10362.883188
673.609008,383.047749,370.102971,9178.553681
673.609324,919.314598,296.082377,8438.347739
673.609639,1838.629195,296.082377,8290.306550
673.609955,2911.162892,888.247130,8068.244768
673.610271,2911.162892,1110.308913,7994.224174
673.610586,2298.286494,370.102971,7772.162391
673.610902,2068.457845,-518.144159,8512.368333
673.611218,1225.752797,-148.041188,9622.677246
673.611534,536.266849,-0.000000,10362.883188
673.611849,0.000000,444.123565,10584.944971
673.612165,-1072.533697,-296.082377,10362.883188
673.612481,-1302.362347,-518.144159,10214.842000
673.612796,-689.485948,-592.164754,9918.759623
673.613112,-383.047749,-444.123565,9992.780217
673.613428,-766.095498,-592.164754,9992.780217
673.613744,-995.924147,-888.247130,9770.718434
673.614059,-229.828649,-1036.288319,9844.739029
673.614375,0.000000,-518.144159,10881.027347
673.614691,0.000000,-0.000000,10214.842000
673.615006,459.657299,666.185348,9474.636058
673.615322,766.095498,814.226536,8734.430116
673.615638,1991.848295,1110.308913,8068.244768
673.615954,2911.162892,1406.391290,8068.244768
673.616269,3064.381992,1110.308913,8142.265362
673.616585,2374.896044,740.205942,8364.327145
673.616901,2145.067394,-74.020594,8734.430116
673.617216,1455.581446,-518.144159,9474.636058
673.617532,689.485948,-518.144159,10362.883188
673.617848,153.219100,-0.000000,10955.047942
673.618164,-689.485948,-0.000000,10288.862594
673.618479,-1072.533697,-0.000000,9548.656652
673.618795,-689.485948,-444.123565,9548.656652
673.619111,0.000000,-222.061783,9696.697840
673.619426,-459.657299,-962.267725,9770.718434
673.619742,-842.705048,-1184.329507,9844.739029
673.620058,-766.095498,-1406.391290,10140.821405
673.620374,-459.657299,-1258.350101,10436.903782
673.620689,-76.609550,-74.020594,10658.965565
673.621005,383.047749,888.247130,9474.636058
673.621321,153.219100,962.267725,8734.430116
673.621636,1838.629195,888.247130,7994.224174
673.621952,3140.991542,370.102971,8660.409521
673.622268,2604.724693,592.164754,8290.306550
673.622584,1991.848295,-74.020594,8290.306550
673.622899,1378.971896,-666.185348,8734.430116
673.623215,1378.971896,-444.123565,9696.697840
673.623531,536.266849,-0.000000,10066.800811
673.623846,153.219100,296.082377,10140.821405
673.624162,-766.095498,-222.061783,9918.759623
673.624478,-1225.752797,-740.205942,9474.636058
673.624794,-459.657299,-888.247130,9770.718434
673.625109,0.000000,-1332.370696,9696.697840
673.625425,-612.876398,-1110.308913,9548.656652
673.625741,-459.657299,-1184.329507,9918.759623
673.626056,-612.876398,-1554.432478,9844.739029
673.626372,-306.438199,-814.226536,10288.862594
673.626688,383.047749,-888.247130,10214.842000
673.627004,153.219100,-0.000000,9844.739029
673.627319,383.047749,148.041188,8512.368333
673.627635,1608.800546,148.041188,8142.265362
673.627951,2451.505594,148.041188,8512.368333
673.628266,2528.115143,-0.000000,8364.327145
