#time,accel_x,accel_y,accel_z
1133.137431,383.047749,-0.000000,9474.636058
1133.137747,689.485948,-74.020594,9474.636058
1133.138063,383.047749,-222.061783,9400.615463
1133.138379,459.657299,-222.061783,9474.636058
1133.138695,459.657299,-74.020594,9474.636058
1133.139011,459.657299,-148.041188,9474.636058
1133.139327,306.438199,-222.061783,9474.636058
1133.139643,383.047749,-74.020594,9770.718434
1133.139959,459.657299,-0.000000,9474.636058
1133.140275,306.438199,-222.061783,9548.656652
1133.140591,306.438199,-296.082377,9474.636058
1133.140907,612.876398,-444.123565,9622.677246
1133.141223,459.657299,-74.020594,9474.636058
1133.141539,76.609550,-148.041188,9548.656652
1133.141855,383.047749,-222.061783,9474.636058
1133.142170,536.266849,-296.082377,9548.656652
1133.142486,383.047749,-0.000000,9474.636058
1133.142802,536.266849,-222.061783,9326.594869
1133.143118,383.047749,-74.020594,9326.594869
1133.143434,459.657299,-148.041188,9548.656652
1133.143750,612.876398,-222.061783,9548.656652
1133.144066,306.438199,-370.102971,9400.615463
1133.144382,459.657299,-148.041188,9326.594869
1133.144698,229.828649,-0.000000,9474.636058
1133.145014,536.266849,-370.102971,9474.636058
1133.145330,459.657299,-296.082377,9770.718434
1133.145646,536.266849,-0.000000,9326.594869
1133.145962,153.219100,-0.000000,9400.615463
1133.146278,306.438199,-0.000000,9548.656652
1133.146594,766.095498,-0.000000,9474.636058
1133.146910,306.438199,444.123565,9548.656652
1133.147226,536.266849,370.102971,9178.553681
1133.147542,536.266849,148.041188,9104.533087
1133.147858,536.266849,370.102971,9104.533087
1133.148174,1072.533697,-0.000000,9104.533087
1133.148490,536.266849,296.082377,9474.636058
1133.148806,536.266849,518.144159,9326.594869
1133.149121,612.876398,518.144159,9474.636058
1133.149437,0.000000,296.082377,9548.656652
1133.149753,76.609550,518.144159,9252.574275
1133.150069,76.609550,592.164754,9622.677246
1133.150385,153.219100,1036.288319,9400.615463
1133.150701,76.609550,740.205942,9474.636058
1133.151017,0.000000,888.247130,9474.636058
1133.151333,-306.438199,1110.308913,9548.656652
1133.151649,0.000000,962.267725,9326.594869
1133.151965,-459.657299,1036.288319,9252.574275
1133.152281,-306.438199,1110.308913,9326.594869
1133.152597,-229.828649,1332.370696,9252.574275
1133.152913,-612.876398,1110.308913,8882.471304
1133.153229,-459.657299,1406.391290,9104.533087
1133.153545,-1225.752797,1110.308913,9104.533087
1133.153861,-1149.143247,1480.411884,9400.615463
1133.154177,-1302.362347,1406.391290,9770.718434
1133.154493,-1685.410096,962.267725,9918.759623
1133.154809,-1915.238745,1258.350101,9622.677246
1133.155125,-1915.238745,1258.350101,9622.677246
1133.155441,-2145.067394,1628.453072,9548.656652
1133.155757,-2374.896044,1628.453072,9770.718434
1133.156072,-1915.238745,1702.473667,9696.697840
1133.156388,-1991.848295,1776.494261,9548.656652
1133.156704,-1608.800546,1924.535449,9474.636058
1133.157020,-1302.362347,1776.494261,9178.553681
1133.157336,-1455.581446,1776.494261,9326.594869
1133.157652,-1838.629195,1850.514855,9474.636058
1133.157968,-1225.752797,1702.473667,9474.636058
1133.158284,-995.924147,1628.453072,9696.697840
1133.158600,-995.924147,2072.576638,9770.718434
1133.158916,-842.705048,2368.659014,9622.677246
1133.159232,-1149.143247,1924.535449,9400.615463
1133.159548,-1149.143247,2072.576638,9326.594869
1133.159864,-1225.752797,2442.679609,9252.574275
1133.160180,-1149.143247,2442.679609,9400.615463
1133.160496,-1532.190996,2146.597232,9326.594869
1133.160812,-1685.410096,1924.535449,9474.636058
1133.161128,-1915.238745,1480.411884,9622.677246
1133.161444,-2145.067394,1036.288319,9844.739029
1133.161760,-2374.896044,962.267725,10066.800811
1133.162076,-2451.505594,1110.308913,9992.780217
1133.162392,-2374.896044,1184.329507,9918.759623
1133.162708,-2068.457845,1480.411884,9770.718434
1133.163023,-2451.505594,1406.391290,9696.697840
1133.163339,-2068.457845,1406.391290,9844.739029
1133.163655,-2145.067394,1036.288319,9622.677246
1133.163971,-1838.629195,1554.432478,9326.594869
1133.164287,-1608.800546,1850.514855,9326.594869
1133.164603,-1762.019645,1628.453072,9252.574275
1133.164919,-1838.629195,1998.556043,9104.533087
1133.165235,-2145.067394,2220.617826,9104.533087
1133.165551,-2374.896044,2220.617826,8808.450710
1133.165867,-2451.505594,2368.659014,9104.533087
1133.166183,-2757.943793,2368.659014,9326.594869
1133.166499,-2681.334243,1776.494261,9474.636058
1133.166815,-3217.601092,1036.288319,9696.697840
1133.167131,-2911.162892,592.164754,10214.842000
1133.167447,-2604.724693,296.082377,10140.821405
1133.167763,-2451.505594,296.082377,10362.883188
1133.168079,-2298.286494,-0.000000,10362.883188
1133.168395,-1608.800546,-0.000000,9918.759623
1133.168711,-766.095498,1406.391290,9622.677246
1133.169027,0.000000,2146.597232,9030.512492
1133.169343,229.828649,2442.679609,8660.409521
1133.169659,612.876398,2812.782580,8142.265362
1133.169974,766.095498,3108.864956,7920.203579
1133.170290,689.485948,2960.823768,8216.285956
1133.170606,153.219100,3108.864956,8142.265362
1133.170922,-383.047749,2960.823768,8142.265362
1133.171238,-995.924147,2220.617826,8290.306550
1133.171554,-2374.896044,1998.556043,9104.533087
1133.171870,-2757.943793,1184.329507,9918.759623
1133.172186,-3294.210641,1110.308913,10288.862594
1133.172502,-4136.915689,888.247130,10584.944971
1133.172818,-4366.744339,370.102971,11029.068536
1133.173134,-3753.867940,-74.020594,11103.089130
1133.173450,-3140.991542,-0.000000,11103.089130
1133.173766,-2374.896044,296.082377,10658.965565
1133.174082,-1225.752797,814.226536,9918.759623
1133.174398,-306.438199,962.267725,9326.594869
1133.174714,383.047749,2072.576638,8734.430116
1133.175030,995.924147,3182.885551,8216.285956
1133.175346,1378.971896,3552.988522,7994.224174
1133.175662,1455.581446,4515.256246,7624.121203
1133.175978,612.876398,4885.359217,7179.997637
1133.176294,0.000000,4737.318029,7105.977043
1133.176610,-995.924147,4145.153275,7772.162391
1133.176925,-2145.067394,3034.844362,8660.409521
1133.177241,-3064.381992,1850.514855,10140.821405
1133.177557,-4290.134789,518.144159,11399.171507
1133.177873,-5439.278036,-518.144159,11843.295072
1133.178189,-5592.497135,-1480.411884,12657.521608
1133.178505,-5132.839837,-1776.494261,12805.562797
1133.178821,-4136.915689,-1554.432478,12287.418637
1133.179137,-3370.820191,-296.082377,11769.274478
1133.179453,-2068.457845,888.247130,10362.883188
1133.179769,-306.438199,2368.659014,8956.491898
1133.180085,842.705048,4071.132681,7550.100608
1133.180401,1455.581446,5107.421000,6439.791695
1133.180717,1608.800546,5847.626942,6069.688724
1133.181033,1838.629195,5921.647536,6217.729913
1133.181349,842.705048,5033.400406,6883.915261
1133.181665,0.000000,3849.070898,7846.182985
1133.181981,-1762.019645,1628.453072,9326.594869
1133.182297,-3217.601092,-0.000000,10955.047942
1133.182613,-4213.525239,-1036.288319,12065.356855
1133.182929,-4519.963438,-1258.350101,12361.439231
1133.183245,-4060.306139,-814.226536,12287.418637
1133.183561,-4749.792088,-148.041188,11695.253884
1133.183876,-4213.525239,666.185348,11029.068536
1133.184192,-3140.991542,1702.473667,10288.862594
1133.184508,-1762.019645,2516.700203,9030.512492
1133.184824,-766.095498,3404.947333,8142.265362
1133.185140,-153.219100,4071.132681,7550.100608
1133.185456,76.609550,3701.029710,7402.059420
1133.185772,383.047749,3404.947333,7846.182985
1133.186088,689.485948,2516.700203,8216.285956
1133.186404,612.876398,2442.679609,8364.327145
1133.186720,-842.705048,1628.453072,8734.430116
1133.187036,-1532.190996,1554.432478,9548.656652
1133.187352,-1762.019645,1184.329507,10140.821405
1133.187668,-2145.067394,1184.329507,10288.862594
1133.187984,-2834.553343,1850.514855,10140.821405
1133.188300,-3524.039291,1554.432478,9918.759623
1133.188616,-3830.477490,444.123565,10066.800811
1133.188932,-3370.820191,296.082377,10214.842000
1133.189248,-3064.381992,518.144159,10214.842000
1133.189564,-2374.896044,1110.308913,9474.636058
1133.189880,-2528.115143,1480.411884,9104.533087
1133.190196,-2221.676944,1702.473667,9178.553681
1133.190512,-1532.190996,2072.576638,9326.594869
1133.190827,-1532.190996,2294.638420,9326.594869
1133.191143,-1685.410096,2368.659014,9474.636058
1133.191459,-995.924147,1924.535449,9548.656652
1133.191775,-459.657299,1628.453072,9104.533087
1133.192091,-766.095498,1702.473667,9104.533087
1133.192407,-995.924147,1480.411884,9252.574275
1133.192723,-229.828649,1036.288319,9252.574275
1133.193039,-689.485948,1332.370696,9104.533087
1133.193355,-1225.752797,1480.411884,9326.594869
1133.193671,-1149.143247,1702.473667,9548.656652
1133.193987,-1072.533697,2220.617826,9918.759623
1133.194303,-1225.752797,2664.741391,9844.739029
1133.194619,-919.314598,3108.864956,8882.471304
1133.194935,-919.314598,3034.844362,8438.347739
1133.195251,-1378.971896,2368.659014,8882.471304
1133.195567,-1685.410096,2368.659014,9326.594869
1133.195883,-1915.238745,1628.453072,9992.780217
1133.196199,-2451.505594,1036.288319,10584.944971
1133.196515,-2604.724693,592.164754,10584.944971
1133.196831,-2451.505594,518.144159,10288.862594
1133.197147,-2374.896044,296.082377,10436.903782
1133.197463,-1762.019645,666.185348,10140.821405
1133.197778,-1685.410096,1036.288319,9696.697840
1133.198094,-229.828649,1406.391290,9548.656652
1133.198410,459.657299,1628.453072,8808.450710
1133.198726,536.266849,2368.659014,8438.347739
1133.199041,536.266849,2664.741391,7994.224174
1133.199357,612.876398,2368.659014,7920.203579
1133.199673,0.000000,2294.638420,8438.347739
1133.199988,-995.924147,2664.741391,9030.512492
1133.200304,-2221.676944,2294.638420,9474.636058
1133.200620,-2528.115143,1184.329507,9770.718434
1133.200935,-3447.429741,1406.391290,10436.903782
1133.201251,-3907.087040,888.247130,10140.821405
1133.201566,-4060.306139,-222.061783,10140.821405
1133.201882,-4596.572988,-444.123565,10881.027347
1133.202198,-4903.011187,-1036.288319,11325.150913
1133.202513,-4060.306139,-1850.514855,11769.274478
1133.202829,-3064.381992,-1036.288319,11473.192101
1133.203145,-2451.505594,-0.000000,10140.821405
1133.203460,-1072.533697,592.164754,9252.574275
1133.203776,-536.266849,1258.350101,7994.224174
1133.204092,229.828649,1998.556043,8068.244768
1133.204407,842.705048,2072.576638,8290.306550
1133.204723,1302.362347,1628.453072,8364.327145
1133.205039,1378.971896,1850.514855,7920.203579
1133.205354,1378.971896,1036.288319,8290.306550
1133.205670,995.924147,444.123565,7994.224174
1133.205985,0.000000,518.144159,9400.615463
1133.206301,76.609550,148.041188,9844.739029
1133.206617,0.000000,-0.000000,10140.821405
1133.206932,-383.047749,-370.102971,10288.862594
1133.207248,-842.705048,-740.205942,9918.759623
1133.207564,-689.485948,-1406.391290,9696.697840
1133.207879,-995.924147,-814.226536,9844.739029
1133.208195,-459.657299,-0.000000,9844.739029
1133.208511,229.828649,592.164754,9622.677246
1133.208826,153.219100,740.205942,9400.615463
1133.209142,306.438199,1036.288319,8734.430116
1133.209457,766.095498,444.123565,8364.327145
1133.209773,536.266849,592.164754,8512.368333
1133.210089,1302.362347,444.123565,9326.594869
1133.210404,1685.410096,592.164754,9696.697840
1133.210720,1991.848295,-74.020594,9844.739029
1133.211036,1225.752797,-592.164754,9252.574275
1133.211351,995.924147,-1110.308913,9548.656652
1133.211667,1302.362347,-1036.288319,9622.677246
1133.211983,766.095498,-222.061783,9252.574275
1133.212298,1455.581446,666.185348,10066.800811
1133.212614,1532.190996,1258.350101,9178.553681
1133.212930,1532.190996,592.164754,7846.182985
1133.213245,76.609550,-0.000000,8586.388927
1133.213561,-536.266849,-592.164754,9992.780217
1133.213876,-383.047749,-740.205942,10214.842000
1133.214192,-689.485948,-444.123565,10658.965565
1133.214508,0.000000,-0.000000,10362.883188
1133.214823,-153.219100,-740.205942,10140.821405
1133.215139,-306.438199,-592.164754,9030.512492
1133.215455,-459.657299,-740.205942,10140.821405
1133.215770,383.047749,-888.247130,10584.944971
1133.216086,1225.752797,-222.061783,10140.821405
1133.216402,1455.581446,740.205942,9252.574275
1133.216717,1455.581446,296.082377,9178.553681
1133.217033,1762.019645,296.082377,8956.491898
1133.217348,1685.410096,666.185348,8512.368333
1133.217664,2374.896044,1480.411884,8956.491898
1133.217980,2298.286494,1554.432478,8660.409521
1133.218295,1991.848295,1110.308913,8882.471304
1133.218611,1532.190996,962.267725,9474.636058
1133.218927,536.266849,888.247130,9030.512492
1133.219242,0.000000,888.247130,9030.512492
1133.219558,0.000000,592.164754,10436.903782
1133.219874,-689.485948,518.144159,10658.965565
1133.220189,-995.924147,592.164754,10214.842000
1133.220505,-1608.800546,296.082377,9770.718434
1133.220821,-1838.629195,-0.000000,9548.656652
1133.221136,-1685.410096,-592.164754,10066.800811
1133.221452,-689.485948,-222.061783,9844.739029
1133.221767,-76.609550,222.061783,9992.780217
1133.222083,-306.438199,-74.020594,9696.697840
1133.222399,0.000000,74.020594,9474.636058
1133.222714,0.000000,592.164754,8882.471304
1133.223030,76.609550,1406.391290,9104.533087
1133.223346,306.438199,1184.329507,9548.656652
1133.223661,459.657299,962.267725,9030.512492
1133.223977,229.828649,1036.288319,9178.553681
1133.224293,229.828649,-296.082377,9474.636058
1133.224608,-995.924147,-1406.391290,9474.636058
1133.224924,-689.485948,-0.000000,9770.718434
1133.225239,0.000000,-1702.473667,10584.944971
1133.225555,-306.438199,-1258.350101,11029.068536
1133.225871,-1225.752797,-814.226536,9622.677246
1133.226186,-612.876398,-2368.659014,10362.883188
1133.226502,229.828649,-1628.453072,9696.697840
1133.226818,536.266849,-1036.288319,9844.739029
1133.227133,1072.533697,-518.144159,7994.224174
1133.227449,1149.143247,-222.061783,9326.594869
1133.227765,689.485948,-148.041188,8808.450710
1133.228080,1072.533697,-0.000000,8290.306550
1133.228396,842.705048,-0.000000,8660.409521
1133.228712,536.266849,-296.082377,9918.759623
1133.229027,919.314598,-518.144159,9474.636058
1133.229343,612.876398,-1406.391290,8882.471304
1133.229658,0.000000,-1406.391290,9474.636058
1133.229974,0.000000,-1776.494261,10584.944971
1133.230290,459.657299,-1258.350101,10288.862594
1133.230605,995.924147,-0.000000,8808.450710
1133.230921,1149.143247,-444.123565,9918.759623
1133.231237,1302.362347,-0.000000,8660.409521
1133.231552,1838.629195,-296.082377,8882.471304
1133.231868,1608.800546,-518.144159,8882.471304
1133.232184,2145.067394,444.123565,8660.409521
1133.232499,2681.334243,296.082377,8734.430116
1133.232815,2451.505594,-222.061783,8734.430116
1133.233130,2145.067394,-0.000000,9104.533087
1133.233446,1378.971896,-148.041188,9104.533087
1133.233762,1072.533697,148.041188,8364.327145
1133.234077,1149.143247,148.041188,9622.677246
1133.234393,1149.143247,-148.041188,9548.656652
1133.234709,766.095498,-888.247130,10066.800811
1133.235024,76.609550,-888.247130,9770.718434
1133.235340,0.000000,-1184.329507,10436.903782
1133.235656,229.828649,-888.247130,9474.636058
1133.235971,689.485948,-518.144159,10140.821405
1133.236287,766.095498,-222.061783,9992.780217
1133.236603,459.657299,-370.102971,9030.512492
1133.236918,229.828649,-444.123565,9252.574275
1133.237234,229.828649,-0.000000,9770.718434
1133.237549,459.657299,296.082377,9992.780217
1133.237865,919.314598,666.185348,9622.677246
1133.238181,612.876398,814.226536,9400.615463
1133.238496,0.000000,814.226536,8808.450710
1133.238812,0.000000,-0.000000,9622.677246
1133.239128,-229.828649,-444.123565,9548.656652
1133.239443,0.000000,-518.144159,10436.903782
1133.239759,-536.266849,-814.226536,10288.862594
1133.240075,-459.657299,-962.267725,9770.718434
1133.240390,-766.095498,-740.205942,9474.636058
1133.240706,-383.047749,-814.226536,10214.842000
1133.241021,-995.924147,-74.020594,9844.739029
1133.241337,-383.047749,-0.000000,9548.656652
1133.241653,76.609550,222.061783,8882.471304
1133.241968,229.828649,296.082377,9474.636058
1133.242284,-153.219100,-296.082377,9252.574275
1133.242600,0.000000,-666.185348,9104.533087
1133.242915,0.000000,-148.041188,9030.512492
1133.243231,383.047749,-296.082377,10066.800811
1133.243547,383.047749,-592.164754,9474.636058
1133.243862,383.047749,-370.102971,9918.759623
1133.244178,459.657299,-740.205942,9770.718434
1133.244494,306.438199,666.185348,8660.409521
1133.244809,919.314598,-0.000000,8734.430116
1133.245125,1378.971896,592.164754,9696.697840
1133.245440,995.924147,444.123565,8512.368333
1133.245756,919.314598,-0.000000,9030.512492
1133.246072,229.828649,148.041188,8586.388927
1133.246387,0.000000,-148.041188,9474.636058
1133.246703,306.438199,296.082377,9474.636058
1133.247019,536.266849,222.061783,9548.656652
1133.247334,0.000000,-0.000000,10066.800811
1133.247650,0.000000,-1110.308913,9918.759623
1133.247966,-383.047749,-666.185348,10140.821405
1133.248281,0.000000,-0.000000,9474.636058
1133.248597,229.828649,296.082377,9104.533087
1133.248912,842.705048,-0.000000,9400.615463
1133.249228,612.876398,-74.020594,9696.697840
1133.249544,689.485948,-0.000000,9104.533087
1133.249859,459.657299,-444.123565,9400.615463
1133.250175,919.314598,-666.185348,8882.471304
1133.250491,1072.533697,-148.041188,9252.574275
1133.250806,1685.410096,-370.102971,9030.512492
1133.251122,1608.800546,-74.020594,9474.636058
1133.251438,1685.410096,-148.041188,9622.677246
1133.251753,689.485948,222.061783,8660.409521
1133.252069,1225.752797,962.267725,9252.574275
1133.252385,1455.581446,370.102971,9178.553681
1133.252700,1225.752797,296.082377,9252.574275
1133.253016,919.314598,-148.041188,9992.780217
1133.253331,383.047749,-518.144159,9770.718434
1133.253647,536.266849,-0.000000,9252.574275
1133.253963,229.828649,-222.061783,10140.821405
1133.254278,459.657299,-0.000000,9770.718434
1133.254594,383.047749,-222.061783,9696.697840
1133.254910,306.438199,592.164754,9992.780217
1133.255225,153.219100,-0.000000,9178.553681
1133.255541,153.219100,-74.020594,9622.677246
1133.255857,689.485948,370.102971,10288.862594
1133.256172,536.266849,-0.000000,9252.574275
1133.256488,689.485948,888.247130,9770.718434
1133.256803,229.828649,444.123565,8882.471304
1133.257119,-383.047749,296.082377,8808.450710
1133.257435,229.828649,518.144159,9844.739029
1133.257750,76.609550,148.041188,9474.636058
1133.258066,76.609550,-0.000000,9844.739029
1133.258382,-306.438199,-592.164754,9918.759623
1133.258697,-919.314598,-1110.308913,10214.842000
1133.259013,-306.438199,-518.144159,10140.821405
1133.259329,0.000000,-518.144159,9622.677246
1133.259644,0.000000,74.020594,9178.553681
1133.259960,-383.047749,-666.185348,9844.739029
1133.260276,0.000000,-740.205942,9918.759623
1133.260591,0.000000,-666.185348,9400.615463
1133.260907,0.000000,-1776.494261,9326.594869
1133.261222,536.266849,-888.247130,9992.780217
1133.261538,919.314598,-888.247130,9770.718434
1133.261854,995.924147,-666.185348,9178.553681
1133.262169,536.266849,-444.123565,8956.491898
1133.262485,153.219100,-1110.308913,9400.615463
1133.262801,536.266849,-296.082377,8734.430116
1133.263116,306.438199,-518.144159,8956.491898
1133.263432,536.266849,-1036.288319,10436.903782
1133.263748,536.266849,-740.205942,9400.615463
1133.264063,0.000000,-814.226536,9326.594869
1133.264379,-383.047749,-1036.288319,9104.533087
1133.264694,0.000000,-1332.370696,9622.677246
1133.265010,153.219100,-888.247130,9622.677246
1133.265326,1149.143247,-296.082377,10066.800811
1133.265641,459.657299,-0.000000,9326.594869
1133.265957,536.266849,-0.000000,8956.491898
1133.266273,306.438199,-0.000000,8882.471304
1133.266588,536.266849,-0.000000,9326.594869
1133.266904,919.314598,222.061783,9252.574275
1133.267220,1149.143247,370.102971,8734.430116
1133.267535,995.924147,-0.000000,9474.636058
1133.267851,766.095498,-370.102971,9326.594869
1133.268167,1302.362347,-370.102971,8734.430116
1133.268482,995.924147,222.061783,9104.533087
1133.268798,1072.533697,-74.020594,9696.697840
1133.269113,1685.410096,-0.000000,9326.594869
1133.269429,1072.533697,222.061783,8956.491898
1133.269745,1072.533697,-0.000000,9252.574275
1133.270060,1225.752797,-0.000000,9178.553681
1133.270376,995.924147,666.185348,8956.491898
1133.270692,919.314598,444.123565,9400.615463
1133.271007,1072.533697,-222.061783,9770.718434
1133.271323,689.485948,-148.041188,9474.636058
1133.271639,306.438199,-0.000000,8882.471304
1133.271954,153.219100,148.041188,8956.491898
1133.272270,306.438199,-222.061783,10066.800811
1133.272586,689.485948,-296.082377,10288.862594
1133.272901,459.657299,-0.000000,9030.512492
1133.273217,-459.657299,148.041188,9918.759623
1133.273532,-153.219100,296.082377,9474.636058
1133.273848,306.438199,370.102971,9104.533087
1133.274164,766.095498,814.226536,9474.636058
1133.274479,76.609550,740.205942,9252.574275
1133.274795,153.219100,444.123565,9696.697840
1133.275111,-229.828649,-296.082377,10140.821405
1133.275426,-229.828649,-0.000000,9326.594869
1133.275742,0.000000,518.144159,9844.739029
1133.276058,0.000000,370.102971,10288.862594
1133.276373,-306.438199,518.144159,9770.718434
1133.276689,-306.438199,592.164754,9844.739029
1133.277004,-842.705048,296.082377,9696.697840
1133.277320,-536.266849,-518.144159,9622.677246
1133.277636,-153.219100,-74.020594,10066.800811
1133.277951,-153.219100,-74.020594,10436.903782
1133.278267,-306.438199,-592.164754,10288.862594
1133.278583,-459.657299,-1258.350101,10288.862594
1133.278898,-459.657299,-444.123565,9844.739029
1133.279214,689.485948,222.061783,9548.656652
1133.279530,612.876398,-0.000000,9918.759623
1133.279845,612.876398,-148.041188,9696.697840
1133.280161,689.485948,-518.144159,9770.718434
1133.280477,919.314598,-518.144159,9474.636058
1133.280792,383.047749,-222.061783,8660.409521
1133.281108,766.095498,-370.102971,9474.636058
1133.281423,1072.533697,-444.123565,9474.636058
1133.281739,766.095498,-1110.308913,9474.636058
1133.282055,459.657299,-740.205942,10066.800811
1133.282370,383.047749,-1110.308913,9622.677246
1133.282686,842.705048,-1036.288319,8882.471304
1133.283002,612.876398,-222.061783,9622.677246
1133.283317,1072.533697,-1258.350101,9622.677246
1133.283633,842.705048,-1480.411884,9474.636058
1133.283949,1072.533697,-888.247130,9252.574275
1133.284264,306.438199,-1258.350101,8660.409521
1133.284580,842.705048,-666.185348,8956.491898
1133.284895,1608.800546,-888.247130,9178.553681
1133.285211,1378.971896,-296.082377,9474.636058
1133.285527,919.314598,-0.000000,8660.409521
1133.285842,1149.143247,-370.102971,8808.450710
1133.286158,995.924147,-74.020594,8068.244768
1133.286474,919.314598,-222.061783,8512.368333
1133.286789,1455.581446,-444.123565,9104.533087
1133.287105,1455.581446,-592.164754,9474.636058
1133.287421,842.705048,-740.205942,9474.636058
1133.287736,536.266849,-888.247130,8882.471304
1133.288052,383.047749,-666.185348,8956.491898
1133.288368,612.876398,-444.123565,9326.594869
1133.288683,689.485948,-222.061783,9178.553681
1133.288999,689.485948,-1036.288319,9548.656652
1133.289314,306.438199,-296.082377,10066.800811
1133.289630,153.219100,-370.102971,9252.574275
1133.289946,919.314598,-0.000000,8364.327145
1133.290261,1072.533697,370.102971,9030.512492
1133.290577,1072.533697,-0.000000,9104.533087
1133.290893,995.924147,-0.000000,9474.636058
1133.291208,689.485948,-148.041188,9400.615463
1133.291524,76.609550,-148.041188,8956.491898
1133.291840,153.219100,222.061783,8956.491898
1133.292155,0.000000,222.061783,9918.759623
1133.292471,306.438199,222.061783,10140.821405
1133.292786,-229.828649,148.041188,9696.697840
1133.293102,-459.657299,-148.041188,9770.718434
1133.293418,-536.266849,-74.020594,9622.677246
1133.293733,-459.657299,-0.000000,9770.718434
1133.294049,-306.438199,-0.000000,9770.718434
1133.294365,-229.828649,-0.000000,10510.924376
1133.294680,-612.876398,-222.061783,10362.883188
1133.294996,-383.047749,-0.000000,10066.800811
1133.295312,-612.876398,74.020594,9252.574275
1133.295627,0.000000,222.061783,10140.821405
1133.295943,459.657299,148.041188,10066.800811
1133.296259,383.047749,370.102971,9696.697840
1133.296574,459.657299,666.185348,9548.656652
1133.296890,229.828649,148.041188,9178.553681
1133.297205,383.047749,-0.000000,9104.533087
1133.297521,383.047749,-148.041188,9992.780217
1133.297837,612.876398,-296.082377,10214.842000
1133.298152,689.485948,-592.164754,10288.862594
1133.298468,0.000000,-592.164754,9844.739029
1133.298784,0.000000,-296.082377,9622.677246
1133.299099,76.609550,-296.082377,9770.718434
1133.299415,306.438199,518.144159,9622.677246
1133.299731,383.047749,518.144159,9548.656652
1133.300046,76.609550,-0.000000,9918.759623
1133.300362,383.047749,-666.185348,9844.739029
1133.300677,-306.438199,-444.123565,8882.471304
1133.300993,0.000000,-888.247130,9992.780217
1133.301309,612.876398,-592.164754,10066.800811
1133.301624,919.314598,-222.061783,9622.677246
1133.301940,536.266849,296.082377,9252.574275
1133.302256,766.095498,222.061783,9696.697840
1133.302571,766.095498,-0.000000,9400.615463
1133.302887,1225.752797,222.061783,9178.553681
1133.303203,1072.533697,444.123565,8882.471304
1133.303519,1532.190996,592.164754,8882.471304
1133.303834,1302.362347,-0.000000,9104.533087
1133.304150,1149.143247,-148.041188,8956.491898
1133.304466,995.924147,-222.061783,9326.594869
1133.304781,1378.971896,-0.000000,9104.533087
1133.305097,689.485948,-814.226536,9696.697840
1133.305413,842.705048,-740.205942,9918.759623
1133.305729,689.485948,-370.102971,9104.533087
1133.306044,842.705048,-444.123565,8808.450710
1133.306360,919.314598,-444.123565,9326.594869
1133.306676,766.095498,-296.082377,9844.739029
1133.306991,1302.362347,-0.000000,8882.471304
1133.307307,1302.362347,444.123565,8660.409521
1133.307623,689.485948,-296.082377,9104.533087
1133.307939,842.705048,-444.123565,8364.327145
1133.308254,766.095498,-74.020594,9178.553681
1133.308570,842.705048,-0.000000,9474.636058
1133.308886,459.657299,-148.041188,9548.656652
1133.309201,229.828649,-0.000000,9030.512492
1133.309517,-536.266849,444.123565,9326.594869
1133.309833,-612.876398,222.061783,9474.636058
1133.310149,0.000000,-0.000000,9548.656652
1133.310464,-536.266849,296.082377,9622.677246
1133.310780,-306.438199,-592.164754,9918.759623
1133.311096,-536.266849,-444.123565,10140.821405
1133.311411,-919.314598,-74.020594,8956.491898
1133.311727,-919.314598,444.123565,9474.636058
1133.312043,-383.047749,740.205942,10066.800811
1133.312359,0.000000,444.123565,9622.677246
1133.312674,-229.828649,-0.000000,9844.739029
1133.312990,-229.828649,-0.000000,9696.697840
1133.313306,-153.219100,-148.041188,8956.491898
1133.313621,0.000000,-222.061783,9178.553681
1133.313937,306.438199,-74.020594,9918.759623
1133.314253,689.485948,-148.041188,10066.800811
1133.314569,76.609550,296.082377,9622.677246
1133.314884,0.000000,148.041188,9400.615463
1133.315200,-153.219100,-296.082377,9252.574275
1133.315516,153.219100,-1036.288319,10214.842000
1133.315831,306.438199,-962.267725,10288.862594
1133.316147,536.266849,-1036.288319,10288.862594
1133.316463,306.438199,-888.247130,9770.718434
1133.316779,0.000000,-1036.288319,9770.718434
1133.317094,229.828649,-888.247130,9770.718434
1133.317410,995.924147,-592.164754,10214.842000
1133.317726,459.657299,370.102971,9400.615463
1133.318041,689.485948,-0.000000,9326.594869
1133.318357,383.047749,-740.205942,10140.821405
1133.318673,229.828649,-740.205942,9622.677246
1133.318989,383.047749,-296.082377,8956.491898
1133.319304,689.485948,-666.185348,9326.594869
1133.319620,842.705048,-148.041188,9622.677246
1133.319936,1532.190996,-0.000000,9696.697840
1133.320251,536.266849,-0.000000,9474.636058
1133.320567,459.657299,-518.144159,9548.656652
1133.320883,689.485948,-518.144159,9474.636058
1133.321199,919.314598,-370.102971,9474.636058
1133.321514,995.924147,-0.000000,9770.718434
1133.321830,1532.190996,-148.041188,8808.450710
1133.322146,1149.143247,-0.000000,8734.430116
1133.322461,689.485948,-0.000000,9030.512492
1133.322777,1378.971896,666.185348,8734.430116
1133.323093,1915.238745,-0.000000,8734.430116
1133.323409,995.924147,-148.041188,9104.533087
1133.323724,919.314598,-666.185348,9918.759623
1133.324040,842.705048,-666.185348,9104.533087
1133.324356,689.485948,370.102971,8512.368333
1133.324671,306.438199,-370.102971,9548.656652
1133.324987,1225.752797,-666.185348,10436.903782
1133.325303,919.314598,592.164754,8364.327145
1133.325619,995.924147,296.082377,9104.533087
1133.325934,689.485948,-222.061783,9326.594869
1133.326250,919.314598,-148.041188,8956.491898
1133.326566,1072.533697,-592.164754,9696.697840
1133.326881,1149.143247,-0.000000,9622.677246
1133.327197,612.876398,-148.041188,8956.491898
1133.327513,459.657299,222.061783,9326.594869
1133.327829,0.000000,370.102971,9474.636058
1133.328144,76.609550,222.061783,9696.697840
1133.328460,153.219100,962.267725,9770.718434
1133.328776,0.000000,-0.000000,9474.636058
1133.329091,0.000000,-592.164754,10658.965565
1133.329407,-306.438199,-74.020594,10584.944971
1133.329723,-842.705048,-296.082377,9178.553681
1133.330039,-459.657299,666.185348,10066.800811
1133.330354,153.219100,-74.020594,9844.739029
1133.330670,0.000000,-0.000000,9548.656652
1133.330986,-306.438199,-148.041188,10288.862594
1133.331301,-459.657299,-740.205942,9696.697840
1133.331617,-459.657299,-0.000000,9696.697840
1133.331933,0.000000,-0.000000,9548.656652
1133.332249,76.609550,148.041188,9474.636058
1133.332564,153.219100,-0.000000,9622.677246
1133.332880,0.000000,-444.123565,9770.718434
1133.333196,-689.485948,-1332.370696,9622.677246
1133.333511,0.000000,-962.267725,10288.862594
1133.333827,76.609550,-370.102971,9696.697840
1133.334143,306.438199,-1036.288319,9770.718434
1133.334459,459.657299,-1258.350101,9770.718434
1133.334774,-229.828649,-592.164754,9474.636058
1133.335090,76.609550,-666.185348,9548.656652
1133.335406,536.266849,-518.144159,9326.594869
1133.335721,1302.362347,-0.000000,9326.594869
1133.336037,919.314598,-0.000000,9178.553681
1133.336353,1072.533697,-370.102971,8734.430116
1133.336669,153.219100,-1110.308913,8660.409521
1133.336984,766.095498,-1036.288319,9992.780217
1133.337300,766.095498,-592.164754,9400.615463
1133.337616,842.705048,-222.061783,9622.677246
1133.337932,842.705048,-592.164754,9548.656652
1133.338247,306.438199,-740.205942,9178.553681
1133.338563,383.047749,-370.102971,9252.574275
1133.338879,919.314598,-592.164754,8808.450710
1133.339194,842.705048,-814.226536,8956.491898
1133.339510,919.314598,-148.041188,9030.512492
1133.339826,1072.533697,-592.164754,9104.533087
1133.340142,1532.190996,-370.102971,9030.512492
1133.340457,1302.362347,-222.061783,8438.347739
1133.340773,1608.800546,-74.020594,8586.388927
1133.341089,1302.362347,222.061783,9252.574275
1133.341404,1532.190996,-148.041188,8956.491898
1133.341720,1072.533697,-296.082377,9548.656652
1133.342036,842.705048,-0.000000,9104.533087
1133.342352,919.314598,-370.102971,8808.450710
1133.342667,919.314598,-296.082377,9770.718434
1133.342983,1149.143247,148.041188,9622.677246
1133.343299,1072.533697,-0.000000,9252.574275
1133.343614,536.266849,370.102971,9474.636058
1133.343930,1072.533697,-0.000000,9548.656652
1133.344246,612.876398,148.041188,9104.533087
1133.344562,766.095498,740.205942,9178.553681
1133.344877,306.438199,444.123565,9696.697840
1133.345193,612.876398,518.144159,10140.821405
1133.345509,229.828649,518.144159,9252.574275
1133.345824,-306.438199,518.144159,9548.656652
1133.346140,-306.438199,148.041188,9992.780217
1133.346456,0.000000,444.123565,9992.780217
1133.346772,-229.828649,296.082377,10214.842000
1133.347087,-689.485948,-888.247130,10584.944971
1133.347403,-383.047749,-222.061783,9918.759623
1133.347719,-383.047749,-0.000000,9770.718434
1133.348034,-459.657299,518.144159,9770.718434
1133.348350,153.219100,444.123565,10214.842000
1133.348666,0.000000,-0.000000,10140.821405
1133.348982,-229.828649,444.123565,9770.718434
1133.349297,-153.219100,-0.000000,9770.718434
1133.349613,153.219100,-518.144159,9178.553681
1133.349929,459.657299,-0.000000,9326.594869
1133.350244,842.705048,-0.000000,9844.739029
1133.350560,153.219100,-518.144159,10066.800811
1133.350876,-229.828649,-814.226536,10140.821405
1133.351192,-459.657299,-296.082377,9622.677246
1133.351507,-229.828649,-74.020594,9770.718434
1133.351823,0.000000,-148.041188,9622.677246
1133.352139,76.609550,-74.020594,9622.677246
1133.352454,459.657299,-1110.308913,9770.718434
1133.352770,383.047749,-1480.411884,9918.759623
1133.353086,76.609550,-740.205942,9326.594869
1133.353402,459.657299,-518.144159,9178.553681
1133.353717,919.314598,-370.102971,9178.553681
1133.354033,1072.533697,444.123565,9178.553681
1133.354349,612.876398,592.164754,8734.430116
1133.354664,689.485948,-74.020594,8808.450710
1133.354980,459.657299,-444.123565,8808.450710
1133.355296,0.000000,-296.082377,9178.553681
1133.355612,612.876398,-592.164754,8808.450710
1133.355927,612.876398,-1406.391290,9844.739029
1133.356243,536.266849,-1036.288319,9844.739029
1133.356559,229.828649,-222.061783,9178.553681
1133.356874,153.219100,-814.226536,9474.636058
1133.357190,306.438199,-592.164754,9474.636058
1133.357506,766.095498,370.102971,8956.491898
1133.357822,1225.752797,-0.000000,9252.574275
1133.358137,1072.533697,370.102971,9326.594869
1133.358453,919.314598,-0.000000,8734.430116
1133.358769,1072.533697,-0.000000,7994.224174
1133.359084,1302.362347,-666.185348,9030.512492
1133.359400,1608.800546,-1110.308913,9770.718434
1133.359716,1302.362347,-1332.370696,9548.656652
1133.360032,919.314598,-740.205942,9400.615463
1133.360347,459.657299,-666.185348,9770.718434
1133.360663,1225.752797,-296.082377,9178.553681
1133.360979,1072.533697,666.185348,8882.471304
1133.361294,536.266849,222.061783,9104.533087
1133.361610,1378.971896,-148.041188,9622.677246
1133.361926,1149.143247,-370.102971,9104.533087
1133.362242,842.705048,-296.082377,8956.491898
1133.362557,1302.362347,-222.061783,9622.677246
1133.362873,1225.752797,-0.000000,9400.615463
1133.363189,842.705048,-592.164754,9474.636058
1133.363504,306.438199,-0.000000,9992.780217
1133.363820,306.438199,296.082377,9622.677246
1133.364136,-306.438199,518.144159,9400.615463
1133.364452,0.000000,814.226536,9252.574275
1133.364767,-229.828649,444.123565,9844.739029
1133.365083,153.219100,518.144159,10066.800811
1133.365399,-689.485948,-74.020594,10140.821405
1133.365714,-536.266849,-222.061783,9696.697840
1133.366030,-766.095498,-296.082377,10140.821405
1133.366346,-995.924147,-222.061783,9918.759623
1133.366662,-383.047749,-0.000000,10881.027347
1133.366977,0.000000,-74.020594,9770.718434
1133.367293,-689.485948,148.041188,9326.594869
1133.367609,-383.047749,-74.020594,10362.883188
1133.367924,76.609550,-74.020594,9770.718434
1133.368240,306.438199,370.102971,9474.636058
1133.368556,76.609550,740.205942,9696.697840
1133.368872,383.047749,370.102971,9178.553681
1133.369187,459.657299,-740.205942,9474.636058
1133.369503,76.609550,-1184.329507,9622.677246
1133.369819,76.609550,-888.247130,10140.821405
1133.370134,0.000000,-1480.411884,10362.883188
1133.370450,0.000000,-1110.308913,10362.883188
1133.370766,383.047749,-1480.411884,9548.656652
1133.371082,306.438199,-444.123565,9622.677246
1133.371397,612.876398,-148.041188,9326.594869
1133.371713,459.657299,148.041188,9104.533087
1133.372029,995.924147,518.144159,9252.574275
1133.372344,919.314598,-0.000000,9400.615463
1133.372660,919.314598,-222.061783,8956.491898
1133.372976,306.438199,-592.164754,9104.533087
1133.373292,153.219100,-1036.288319,9104.533087
1133.373607,383.047749,-1036.288319,10066.800811
1133.373923,383.047749,-814.226536,9918.759623
1133.374239,0.000000,-666.185348,9326.594869
1133.374554,76.609550,-666.185348,9400.615463
1133.374870,229.828649,-740.205942,9252.574275
1133.375186,919.314598,-0.000000,9400.615463
1133.375502,995.924147,-0.000000,9400.615463
1133.375817,1302.362347,444.123565,8808.450710
1133.376133,1072.533697,222.061783,8364.327145
1133.376449,1225.752797,-148.041188,8438.347739
1133.376764,919.314598,-222.061783,9474.636058
1133.377080,919.314598,-0.000000,8290.306550
1133.377396,766.095498,-148.041188,9104.533087
1133.377712,1149.143247,-888.247130,9918.759623
1133.378027,1455.581446,-370.102971,9104.533087
1133.378343,383.047749,-0.000000,8438.347739
1133.378659,383.047749,-222.061783,8808.450710
1133.378974,1378.971896,-814.226536,9474.636058
1133.379290,1302.362347,370.102971,9474.636058
1133.379606,995.924147,-74.020594,9252.574275
1133.379922,689.485948,-370.102971,9178.553681
1133.380237,842.705048,-74.020594,8882.471304
1133.380553,612.876398,-0.000000,8882.471304
1133.380869,1149.143247,148.041188,9400.615463
1133.381184,689.485948,592.164754,9178.553681
1133.381500,383.047749,-222.061783,9474.636058
1133.381816,536.266849,-296.082377,9844.739029
1133.382132,0.000000,-148.041188,9474.636058
1133.382447,0.000000,666.185348,9474.636058
1133.382763,153.219100,666.185348,10140.821405
1133.383079,0.000000,296.082377,10140.821405
1133.383395,153.219100,666.185348,9622.677246
1133.383710,-842.705048,592.164754,9474.636058
1133.384026,-919.314598,148.041188,9918.759623
1133.384342,-689.485948,-222.061783,10214.842000
1133.384657,-536.266849,-0.000000,9770.718434
1133.384973,-229.828649,-296.082377,10362.883188
1133.385289,-306.438199,-444.123565,10510.924376
1133.385605,-383.047749,-222.061783,9548.656652
1133.385920,0.000000,-74.020594,9844.739029
1133.386236,536.266849,222.061783,9696.697840
1133.386552,383.047749,888.247130,9622.677246
1133.386867,459.657299,-0.000000,9696.697840
1133.387183,229.828649,-222.061783,9622.677246
1133.387499,0.000000,-148.041188,9844.739029
1133.387815,76.609550,-592.164754,10658.965565
1133.388130,383.047749,-370.102971,9844.739029
1133.388446,153.219100,-222.061783,9696.697840
1133.388762,536.266849,-370.102971,9844.739029
1133.389077,383.047749,-1110.308913,9548.656652
1133.389393,229.828649,-1258.350101,9326.594869
1133.389709,842.705048,-962.267725,9844.739029
1133.390025,612.876398,-740.205942,9770.718434
1133.390340,919.314598,-444.123565,9696.697840
1133.390656,842.705048,-518.144159,9252.574275
1133.390972,306.438199,-740.205942,9548.656652
1133.391287,612.876398,-592.164754,9622.677246
1133.391603,766.095498,148.041188,8808.450710
1133.391919,1455.581446,296.082377,9326.594869
1133.392235,919.314598,-666.185348,9474.636058
1133.392550,459.657299,-1332.370696,9696.697840
1133.392866,689.485948,-962.267725,9104.533087
1133.393182,842.705048,-888.247130,9548.656652
1133.393497,919.314598,-0.000000,9326.594869
1133.393813,842.705048,370.102971,8512.368333
1133.394129,842.705048,-0.000000,8882.471304
1133.394445,766.095498,-74.020594,9178.553681
1133.394760,766.095498,148.041188,8734.430116
1133.395076,842.705048,-148.041188,8216.285956
1133.395392,995.924147,-666.185348,9178.553681
1133.395707,1225.752797,-1036.288319,8882.471304
1133.396023,612.876398,-1332.370696,9252.574275
1133.396339,842.705048,-962.267725,8882.471304
1133.396655,383.047749,-740.205942,9178.553681
1133.396970,995.924147,-370.102971,9696.697840
1133.397286,689.485948,-74.020594,9104.533087
1133.397602,919.314598,370.102971,8734.430116
1133.397917,842.705048,148.041188,8882.471304
1133.398233,689.485948,-444.123565,9326.594869
1133.398549,766.095498,-296.082377,9104.533087
1133.398865,459.657299,148.041188,9326.594869
1133.399180,995.924147,740.205942,9104.533087
1133.399496,995.924147,296.082377,8882.471304
1133.399812,383.047749,222.061783,9326.594869
1133.400127,0.000000,-0.000000,9918.759623
1133.400443,-153.219100,222.061783,9844.739029
1133.400759,0.000000,740.205942,9474.636058
1133.401074,-153.219100,1036.288319,9474.636058
1133.401390,76.609550,-0.000000,10140.821405
1133.401705,-229.828649,-74.020594,10066.800811
1133.402021,-612.876398,-296.082377,9622.677246
1133.402337,-459.657299,-296.082377,9992.780217
1133.402652,-306.438199,-74.020594,10436.903782
1133.402968,0.000000,-74.020594,10362.883188
1133.403284,0.000000,-0.000000,9622.677246
1133.403599,-229.828649,-0.000000,9474.636058
1133.403915,-383.047749,296.082377,9696.697840
1133.404230,76.609550,-0.000000,9474.636058
1133.404546,306.438199,370.102971,9992.780217
1133.404862,306.438199,-0.000000,10288.862594
1133.405177,383.047749,-296.082377,9770.718434
1133.405493,76.609550,-74.020594,9770.718434
1133.405808,-153.219100,-296.082377,10140.821405
1133.406124,306.438199,-518.144159,9696.697840
1133.406440,689.485948,-148.041188,9918.759623
1133.406755,383.047749,-222.061783,10288.862594
1133.407071,153.219100,-518.144159,9992.780217
1133.407387,153.219100,-666.185348,10214.842000
1133.407702,536.266849,-666.185348,9844.739029
1133.408018,842.705048,222.061783,9548.656652
1133.408333,1072.533697,592.164754,9474.636058
1133.408649,919.314598,-0.000000,9548.656652
1133.408965,766.095498,-296.082377,9104.533087
1133.409280,306.438199,-592.164754,9474.636058
1133.409596,689.485948,-592.164754,9400.615463
1133.409911,459.657299,-222.061783,9030.512492
1133.410227,459.657299,-592.164754,10436.903782
1133.410543,766.095498,-1110.308913,10214.842000
1133.410858,306.438199,-740.205942,9178.553681
1133.411174,153.219100,-666.185348,9474.636058
1133.411490,612.876398,-740.205942,8956.491898
1133.411805,1378.971896,-74.020594,9104.533087
1133.412121,1225.752797,-148.041188,9178.553681
1133.412436,1072.533697,-518.144159,8734.430116
1133.412752,1072.533697,-592.164754,9104.533087
1133.413068,1149.143247,-0.000000,8512.368333
1133.413383,1532.190996,-0.000000,8882.471304
1133.413699,1149.143247,-296.082377,9104.533087
1133.414014,1149.143247,-0.000000,8660.409521
1133.414330,766.095498,-814.226536,9104.533087
1133.414646,459.657299,-1184.329507,9474.636058
1133.414961,153.219100,-518.144159,9178.553681
1133.415277,1072.533697,-0.000000,8808.450710
1133.415593,842.705048,370.102971,8660.409521
1133.415908,766.095498,-370.102971,9400.615463
1133.416224,612.876398,-222.061783,8660.409521
1133.416539,689.485948,-370.102971,8956.491898
1133.416855,0.000000,-148.041188,8882.471304
1133.417171,536.266849,-74.020594,9474.636058
1133.417486,766.095498,-148.041188,9252.574275
1133.417802,153.219100,-740.205942,9622.677246
1133.418117,-536.266849,-518.144159,9622.677246
1133.418433,-383.047749,-370.102971,9622.677246
1133.418749,76.609550,-0.000000,9252.574275
1133.419064,0.000000,666.185348,9548.656652
1133.419380,0.000000,444.123565,10066.800811
1133.419696,-229.828649,296.082377,9844.739029
1133.420011,-229.828649,370.102971,10066.800811
1133.420327,-536.266849,-0.000000,9474.636058
1133.420642,-459.657299,-0.000000,9844.739029
1133.420958,-229.828649,-0.000000,10288.862594
1133.421274,-306.438199,-666.185348,10066.800811
1133.421589,-459.657299,-518.144159,10066.800811
1133.421905,-306.438199,-370.102971,9992.780217
1133.422220,-229.828649,-222.061783,10436.903782
1133.422536,0.000000,888.247130,9622.677246
1133.422852,459.657299,666.185348,9252.574275
1133.423167,459.657299,-296.082377,9918.759623
1133.423483,76.609550,-74.020594,10140.821405
1133.423798,306.438199,-444.123565,10214.842000
1133.424114,536.266849,-0.000000,9548.656652
1133.424430,612.876398,-444.123565,9474.636058
1133.424745,612.876398,-74.020594,9622.677246
1133.425061,766.095498,-740.205942,10584.944971
1133.425377,306.438199,-814.226536,10066.800811
1133.425692,459.657299,-74.020594,9474.636058
1133.426008,536.266849,-0.000000,10288.862594
1133.426323,612.876398,74.020594,9844.739029
1133.426639,1072.533697,666.185348,9548.656652
1133.426955,1072.533697,592.164754,8956.491898
1133.427270,306.438199,-74.020594,9696.697840
1133.427586,919.314598,-370.102971,9474.636058
1133.427901,383.047749,-0.000000,9178.553681
1133.428217,612.876398,-296.082377,9918.759623
1133.428533,842.705048,-888.247130,10140.821405
1133.428848,842.705048,-296.082377,9474.636058
1133.429164,536.266849,-962.267725,9104.533087
1133.429480,306.438199,-592.164754,9474.636058
1133.429795,842.705048,-296.082377,9474.636058
1133.430111,919.314598,-444.123565,8882.471304
1133.430426,1225.752797,-444.123565,9104.533087
1133.430742,1225.752797,-74.020594,8882.471304
1133.431058,1225.752797,-518.144159,8290.306550
1133.431373,1455.581446,-74.020594,8290.306550
1133.431689,1149.143247,370.102971,8364.327145
1133.432004,1225.752797,296.082377,8586.388927
1133.432320,1072.533697,-962.267725,8734.430116
1133.432636,612.876398,-518.144159,9178.553681
1133.432951,689.485948,-740.205942,9400.615463
1133.433267,689.485948,-888.247130,8660.409521
1133.433583,229.828649,-370.102971,9030.512492
1133.433898,995.924147,-592.164754,10362.883188
1133.434214,1225.752797,-296.082377,9030.512492
1133.434529,459.657299,222.061783,8882.471304
1133.434845,229.828649,-0.000000,9326.594869
1133.435161,689.485948,-0.000000,8808.450710
1133.435476,612.876398,-222.061783,8734.430116
1133.435792,459.657299,-148.041188,9474.636058
1133.436107,-306.438199,-296.082377,9992.780217
1133.436423,-689.485948,-370.102971,8882.471304
1133.436739,0.000000,-148.041188,9548.656652
1133.437054,-153.219100,444.123565,9474.636058
1133.437370,-76.609550,370.102971,9918.759623
1133.437686,76.609550,-148.041188,9400.615463
1133.438001,-536.266849,-222.061783,9844.739029
1133.438317,-536.266849,-666.185348,10288.862594
1133.438632,0.000000,-444.123565,9844.739029
1133.438948,-229.828649,740.205942,8956.491898
1133.439264,-229.828649,-0.000000,10362.883188
1133.439579,0.000000,-444.123565,10584.944971
1133.439895,153.219100,-222.061783,9474.636058
1133.440210,-459.657299,-0.000000,10066.800811
1133.440526,-153.219100,-0.000000,9992.780217
1133.440842,229.828649,-74.020594,10066.800811
1133.441157,612.876398,-148.041188,10140.821405
1133.441473,306.438199,-0.000000,10066.800811
1133.441789,153.219100,-148.041188,9622.677246
1133.442104,306.438199,-370.102971,9696.697840
1133.442420,459.657299,-74.020594,9992.780217
1133.442735,612.876398,-0.000000,10658.965565
1133.443051,842.705048,-222.061783,10214.842000
1133.443367,229.828649,-370.102971,9548.656652
1133.443682,229.828649,-518.144159,9844.739029
1133.443998,612.876398,-222.061783,9548.656652
1133.444313,995.924147,-148.041188,9474.636058
1133.444629,919.314598,-0.000000,10140.821405
1133.444945,919.314598,-0.000000,9770.718434
1133.445260,459.657299,-0.000000,9252.574275
1133.445576,536.266849,-0.000000,9252.574275
1133.445891,536.266849,-296.082377,9548.656652
1133.446207,459.657299,-444.123565,9548.656652
1133.446523,536.266849,-222.061783,9474.636058
1133.446838,689.485948,-592.164754,9548.656652
1133.447154,536.266849,-444.123565,9474.636058
1133.447470,612.876398,-592.164754,8882.471304
1133.447785,383.047749,-222.061783,9400.615463
1133.448101,842.705048,-444.123565,9252.574275
1133.448416,536.266849,-74.020594,9326.594869
1133.448732,919.314598,-0.000000,8956.491898
1133.449048,306.438199,-0.000000,8808.450710
1133.449363,459.657299,370.102971,8956.491898
1133.449679,1072.533697,-0.000000,8142.265362
1133.449994,1149.143247,-0.000000,9326.594869
1133.450310,1072.533697,-444.123565,9474.636058
1133.450626,766.095498,-370.102971,8882.471304
1133.450941,536.266849,-296.082377,8586.388927
1133.451257,229.828649,-592.164754,9474.636058
1133.451573,919.314598,-0.000000,9400.615463
1133.451888,689.485948,370.102971,8660.409521
1133.452204,459.657299,-0.000000,9326.594869
1133.452519,459.657299,-370.102971,9548.656652
1133.452835,229.828649,-74.020594,8734.430116
1133.453151,383.047749,-0.000000,8808.450710
1133.453466,766.095498,74.020594,9474.636058
1133.453782,536.266849,-0.000000,9474.636058
1133.454097,383.047749,-0.000000,9400.615463
1133.454413,0.000000,-0.000000,9252.574275
1133.454729,153.219100,-74.020594,9474.636058
1133.455044,0.000000,296.082377,8734.430116
1133.455360,0.000000,592.164754,9548.656652
1133.455676,536.266849,370.102971,10288.862594
1133.455991,-383.047749,296.082377,9474.636058
1133.456307,-383.047749,666.185348,8734.430116
1133.456622,-459.657299,148.041188,9844.739029
1133.456938,0.000000,-0.000000,10140.821405
1133.457254,0.000000,148.041188,9918.759623
1133.457569,-459.657299,-74.020594,10214.842000
1133.457885,-153.219100,-518.144159,10436.903782
1133.458200,-306.438199,-74.020594,9696.697840
1133.458516,-153.219100,-0.000000,9622.677246
1133.458832,153.219100,222.061783,10362.883188
1133.459147,153.219100,370.102971,10436.903782
1133.459463,536.266849,222.061783,9992.780217
1133.459779,229.828649,-296.082377,9844.739029
1133.460094,0.000000,-666.185348,10288.862594
1133.460410,612.876398,-518.144159,9400.615463
1133.460725,612.876398,-1036.288319,9474.636058
1133.461041,459.657299,-1036.288319,11251.130318
1133.461357,612.876398,-888.247130,10807.006753
1133.461672,459.657299,-370.102971,9252.574275
1133.461988,612.876398,-148.041188,9104.533087
1133.462303,536.266849,-592.164754,9770.718434
1133.462619,1455.581446,-0.000000,9400.615463
1133.462935,1685.410096,-0.000000,9548.656652
1133.463250,919.314598,-148.041188,9474.636058
1133.463566,689.485948,-518.144159,9696.697840
1133.463882,766.095498,-888.247130,9252.574275
1133.464197,689.485948,-444.123565,8956.491898
1133.464513,536.266849,-1184.329507,10288.862594
1133.464828,766.095498,-1258.350101,10362.883188
1133.465144,766.095498,-814.226536,9252.574275
1133.465460,536.266849,-222.061783,9030.512492
1133.465775,995.924147,-592.164754,9252.574275
1133.466091,1378.971896,-148.041188,8512.368333
1133.466406,1455.581446,296.082377,8512.368333
1133.466722,1149.143247,-518.144159,8586.388927
1133.467038,842.705048,-518.144159,9104.533087
1133.467353,1149.143247,-592.164754,8734.430116
1133.467669,766.095498,-666.185348,8142.265362
1133.467984,842.705048,-444.123565,8734.430116
1133.468300,766.095498,-814.226536,9178.553681
1133.468616,612.876398,-740.205942,9252.574275
1133.468931,229.828649,-1110.308913,9030.512492
1133.469247,306.438199,-592.164754,8660.409521
1133.469563,536.266849,-370.102971,8734.430116
1133.469878,612.876398,-0.000000,8660.409521
1133.470194,919.314598,-0.000000,9400.615463
1133.470509,153.219100,-222.061783,8956.491898
1133.470825,-229.828649,-592.164754,8882.471304
1133.471141,0.000000,-740.205942,9474.636058
1133.471456,766.095498,-0.000000,9474.636058
1133.471772,1072.533697,-0.000000,9252.574275
1133.472087,689.485948,-0.000000,9474.636058
1133.472403,76.609550,444.123565,9030.512492
1133.472719,-229.828649,370.102971,9178.553681
1133.473034,0.000000,370.102971,9474.636058
1133.473350,0.000000,370.102971,9326.594869
1133.473666,0.000000,296.082377,9696.697840
1133.473981,0.000000,-0.000000,9770.718434
1133.474297,-306.438199,-296.082377,10066.800811
1133.474612,-383.047749,-370.102971,9918.759623
1133.474928,0.000000,-296.082377,9918.759623
1133.475244,-153.219100,-0.000000,10066.800811
1133.475559,153.219100,-0.000000,10732.986159
1133.475875,306.438199,-148.041188,9696.697840
1133.476190,153.219100,-370.102971,9696.697840
1133.476506,153.219100,-74.020594,10214.842000
1133.476822,306.438199,-0.000000,9548.656652
1133.477137,919.314598,592.164754,9400.615463
1133.477453,1302.362347,666.185348,9622.677246
1133.477769,919.314598,222.061783,9400.615463
1133.478084,0.000000,222.061783,9770.718434
1133.478400,383.047749,148.041188,9770.718434
1133.478715,153.219100,-518.144159,9918.759623
1133.479031,0.000000,-370.102971,10584.944971
1133.479347,0.000000,-814.226536,10955.047942
1133.479662,-153.219100,-518.144159,10658.965565
1133.479978,-306.438199,-222.061783,9992.780217
1133.480293,-229.828649,-148.041188,9770.718434
1133.480609,229.828649,-0.000000,9992.780217
1133.480925,153.219100,222.061783,9252.574275
1133.481240,0.000000,444.123565,9918.759623
1133.481556,306.438199,-74.020594,9770.718434
1133.481872,0.000000,222.061783,8882.471304
1133.482187,153.219100,-0.000000,9696.697840
1133.482503,153.219100,-962.267725,9622.677246
1133.482818,612.876398,-222.061783,9770.718434
1133.483134,842.705048,-370.102971,9474.636058
1133.483450,536.266849,-370.102971,8882.471304
1133.483765,689.485948,-74.020594,9474.636058
1133.484081,1072.533697,-74.020594,8882.471304
1133.484396,919.314598,296.082377,8808.450710
1133.484712,1072.533697,-74.020594,9326.594869
1133.485028,995.924147,-148.041188,9104.533087
1133.485343,919.314598,-222.061783,8290.306550
1133.485659,919.314598,-740.205942,8734.430116
1133.485975,1225.752797,-888.247130,9326.594869
1133.486290,1225.752797,-740.205942,9178.553681
1133.486606,1072.533697,-222.061783,8734.430116
1133.486921,995.924147,-888.247130,9252.574275
1133.487237,612.876398,-962.267725,8660.409521
1133.487553,689.485948,-444.123565,9178.553681
1133.487868,842.705048,-148.041188,9178.553681
1133.488184,536.266849,-0.000000,8512.368333
1133.488499,766.095498,296.082377,8808.450710
1133.488815,383.047749,-74.020594,8734.430116
1133.489131,76.609550,-0.000000,8216.285956
1133.489446,383.047749,148.041188,8734.430116
1133.489762,306.438199,-0.000000,9030.512492
1133.490077,-229.828649,-296.082377,9178.553681
1133.490393,-306.438199,-814.226536,10436.903782
1133.490709,-383.047749,-592.164754,9400.615463
1133.491024,-383.047749,-0.000000,9252.574275
1133.491340,-229.828649,740.205942,9548.656652
1133.491656,-612.876398,444.123565,9178.553681
1133.491971,-536.266849,370.102971,9918.759623
1133.492287,0.000000,296.082377,9918.759623
1133.492602,-459.657299,592.164754,9252.574275
1133.492918,0.000000,-0.000000,9844.739029
1133.493234,-459.657299,-0.000000,9326.594869
1133.493549,229.828649,-666.185348,10732.986159
1133.493865,153.219100,-74.020594,10584.944971
1133.494180,-153.219100,222.061783,10214.842000
1133.494496,-383.047749,222.061783,9844.739029
1133.494812,1149.143247,-0.000000,9474.636058
1133.495127,842.705048,444.123565,9992.780217
1133.495443,1072.533697,148.041188,10436.903782
1133.495759,1302.362347,-74.020594,10436.903782
1133.496074,612.876398,-74.020594,9548.656652
1133.496390,612.876398,-222.061783,9770.718434
1133.496705,1149.143247,-148.041188,10214.842000
1133.497021,1072.533697,-370.102971,10436.903782
1133.497337,1072.533697,-74.020594,10288.862594
1133.497652,919.314598,-740.205942,10510.924376
1133.497968,766.095498,-592.164754,9844.739029
1133.498283,383.047749,-962.267725,9622.677246
1133.498599,689.485948,-666.185348,10436.903782
1133.498915,995.924147,-0.000000,10066.800811
1133.499230,842.705048,-148.041188,9548.656652
1133.499546,1149.143247,370.102971,9548.656652
1133.499862,306.438199,-962.267725,9252.574275
1133.500177,919.314598,-666.185348,10066.800811
1133.500493,919.314598,-74.020594,9252.574275
1133.500808,995.924147,-592.164754,9326.594869
1133.501124,1302.362347,-370.102971,9548.656652
1133.501440,995.924147,-0.000000,8808.450710
1133.501756,306.438199,-0.000000,8290.306550
1133.502071,612.876398,-222.061783,9400.615463
1133.502387,689.485948,-370.102971,8956.491898
1133.502703,995.924147,74.020594,8216.285956
1133.503019,0.000000,-0.000000,8586.388927
1133.503334,-153.219100,-1036.288319,8882.471304
1133.503650,-153.219100,-814.226536,9400.615463
1133.503966,-536.266849,-888.247130,8808.450710
1133.504282,-1072.533697,-444.123565,8956.491898
1133.504597,0.000000,-814.226536,9622.677246
1133.504913,-153.219100,-814.226536,9252.574275
1133.505229,-383.047749,-518.144159,9104.533087
1133.505545,-306.438199,-666.185348,8660.409521
1133.505860,689.485948,-0.000000,8660.409521
1133.506176,689.485948,-148.041188,8586.388927
1133.506492,919.314598,370.102971,8956.491898
1133.506808,995.924147,444.123565,8438.347739
1133.507123,689.485948,592.164754,8364.327145
1133.507439,842.705048,740.205942,8068.244768
1133.507755,1302.362347,148.041188,9252.574275
1133.508071,1532.190996,-222.061783,9104.533087
1133.508386,995.924147,222.061783,9474.636058
1133.508702,76.609550,-0.000000,9474.636058
1133.509018,-153.219100,-222.061783,9326.594869
1133.509334,-153.219100,148.041188,8956.491898
1133.509650,-306.438199,814.226536,9252.574275
1133.509965,76.609550,-222.061783,10510.924376
1133.510281,-459.657299,-888.247130,9770.718434
1133.510597,-1072.533697,-666.185348,10140.821405
1133.510913,-842.705048,-518.144159,9918.759623
1133.511228,-306.438199,-222.061783,10066.800811
1133.511544,-306.438199,74.020594,10066.800811
1133.511860,0.000000,-370.102971,10288.862594
1133.512176,-229.828649,-148.041188,10214.842000
1133.512491,-383.047749,370.102971,9474.636058
1133.512807,919.314598,-444.123565,9770.718434
1133.513123,383.047749,444.123565,9696.697840
1133.513439,766.095498,592.164754,9474.636058
1133.513754,995.924147,592.164754,9548.656652
1133.514070,689.485948,148.041188,10214.842000
1133.514386,306.438199,-740.205942,9696.697840
1133.514702,612.876398,-148.041188,9918.759623
1133.515017,459.657299,-592.164754,9844.739029
1133.515333,612.876398,-518.144159,10658.965565
1133.515649,1072.533697,-814.226536,10658.965565
1133.515965,919.314598,-1184.329507,10288.862594
1133.516280,383.047749,-296.082377,10140.821405
1133.516596,919.314598,-148.041188,9770.718434
1133.516912,1455.581446,222.061783,9474.636058
1133.517228,1072.533697,518.144159,9770.718434
1133.517544,1225.752797,-74.020594,9178.553681
1133.517859,919.314598,-444.123565,9326.594869
1133.518175,842.705048,-888.247130,9696.697840
1133.518491,995.924147,-518.144159,9696.697840
1133.518807,1149.143247,-666.185348,9918.759623
1133.519122,842.705048,-740.205942,10214.842000
1133.519438,766.095498,-888.247130,9918.759623
1133.519754,919.314598,-592.164754,9252.574275
1133.520070,842.705048,-148.041188,9104.533087
1133.520385,2374.896044,-0.000000,9178.553681
1133.520701,1149.143247,-74.020594,8734.430116
1133.521017,1072.533697,-296.082377,9104.533087
1133.521333,766.095498,-814.226536,8734.430116
1133.521648,536.266849,-740.205942,8734.430116
1133.521964,1225.752797,-592.164754,9178.553681
1133.522280,306.438199,-814.226536,8956.491898
1133.522596,536.266849,-888.247130,9030.512492
1133.522911,612.876398,-814.226536,9326.594869
1133.523227,306.438199,-962.267725,8882.471304
1133.523543,153.219100,-1406.391290,9178.553681
1133.523859,612.876398,-666.185348,8808.450710
1133.524174,919.314598,-370.102971,8660.409521
1133.524490,842.705048,-296.082377,8660.409521
1133.524806,536.266849,-370.102971,8512.368333
1133.525122,306.438199,-518.144159,8586.388927
1133.525438,459.657299,-0.000000,8364.327145
1133.525753,459.657299,444.123565,7994.224174
1133.526069,536.266849,592.164754,8512.368333
1133.526385,229.828649,-296.082377,8956.491898
1133.526701,0.000000,-666.185348,9104.533087
1133.527016,-766.095498,-74.020594,9474.636058
1133.527332,-612.876398,-0.000000,9326.594869
1133.527648,-766.095498,444.123565,9474.636058
1133.527964,-766.095498,296.082377,9474.636058
1133.528279,-689.485948,-74.020594,10140.821405
1133.528595,-842.705048,-148.041188,10288.862594
1133.528911,-1225.752797,-0.000000,9400.615463
1133.529227,-612.876398,370.102971,9844.739029
1133.529542,-153.219100,666.185348,9548.656652
1133.529858,-153.219100,296.082377,9918.759623
1133.530174,306.438199,444.123565,10140.821405
1133.530490,229.828649,444.123565,10066.800811
1133.530805,-153.219100,370.102971,9548.656652
1133.531121,0.000000,740.205942,9696.697840
1133.531437,995.924147,296.082377,9622.677246
1133.531753,612.876398,-0.000000,10584.944971
1133.532068,536.266849,222.061783,10584.944971
1133.532384,229.828649,148.041188,10140.821405
1133.532700,689.485948,-148.041188,10362.883188
1133.533016,689.485948,-0.000000,10066.800811
1133.533332,612.876398,-0.000000,10362.883188
1133.533647,919.314598,-592.164754,11103.089130
1133.533963,995.924147,-518.144159,10658.965565
1133.534279,612.876398,-296.082377,10140.821405
1133.534595,1072.533697,-518.144159,9770.718434
1133.534910,1072.533697,-296.082377,10140.821405
1133.535226,1455.581446,888.247130,9696.697840
1133.535542,1532.190996,814.226536,9326.594869
1133.535858,1302.362347,370.102971,9918.759623
1133.536173,689.485948,518.144159,9474.636058
1133.536489,689.485948,-0.000000,9474.636058
1133.536805,689.485948,-592.164754,9400.615463
1133.537121,766.095498,-814.226536,10658.965565
1133.537436,995.924147,-888.247130,9696.697840
1133.537752,-383.047749,-1110.308913,9474.636058
1133.538068,76.609550,-592.164754,9918.759623
1133.538384,383.047749,-222.061783,9178.553681
1133.538699,612.876398,-0.000000,8882.471304
1133.539015,459.657299,222.061783,9326.594869
1133.539331,612.876398,-370.102971,9104.533087
1133.539647,612.876398,-222.061783,8586.388927
1133.539962,689.485948,-518.144159,8586.388927
1133.540278,689.485948,-1036.288319,8364.327145
1133.540594,689.485948,-1036.288319,9326.594869
1133.540910,612.876398,-888.247130,8882.471304
1133.541226,919.314598,-962.267725,8956.491898
1133.541541,0.000000,-1110.308913,9474.636058
1133.541857,229.828649,-962.267725,8882.471304
1133.542173,919.314598,-296.082377,8438.347739
1133.542489,536.266849,-74.020594,8438.347739
1133.542804,612.876398,-296.082377,9030.512492
1133.543120,842.705048,-962.267725,9104.533087
1133.543436,766.095498,-296.082377,8364.327145
1133.543752,383.047749,-148.041188,8438.347739
1133.544067,612.876398,-518.144159,8586.388927
1133.544383,842.705048,-962.267725,9474.636058
1133.544699,383.047749,-888.247130,9918.759623
1133.545015,-229.828649,-222.061783,9548.656652
1133.545330,0.000000,-296.082377,8734.430116
1133.545646,0.000000,-0.000000,9178.553681
1133.545962,383.047749,444.123565,9104.533087
1133.546278,306.438199,592.164754,8882.471304
1133.546593,76.609550,148.041188,9326.594869
1133.546909,-536.266849,-518.144159,9474.636058
1133.547225,-995.924147,-888.247130,9696.697840
1133.547541,-536.266849,-296.082377,9326.594869
1133.547856,-995.924147,-370.102971,10288.862594
1133.548172,-306.438199,-666.185348,10436.903782
1133.548488,-689.485948,-148.041188,9844.739029
1133.548804,-995.924147,-74.020594,9696.697840
1133.549120,-612.876398,-74.020594,9992.780217
1133.549435,0.000000,-0.000000,9918.759623
1133.549751,153.219100,370.102971,10140.821405
1133.550067,0.000000,444.123565,9844.739029
1133.550383,0.000000,-222.061783,9992.780217
1133.550698,0.000000,-518.144159,9770.718434
1133.551014,76.609550,-370.102971,9844.739029
1133.551330,459.657299,-370.102971,10362.883188
1133.551646,766.095498,-444.123565,10436.903782
1133.551961,919.314598,-74.020594,10436.903782
1133.552277,766.095498,-148.041188,10510.924376
1133.552593,766.095498,-0.000000,9696.697840
1133.552909,1149.143247,370.102971,9548.656652
1133.553224,1455.581446,814.226536,9548.656652
1133.553540,1685.410096,592.164754,9622.677246
1133.553856,995.924147,296.082377,9474.636058
1133.554172,766.095498,296.082377,9696.697840
1133.554487,919.314598,-296.082377,9844.739029
1133.554803,995.924147,-296.082377,10140.821405
1133.555119,612.876398,-148.041188,10436.903782
1133.555435,766.095498,-666.185348,10214.842000
1133.555750,689.485948,-888.247130,10214.842000
1133.556066,459.657299,-666.185348,9696.697840
1133.556382,842.705048,-148.041188,9992.780217
1133.556698,1378.971896,814.226536,8808.450710
1133.557014,1455.581446,518.144159,8882.471304
1133.557329,1608.800546,296.082377,9104.533087
1133.557645,1608.800546,-0.000000,8882.471304
1133.557961,1149.143247,-74.020594,8808.450710
1133.558277,842.705048,-592.164754,8364.327145
1133.558592,1149.143247,-888.247130,9178.553681
1133.558908,1378.971896,-1406.391290,9696.697840
1133.559224,842.705048,-1036.288319,9030.512492
1133.559540,459.657299,-444.123565,8512.368333
1133.559855,766.095498,-518.144159,8512.368333
1133.560171,1455.581446,-444.123565,8882.471304
1133.560487,459.657299,-148.041188,8660.409521
1133.560803,766.095498,-148.041188,8438.347739
1133.561118,459.657299,-296.082377,8512.368333
1133.561434,229.828649,-444.123565,9030.512492
1133.561750,0.000000,-888.247130,9030.512492
1133.562066,306.438199,-74.020594,8808.450710
1133.562381,0.000000,-0.000000,8290.306550
1133.562697,0.000000,-740.205942,9252.574275
1133.563013,-383.047749,-444.123565,9474.636058
1133.563329,-919.314598,-518.144159,9474.636058
1133.563644,-536.266849,370.102971,8882.471304
1133.563960,-459.657299,666.185348,8660.409521
1133.564276,-842.705048,592.164754,9474.636058
1133.564592,-612.876398,-0.000000,9918.759623
1133.564908,-1149.143247,-296.082377,9030.512492
1133.565223,-1532.190996,-370.102971,9400.615463
1133.565539,-766.095498,-0.000000,9992.780217
1133.565855,-919.314598,-74.020594,9326.594869
1133.566171,-229.828649,-0.000000,10288.862594
1133.566486,-536.266849,-0.000000,10510.924376
1133.566802,-766.095498,-222.061783,9696.697840
1133.567118,0.000000,148.041188,9400.615463
1133.567434,0.000000,222.061783,9252.574275
1133.567749,536.266849,296.082377,9696.697840
1133.568065,612.876398,-518.144159,10584.944971
1133.568381,459.657299,148.041188,9474.636058
1133.568697,229.828649,-0.000000,9474.636058
1133.569012,383.047749,-444.123565,9844.739029
1133.569328,612.876398,-444.123565,9696.697840
1133.569644,919.314598,-222.061783,10732.986159
1133.569960,612.876398,-740.205942,10214.842000
1133.570275,612.876398,-962.267725,10362.883188
1133.570591,842.705048,-444.123565,9992.780217
1133.570907,1072.533697,-148.041188,9844.739029
1133.571223,1149.143247,-0.000000,10288.862594
1133.571538,1762.019645,-0.000000,9696.697840
1133.571854,1608.800546,148.041188,9696.697840
1133.572170,1072.533697,-0.000000,9622.677246
1133.572486,1378.971896,222.061783,9400.615463
1133.572802,1072.533697,370.102971,9548.656652
1133.573117,1302.362347,296.082377,10066.800811
1133.573433,1608.800546,-222.061783,10362.883188
1133.573749,1455.581446,-222.061783,9400.615463
1133.574065,1378.971896,-666.185348,9992.780217
1133.574380,919.314598,-814.226536,9326.594869
1133.574696,1149.143247,-74.020594,9252.574275
1133.575012,1072.533697,444.123565,9696.697840
1133.575328,689.485948,-370.102971,9770.718434
1133.575643,1225.752797,-0.000000,9844.739029
1133.575959,536.266849,444.123565,8438.347739
1133.576275,153.219100,-0.000000,8882.471304
1133.576591,919.314598,-74.020594,9326.594869
1133.576906,842.705048,-296.082377,9326.594869
1133.577222,1455.581446,-74.020594,9030.512492
1133.577538,536.266849,-962.267725,9474.636058
1133.577854,612.876398,-1406.391290,8956.491898
1133.578169,766.095498,-740.205942,8808.450710
1133.578485,766.095498,-74.020594,8734.430116
1133.578801,1532.190996,-0.000000,8956.491898
1133.579117,1149.143247,-0.000000,8808.450710
1133.579432,842.705048,296.082377,8808.450710
1133.579748,612.876398,-0.000000,8364.327145
1133.580064,689.485948,-74.020594,8438.347739
1133.580380,689.485948,-518.144159,8660.409521
1133.580696,689.485948,-370.102971,9104.533087
1133.581011,536.266849,-444.123565,9178.553681
1133.581327,-383.047749,-592.164754,8882.471304
1133.581643,-306.438199,-888.247130,9178.553681
1133.581959,-153.219100,-148.041188,9548.656652
1133.582274,-536.266849,148.041188,9474.636058
1133.582590,-459.657299,444.123565,9400.615463
1133.582906,-383.047749,-0.000000,9400.615463
1133.583222,-766.095498,-0.000000,9030.512492
1133.583537,-536.266849,-148.041188,9326.594869
1133.583853,-306.438199,-518.144159,9474.636058
1133.584169,-612.876398,-222.061783,10140.821405
1133.584485,-153.219100,-222.061783,10140.821405
1133.584800,153.219100,-222.061783,8882.471304
1133.585116,-612.876398,518.144159,9474.636058
1133.585432,0.000000,-0.000000,9548.656652
1133.585748,0.000000,518.144159,9548.656652
1133.586063,0.000000,-0.000000,9622.677246
1133.586379,0.000000,-0.000000,10436.903782
1133.586695,-306.438199,-370.102971,9770.718434
1133.587011,-459.657299,-592.164754,9622.677246
1133.587326,-383.047749,-666.185348,10140.821405
1133.587642,-153.219100,-444.123565,10658.965565
1133.587958,229.828649,-888.247130,10658.965565
1133.588274,612.876398,-518.144159,10807.006753
1133.588590,-229.828649,-518.144159,9622.677246
1133.588905,306.438199,-518.144159,9844.739029
1133.589221,919.314598,-0.000000,9770.718434
1133.589537,1072.533697,-0.000000,9770.718434
1133.589853,1532.190996,-0.000000,10066.800811
1133.590168,995.924147,222.061783,9326.594869
1133.590484,842.705048,-0.000000,9030.512492
1133.590800,689.485948,-148.041188,9400.615463
1133.591116,919.314598,-148.041188,10288.862594
1133.591431,1072.533697,-296.082377,10362.883188
1133.591747,842.705048,-296.082377,10140.821405
1133.592063,459.657299,-444.123565,9844.739029
1133.592379,153.219100,-518.144159,10066.800811
1133.592694,612.876398,-518.144159,9696.697840
1133.593010,1149.143247,-0.000000,9696.697840
1133.593326,1225.752797,296.082377,9696.697840
1133.593642,1532.190996,222.061783,9178.553681
1133.593957,1762.019645,-148.041188,8734.430116
1133.594273,1149.143247,518.144159,8586.388927
1133.594589,1532.190996,592.164754,8364.327145
1133.594905,1378.971896,148.041188,8586.388927
1133.595220,1608.800546,148.041188,9104.533087
1133.595536,1608.800546,-518.144159,9400.615463
1133.595852,766.095498,-444.123565,8586.388927
1133.596168,766.095498,-1110.308913,9400.615463
1133.596484,995.924147,-962.267725,8956.491898
1133.596799,1225.752797,-74.020594,9104.533087
1133.597115,919.314598,-444.123565,9104.533087
1133.597431,459.657299,-148.041188,9326.594869
1133.597747,306.438199,-296.082377,8216.285956
1133.598062,383.047749,-370.102971,8808.450710
1133.598378,229.828649,-0.000000,8734.430116
1133.598694,459.657299,-518.144159,9400.615463
1133.599010,383.047749,-0.000000,9030.512492
1133.599325,153.219100,-666.185348,9178.553681
1133.599641,-153.219100,-740.205942,9474.636058
1133.599957,0.000000,-0.000000,8882.471304
1133.600273,0.000000,-0.000000,8808.450710
1133.600588,-153.219100,222.061783,9178.553681
1133.600904,-306.438199,74.020594,9696.697840
1133.601220,-459.657299,-0.000000,8956.491898
1133.601536,-383.047749,-222.061783,9548.656652
1133.601851,-919.314598,-222.061783,9474.636058
1133.602167,-153.219100,-0.000000,9696.697840
1133.602483,-229.828649,-0.000000,9400.615463
1133.602799,-689.485948,-518.144159,10066.800811
1133.603115,-383.047749,-666.185348,9918.759623
1133.603430,-766.095498,-518.144159,9400.615463
1133.603746,0.000000,296.082377,9474.636058
1133.604062,459.657299,-0.000000,10140.821405
1133.604378,306.438199,-222.061783,10288.862594
1133.604693,0.000000,518.144159,9252.574275
1133.605009,-153.219100,-296.082377,9844.739029
1133.605325,306.438199,-296.082377,10288.862594
1133.605641,0.000000,-0.000000,9622.677246
1133.605957,766.095498,-296.082377,9474.636058
1133.606272,1149.143247,-888.247130,10510.924376
1133.606588,306.438199,-148.041188,9992.780217
1133.606904,842.705048,-592.164754,10140.821405
1133.607220,919.314598,-74.020594,9474.636058
1133.607536,1532.190996,222.061783,9992.780217
1133.607851,995.924147,-148.041188,9992.780217
1133.608167,995.924147,592.164754,9622.677246
1133.608483,536.266849,222.061783,9400.615463
1133.608799,229.828649,-74.020594,9548.656652
1133.609114,383.047749,-0.000000,9844.739029
1133.609430,459.657299,-296.082377,10288.862594
1133.609746,689.485948,-296.082377,10955.047942
1133.610062,306.438199,-222.061783,9548.656652
1133.610378,0.000000,-296.082377,9400.615463
1133.610693,612.876398,-0.000000,10436.903782
1133.611009,0.000000,-74.020594,9104.533087
1133.611325,689.485948,518.144159,9992.780217
1133.611641,919.314598,-74.020594,9252.574275
1133.611956,612.876398,-296.082377,9178.553681
1133.612272,536.266849,148.041188,9844.739029
1133.612588,612.876398,-0.000000,8734.430116
1133.612904,1225.752797,148.041188,9104.533087
1133.613220,1225.752797,148.041188,9252.574275
1133.613535,995.924147,-0.000000,8660.409521
1133.613851,153.219100,-592.164754,9474.636058
1133.614167,766.095498,-370.102971,8882.471304
1133.614483,919.314598,-370.102971,8586.388927
1133.614799,842.705048,-370.102971,9104.533087
1133.615114,1072.533697,-592.164754,9178.553681
1133.615430,1225.752797,-1110.308913,8956.491898
1133.615746,229.828649,-888.247130,9178.553681
1133.616062,76.609550,-962.267725,8956.491898
1133.616377,536.266849,-296.082377,9178.553681
1133.616693,995.924147,-74.020594,9030.512492
1133.617009,919.314598,-296.082377,8586.388927
1133.617325,459.657299,-296.082377,8734.430116
1133.617641,459.657299,-740.205942,9474.636058
1133.617956,306.438199,-296.082377,8512.368333
1133.618272,306.438199,-0.000000,8734.430116
1133.618588,612.876398,-0.000000,9548.656652
1133.618904,229.828649,-296.082377,9400.615463
1133.619219,76.609550,222.061783,9178.553681
1133.619535,-153.219100,148.041188,9178.553681
1133.619851,-459.657299,-148.041188,9030.512492
1133.620167,0.000000,-0.000000,9844.739029
1133.620483,0.000000,-0.000000,9474.636058
1133.620798,-76.609550,-222.061783,9622.677246
1133.621114,-383.047749,-74.020594,9992.780217
1133.621430,-766.095498,-296.082377,9252.574275
1133.621746,-153.219100,-592.164754,9918.759623
1133.622062,-229.828649,148.041188,9770.718434
1133.622377,0.000000,-148.041188,9622.677246
1133.622693,-153.219100,-0.000000,9992.780217
1133.623009,-153.219100,-666.185348,9770.718434
1133.623325,-383.047749,-666.185348,10066.800811
1133.623640,0.000000,-148.041188,10510.924376
1133.623956,76.609550,-148.041188,9844.739029
1133.624272,536.266849,-296.082377,9770.718434
1133.624588,383.047749,-370.102971,9992.780217
1133.624904,459.657299,-74.020594,10362.883188
1133.625219,383.047749,-740.205942,10066.800811
1133.625535,919.314598,-148.041188,9992.780217
1133.625851,766.095498,296.082377,10140.821405
1133.626167,1455.581446,-370.102971,10584.944971
1133.626482,1225.752797,-0.000000,9696.697840
1133.626798,306.438199,370.102971,9326.594869
1133.627114,919.314598,-296.082377,9696.697840
1133.627430,1302.362347,-0.000000,9770.718434
1133.627746,1072.533697,-296.082377,10288.862594
1133.628061,919.314598,-666.185348,10140.821405
1133.628377,612.876398,-296.082377,9548.656652
1133.628693,536.266849,-222.061783,9030.512492
1133.629009,689.485948,-222.061783,9474.636058
1133.629325,1072.533697,-222.061783,9918.759623
1133.629640,995.924147,-0.000000,9696.697840
1133.629956,1455.581446,-0.000000,8956.491898
1133.630272,995.924147,-0.000000,8512.368333
1133.630588,1302.362347,-0.000000,9030.512492
1133.630903,1838.629195,-0.000000,8956.491898
1133.631219,1608.800546,-74.020594,9030.512492
1133.631535,1532.190996,-370.102971,9326.594869
1133.631851,1455.581446,-518.144159,9622.677246
1133.632167,766.095498,-888.247130,8882.471304
1133.632482,1225.752797,-444.123565,8882.471304
1133.632798,1149.143247,-0.000000,9622.677246
1133.633114,1378.971896,-74.020594,8808.450710
1133.633430,995.924147,222.061783,9104.533087
1133.633745,612.876398,-296.082377,9326.594869
1133.634061,229.828649,-0.000000,8660.409521
1133.634377,919.314598,-0.000000,8068.244768
1133.634693,766.095498,-74.020594,8364.327145
1133.635009,459.657299,-444.123565,9622.677246
1133.635324,536.266849,-592.164754,9474.636058
1133.635640,0.000000,-666.185348,9104.533087
1133.635956,76.609550,-888.247130,9400.615463
1133.636272,-153.219100,-814.226536,8956.491898
1133.636588,0.000000,592.164754,8438.347739
1133.636903,76.609550,888.247130,9030.512492
1133.637219,153.219100,-370.102971,9770.718434
1133.637535,-383.047749,-148.041188,8882.471304
1133.637851,-1302.362347,148.041188,8512.368333
1133.638166,-766.095498,-444.123565,9548.656652
1133.638482,-612.876398,-296.082377,9696.697840
1133.638798,-689.485948,-518.144159,9844.739029
1133.639114,-612.876398,-814.226536,9992.780217
1133.639430,-1149.143247,-888.247130,10066.800811
1133.639745,-536.266849,-592.164754,9178.553681
1133.640061,-459.657299,-0.000000,9474.636058
1133.640377,0.000000,-74.020594,10066.800811
1133.640693,459.657299,222.061783,9696.697840
1133.641008,383.047749,370.102971,9030.512492
1133.641324,-383.047749,-222.061783,9326.594869
1133.641640,229.828649,-888.247130,10436.903782
1133.641956,459.657299,-592.164754,9918.759623
1133.642272,536.266849,-0.000000,9622.677246
1133.642587,919.314598,296.082377,10362.883188
1133.642903,689.485948,-74.020594,9474.636058
1133.643219,919.314598,-0.000000,9696.697840
1133.643535,1302.362347,296.082377,9474.636058
1133.643851,1149.143247,222.061783,9252.574275
1133.644166,995.924147,222.061783,9918.759623
1133.644482,842.705048,-444.123565,10436.903782
1133.644798,612.876398,-592.164754,9696.697840
1133.645114,306.438199,-370.102971,9844.739029
1133.645429,153.219100,-0.000000,10214.842000
1133.645745,842.705048,-74.020594,10436.903782
1133.646061,1072.533697,-222.061783,10140.821405
1133.646377,383.047749,-74.020594,9622.677246
1133.646693,383.047749,-1036.288319,10288.862594
1133.647008,689.485948,-222.061783,9622.677246
1133.647324,689.485948,-0.000000,9622.677246
1133.647640,842.705048,222.061783,9770.718434
1133.647956,1378.971896,518.144159,9400.615463
1133.648272,919.314598,296.082377,8660.409521
1133.648587,766.095498,-444.123565,9548.656652
1133.648903,1225.752797,-148.041188,9622.677246
1133.649219,1302.362347,-592.164754,9252.574275
1133.649535,1302.362347,-74.020594,9326.594869
1133.649850,1072.533697,370.102971,9400.615463
1133.650166,689.485948,-518.144159,9030.512492
1133.650482,536.266849,-0.000000,8808.450710
1133.650798,459.657299,-0.000000,9178.553681
1133.651114,919.314598,-0.000000,9178.553681
1133.651429,766.095498,148.041188,9992.780217
1133.651745,306.438199,-962.267725,9326.594869
1133.652061,536.266849,-740.205942,8882.471304
1133.652377,306.438199,-444.123565,8808.450710
1133.652692,612.876398,-444.123565,8882.471304
1133.653008,536.266849,-0.000000,8808.450710
1133.653324,612.876398,-0.000000,8956.491898
1133.653640,76.609550,-0.000000,8660.409521
1133.653956,76.609550,-222.061783,9252.574275
1133.654271,229.828649,-222.061783,8216.285956
1133.654587,612.876398,296.082377,8808.450710
1133.654903,229.828649,-74.020594,8660.409521
1133.655219,0.000000,-518.144159,9104.533087
1133.655535,-459.657299,-592.164754,9178.553681
1133.655850,-536.266849,-148.041188,8808.450710
1133.656166,-459.657299,-0.000000,8882.471304
1133.656482,-459.657299,222.061783,9474.636058
1133.656798,-383.047749,-518.144159,9844.739029
1133.657113,-612.876398,-666.185348,9844.739029
1133.657429,-612.876398,-592.164754,9474.636058
1133.657745,-766.095498,-962.267725,8956.491898
1133.658061,-153.219100,-592.164754,10066.800811
1133.658377,-229.828649,-518.144159,9992.780217
1133.658692,0.000000,-0.000000,9474.636058
1133.659008,689.485948,148.041188,9400.615463
1133.659324,0.000000,-444.123565,9252.574275
1133.659640,229.828649,-222.061783,9548.656652
1133.659955,383.047749,-444.123565,10214.842000
1133.660271,0.000000,-444.123565,10140.821405
1133.660587,842.705048,-74.020594,10658.965565
1133.660903,689.485948,-148.041188,9770.718434
1133.661219,766.095498,-444.123565,9400.615463
1133.661534,459.657299,-814.226536,10288.862594
1133.661850,766.095498,-666.185348,10214.842000
1133.662166,689.485948,592.164754,10584.944971
1133.662482,612.876398,296.082377,9770.718434
1133.662798,689.485948,-0.000000,9696.697840
1133.663113,306.438199,-518.144159,9622.677246
1133.663429,76.609550,-888.247130,10362.883188
1133.663745,842.705048,-592.164754,10658.965565
1133.664061,612.876398,-518.144159,10066.800811
1133.664376,612.876398,-666.185348,10214.842000
1133.664692,153.219100,-444.123565,9844.739029
1133.665008,459.657299,-370.102971,9548.656652
1133.665324,1149.143247,-148.041188,9622.677246
1133.665640,1149.143247,222.061783,9474.636058
1133.665955,1608.800546,222.061783,9770.718434
1133.666271,1608.800546,-0.000000,9178.553681
1133.666587,1302.362347,-0.000000,8882.471304
1133.666903,1455.581446,296.082377,8586.388927
1133.667218,1991.848295,518.144159,8734.430116
1133.667534,1838.629195,666.185348,9326.594869
1133.667850,1532.190996,296.082377,9474.636058
1133.668166,1608.800546,-370.102971,9104.533087
1133.668482,612.876398,-222.061783,9104.533087
1133.668797,383.047749,-296.082377,9770.718434
1133.669113,612.876398,-222.061783,9548.656652
1133.669429,612.876398,148.041188,9474.636058
1133.669745,306.438199,-148.041188,9844.739029
1133.670061,76.609550,296.082377,8882.471304
1133.670376,153.219100,296.082377,8956.491898
1133.670692,612.876398,-0.000000,8882.471304
1133.671008,536.266849,-0.000000,8512.368333
1133.671324,306.438199,148.041188,8956.491898
1133.671639,612.876398,-518.144159,9622.677246
1133.671955,153.219100,-296.082377,8956.491898
1133.672271,-153.219100,-148.041188,8438.347739
1133.672587,153.219100,-740.205942,8808.450710
1133.672903,0.000000,-0.000000,8512.368333
1133.673218,0.000000,-0.000000,9104.533087
1133.673534,-612.876398,-222.061783,8956.491898
1133.673850,-1225.752797,-592.164754,9178.553681
1133.674166,-1302.362347,-370.102971,9844.739029
1133.674481,-919.314598,-0.000000,9326.594869
1133.674797,-995.924147,296.082377,9252.574275
1133.675113,-766.095498,-0.000000,10140.821405
1133.675429,-842.705048,-444.123565,9474.636058
1133.675745,-1149.143247,-0.000000,9474.636058
1133.676060,-919.314598,-0.000000,9474.636058
1133.676376,-536.266849,-296.082377,9622.677246
1133.676692,-153.219100,222.061783,10510.924376
1133.677008,306.438199,296.082377,9992.780217
1133.677324,0.000000,444.123565,9252.574275
1133.677639,-306.438199,-296.082377,9696.697840
1133.677955,459.657299,-666.185348,10214.842000
1133.678271,766.095498,-0.000000,9326.594869
1133.678587,842.705048,518.144159,10436.903782
1133.678902,612.876398,222.061783,9992.780217
1133.679218,612.876398,444.123565,9474.636058
1133.679534,766.095498,222.061783,9400.615463
1133.679850,919.314598,370.102971,9548.656652
1133.680166,766.095498,-222.061783,9844.739029
1133.680481,995.924147,-444.123565,10362.883188
1133.680797,766.095498,-296.082377,10288.862594
1133.681113,153.219100,-592.164754,9770.718434
1133.681429,612.876398,-444.123565,10140.821405
1133.681744,612.876398,-888.247130,9918.759623
1133.682060,536.266849,-666.185348,10288.862594
1133.682376,995.924147,-370.102971,9844.739029
1133.682692,766.095498,-740.205942,9474.636058
1133.683008,1149.143247,-814.226536,10140.821405
1133.683323,1685.410096,-1036.288319,10214.842000
1133.683639,1762.019645,-0.000000,9474.636058
1133.683955,1915.238745,592.164754,9030.512492
1133.684271,1838.629195,666.185348,8956.491898
1133.684587,1685.410096,518.144159,8586.388927
1133.684902,1225.752797,370.102971,8364.327145
1133.685218,1455.581446,-296.082377,9326.594869
1133.685534,995.924147,-592.164754,9696.697840
1133.685850,995.924147,-592.164754,9770.718434
1133.686165,842.705048,-296.082377,9696.697840
1133.686481,612.876398,222.061783,9178.553681
1133.686797,153.219100,-74.020594,8956.491898
1133.687113,612.876398,-370.102971,9844.739029
1133.687429,612.876398,-370.102971,9326.594869
1133.687744,919.314598,-518.144159,9400.615463
1133.688060,612.876398,-592.164754,9326.594869
1133.688376,383.047749,-592.164754,9400.615463
1133.688692,842.705048,-148.041188,8734.430116
1133.689007,1072.533697,592.164754,8512.368333
1133.689323,1149.143247,444.123565,8290.306550
1133.689639,1072.533697,-148.041188,8364.327145
1133.689955,383.047749,-74.020594,8956.491898
1133.690271,153.219100,-518.144159,8586.388927
1133.690586,459.657299,-666.185348,9400.615463
1133.690902,0.000000,-222.061783,9178.553681
1133.691218,0.000000,-296.082377,9178.553681
1133.691534,0.000000,-222.061783,9400.615463
1133.691850,-536.266849,-296.082377,9326.594869
1133.692165,-919.314598,-148.041188,9178.553681
1133.692481,-1149.143247,-518.144159,9548.656652
1133.692797,-919.314598,-592.164754,9400.615463
1133.693113,-229.828649,-0.000000,9844.739029
1133.693428,0.000000,-0.000000,8808.450710
1133.693744,-536.266849,-370.102971,9252.574275
1133.694060,-306.438199,-814.226536,9992.780217
1133.694376,-459.657299,-222.061783,9918.759623
1133.694692,-229.828649,222.061783,9696.697840
1133.695007,0.000000,518.144159,9992.780217
1133.695323,-229.828649,222.061783,9474.636058
1133.695639,0.000000,-370.102971,9696.697840
1133.695955,153.219100,-444.123565,9918.759623
1133.696270,76.609550,-148.041188,10066.800811
1133.696586,612.876398,-296.082377,10288.862594
1133.696902,459.657299,-0.000000,9918.759623
1133.697218,306.438199,-0.000000,9844.739029
1133.697534,612.876398,-518.144159,9992.780217
1133.697849,766.095498,-666.185348,10214.842000
1133.698165,612.876398,-222.061783,9918.759623
1133.698481,1149.143247,-370.102971,10140.821405
1133.698797,919.314598,-296.082377,10362.883188
1133.699113,306.438199,-0.000000,9622.677246
1133.699428,0.000000,-74.020594,9622.677246
1133.699744,459.657299,-0.000000,10288.862594
1133.700060,536.266849,-370.102971,10140.821405
1133.700376,612.876398,-666.185348,10066.800811
1133.700691,306.438199,-1184.329507,10658.965565
1133.701007,0.000000,-1110.308913,9992.780217
1133.701323,459.657299,-1036.288319,10214.842000
1133.701639,1225.752797,-592.164754,10140.821405
1133.701955,1532.190996,814.226536,9474.636058
1133.702270,1991.848295,888.247130,8956.491898
1133.702586,1608.800546,592.164754,8068.244768
1133.702902,1225.752797,-0.000000,9030.512492
1133.703218,1685.410096,-814.226536,9844.739029
1133.703524,1378.971896,-518.144159,9474.636058
1133.703839,1072.533697,222.061783,8956.491898
1133.704155,1378.971896,-518.144159,9400.615463
1133.704471,1225.752797,-444.123565,9030.512492
1133.704786,383.047749,-148.041188,9104.533087
1133.705102,689.485948,-222.061783,9326.594869
1133.705418,1072.533697,-370.102971,9178.553681
1133.705734,766.095498,-148.041188,9252.574275
1133.706049,689.485948,-370.102971,9474.636058
1133.706365,612.876398,-814.226536,9104.533087
1133.706681,689.485948,-592.164754,9252.574275
1133.706996,536.266849,-222.061783,9030.512492
1133.707312,1072.533697,148.041188,8734.430116
1133.707628,1378.971896,444.123565,9030.512492
1133.707943,1149.143247,296.082377,8290.306550
1133.708259,306.438199,-222.061783,8882.471304
1133.708575,383.047749,-74.020594,9474.636058
1133.708890,229.828649,-74.020594,9178.553681
1133.709206,0.000000,666.185348,8438.347739
1133.709522,383.047749,444.123565,9252.574275
1133.709838,-229.828649,-222.061783,9252.574275
1133.710153,-459.657299,-592.164754,9622.677246
1133.710469,-612.876398,-444.123565,9622.677246
1133.710785,-842.705048,-1036.288319,10140.821405
1133.711100,-842.705048,-74.020594,10066.800811
1133.711416,-766.095498,-962.267725,10436.903782
1133.711732,-689.485948,-518.144159,9326.594869
1133.712047,-919.314598,-370.102971,9326.594869
1133.712363,-1225.752797,-222.061783,9696.697840
1133.712679,-229.828649,-296.082377,9770.718434
1133.712994,-153.219100,-0.000000,9400.615463
1133.713310,153.219100,296.082377,9622.677246
1133.713626,0.000000,-222.061783,9400.615463
1133.713942,153.219100,-222.061783,8956.491898
1133.714257,153.219100,-518.144159,9548.656652
1133.714573,536.266849,-1036.288319,9770.718434
1133.714889,919.314598,-1036.288319,10140.821405
1133.715204,612.876398,-666.185348,9548.656652
1133.715520,153.219100,148.041188,10066.800811
1133.715836,383.047749,-0.000000,9992.780217
1133.716151,1149.143247,222.061783,9326.594869
1133.716467,919.314598,1036.288319,9474.636058
1133.716783,995.924147,296.082377,9696.697840
1133.717098,766.095498,-296.082377,9252.574275
1133.717414,306.438199,-592.164754,9844.739029
1133.717730,0.000000,-444.123565,10510.924376
1133.718046,612.876398,-74.020594,10436.903782
1133.718361,306.438199,592.164754,9696.697840
1133.718677,536.266849,148.041188,10436.903782
1133.718993,383.047749,-148.041188,10066.800811
1133.719308,153.219100,-370.102971,9104.533087
1133.719624,459.657299,-0.000000,9844.739029
1133.719940,1072.533697,-74.020594,9992.780217
1133.720255,1072.533697,296.082377,9474.636058
1133.720571,1608.800546,1184.329507,9992.780217
1133.720887,1072.533697,370.102971,8734.430116
1133.721202,842.705048,444.123565,8882.471304
1133.721518,1072.533697,-74.020594,9178.553681
1133.721834,1072.533697,-370.102971,9770.718434
1133.722150,1378.971896,-518.144159,10214.842000
1133.722465,919.314598,-814.226536,9474.636058
1133.722781,536.266849,-814.226536,9770.718434
1133.723097,919.314598,-592.164754,10214.842000
1133.723412,1225.752797,518.144159,9030.512492
1133.723728,842.705048,962.267725,7846.182985
1133.724044,1378.971896,222.061783,9104.533087
1133.724359,1225.752797,-444.123565,9104.533087
1133.724675,306.438199,-370.102971,9252.574275
1133.724991,689.485948,-370.102971,9030.512492
1133.725306,459.657299,-1110.308913,9104.533087
1133.725622,383.047749,-444.123565,9622.677246
1133.725938,689.485948,-518.144159,9622.677246
1133.726254,0.000000,-222.061783,9030.512492
1133.726569,0.000000,-222.061783,9104.533087
1133.726885,306.438199,-222.061783,8734.430116
1133.727201,383.047749,296.082377,8882.471304
1133.727516,383.047749,444.123565,9030.512492
1133.727832,76.609550,-296.082377,9030.512492
1133.728148,0.000000,-666.185348,9030.512492
1133.728463,-459.657299,-1110.308913,9326.594869
1133.728779,-459.657299,-592.164754,9474.636058
1133.729095,-229.828649,-0.000000,9400.615463
1133.729410,76.609550,-74.020594,9474.636058
1133.729726,0.000000,-74.020594,9844.739029
1133.730042,-919.314598,-444.123565,9474.636058
1133.730358,-153.219100,-296.082377,10288.862594
1133.730673,153.219100,148.041188,9104.533087
1133.730989,-153.219100,814.226536,8512.368333
1133.731305,76.609550,-74.020594,10288.862594
1133.731620,0.000000,-814.226536,9326.594869
1133.731936,-306.438199,-518.144159,9992.780217
1133.732252,-766.095498,-1406.391290,10288.862594
1133.732567,-153.219100,-1110.308913,9844.739029
1133.732883,459.657299,-592.164754,9844.739029
1133.733199,536.266849,-1110.308913,10288.862594
1133.733514,153.219100,-888.247130,10066.800811
1133.733830,612.876398,-592.164754,9918.759623
1133.734146,842.705048,-74.020594,9770.718434
1133.734462,1378.971896,296.082377,9104.533087
1133.734777,1302.362347,370.102971,9474.636058
1133.735093,1455.581446,222.061783,9474.636058
1133.735409,306.438199,-0.000000,9696.697840
1133.735724,383.047749,-592.164754,9696.697840
1133.736040,306.438199,-370.102971,9770.718434
1133.736356,766.095498,-444.123565,9844.739029
1133.736671,919.314598,-370.102971,10214.842000
1133.736987,229.828649,-1036.288319,10066.800811
1133.737303,0.000000,-740.205942,10140.821405
1133.737618,306.438199,-1184.329507,10436.903782
1133.737934,766.095498,-222.061783,10066.800811
1133.738250,919.314598,296.082377,9252.574275
1133.738566,919.314598,296.082377,9326.594869
1133.738881,1149.143247,814.226536,9178.553681
1133.739197,612.876398,-148.041188,9326.594869
1133.739513,842.705048,-148.041188,9104.533087
1133.739828,995.924147,-222.061783,9326.594869
1133.740144,1072.533697,-370.102971,9400.615463
1133.740460,1608.800546,-222.061783,9844.739029
1133.740775,919.314598,-814.226536,9474.636058
1133.741091,459.657299,-74.020594,8956.491898
1133.741407,919.314598,-296.082377,9844.739029
1133.741722,1149.143247,-370.102971,9474.636058
1133.742038,995.924147,148.041188,8734.430116
1133.742354,842.705048,740.205942,8882.471304
1133.742670,612.876398,-370.102971,9474.636058
1133.742985,919.314598,-0.000000,8734.430116
1133.743301,995.924147,296.082377,8586.388927
1133.743617,766.095498,-296.082377,8512.368333
1133.743932,306.438199,-222.061783,9400.615463
1133.744248,229.828649,-592.164754,9918.759623
1133.744564,-383.047749,-444.123565,8586.388927
1133.744879,-383.047749,-148.041188,9918.759623
1133.745195,-383.047749,148.041188,9252.574275
1133.745511,-383.047749,592.164754,8734.430116
1133.745826,0.000000,518.144159,9622.677246
1133.746142,-383.047749,-148.041188,8734.430116
1133.746458,-842.705048,222.061783,8882.471304
1133.746774,-766.095498,-592.164754,9696.697840
1133.747089,-536.266849,-222.061783,9696.697840
1133.747405,-153.219100,-0.000000,9918.759623
1133.747721,153.219100,-148.041188,9696.697840
1133.748036,-306.438199,148.041188,9548.656652
1133.748352,-383.047749,-0.000000,9474.636058
1133.748668,153.219100,-0.000000,9474.636058
1133.748983,383.047749,740.205942,9326.594869
1133.749299,766.095498,370.102971,9474.636058
1133.749615,459.657299,592.164754,9104.533087
1133.749930,-229.828649,-0.000000,9178.553681
1133.750246,0.000000,-592.164754,9918.759623
1133.750562,-153.219100,-370.102971,10584.944971
1133.750878,383.047749,-592.164754,10066.800811
1133.751193,459.657299,-296.082377,9918.759623
1133.751509,76.609550,-370.102971,9844.739029
1133.751825,0.000000,-814.226536,10214.842000
1133.752140,459.657299,-592.164754,10436.903782
1133.752456,689.485948,-148.041188,9844.739029
1133.752772,459.657299,444.123565,9696.697840
1133.753087,1149.143247,740.205942,9474.636058
1133.753403,766.095498,370.102971,9400.615463
1133.753719,459.657299,296.082377,9474.636058
1133.754034,842.705048,-296.082377,9770.718434
1133.754350,612.876398,-518.144159,9844.739029
1133.754666,459.657299,-814.226536,10288.862594
1133.754981,766.095498,-1110.308913,10362.883188
1133.755297,306.438199,-888.247130,9030.512492
1133.755613,612.876398,-444.123565,9770.718434
1133.755929,612.876398,-222.061783,9548.656652
1133.756244,689.485948,74.020594,10066.800811
1133.756560,1149.143247,-148.041188,9548.656652
1133.756876,1378.971896,222.061783,9104.533087
1133.757191,1072.533697,-222.061783,8956.491898
1133.757507,1685.410096,-518.144159,8586.388927
1133.757823,1225.752797,-296.082377,9474.636058
1133.758138,1225.752797,-370.102971,9622.677246
1133.758454,1302.362347,-222.061783,9474.636058
1133.758770,919.314598,-222.061783,9104.533087
1133.759085,229.828649,-296.082377,8438.347739
1133.759401,842.705048,-888.247130,9548.656652
1133.759717,995.924147,-666.185348,9770.718434
1133.760033,766.095498,-296.082377,9770.718434
1133.760348,919.314598,-296.082377,9474.636058
1133.760664,536.266849,-518.144159,8438.347739
1133.760980,459.657299,-666.185348,8586.388927
1133.761295,766.095498,-592.164754,9474.636058
1133.761611,1072.533697,-370.102971,9400.615463
1133.761927,689.485948,-74.020594,8586.388927
1133.762242,612.876398,-296.082377,8956.491898
1133.762558,383.047749,-370.102971,8512.368333
1133.762874,153.219100,-370.102971,9104.533087
1133.763189,76.609550,-0.000000,9326.594869
1133.763505,0.000000,222.061783,9030.512492
1133.763821,229.828649,296.082377,9326.594869
1133.764137,0.000000,-592.164754,9474.636058
1133.764452,-612.876398,-814.226536,8956.491898
1133.764768,-306.438199,-592.164754,9696.697840
1133.765084,-689.485948,-888.247130,9474.636058
1133.765399,-766.095498,-222.061783,9622.677246
1133.765715,0.000000,-0.000000,9622.677246
1133.766031,0.000000,-518.144159,9622.677246
1133.766346,-689.485948,-222.061783,9400.615463
1133.766662,-459.657299,-666.185348,9622.677246
1133.766978,0.000000,-296.082377,9400.615463
1133.767293,0.000000,518.144159,9400.615463
1133.767609,689.485948,-148.041188,9474.636058
1133.767925,229.828649,-148.041188,9104.533087
1133.768241,0.000000,-814.226536,9844.739029
1133.768556,-229.828649,-1036.288319,10066.800811
1133.768872,536.266849,-222.061783,10066.800811
1133.769188,612.876398,444.123565,9474.636058
1133.769503,1225.752797,444.123565,9474.636058
1133.769819,766.095498,518.144159,8882.471304
1133.770135,689.485948,-222.061783,9844.739029
1133.770450,1225.752797,-666.185348,10140.821405
1133.770766,919.314598,-0.000000,9548.656652
1133.771082,1072.533697,962.267725,9696.697840
1133.771397,919.314598,370.102971,9918.759623
1133.771713,689.485948,666.185348,9548.656652
1133.772029,766.095498,296.082377,9992.780217
1133.772345,612.876398,592.164754,9844.739029
1133.772660,229.828649,888.247130,10214.842000
1133.772976,459.657299,-0.000000,10362.883188
1133.773292,306.438199,-296.082377,10140.821405
1133.773607,229.828649,-518.144159,9696.697840
1133.773923,306.438199,-888.247130,10140.821405
1133.774239,842.705048,-74.020594,10288.862594
1133.774554,612.876398,370.102971,9622.677246
1133.774870,1072.533697,-0.000000,9252.574275
1133.775186,842.705048,518.144159,8882.471304
1133.775501,842.705048,-74.020594,9548.656652
1133.775817,1072.533697,-0.000000,9178.553681
1133.776133,842.705048,148.041188,9326.594869
1133.776449,1072.533697,-148.041188,9474.636058
1133.776764,1149.143247,-592.164754,9252.574275
1133.777080,536.266849,-518.144159,8734.430116
1133.777396,383.047749,-518.144159,9030.512492
1133.777711,153.219100,-1184.329507,9844.739029
1133.778027,306.438199,-962.267725,9844.739029
1133.778343,689.485948,-148.041188,9326.594869
1133.778658,459.657299,-296.082377,8660.409521
1133.778974,0.000000,-370.102971,8808.450710
1133.779290,306.438199,-296.082377,9400.615463
1133.779605,919.314598,-370.102971,9326.594869
1133.779921,995.924147,-0.000000,8364.327145
1133.780237,842.705048,-74.020594,9178.553681
1133.780553,919.314598,-592.164754,9030.512492
1133.780868,229.828649,-592.164754,9030.512492
1133.781184,153.219100,-0.000000,9252.574275
1133.781500,-153.219100,370.102971,8734.430116
1133.781815,0.000000,518.144159,8808.450710
1133.782131,-153.219100,296.082377,9548.656652
1133.782447,306.438199,-370.102971,9326.594869
1133.782762,-995.924147,-740.205942,9178.553681
1133.783078,-689.485948,-666.185348,9252.574275
1133.783394,-459.657299,-296.082377,9474.636058
1133.783709,0.000000,-592.164754,9770.718434
1133.784025,0.000000,-814.226536,9696.697840
1133.784341,-383.047749,-740.205942,9548.656652
1133.784657,-459.657299,-1036.288319,9696.697840
1133.784972,306.438199,-518.144159,9400.615463
1133.785288,459.657299,-0.000000,9178.553681
1133.785604,1378.971896,-518.144159,9844.739029
1133.785919,995.924147,-518.144159,9992.780217
1133.786235,842.705048,-0.000000,8660.409521
1133.786551,919.314598,-0.000000,8882.471304
1133.786866,995.924147,-740.205942,9548.656652
1133.787182,842.705048,-296.082377,9474.636058
1133.787498,766.095498,-74.020594,9400.615463
1133.787813,76.609550,-666.185348,9622.677246
1133.788129,-536.266849,-1702.473667,10436.903782
1133.788445,-766.095498,-1702.473667,10214.842000
1133.788761,-229.828649,-2294.638420,10807.006753
1133.789076,-766.095498,-1998.556043,10807.006753
1133.789392,-612.876398,-1480.411884,10658.965565
1133.789708,-612.876398,-1406.391290,10214.842000
1133.790023,-766.095498,-1554.432478,10066.800811
1133.790339,306.438199,-1406.391290,10362.883188
1133.790655,689.485948,-1184.329507,9918.759623
1133.790970,766.095498,-814.226536,9696.697840
1133.791286,1685.410096,-1184.329507,10140.821405
1133.791602,1915.238745,-1332.370696,8956.491898
1133.791917,1838.629195,-666.185348,8660.409521
1133.792233,2221.676944,-1480.411884,9622.677246
1133.792549,2604.724693,-1332.370696,9252.574275
1133.792865,2834.553343,-222.061783,9326.594869
1133.793180,2604.724693,-0.000000,8364.327145
1133.793496,1991.848295,-1258.350101,8882.471304
1133.793812,2298.286494,-1406.391290,8956.491898
1133.794127,2145.067394,-1776.494261,9622.677246
1133.794443,2068.457845,-1776.494261,9696.697840
1133.794759,1991.848295,-1258.350101,9992.780217
1133.795074,2221.676944,-1628.453072,9474.636058
1133.795390,1608.800546,-1850.514855,9178.553681
1133.795706,1608.800546,-2072.576638,9548.656652
1133.796021,1915.238745,-1924.535449,9622.677246
1133.796337,2604.724693,-1998.556043,9178.553681
1133.796653,2987.772442,-1776.494261,9400.615463
1133.796969,3370.820191,-1554.432478,8882.471304
1133.797284,3524.039291,-2294.638420,8734.430116
1133.797600,3600.648841,-2664.741391,9030.512492
1133.797916,3677.258390,-2146.597232,9474.636058
1133.798231,3907.087040,-1406.391290,9252.574275
1133.798547,4596.572988,-518.144159,8512.368333
1133.798863,3753.867940,-0.000000,8290.306550
1133.799178,3524.039291,-888.247130,8512.368333
1133.799494,3447.429741,-1480.411884,7772.162391
1133.799810,2145.067394,-1332.370696,8808.450710
1133.800125,2145.067394,-1554.432478,9326.594869
1133.800441,1915.238745,-1776.494261,9548.656652
1133.800757,1378.971896,-1924.535449,9548.656652
1133.801073,0.000000,-3034.844362,9918.759623
1133.801388,459.657299,-3627.009116,10214.842000
1133.801704,153.219100,-3404.947333,10362.883188
1133.802020,383.047749,-2516.700203,10584.944971
1133.802335,919.314598,-2738.761985,11103.089130
1133.802651,1532.190996,-2886.803174,11177.109724
1133.802967,1991.848295,-1776.494261,9844.739029
1133.803282,2681.334243,-1332.370696,8734.430116
1133.803598,3447.429741,-1554.432478,8808.450710
1133.803914,3983.696590,-888.247130,8808.450710
1133.804229,4136.915689,-444.123565,8808.450710
1133.804545,4749.792088,-1036.288319,8734.430116
1133.804861,4213.525239,-740.205942,9252.574275
1133.805177,3830.477490,-1258.350101,9178.553681
1133.805492,3447.429741,-1406.391290,9104.533087
1133.805808,3677.258390,-1258.350101,8956.491898
1133.806124,2834.553343,-962.267725,8882.471304
1133.806440,2221.676944,-1184.329507,9696.697840
1133.806755,1685.410096,-2516.700203,10807.006753
1133.807071,995.924147,-3923.091493,11251.130318
1133.807387,459.657299,-3923.091493,11325.150913
1133.807703,689.485948,-4293.194464,11325.150913
1133.808018,766.095498,-3701.029710,11177.109724
1133.808334,1685.410096,-2516.700203,10362.883188
1133.808650,2298.286494,-2220.617826,10362.883188
1133.808966,2604.724693,-2220.617826,9918.759623
1133.809281,3140.991542,-1702.473667,9252.574275
1133.809597,3907.087040,-1332.370696,8586.388927
1133.809913,4443.353888,-1036.288319,8216.285956
1133.810229,4443.353888,-1332.370696,8142.265362
1133.810544,4060.306139,-1258.350101,8438.347739
1133.810860,3830.477490,-1480.411884,8660.409521
1133.811176,3217.601092,-1850.514855,8956.491898
1133.811492,2298.286494,-1776.494261,9474.636058
1133.811807,1302.362347,-2442.679609,9844.739029
1133.812123,1225.752797,-2738.761985,10362.883188
1133.812439,766.095498,-3034.844362,10732.986159
1133.812755,536.266849,-3330.926739,10584.944971
1133.813070,0.000000,-3330.926739,10140.821405
1133.813386,459.657299,-3552.988522,10066.800811
1133.813702,1225.752797,-3404.947333,9770.718434
1133.814018,1149.143247,-2516.700203,9326.594869
1133.814333,1149.143247,-2220.617826,9178.553681
1133.814649,2145.067394,-2664.741391,9400.615463
1133.814965,2834.553343,-2960.823768,9326.594869
1133.815281,3600.648841,-2590.720797,8586.388927
1133.815596,3600.648841,-2146.597232,8216.285956
1133.815912,4213.525239,-1850.514855,8734.430116
1133.816228,4366.744339,-1924.535449,8364.327145
1133.816544,4673.182538,-1406.391290,8660.409521
1133.816859,4213.525239,-1406.391290,8882.471304
1133.817175,3600.648841,-1924.535449,8660.409521
1133.817491,3370.820191,-2590.720797,9474.636058
1133.817807,2834.553343,-2812.782580,9474.636058
1133.818122,2834.553343,-2886.803174,9918.759623
1133.818438,2834.553343,-2590.720797,9474.636058
1133.818754,2681.334243,-2294.638420,9030.512492
1133.819070,2298.286494,-1850.514855,9104.533087
1133.819385,2451.505594,-1554.432478,8660.409521
1133.819701,2221.676944,-1406.391290,9104.533087
1133.820017,2374.896044,-1258.350101,9474.636058
1133.820333,1762.019645,-2220.617826,9844.739029
1133.820648,1608.800546,-2886.803174,10362.883188
1133.820964,1915.238745,-3478.967927,10362.883188
1133.821280,2374.896044,-3404.947333,10214.842000
1133.821596,2681.334243,-2368.659014,9474.636058
1133.821911,3217.601092,-1480.411884,9474.636058
1133.822227,3753.867940,-1110.308913,8734.430116
1133.822543,4060.306139,-1406.391290,8956.491898
1133.822859,3830.477490,-962.267725,8956.491898
1133.823174,3753.867940,-666.185348,8734.430116
1133.823490,3524.039291,-666.185348,8808.450710
1133.823806,2834.553343,-1332.370696,9400.615463
1133.824122,2834.553343,-2146.597232,9844.739029
1133.824437,2451.505594,-2886.803174,10436.903782
1133.824753,2068.457845,-3627.009116,10807.006753
1133.825069,1608.800546,-3997.112087,11029.068536
1133.825385,1302.362347,-3478.967927,10881.027347
1133.825700,1302.362347,-3034.844362,11029.068536
1133.826016,1455.581446,-2294.638420,10807.006753
1133.826332,1685.410096,-1480.411884,9844.739029
1133.826648,2145.067394,-888.247130,9474.636058
1133.826963,2145.067394,-592.164754,8660.409521
1133.827279,2451.505594,-666.185348,8808.450710
1133.827595,2604.724693,-1184.329507,8956.491898
1133.827911,2528.115143,-2146.597232,9252.574275
1133.828226,2834.553343,-3478.967927,9548.656652
1133.828542,2451.505594,-4367.215058,10288.862594
1133.828858,2451.505594,-4737.318029,11103.089130
1133.829174,2604.724693,-4441.235652,11029.068536
1133.829489,2834.553343,-3182.885551,10510.924376
1133.829805,3524.039291,-1776.494261,9696.697840
1133.830121,3753.867940,-1258.350101,9326.594869
1133.830437,4290.134789,-666.185348,8586.388927
1133.830752,4213.525239,-296.082377,7698.141797
1133.831068,3677.258390,-222.061783,7402.059420
1133.831384,3217.601092,-740.205942,7624.121203
1133.831700,2374.896044,-1110.308913,7846.182985
1133.832015,1915.238745,-1406.391290,8808.450710
1133.832331,919.314598,-2368.659014,9252.574275
1133.832647,76.609550,-3034.844362,9844.739029
1133.832963,-1072.533697,-3701.029710,10658.965565
1133.833278,-383.047749,-4589.276840,11325.150913
1133.833594,-153.219100,-4737.318029,11325.150913
1133.833910,612.876398,-4367.215058,10881.027347
1133.834226,1685.410096,-3775.050304,10436.903782
1133.834541,2451.505594,-3849.070898,9992.780217
1133.834857,3370.820191,-2738.761985,8734.430116
1133.835173,4443.353888,-1628.453072,8142.265362
1133.835489,5132.839837,-592.164754,7105.977043
1133.835804,5286.058936,518.144159,6883.915261
1133.836120,5209.449386,296.082377,6735.874072
1133.836436,5439.278036,-0.000000,7179.997637
1133.836752,4596.572988,-888.247130,7772.162391
1133.837067,3830.477490,-2368.659014,8512.368333
1133.837383,3217.601092,-3478.967927,9918.759623
1133.837699,1532.190996,-4589.276840,10584.944971
1133.838015,919.314598,-4737.318029,11473.192101
1133.838330,383.047749,-4515.256246,11695.253884
1133.838646,76.609550,-3849.070898,11399.171507
1133.838962,536.266849,-3478.967927,10732.986159
1133.839278,459.657299,-2664.741391,9918.759623
1133.839593,1149.143247,-2146.597232,9696.697840
1133.839909,2068.457845,-1554.432478,9104.533087
1133.840225,2834.553343,-962.267725,8438.347739
1133.840541,3294.210641,-296.082377,8660.409521
1133.840856,3753.867940,-1036.288319,8438.347739
1133.841172,4060.306139,-1702.473667,8512.368333
1133.841488,3753.867940,-2294.638420,9252.574275
1133.841804,3370.820191,-2368.659014,9400.615463
1133.842119,2528.115143,-2146.597232,10214.842000
1133.842435,2681.334243,-2072.576638,10140.821405
1133.842751,2451.505594,-1628.453072,10214.842000
1133.843067,2298.286494,-962.267725,9992.780217
1133.843382,2145.067394,-1036.288319,9992.780217
1133.843698,2834.553343,-1406.391290,9918.759623
1133.844014,2221.676944,-1776.494261,9844.739029
1133.844330,2451.505594,-2368.659014,9696.697840
1133.844645,2145.067394,-2368.659014,9548.656652
1133.844961,2528.115143,-1924.535449,9622.677246
1133.845277,2374.896044,-1406.391290,9696.697840
1133.845593,2145.067394,-1406.391290,9474.636058
1133.845908,1532.190996,-1036.288319,9252.574275
1133.846224,1532.190996,-1406.391290,9548.656652
1133.846540,1838.629195,-1702.473667,9992.780217
1133.846856,1455.581446,-1110.308913,9622.677246
1133.847171,689.485948,-1258.350101,9400.615463
1133.847487,1149.143247,-1332.370696,9326.594869
1133.847803,995.924147,-1184.329507,9030.512492
1133.848119,0.000000,-1258.350101,9252.574275
1133.848434,612.876398,-1628.453072,9474.636058
1133.848750,229.828649,-2072.576638,9548.656652
1133.849066,536.266849,-1850.514855,9474.636058
1133.849382,1072.533697,-2072.576638,9326.594869
1133.849697,1991.848295,-1998.556043,9622.677246
1133.850013,1532.190996,-2072.576638,9992.780217
1133.850329,1991.848295,-2368.659014,9992.780217
1133.850645,2451.505594,-2590.720797,9844.739029
1133.850960,2681.334243,-2368.659014,9918.759623
1133.851276,3064.381992,-2220.617826,9474.636058
1133.851592,3524.039291,-1628.453072,9474.636058
1133.851908,3677.258390,-962.267725,8882.471304
1133.852223,3907.087040,-814.226536,8882.471304
1133.852539,3677.258390,-962.267725,8882.471304
1133.852855,3907.087040,-1110.308913,8882.471304
1133.853171,3524.039291,-1480.411884,9030.512492
1133.853486,3524.039291,-2146.597232,9104.533087
1133.853802,4060.306139,-2664.741391,9622.677246
1133.854118,4060.306139,-3256.906145,10288.862594
1133.854434,3830.477490,-3923.091493,10362.883188
1133.854749,3677.258390,-3849.070898,10214.842000
1133.855065,3140.991542,-3627.009116,10140.821405
1133.855381,3064.381992,-3330.926739,10288.862594
1133.855697,2911.162892,-2812.782580,9992.780217
1133.856012,2757.943793,-2664.741391,9992.780217
1133.856328,2911.162892,-2368.659014,9696.697840
1133.856644,3370.820191,-2442.679609,8882.471304
1133.856960,3600.648841,-2738.761985,8956.491898
1133.857275,3677.258390,-2960.823768,8660.409521
1133.857591,3753.867940,-3108.864956,8882.471304
1133.857907,3677.258390,-3256.906145,9326.594869
1133.858223,3294.210641,-3478.967927,9548.656652
1133.858538,2987.772442,-3997.112087,9474.636058
1133.858854,2451.505594,-4293.194464,10140.821405
1133.859170,2374.896044,-4219.173869,10066.800811
1133.859486,2221.676944,-3997.112087,9992.780217
1133.859801,2298.286494,-3182.885551,9918.759623
1133.860117,2528.115143,-3108.864956,9622.677246
1133.860433,2528.115143,-2664.741391,9326.594869
1133.860749,2528.115143,-2368.659014,8956.491898
1133.861064,2451.505594,-2738.761985,8808.450710
1133.861380,2528.115143,-3108.864956,9252.574275
1133.861696,2604.724693,-3775.050304,9474.636058
1133.862012,3140.991542,-3775.050304,9770.718434
1133.862327,3064.381992,-3923.091493,9474.636058
1133.862643,2834.553343,-3775.050304,9326.594869
1133.862959,3447.429741,-3627.009116,9326.594869
1133.863275,3294.210641,-3256.906145,9474.636058
1133.863590,3294.210641,-2146.597232,8512.368333
1133.863906,3370.820191,-1258.350101,7772.162391
1133.864222,3140.991542,-740.205942,7994.224174
1133.864538,2604.724693,-888.247130,7920.203579
1133.864853,1685.410096,-888.247130,7994.224174
1133.865169,842.705048,-1110.308913,8068.244768
1133.865485,0.000000,-1850.514855,9104.533087
1133.865801,-612.876398,-3108.864956,9918.759623
1133.866116,-995.924147,-3923.091493,10510.924376
1133.866432,-689.485948,-4589.276840,11029.068536
1133.866748,0.000000,-4885.359217,11547.212695
1133.867064,459.657299,-4515.256246,11103.089130
1133.867379,1072.533697,-3923.091493,11103.089130
1133.867695,2451.505594,-3256.906145,10362.883188
1133.868011,3447.429741,-1406.391290,9326.594869
1133.868327,4213.525239,-148.041188,8586.388927
1133.868642,4749.792088,1036.288319,7402.059420
1133.868958,4673.182538,1776.494261,6883.915261
1133.869274,4749.792088,1776.494261,6957.935855
1133.869590,3983.696590,1480.411884,7179.997637
1133.869905,3064.381992,1036.288319,8068.244768
1133.870221,1991.848295,-74.020594,8882.471304
1133.870537,995.924147,-1406.391290,10140.821405
1133.870853,153.219100,-3108.864956,11325.150913
1133.871168,-842.705048,-4145.153275,12361.439231
1133.871484,-1149.143247,-4885.359217,12953.603985
1133.871800,-995.924147,-4811.338623,13101.645173
1133.872116,0.000000,-3775.050304,12657.521608
1133.872431,1378.971896,-3256.906145,11843.295072
1133.872747,2451.505594,-1924.535449,10881.027347
1133.873063,3830.477490,-592.164754,9622.677246
1133.873379,5132.839837,592.164754,7920.203579
1133.873694,6358.592633,2072.576638,7179.997637
1133.874010,6588.421283,2738.761985,6291.750507
1133.874326,6971.469032,2516.700203,6735.874072
1133.874642,6435.202183,1332.370696,7402.059420
1133.874957,5286.058936,-296.082377,8142.265362
1133.875273,4443.353888,-1924.535449,9696.697840
1133.875589,3140.991542,-3775.050304,11103.089130
1133.875905,1685.410096,-4145.153275,11769.274478
1133.876220,689.485948,-3627.009116,12065.356855
1133.876536,229.828649,-3182.885551,11843.295072
1133.876852,306.438199,-2664.741391,11769.274478
1133.877168,766.095498,-2072.576638,11103.089130
1133.877483,1455.581446,-1702.473667,10140.821405
1133.877799,1915.238745,-1850.514855,9326.594869
1133.878115,2757.943793,-2368.659014,9252.574275
1133.878431,3907.087040,-2368.659014,9104.533087
1133.878746,4290.134789,-2368.659014,8586.388927
1133.879062,5056.230287,-2368.659014,8290.306550
1133.879378,4673.182538,-2812.782580,8660.409521
1133.879694,4979.620737,-3182.885551,8956.491898
1133.880009,5439.278036,-3256.906145,9104.533087
1133.880325,4903.011187,-2516.700203,9030.512492
1133.880641,4290.134789,-1850.514855,8882.471304
1133.880957,3524.039291,-1850.514855,8512.368333
1133.881272,2911.162892,-1924.535449,8734.430116
1133.881588,2911.162892,-2738.761985,9622.677246
1133.881904,1991.848295,-3404.947333,8882.471304
1133.882220,1149.143247,-4145.153275,9030.512492
1133.882535,612.876398,-4959.379811,9622.677246
1133.882851,1072.533697,-4811.338623,9622.677246
1133.883167,1225.752797,-3849.070898,9474.636058
1133.883483,689.485948,-3330.926739,9474.636058
1133.883798,689.485948,-3775.050304,9918.759623
1133.884114,1149.143247,-4145.153275,10214.842000
1133.884430,1685.410096,-4293.194464,9770.718434
1133.884746,1991.848295,-3701.029710,10214.842000
1133.885061,1991.848295,-3627.009116,9548.656652
1133.885377,2987.772442,-3034.844362,8586.388927
1133.885693,3447.429741,-2516.700203,8586.388927
1133.886009,3524.039291,-2072.576638,7994.224174
1133.886324,2834.553343,-1628.453072,8364.327145
1133.886640,3064.381992,-1924.535449,8364.327145
1133.886956,2911.162892,-1702.473667,8068.244768
1133.887272,2451.505594,-1332.370696,8068.244768
1133.887587,2451.505594,-1406.391290,8364.327145
1133.887903,2451.505594,-1924.535449,8882.471304
1133.888219,1302.362347,-2368.659014,8956.491898
1133.888535,612.876398,-2590.720797,9474.636058
1133.888850,0.000000,-3330.926739,10584.944971
1133.889166,-689.485948,-4071.132681,11399.171507
1133.889482,-1072.533697,-3849.070898,11325.150913
1133.889798,-383.047749,-3627.009116,11251.130318
1133.890113,76.609550,-3034.844362,10658.965565
1133.890429,1302.362347,-2738.761985,10288.862594
1133.890745,1762.019645,-1998.556043,10288.862594
1133.891061,2987.772442,-1110.308913,9104.533087
1133.891376,4136.915689,222.061783,7994.224174
1133.891692,5209.449386,740.205942,7846.182985
1133.892008,6128.763984,296.082377,8142.265362
1133.892324,6281.983084,814.226536,8216.285956
1133.892639,5286.058936,1110.308913,7698.141797
1133.892955,4903.011187,-0.000000,9104.533087
1133.893271,4596.572988,-962.267725,9770.718434
1133.893587,3140.991542,-518.144159,10140.821405
1133.893902,2528.115143,-370.102971,10658.965565
1133.894218,1838.629195,-740.205942,10362.883188
1133.894534,919.314598,-1332.370696,11251.130318
1133.894850,229.828649,-1036.288319,11251.130318
1133.895165,842.705048,-1110.308913,11399.171507
1133.895481,459.657299,-888.247130,11177.109724
1133.895797,459.657299,-1258.350101,10807.006753
1133.896113,1072.533697,-1924.535449,10658.965565
1133.896428,1915.238745,-962.267725,9696.697840
1133.896744,1838.629195,444.123565,9252.574275
1133.897060,2757.943793,-0.000000,9326.594869
1133.897376,3140.991542,-148.041188,9030.512492
1133.897691,3294.210641,592.164754,9400.615463
1133.898007,3370.820191,-148.041188,8586.388927
1133.898323,2987.772442,592.164754,9104.533087
1133.898639,2451.505594,740.205942,8364.327145
1133.898954,1455.581446,962.267725,8512.368333
1133.899270,1378.971896,814.226536,8882.471304
1133.899586,842.705048,666.185348,9178.553681
1133.899902,0.000000,-74.020594,10214.842000
1133.900217,-1072.533697,-1850.514855,10436.903782
1133.900533,-1532.190996,-2146.597232,9918.759623
1133.900849,-1532.190996,-1924.535449,10362.883188
1133.901165,-1225.752797,-2368.659014,10807.006753
1133.901480,-612.876398,-2220.617826,11103.089130
1133.901796,229.828649,-1258.350101,10732.986159
1133.902112,229.828649,-1332.370696,8660.409521
1133.902428,766.095498,-1036.288319,8956.491898
1133.902743,1455.581446,-592.164754,8660.409521
1133.903059,1455.581446,-370.102971,8068.244768
1133.903375,2221.676944,370.102971,8364.327145
1133.903691,2604.724693,740.205942,7772.162391
1133.904006,1915.238745,592.164754,7772.162391
1133.904322,1608.800546,-0.000000,7920.203579
1133.904638,1378.971896,-0.000000,7698.141797
1133.904954,1072.533697,-0.000000,8586.388927
1133.905269,306.438199,-518.144159,9622.677246
1133.905585,536.266849,-1628.453072,10510.924376
1133.905901,-842.705048,-1776.494261,9770.718434
1133.906216,-1991.848295,-1332.370696,9326.594869
1133.906532,-1455.581446,-3330.926739,10584.944971
1133.906848,-1915.238745,-2220.617826,10732.986159
1133.907164,-1608.800546,-74.020594,10288.862594
1133.907479,-689.485948,-1628.453072,9326.594869
1133.907795,-842.705048,-888.247130,9992.780217
1133.908111,-995.924147,-666.185348,9474.636058
1133.908426,-76.609550,-962.267725,8808.450710
1133.908742,995.924147,-518.144159,8734.430116
1133.909058,612.876398,-296.082377,8882.471304
1133.909373,1762.019645,-370.102971,9474.636058
1133.909689,1685.410096,-740.205942,9178.553681
1133.910005,459.657299,-222.061783,9104.533087
1133.910321,383.047749,-222.061783,9104.533087
1133.910636,612.876398,-888.247130,9400.615463
1133.910952,536.266849,-0.000000,9844.739029
1133.911268,306.438199,-74.020594,9548.656652
1133.911583,-306.438199,-1110.308913,9770.718434
1133.911899,153.219100,-1628.453072,10288.862594
1133.912215,-842.705048,-1480.411884,9918.759623
1133.912531,0.000000,-1258.350101,9992.780217
1133.912846,536.266849,-1480.411884,9992.780217
1133.913162,766.095498,-1258.350101,9622.677246
1133.913478,0.000000,-1184.329507,10584.944971
1133.913793,306.438199,-1036.288319,10362.883188
1133.914109,459.657299,-518.144159,9992.780217
1133.914425,1149.143247,1332.370696,8586.388927
1133.914741,2221.676944,1184.329507,9178.553681
1133.915056,1762.019645,592.164754,8142.265362
1133.915372,1762.019645,1110.308913,9326.594869
1133.915688,1378.971896,-74.020594,9030.512492
1133.916003,1225.752797,-444.123565,8808.450710
1133.916319,1302.362347,-222.061783,10510.924376
1133.916635,1685.410096,-74.020594,9696.697840
1133.916951,689.485948,148.041188,9252.574275
1133.917266,536.266849,-0.000000,9844.739029
1133.917582,0.000000,-370.102971,10140.821405
1133.917898,842.705048,370.102971,9474.636058
1133.918213,995.924147,296.082377,9474.636058
1133.918529,1072.533697,-0.000000,9400.615463
1133.918845,612.876398,148.041188,9474.636058
1133.919160,0.000000,-222.061783,9104.533087
1133.919476,0.000000,-296.082377,9326.594869
1133.919792,0.000000,-370.102971,9400.615463
1133.920108,383.047749,-0.000000,9400.615463
1133.920423,0.000000,-74.020594,9474.636058
1133.920739,-306.438199,-444.123565,9326.594869
1133.921055,689.485948,-814.226536,9992.780217
1133.921370,229.828649,148.041188,8364.327145
1133.921686,919.314598,-148.041188,9252.574275
1133.922002,1072.533697,-148.041188,9178.553681
1133.922318,995.924147,-592.164754,9474.636058
1133.922633,153.219100,-518.144159,8956.491898
1133.922949,0.000000,-296.082377,9400.615463
1133.923265,0.000000,-0.000000,9770.718434
1133.923580,0.000000,370.102971,9252.574275
1133.923896,0.000000,666.185348,9770.718434
1133.924212,-306.438199,-148.041188,9696.697840
1133.924528,-919.314598,-0.000000,9474.636058
1133.924843,-306.438199,296.082377,9696.697840
1133.925159,-612.876398,296.082377,9844.739029
1133.925475,-306.438199,444.123565,10066.800811
1133.925790,76.609550,962.267725,9622.677246
1133.926106,-383.047749,592.164754,9400.615463
1133.926422,-153.219100,-0.000000,9548.656652
1133.926737,0.000000,-518.144159,9548.656652
1133.927053,536.266849,222.061783,9474.636058
1133.927369,1072.533697,-0.000000,10066.800811
1133.927685,1225.752797,-296.082377,9474.636058
1133.928000,1378.971896,666.185348,9326.594869
1133.928316,1072.533697,296.082377,9474.636058
1133.928632,1149.143247,814.226536,8882.471304
1133.928947,1302.362347,1258.350101,9400.615463
1133.929263,1532.190996,518.144159,9474.636058
1133.929579,689.485948,518.144159,9030.512492
1133.929895,306.438199,-296.082377,9696.697840
1133.930210,0.000000,-1702.473667,9770.718434
1133.930526,-612.876398,-1184.329507,9992.780217
1133.930842,-229.828649,-1554.432478,11103.089130
1133.931157,0.000000,-1850.514855,10288.862594
1133.931473,-536.266849,-1184.329507,10140.821405
1133.931789,-383.047749,-1406.391290,10436.903782
1133.932105,-306.438199,-1258.350101,9918.759623
1133.932420,383.047749,-148.041188,9474.636058
1133.932736,1225.752797,814.226536,8660.409521
1133.933052,995.924147,814.226536,8808.450710
1133.933367,842.705048,-74.020594,8216.285956
1133.933683,919.314598,-222.061783,9400.615463
1133.933999,306.438199,-518.144159,9178.553681
1133.934315,383.047749,-814.226536,9104.533087
1133.934630,459.657299,-962.267725,10066.800811
1133.934946,229.828649,-1406.391290,9622.677246
1133.935262,0.000000,-740.205942,10140.821405
1133.935577,0.000000,-666.185348,9474.636058
1133.935893,-153.219100,-1110.308913,9252.574275
1133.936209,76.609550,-0.000000,9918.759623
1133.936524,536.266849,-962.267725,9252.574275
1133.936840,536.266849,370.102971,9252.574275
1133.937156,-306.438199,-592.164754,9474.636058
1133.937472,919.314598,-1184.329507,8734.430116
1133.937787,766.095498,-222.061783,8956.491898
1133.938103,1225.752797,-740.205942,8660.409521
1133.938419,1225.752797,-518.144159,9400.615463
1133.938734,1149.143247,-962.267725,9400.615463
1133.939050,459.657299,-1184.329507,9770.718434
1133.939366,842.705048,-592.164754,9770.718434
1133.939682,1378.971896,296.082377,8882.471304
