#time,accel_x,accel_y,accel_z
1205.475231,689.485948,-74.020594,9400.615463
1205.475547,383.047749,-0.000000,9548.656652
1205.475863,153.219100,-0.000000,9474.636058
1205.476179,612.876398,-74.020594,9474.636058
1205.476495,459.657299,-370.102971,9400.615463
1205.476811,306.438199,-222.061783,9548.656652
1205.477127,306.438199,-74.020594,9474.636058
1205.477443,536.266849,-74.020594,9400.615463
1205.477759,459.657299,-0.000000,9548.656652
1205.478075,612.876398,-444.123565,9622.677246
1205.478391,306.438199,-148.041188,9474.636058
1205.478707,306.438199,-148.041188,9326.594869
1205.479023,306.438199,-222.061783,9474.636058
1205.479339,383.047749,-518.144159,9696.697840
1205.479655,306.438199,-74.020594,9474.636058
1205.479970,459.657299,-296.082377,9474.636058
1205.480286,459.657299,-0.000000,9400.615463
1205.480602,459.657299,148.041188,9474.636058
1205.480918,306.438199,444.123565,9474.636058
1205.481234,689.485948,296.082377,9178.553681
1205.481550,459.657299,518.144159,9178.553681
1205.481866,459.657299,518.144159,9400.615463
1205.482182,766.095498,592.164754,9326.594869
1205.482498,306.438199,148.041188,9474.636058
1205.482814,306.438199,222.061783,9252.574275
1205.483130,536.266849,-0.000000,9770.718434
1205.483446,536.266849,-0.000000,9844.739029
1205.483762,536.266849,296.082377,9622.677246
1205.484078,383.047749,666.185348,9474.636058
1205.484394,383.047749,518.144159,9696.697840
1205.484710,612.876398,666.185348,9622.677246
1205.485026,306.438199,1406.391290,9400.615463
1205.485342,536.266849,962.267725,9104.533087
1205.485658,306.438199,740.205942,9030.512492
1205.485974,612.876398,888.247130,9400.615463
1205.486290,229.828649,962.267725,9400.615463
1205.486606,612.876398,518.144159,9326.594869
1205.486922,0.000000,740.205942,9326.594869
1205.487238,0.000000,1036.288319,9252.574275
1205.487554,-153.219100,962.267725,9548.656652
1205.487870,-306.438199,1110.308913,9400.615463
1205.488186,-766.095498,1332.370696,9326.594869
1205.488502,-766.095498,1480.411884,9400.615463
1205.488818,-919.314598,1702.473667,9474.636058
1205.489134,-1378.971896,1628.453072,9474.636058
1205.489450,-1378.971896,1480.411884,9326.594869
1205.489766,-1455.581446,1406.391290,9918.759623
1205.490082,-1762.019645,1480.411884,9548.656652
1205.490398,-2221.676944,1258.350101,9622.677246
1205.490714,-2145.067394,1628.453072,9696.697840
1205.491030,-2374.896044,1406.391290,9918.759623
1205.491346,-2221.676944,1480.411884,9474.636058
1205.491662,-2298.286494,1554.432478,9474.636058
1205.491978,-2145.067394,1480.411884,9474.636058
1205.492294,-2145.067394,1628.453072,9548.656652
1205.492610,-1991.848295,1628.453072,9326.594869
1205.492926,-1915.238745,1628.453072,9918.759623
1205.493242,-1608.800546,1406.391290,9548.656652
1205.493558,-1455.581446,1628.453072,9548.656652
1205.493874,-1378.971896,1998.556043,9548.656652
1205.494190,-1455.581446,1702.473667,9474.636058
1205.494506,-1302.362347,2294.638420,9548.656652
1205.494822,-1608.800546,2146.597232,9326.594869
1205.495138,-1455.581446,2368.659014,9104.533087
1205.495454,-1532.190996,2220.617826,9400.615463
1205.495770,-1685.410096,2146.597232,9326.594869
1205.496086,-1685.410096,1776.494261,9622.677246
1205.496402,-2068.457845,1332.370696,9474.636058
1205.496718,-1991.848295,1036.288319,9622.677246
1205.497034,-1915.238745,814.226536,9844.739029
1205.497350,-2298.286494,1332.370696,10140.821405
1205.497666,-2068.457845,1406.391290,10066.800811
1205.497982,-2451.505594,1110.308913,9696.697840
1205.498298,-2374.896044,1332.370696,9548.656652
1205.498614,-2221.676944,1480.411884,9696.697840
1205.498930,-1225.752797,1332.370696,9622.677246
1205.499246,-1915.238745,1406.391290,9474.636058
1205.499562,-1915.238745,1850.514855,9178.553681
1205.499878,-1762.019645,1702.473667,9178.553681
1205.500194,-1685.410096,1850.514855,9030.512492
1205.500510,-1915.238745,2146.597232,8734.430116
1205.500826,-1915.238745,2368.659014,8956.491898
1205.501142,-2298.286494,2368.659014,9104.533087
1205.501458,-2528.115143,2294.638420,9326.594869
1205.501774,-2834.553343,1480.411884,9548.656652
1205.502090,-2451.505594,592.164754,9622.677246
1205.502406,-2681.334243,370.102971,10066.800811
1205.502722,-2451.505594,444.123565,10510.924376
1205.503038,-1991.848295,370.102971,10362.883188
1205.503354,-1685.410096,592.164754,10140.821405
1205.503670,-995.924147,1258.350101,9770.718434
1205.503986,-536.266849,1628.453072,9474.636058
1205.504302,0.000000,1924.535449,8882.471304
1205.504618,306.438199,2738.761985,8808.450710
1205.504934,383.047749,3034.844362,8068.244768
1205.505250,153.219100,3108.864956,8364.327145
1205.505566,383.047749,3108.864956,8068.244768
1205.505882,-229.828649,2960.823768,7846.182985
1205.506198,-995.924147,2664.741391,8290.306550
1205.506514,-1608.800546,2146.597232,8956.491898
1205.506830,-2451.505594,1924.535449,9918.759623
1205.507146,-3217.601092,1110.308913,10362.883188
1205.507462,-3677.258390,888.247130,10510.924376
1205.507778,-3983.696590,740.205942,10955.047942
1205.508094,-3753.867940,-0.000000,11251.130318
1205.508410,-3294.210641,-0.000000,11251.130318
1205.508726,-2604.724693,296.082377,10807.006753
1205.509042,-1302.362347,666.185348,9770.718434
1205.509358,-536.266849,1184.329507,9474.636058
1205.509674,306.438199,1924.535449,8956.491898
1205.509990,919.314598,3108.864956,8290.306550
1205.510306,1149.143247,3923.091493,7698.141797
1205.510622,1149.143247,4071.132681,7846.182985
1205.510938,995.924147,4367.215058,7624.121203
1205.511254,689.485948,4663.297435,7476.080014
1205.511570,-842.705048,4145.153275,7624.121203
1205.511886,-1762.019645,3478.967927,8586.388927
1205.512202,-3140.991542,2368.659014,9474.636058
1205.512517,-3907.087040,1110.308913,10807.006753
1205.512833,-4903.011187,-370.102971,11991.336260
1205.513149,-5592.497135,-1036.288319,12435.459826
1205.513465,-5515.887586,-1702.473667,12583.501014
1205.513781,-5362.668486,-1776.494261,12731.542202
1205.514097,-4443.353888,-1110.308913,12287.418637
1205.514413,-2834.553343,-0.000000,10955.047942
1205.514729,-1455.581446,1924.535449,9548.656652
1205.515045,76.609550,3552.988522,8290.306550
1205.515361,995.924147,4959.379811,6735.874072
1205.515677,1455.581446,5625.565159,6439.791695
1205.515993,1302.362347,6143.709319,6217.729913
1205.516309,1072.533697,5921.647536,6661.853478
1205.516625,459.657299,4515.256246,7402.059420
1205.516941,-1149.143247,2738.761985,8586.388927
1205.517257,-2528.115143,666.185348,10436.903782
1205.517573,-3600.648841,-888.247130,11621.233289
1205.517889,-4366.744339,-1628.453072,12731.542202
1205.518205,-4903.011187,-1332.370696,12731.542202
1205.518521,-4519.963438,-444.123565,12213.398043
1205.518837,-4366.744339,296.082377,11325.150913
1205.519153,-3524.039291,1480.411884,10510.924376
1205.519469,-1915.238745,2442.679609,9696.697840
1205.519785,-1072.533697,3627.009116,8438.347739
1205.520101,0.000000,4071.132681,7402.059420
1205.520417,383.047749,3404.947333,7624.121203
1205.520733,842.705048,3108.864956,7476.080014
1205.521049,995.924147,2368.659014,8068.244768
1205.521365,689.485948,1924.535449,8512.368333
1205.521681,306.438199,1628.453072,8956.491898
1205.521997,-842.705048,2146.597232,8882.471304
1205.522313,-1532.190996,2146.597232,9844.739029
1205.522629,-1762.019645,1554.432478,10066.800811
1205.522945,-2068.457845,1554.432478,10288.862594
1205.523261,-3370.820191,1258.350101,10066.800811
1205.523577,-3370.820191,1036.288319,9770.718434
1205.523893,-2834.553343,-74.020594,10288.862594
1205.524209,-2451.505594,-148.041188,10362.883188
1205.524525,-2451.505594,1406.391290,9696.697840
1205.524841,-2451.505594,1702.473667,9030.512492
1205.525157,-1685.410096,1628.453072,8660.409521
1205.525473,-1838.629195,2442.679609,9178.553681
1205.525789,-1532.190996,2368.659014,9326.594869
1205.526105,-766.095498,2442.679609,9770.718434
1205.526421,-1378.971896,2368.659014,9326.594869
1205.526737,-1302.362347,1258.350101,9474.636058
1205.527053,-383.047749,1406.391290,9400.615463
1205.527369,-1072.533697,1480.411884,8882.471304
1205.527685,-919.314598,1110.308913,9548.656652
1205.528001,-995.924147,962.267725,9178.553681
1205.528317,-1378.971896,1258.350101,9252.574275
1205.528633,-1532.190996,1702.473667,9474.636058
1205.528949,-1608.800546,2590.720797,9474.636058
1205.529265,-1455.581446,2590.720797,9474.636058
1205.529581,-1608.800546,2960.823768,9104.533087
1205.529897,-1225.752797,2960.823768,8660.409521
1205.530213,-1378.971896,2516.700203,8808.450710
1205.530529,-1608.800546,2220.617826,9474.636058
1205.530845,-2374.896044,1332.370696,9770.718434
1205.531161,-2604.724693,888.247130,10732.986159
1205.531477,-2528.115143,814.226536,10955.047942
1205.531793,-2987.772442,814.226536,10807.006753
1205.532109,-2374.896044,1406.391290,10510.924376
1205.532425,-1685.410096,814.226536,10510.924376
1205.532741,-1762.019645,1332.370696,9474.636058
1205.533057,-536.266849,2516.700203,9178.553681
1205.533373,229.828649,2368.659014,9104.533087
1205.533689,995.924147,2960.823768,8512.368333
1205.534005,612.876398,3404.947333,7772.162391
1205.534321,306.438199,3034.844362,7624.121203
1205.534636,-459.657299,3108.864956,8438.347739
1205.534952,-1378.971896,3552.988522,8512.368333
1205.535268,-1608.800546,3404.947333,8808.450710
1205.535584,-2834.553343,2294.638420,9844.739029
1205.535900,-3753.867940,2146.597232,10584.944971
1205.536216,-3830.477490,1628.453072,10584.944971
1205.536532,-3983.696590,518.144159,10732.986159
1205.536848,-4519.963438,444.123565,11399.171507
1205.537164,-4826.401637,-0.000000,11251.130318
1205.537480,-3524.039291,-0.000000,11325.150913
1205.537796,-2911.162892,-148.041188,11029.068536
1205.538111,-2757.943793,1332.370696,10288.862594
1205.538427,-1915.238745,1036.288319,9400.615463
1205.538743,-612.876398,2072.576638,8142.265362
1205.539059,0.000000,4145.153275,7402.059420
1205.539375,1302.362347,3775.050304,7254.018232
1205.539691,1608.800546,4811.338623,7920.203579
1205.540007,995.924147,4293.194464,7402.059420
1205.540323,-229.828649,3701.029710,7179.997637
1205.540639,-1225.752797,2516.700203,8216.285956
1205.540955,-2681.334243,1332.370696,9918.759623
1205.541271,-2911.162892,888.247130,11103.089130
1205.541586,-3370.820191,-0.000000,11251.130318
1205.541902,-3983.696590,-370.102971,11769.274478
1205.542218,-4366.744339,-518.144159,11473.192101
1205.542534,-3983.696590,-444.123565,10807.006753
1205.542850,-2911.162892,-0.000000,10881.027347
1205.543166,-1685.410096,518.144159,10881.027347
1205.543482,-229.828649,1110.308913,10140.821405
1205.543798,383.047749,2590.720797,8364.327145
1205.544114,919.314598,3330.926739,7105.977043
1205.544430,1532.190996,3256.906145,7254.018232
1205.544746,1915.238745,3627.009116,7328.038826
1205.545061,2298.286494,4663.297435,7550.100608
1205.545377,1532.190996,3775.050304,7254.018232
1205.545693,229.828649,2220.617826,8734.430116
1205.546009,-612.876398,1258.350101,9104.533087
1205.546325,-1378.971896,666.185348,9844.739029
1205.546641,-1915.238745,962.267725,10436.903782
1205.546957,-2681.334243,518.144159,10807.006753
1205.547273,-3447.429741,222.061783,10658.965565
1205.547589,-3753.867940,-148.041188,10807.006753
1205.547905,-3983.696590,-222.061783,10732.986159
1205.548220,-3064.381992,148.041188,10732.986159
1205.548536,-2528.115143,370.102971,9918.759623
1205.548852,-2451.505594,444.123565,9622.677246
1205.549168,-1532.190996,740.205942,10066.800811
1205.549484,-689.485948,888.247130,8882.471304
1205.549800,76.609550,1258.350101,9474.636058
1205.550116,612.876398,2442.679609,8734.430116
1205.550432,0.000000,2368.659014,7624.121203
1205.550748,383.047749,2220.617826,8290.306550
1205.551064,689.485948,2590.720797,8734.430116
1205.551380,842.705048,1776.494261,8660.409521
1205.551695,-153.219100,2072.576638,8586.388927
1205.552011,-1762.019645,888.247130,8586.388927
1205.552327,-2451.505594,-370.102971,9622.677246
1205.552643,-2451.505594,-888.247130,10881.027347
1205.552959,-3217.601092,-1184.329507,11399.171507
1205.553275,-2681.334243,296.082377,11177.109724
1205.553591,-3064.381992,962.267725,9474.636058
1205.553907,-3600.648841,814.226536,9918.759623
1205.554223,-3294.210641,296.082377,10881.027347
1205.554539,-1608.800546,740.205942,10584.944971
1205.554855,-919.314598,2072.576638,9474.636058
1205.555170,-995.924147,1702.473667,8512.368333
1205.555486,-153.219100,1110.308913,8290.306550
1205.555802,76.609550,148.041188,8882.471304
1205.556118,1149.143247,814.226536,9474.636058
1205.556434,1915.238745,370.102971,9474.636058
1205.556750,1072.533697,962.267725,9178.553681
1205.557066,842.705048,1332.370696,7846.182985
1205.557382,1685.410096,444.123565,9030.512492
1205.557698,2374.896044,296.082377,10288.862594
1205.558014,1302.362347,962.267725,9178.553681
1205.558330,153.219100,1702.473667,8216.285956
1205.558645,-306.438199,-0.000000,9252.574275
1205.558961,-306.438199,-296.082377,9622.677246
1205.559277,0.000000,888.247130,10214.842000
1205.559593,-1302.362347,222.061783,9548.656652
1205.559909,-1762.019645,-148.041188,10510.924376
1205.560225,-1455.581446,-296.082377,9844.739029
1205.560541,-995.924147,-1924.535449,10807.006753
1205.560857,-1302.362347,-1776.494261,11843.295072
1205.561173,-1455.581446,-1776.494261,11029.068536
1205.561489,-536.266849,-1702.473667,10288.862594
1205.561805,536.266849,-1554.432478,9696.697840
1205.562120,1455.581446,-370.102971,9770.718434
1205.562436,2604.724693,814.226536,8882.471304
1205.562752,2298.286494,1480.411884,7624.121203
1205.563068,2528.115143,1554.432478,7254.018232
1205.563384,2987.772442,666.185348,8438.347739
1205.563700,2834.553343,1406.391290,8142.265362
1205.564016,2068.457845,888.247130,7920.203579
1205.564332,1378.971896,148.041188,9104.533087
1205.564648,1532.190996,-962.267725,9918.759623
1205.564964,1149.143247,-1036.288319,9918.759623
1205.565279,306.438199,-1110.308913,9844.739029
1205.565595,-153.219100,-1554.432478,10436.903782
1205.565911,-459.657299,-2146.597232,11325.150913
1205.566227,459.657299,-2146.597232,10881.027347
1205.566543,689.485948,-888.247130,10140.821405
1205.566859,842.705048,370.102971,9326.594869
1205.567175,1072.533697,518.144159,7920.203579
1205.567491,1915.238745,592.164754,8068.244768
1205.567807,2681.334243,518.144159,9474.636058
1205.568123,2451.505594,1406.391290,7920.203579
1205.568439,1608.800546,2294.638420,7550.100608
1205.568754,1302.362347,1258.350101,8438.347739
1205.569070,1685.410096,-74.020594,8808.450710
1205.569386,1302.362347,444.123565,9696.697840
1205.569702,0.000000,666.185348,9770.718434
1205.570018,-766.095498,-0.000000,9622.677246
1205.570334,-919.314598,-888.247130,10658.965565
1205.570650,-383.047749,-1036.288319,10288.862594
1205.570966,-766.095498,-888.247130,10066.800811
1205.571282,-1149.143247,-888.247130,10288.862594
1205.571598,-995.924147,-814.226536,9770.718434
1205.571914,0.000000,-1554.432478,10140.821405
1205.572229,0.000000,-888.247130,9696.697840
1205.572545,0.000000,-0.000000,9844.739029
1205.572861,0.000000,370.102971,8660.409521
1205.573177,383.047749,-444.123565,9178.553681
1205.573493,689.485948,-370.102971,9696.697840
1205.573809,689.485948,-370.102971,8808.450710
1205.574125,0.000000,-0.000000,9474.636058
1205.574441,-229.828649,-592.164754,9326.594869
1205.574757,153.219100,-888.247130,9548.656652
1205.575073,153.219100,-1258.350101,9918.759623
1205.575389,-919.314598,-518.144159,9992.780217
1205.575704,-842.705048,-962.267725,9844.739029
1205.576020,0.000000,-1554.432478,10362.883188
1205.576336,536.266849,-1554.432478,10288.862594
1205.576652,76.609550,-222.061783,9622.677246
1205.576968,-383.047749,444.123565,9104.533087
1205.577284,-153.219100,666.185348,9178.553681
1205.577600,229.828649,-296.082377,10288.862594
1205.577916,842.705048,-296.082377,9622.677246
1205.578232,306.438199,518.144159,8364.327145
1205.578548,383.047749,444.123565,9400.615463
1205.578864,536.266849,-148.041188,9844.739029
1205.579179,1455.581446,-370.102971,9474.636058
1205.579495,1685.410096,444.123565,8586.388927
1205.579811,306.438199,296.082377,9918.759623
1205.580127,919.314598,888.247130,8734.430116
1205.580443,1072.533697,370.102971,9104.533087
1205.580759,1302.362347,-0.000000,9474.636058
1205.581075,689.485948,222.061783,9178.553681
1205.581391,766.095498,962.267725,9474.636058
1205.581707,1302.362347,962.267725,8660.409521
1205.582023,2068.457845,-0.000000,8734.430116
1205.582338,1608.800546,1110.308913,8660.409521
1205.582654,1149.143247,1480.411884,9178.553681
1205.582970,-306.438199,740.205942,8734.430116
1205.583286,-229.828649,740.205942,9696.697840
1205.583602,919.314598,-518.144159,10214.842000
1205.583918,229.828649,222.061783,9622.677246
1205.584234,-689.485948,-74.020594,9178.553681
1205.584550,-766.095498,-1110.308913,11029.068536
1205.584866,0.000000,-2146.597232,11621.233289
1205.585182,-383.047749,-1776.494261,10362.883188
1205.585498,76.609550,444.123565,9770.718434
1205.585813,76.609550,518.144159,9104.533087
1205.586129,766.095498,-444.123565,9400.615463
1205.586445,1532.190996,-666.185348,10140.821405
1205.586761,1225.752797,-0.000000,9400.615463
1205.587077,1991.848295,962.267725,9474.636058
1205.587393,1532.190996,1258.350101,8068.244768
1205.587709,1838.629195,518.144159,8142.265362
1205.588025,1991.848295,222.061783,8808.450710
1205.588341,1072.533697,-148.041188,9992.780217
1205.588657,383.047749,-222.061783,10584.944971
1205.588973,0.000000,-740.205942,9474.636058
1205.589288,-76.609550,-1332.370696,10066.800811
1205.589604,-459.657299,-1110.308913,10732.986159
1205.589920,-689.485948,-592.164754,10510.924376
1205.590236,-612.876398,-370.102971,10510.924376
1205.590552,-383.047749,-814.226536,10140.821405
1205.590868,229.828649,-1110.308913,10140.821405
1205.591184,0.000000,-296.082377,9178.553681
1205.591500,612.876398,-0.000000,8882.471304
1205.591816,1072.533697,222.061783,9696.697840
1205.592132,1149.143247,148.041188,8956.491898
1205.592448,1455.581446,962.267725,8734.430116
1205.592763,1378.971896,296.082377,9326.594869
1205.593079,1072.533697,370.102971,9252.574275
1205.593395,1149.143247,370.102971,9548.656652
1205.593711,995.924147,-148.041188,8586.388927
1205.594027,383.047749,666.185348,9030.512492
1205.594343,306.438199,-0.000000,9474.636058
1205.594659,0.000000,-0.000000,9474.636058
1205.594975,229.828649,-148.041188,9400.615463
1205.595291,-383.047749,-0.000000,9326.594869
1205.595607,-383.047749,-0.000000,9622.677246
1205.595923,-842.705048,-296.082377,9400.615463
1205.596238,-612.876398,-518.144159,9696.697840
1205.596554,0.000000,-814.226536,9622.677246
1205.596870,-612.876398,-74.020594,9178.553681
1205.597186,-842.705048,296.082377,9178.553681
1205.597502,0.000000,-666.185348,9400.615463
1205.597818,229.828649,-1110.308913,9252.574275
1205.598134,0.000000,-592.164754,8956.491898
1205.598450,-536.266849,-666.185348,9992.780217
1205.598766,0.000000,-1184.329507,9844.739029
1205.599082,919.314598,-1258.350101,9178.553681
1205.599397,995.924147,-518.144159,8660.409521
1205.599713,229.828649,-0.000000,8956.491898
1205.600029,612.876398,-666.185348,9030.512492
1205.600345,612.876398,-740.205942,8808.450710
1205.600661,842.705048,-1332.370696,10288.862594
1205.600977,1149.143247,-1406.391290,8734.430116
1205.601293,842.705048,-296.082377,8438.347739
1205.601609,76.609550,-222.061783,9548.656652
1205.601925,612.876398,-1036.288319,9622.677246
1205.602241,689.485948,-592.164754,8734.430116
1205.602557,229.828649,518.144159,9030.512492
1205.602872,-229.828649,444.123565,9622.677246
1205.603188,76.609550,-444.123565,9770.718434
1205.603504,536.266849,-814.226536,9474.636058
1205.603820,0.000000,-1036.288319,9696.697840
1205.604136,306.438199,-666.185348,10881.027347
1205.604452,612.876398,-0.000000,9844.739029
1205.604768,919.314598,-0.000000,9474.636058
1205.605084,2298.286494,-444.123565,9992.780217
1205.605400,1838.629195,962.267725,8808.450710
1205.605716,1532.190996,1480.411884,9252.574275
1205.606032,1302.362347,1332.370696,9178.553681
1205.606347,2221.676944,-0.000000,10066.800811
1205.606663,1685.410096,1036.288319,9326.594869
1205.606979,842.705048,1332.370696,9474.636058
1205.607295,536.266849,222.061783,8956.491898
1205.607611,1072.533697,-148.041188,10362.883188
1205.607927,1225.752797,-444.123565,9918.759623
1205.608243,612.876398,148.041188,9770.718434
1205.608559,-153.219100,222.061783,10955.047942
1205.608875,0.000000,-518.144159,10510.924376
1205.609191,689.485948,-592.164754,9992.780217
1205.609507,612.876398,-370.102971,9696.697840
1205.609822,383.047749,-0.000000,10214.842000
1205.610138,612.876398,-0.000000,9178.553681
1205.610454,1149.143247,-0.000000,9326.594869
1205.610770,766.095498,-222.061783,9844.739029
1205.611086,842.705048,296.082377,9474.636058
1205.611402,459.657299,888.247130,8512.368333
1205.611718,0.000000,-0.000000,9104.533087
1205.612034,-383.047749,-888.247130,9992.780217
1205.612350,-383.047749,-740.205942,9400.615463
1205.612666,-842.705048,-0.000000,10362.883188
1205.612981,-1149.143247,-0.000000,9696.697840
1205.613297,-995.924147,-1036.288319,9918.759623
1205.613613,-459.657299,-1850.514855,10214.842000
1205.613929,-842.705048,-1184.329507,9548.656652
1205.614245,-612.876398,-962.267725,9474.636058
1205.614561,0.000000,-1702.473667,9622.677246
1205.614877,383.047749,-888.247130,9474.636058
1205.615193,536.266849,-518.144159,8882.471304
1205.615509,612.876398,888.247130,8216.285956
1205.615825,766.095498,1036.288319,7846.182985
1205.616141,689.485948,-0.000000,8290.306550
1205.616456,1762.019645,148.041188,9030.512492
1205.616772,919.314598,-0.000000,7994.224174
1205.617088,-153.219100,-0.000000,8660.409521
1205.617404,-306.438199,-740.205942,9918.759623
1205.617720,612.876398,-1998.556043,9918.759623
1205.618036,-536.266849,-1702.473667,9844.739029
1205.618352,-689.485948,-592.164754,10584.944971
1205.618668,-689.485948,-1036.288319,9918.759623
1205.618984,-306.438199,-1184.329507,10214.842000
1205.619300,-459.657299,-74.020594,10140.821405
1205.619616,76.609550,444.123565,9400.615463
1205.619931,383.047749,814.226536,8512.368333
1205.620247,766.095498,814.226536,9326.594869
1205.620563,1225.752797,-296.082377,9992.780217
1205.620879,1608.800546,-814.226536,9622.677246
1205.621195,1608.800546,814.226536,8808.450710
1205.621511,1378.971896,1406.391290,8660.409521
1205.621827,1915.238745,-0.000000,9474.636058
1205.622143,1378.971896,592.164754,8808.450710
1205.622459,1685.410096,1332.370696,10140.821405
1205.622775,1532.190996,740.205942,9178.553681
1205.623091,459.657299,1036.288319,8364.327145
1205.623406,612.876398,222.061783,9992.780217
1205.623722,1149.143247,-814.226536,9548.656652
1205.624038,0.000000,518.144159,9622.677246
1205.624354,-689.485948,-0.000000,10288.862594
1205.624670,-459.657299,-1036.288319,9696.697840
1205.624986,-383.047749,-1110.308913,10214.842000
1205.625302,-995.924147,-222.061783,10362.883188
1205.625618,-689.485948,-296.082377,10288.862594
1205.625934,-919.314598,-222.061783,10214.842000
1205.626250,-229.828649,-0.000000,10510.924376
1205.626566,383.047749,-222.061783,9770.718434
1205.626881,689.485948,148.041188,9548.656652
1205.627197,689.485948,666.185348,8290.306550
1205.627513,1225.752797,592.164754,8142.265362
1205.627829,2145.067394,-370.102971,9622.677246
1205.628145,1455.581446,-0.000000,9252.574275
1205.628461,1915.238745,518.144159,9696.697840
1205.628777,459.657299,370.102971,8660.409521
1205.629093,842.705048,-148.041188,9770.718434
1205.629409,1455.581446,-888.247130,9548.656652
1205.629725,1225.752797,-0.000000,9844.739029
1205.630040,0.000000,-518.144159,9474.636058
1205.630356,0.000000,-962.267725,9992.780217
1205.630672,766.095498,-1184.329507,9622.677246
1205.630988,153.219100,-148.041188,9252.574275
1205.631304,-153.219100,-0.000000,9918.759623
1205.631620,-612.876398,-444.123565,8956.491898
1205.631936,-306.438199,-1036.288319,9770.718434
1205.632252,0.000000,-1406.391290,9548.656652
1205.632568,0.000000,-1184.329507,9474.636058
1205.632884,306.438199,-222.061783,9474.636058
1205.633200,995.924147,-1628.453072,8734.430116
1205.633515,919.314598,-1406.391290,9252.574275
1205.633831,995.924147,-444.123565,9548.656652
1205.634147,842.705048,444.123565,8438.347739
1205.634463,612.876398,-0.000000,8364.327145
1205.634779,612.876398,-444.123565,9400.615463
1205.635095,1072.533697,-518.144159,8882.471304
1205.635411,766.095498,-0.000000,9622.677246
1205.635727,153.219100,-444.123565,9104.533087
1205.636043,0.000000,-1036.288319,9696.697840
1205.636358,459.657299,-666.185348,9474.636058
1205.636674,0.000000,-222.061783,8216.285956
1205.636990,383.047749,-296.082377,10140.821405
1205.637306,229.828649,-0.000000,10066.800811
1205.637622,76.609550,-0.000000,10140.821405
1205.637938,229.828649,-1036.288319,9770.718434
1205.638254,536.266849,-222.061783,9400.615463
1205.638570,229.828649,518.144159,8882.471304
1205.638885,536.266849,-222.061783,9400.615463
1205.639201,1455.581446,-74.020594,9548.656652
1205.639517,995.924147,-148.041188,9844.739029
1205.639833,383.047749,370.102971,9030.512492
1205.640149,229.828649,740.205942,8586.388927
1205.640465,612.876398,296.082377,9770.718434
1205.640781,612.876398,-444.123565,8882.471304
1205.641097,459.657299,222.061783,9770.718434
1205.641412,76.609550,-0.000000,9918.759623
1205.641728,0.000000,-444.123565,8734.430116
1205.642044,459.657299,-222.061783,9992.780217
1205.642360,459.657299,-370.102971,10066.800811
1205.642676,-306.438199,444.123565,9104.533087
1205.642992,-76.609550,296.082377,9770.718434
1205.643308,459.657299,-1036.288319,10140.821405
1205.643624,612.876398,-1480.411884,9918.759623
1205.643939,459.657299,-666.185348,9992.780217
1205.644255,919.314598,-518.144159,9992.780217
1205.644571,1149.143247,-370.102971,8808.450710
1205.644887,1378.971896,-148.041188,8734.430116
1205.645203,1991.848295,-74.020594,9622.677246
1205.645519,1149.143247,592.164754,9030.512492
1205.645835,536.266849,74.020594,8956.491898
1205.646151,459.657299,-296.082377,8956.491898
1205.646466,919.314598,-444.123565,9622.677246
1205.646782,766.095498,-444.123565,9770.718434
1205.647098,229.828649,-74.020594,9474.636058
1205.647414,0.000000,-962.267725,8956.491898
1205.647730,306.438199,-1332.370696,10881.027347
1205.648046,0.000000,-1036.288319,9252.574275
1205.648362,-459.657299,-148.041188,9474.636058
1205.648678,-536.266849,-222.061783,10140.821405
1205.648993,229.828649,-888.247130,10140.821405
1205.649309,306.438199,-518.144159,10140.821405
1205.649625,153.219100,518.144159,8660.409521
1205.649941,153.219100,962.267725,8882.471304
1205.650257,612.876398,-0.000000,9030.512492
1205.650573,1149.143247,-148.041188,9844.739029
1205.650889,766.095498,444.123565,9178.553681
1205.651205,766.095498,1110.308913,8956.491898
1205.651520,306.438199,444.123565,9400.615463
1205.651836,536.266849,370.102971,9178.553681
1205.652152,766.095498,444.123565,10214.842000
1205.652468,689.485948,296.082377,9474.636058
1205.652784,0.000000,814.226536,9770.718434
1205.653100,-153.219100,1036.288319,9474.636058
1205.653416,76.609550,666.185348,8956.491898
1205.653732,76.609550,296.082377,8808.450710
1205.654048,0.000000,444.123565,9992.780217
1205.654363,-306.438199,444.123565,9252.574275
1205.654679,-76.609550,-592.164754,9844.739029
1205.654995,-306.438199,-814.226536,10288.862594
1205.655311,-306.438199,-296.082377,9474.636058
1205.655627,459.657299,296.082377,10140.821405
1205.655943,-689.485948,518.144159,8660.409521
1205.656259,229.828649,370.102971,10066.800811
1205.656575,1072.533697,-0.000000,8808.450710
1205.656890,306.438199,-0.000000,8660.409521
1205.657206,0.000000,-296.082377,9622.677246
1205.657522,459.657299,-1702.473667,9548.656652
1205.657838,1225.752797,-1628.453072,10288.862594
1205.658154,76.609550,-1332.370696,9770.718434
1205.658470,459.657299,-444.123565,9696.697840
1205.658786,306.438199,-814.226536,8882.471304
1205.659102,689.485948,-370.102971,9474.636058
1205.659417,842.705048,-74.020594,9104.533087
1205.659733,153.219100,-0.000000,8734.430116
1205.660049,306.438199,-148.041188,9474.636058
1205.660365,689.485948,-1110.308913,9178.553681
1205.660681,229.828649,-1110.308913,9548.656652
1205.660997,153.219100,-740.205942,9696.697840
1205.661313,-306.438199,-1110.308913,9770.718434
1205.661629,-383.047749,-1332.370696,9252.574275
1205.661944,536.266849,-1258.350101,9918.759623
1205.662260,153.219100,-592.164754,9770.718434
1205.662576,306.438199,-74.020594,9104.533087
1205.662892,229.828649,-148.041188,8956.491898
1205.663208,612.876398,-296.082377,9622.677246
1205.663524,1302.362347,-296.082377,9770.718434
1205.663840,1302.362347,370.102971,7994.224174
1205.664156,842.705048,592.164754,9104.533087
1205.664471,689.485948,-518.144159,9548.656652
1205.664787,1532.190996,-592.164754,9474.636058
1205.665103,1762.019645,-0.000000,8512.368333
1205.665419,1072.533697,-0.000000,9548.656652
1205.665735,689.485948,-0.000000,9622.677246
1205.666051,842.705048,148.041188,9252.574275
1205.666367,689.485948,296.082377,9696.697840
1205.666683,1225.752797,-74.020594,9400.615463
1205.666998,459.657299,740.205942,9104.533087
1205.667314,306.438199,444.123565,8808.450710
1205.667630,459.657299,-666.185348,9400.615463
1205.667946,919.314598,-814.226536,9992.780217
1205.668262,-306.438199,-148.041188,10066.800811
1205.668578,-229.828649,592.164754,9030.512492
1205.668894,0.000000,-814.226536,10066.800811
1205.669210,0.000000,-592.164754,10214.842000
1205.669525,76.609550,-0.000000,9030.512492
1205.669841,0.000000,222.061783,9326.594869
1205.670157,536.266849,296.082377,9178.553681
1205.670473,612.876398,-0.000000,8882.471304
1205.670789,689.485948,-814.226536,9474.636058
1205.671105,689.485948,-740.205942,9326.594869
1205.671421,76.609550,-370.102971,9326.594869
1205.671737,536.266849,-444.123565,9918.759623
1205.672052,229.828649,-1924.535449,10288.862594
1205.672368,229.828649,-1184.329507,10214.842000
1205.672684,0.000000,-370.102971,9918.759623
1205.673000,383.047749,-592.164754,9178.553681
1205.673316,612.876398,-518.144159,9844.739029
1205.673632,459.657299,-74.020594,9104.533087
1205.673948,612.876398,-148.041188,8438.347739
1205.674264,689.485948,444.123565,9030.512492
1205.674579,459.657299,-74.020594,9548.656652
1205.674895,-153.219100,-1036.288319,9104.533087
1205.675211,-153.219100,-1184.329507,9400.615463
1205.675527,-306.438199,-1332.370696,10955.047942
1205.675843,-536.266849,-444.123565,10510.924376
1205.676159,0.000000,-74.020594,9844.739029
1205.676475,459.657299,-222.061783,9770.718434
1205.676791,459.657299,222.061783,9474.636058
1205.677106,383.047749,1110.308913,9326.594869
1205.677422,306.438199,1036.288319,9696.697840
1205.677738,919.314598,592.164754,9770.718434
1205.678054,995.924147,148.041188,8808.450710
1205.678370,536.266849,740.205942,9918.759623
1205.678686,459.657299,518.144159,9474.636058
1205.679002,995.924147,-0.000000,8882.471304
1205.679318,1455.581446,296.082377,9696.697840
1205.679633,766.095498,518.144159,9474.636058
1205.679949,536.266849,518.144159,9400.615463
1205.680265,842.705048,740.205942,8882.471304
1205.680581,689.485948,-0.000000,9400.615463
1205.680897,459.657299,-0.000000,9326.594869
1205.681213,459.657299,-74.020594,9548.656652
1205.681529,0.000000,-74.020594,9030.512492
1205.681845,0.000000,-740.205942,9178.553681
1205.682160,459.657299,-1850.514855,10288.862594
1205.682476,306.438199,-1554.432478,8956.491898
1205.682792,-229.828649,-518.144159,9548.656652
1205.683108,76.609550,-518.144159,9326.594869
1205.683424,306.438199,-814.226536,9918.759623
1205.683740,612.876398,296.082377,8882.471304
1205.684056,0.000000,740.205942,8956.491898
1205.684372,153.219100,888.247130,8586.388927
1205.684687,536.266849,-74.020594,8512.368333
1205.685003,1072.533697,-370.102971,9474.636058
1205.685319,995.924147,-962.267725,9178.553681
1205.685635,689.485948,-444.123565,9474.636058
1205.685951,536.266849,-740.205942,9326.594869
1205.686267,842.705048,-1036.288319,9622.677246
1205.686583,766.095498,-518.144159,9548.656652
1205.686899,306.438199,-0.000000,9474.636058
1205.687214,919.314598,370.102971,8660.409521
1205.687530,1225.752797,-370.102971,9326.594869
1205.687846,1685.410096,-666.185348,8882.471304
1205.688162,995.924147,-222.061783,8734.430116
1205.688478,842.705048,-0.000000,9474.636058
1205.688794,76.609550,-0.000000,8364.327145
1205.689110,306.438199,-1184.329507,10214.842000
1205.689426,459.657299,-1110.308913,9696.697840
1205.689741,306.438199,-740.205942,9770.718434
1205.690057,229.828649,-296.082377,10066.800811
1205.690373,0.000000,-1258.350101,9918.759623
1205.690689,153.219100,-740.205942,10362.883188
1205.691005,612.876398,-74.020594,9326.594869
1205.691321,0.000000,518.144159,9474.636058
1205.691637,383.047749,-222.061783,9992.780217
1205.691953,536.266849,-0.000000,9844.739029
1205.692268,766.095498,-74.020594,9252.574275
1205.692584,536.266849,-444.123565,10288.862594
1205.692900,689.485948,592.164754,9548.656652
1205.693216,306.438199,-444.123565,9178.553681
1205.693532,1378.971896,-592.164754,10732.986159
1205.693848,995.924147,-0.000000,8956.491898
1205.694164,153.219100,814.226536,9474.636058
1205.694480,0.000000,296.082377,10066.800811
1205.694796,229.828649,-296.082377,9770.718434
1205.695111,383.047749,-740.205942,9770.718434
1205.695427,-76.609550,-148.041188,9770.718434
1205.695743,-306.438199,-740.205942,10066.800811
1205.696059,-383.047749,-740.205942,9400.615463
1205.696375,-153.219100,-666.185348,9622.677246
1205.696691,153.219100,-518.144159,9104.533087
1205.697007,0.000000,-0.000000,9770.718434
1205.697323,-536.266849,370.102971,8734.430116
1205.697638,306.438199,-148.041188,9696.697840
1205.697954,459.657299,-888.247130,8808.450710
1205.698270,306.438199,-0.000000,9030.512492
1205.698586,153.219100,-296.082377,9622.677246
1205.698902,-153.219100,-666.185348,9030.512492
1205.699218,383.047749,-518.144159,9474.636058
1205.699534,306.438199,-222.061783,8956.491898
1205.699850,383.047749,-0.000000,9474.636058
1205.700165,-153.219100,222.061783,9326.594869
1205.700481,459.657299,-370.102971,9400.615463
1205.700797,1455.581446,-1036.288319,9326.594869
1205.701113,995.924147,-592.164754,9474.636058
1205.701429,842.705048,296.082377,8956.491898
1205.701745,1302.362347,-0.000000,8660.409521
1205.702061,1685.410096,-74.020594,9548.656652
1205.702377,995.924147,148.041188,8808.450710
1205.702692,612.876398,888.247130,8882.471304
1205.703008,842.705048,296.082377,9474.636058
1205.703324,536.266849,370.102971,8808.450710
1205.703640,459.657299,-444.123565,9622.677246
1205.703956,229.828649,-1110.308913,9918.759623
1205.704272,-306.438199,-1036.288319,10066.800811
1205.704588,0.000000,-666.185348,10288.862594
1205.704904,229.828649,-592.164754,10140.821405
1205.705219,76.609550,-370.102971,9918.759623
1205.705535,76.609550,666.185348,9548.656652
1205.705851,229.828649,814.226536,9326.594869
1205.706167,536.266849,-148.041188,10066.800811
1205.706483,919.314598,-740.205942,10066.800811
1205.706799,995.924147,444.123565,9178.553681
1205.707115,842.705048,1406.391290,9104.533087
1205.707431,1302.362347,592.164754,8882.471304
1205.707746,1072.533697,740.205942,9696.697840
1205.708062,1302.362347,592.164754,9326.594869
1205.708378,536.266849,148.041188,9992.780217
1205.708694,0.000000,1036.288319,9918.759623
1205.709010,459.657299,74.020594,9622.677246
1205.709326,76.609550,-296.082377,10140.821405
1205.709642,0.000000,-444.123565,10288.862594
1205.709958,-306.438199,-0.000000,10288.862594
1205.710273,-612.876398,-0.000000,9474.636058
1205.710589,-306.438199,-444.123565,10362.883188
1205.710905,-229.828649,-148.041188,8882.471304
1205.711221,-229.828649,370.102971,9696.697840
1205.711537,-459.657299,296.082377,9326.594869
1205.711853,-306.438199,-0.000000,9400.615463
1205.712169,-229.828649,-222.061783,9548.656652
1205.712485,76.609550,-370.102971,9178.553681
1205.712800,153.219100,-148.041188,9770.718434
1205.713116,-153.219100,-296.082377,9030.512492
1205.713432,229.828649,-592.164754,9178.553681
1205.713748,766.095498,-962.267725,9104.533087
1205.714064,612.876398,-740.205942,9104.533087
1205.714380,383.047749,-296.082377,8586.388927
1205.714696,536.266849,-888.247130,9548.656652
1205.715012,612.876398,-1628.453072,9326.594869
1205.715327,766.095498,-740.205942,9030.512492
1205.715643,0.000000,-444.123565,9326.594869
1205.715959,536.266849,-592.164754,8956.491898
1205.716275,689.485948,-962.267725,9252.574275
1205.716591,459.657299,-1554.432478,8882.471304
1205.716907,459.657299,-1184.329507,9548.656652
1205.717223,306.438199,-888.247130,10140.821405
1205.717539,459.657299,-666.185348,8808.450710
1205.717854,689.485948,-962.267725,9548.656652
1205.718170,383.047749,-888.247130,9770.718434
1205.718486,536.266849,-74.020594,8956.491898
1205.718802,383.047749,-814.226536,9844.739029
1205.719118,612.876398,-444.123565,9918.759623
1205.719434,689.485948,-0.000000,8956.491898
1205.719750,1225.752797,740.205942,8364.327145
1205.720066,689.485948,666.185348,9252.574275
1205.720381,766.095498,-0.000000,9326.594869
1205.720697,1302.362347,-666.185348,9770.718434
1205.721013,1225.752797,-222.061783,9474.636058
1205.721329,383.047749,296.082377,10510.924376
1205.721645,689.485948,148.041188,8956.491898
1205.721961,842.705048,-888.247130,9622.677246
1205.722277,1225.752797,-370.102971,10955.047942
1205.722593,842.705048,148.041188,9770.718434
1205.722908,306.438199,370.102971,8512.368333
1205.723224,766.095498,-0.000000,9252.574275
1205.723540,1225.752797,-666.185348,10140.821405
1205.723856,766.095498,-148.041188,8882.471304
1205.724172,383.047749,592.164754,9918.759623
1205.724488,689.485948,444.123565,9918.759623
1205.724804,766.095498,296.082377,8882.471304
1205.725120,766.095498,148.041188,8660.409521
1205.725435,383.047749,-222.061783,9252.574275
1205.725751,-459.657299,-222.061783,9992.780217
1205.726067,0.000000,-740.205942,10362.883188
1205.726383,229.828649,-1406.391290,10140.821405
1205.726699,-229.828649,-370.102971,9696.697840
1205.727015,-383.047749,-0.000000,10066.800811
1205.727331,0.000000,148.041188,8956.491898
1205.727647,306.438199,-518.144159,9548.656652
1205.727962,459.657299,-444.123565,9696.697840
1205.728278,689.485948,-0.000000,10066.800811
1205.728594,536.266849,-0.000000,8956.491898
1205.728910,612.876398,-370.102971,9400.615463
1205.729226,229.828649,-222.061783,9918.759623
1205.729542,1149.143247,-666.185348,9104.533087
1205.729858,459.657299,-0.000000,9844.739029
1205.730174,0.000000,-148.041188,9474.636058
1205.730489,766.095498,-444.123565,10436.903782
1205.730805,689.485948,-222.061783,8660.409521
1205.731121,153.219100,-0.000000,8734.430116
1205.731437,383.047749,296.082377,10362.883188
1205.731753,383.047749,222.061783,8734.430116
1205.732069,0.000000,-222.061783,9326.594869
1205.732385,229.828649,-518.144159,9918.759623
1205.732701,-229.828649,-666.185348,9474.636058
1205.733016,-153.219100,-74.020594,8956.491898
1205.733332,0.000000,-666.185348,10066.800811
1205.733648,0.000000,-444.123565,9474.636058
1205.733964,0.000000,370.102971,9178.553681
1205.734280,0.000000,296.082377,9326.594869
1205.734596,76.609550,-74.020594,9474.636058
1205.734912,306.438199,-0.000000,9770.718434
1205.735228,459.657299,370.102971,8364.327145
1205.735544,383.047749,370.102971,9252.574275
1205.735859,229.828649,-74.020594,9918.759623
1205.736175,842.705048,-444.123565,9400.615463
1205.736491,1072.533697,-0.000000,9252.574275
1205.736807,1072.533697,-0.000000,9030.512492
1205.737123,153.219100,370.102971,8956.491898
1205.737438,919.314598,-0.000000,9252.574275
1205.737754,842.705048,222.061783,9548.656652
1205.738070,766.095498,148.041188,8956.491898
1205.738386,306.438199,148.041188,8956.491898
1205.738702,153.219100,-0.000000,9326.594869
1205.739017,76.609550,-888.247130,10288.862594
1205.739333,459.657299,-518.144159,9252.574275
1205.739649,-229.828649,148.041188,9104.533087
1205.739965,-229.828649,-0.000000,9400.615463
1205.740281,-306.438199,-592.164754,9770.718434
1205.740596,-306.438199,-1480.411884,10807.006753
1205.740912,306.438199,-962.267725,9770.718434
1205.741228,153.219100,-148.041188,9548.656652
1205.741544,306.438199,-0.000000,8586.388927
1205.741860,919.314598,-518.144159,9252.574275
1205.742175,1149.143247,-444.123565,10140.821405
1205.742491,1149.143247,814.226536,8660.409521
1205.742807,1302.362347,666.185348,9326.594869
1205.743123,919.314598,296.082377,9030.512492
1205.743439,1072.533697,-222.061783,9474.636058
1205.743754,1378.971896,-814.226536,9548.656652
1205.744070,612.876398,-370.102971,10214.842000
1205.744386,229.828649,-0.000000,9474.636058
1205.744702,383.047749,-296.082377,10214.842000
1205.745018,995.924147,-1110.308913,10214.842000
1205.745333,229.828649,-962.267725,10066.800811
1205.745649,153.219100,-0.000000,10584.944971
1205.745965,0.000000,296.082377,9252.574275
1205.746281,612.876398,-444.123565,9474.636058
1205.746597,919.314598,-1332.370696,9474.636058
1205.746913,766.095498,-888.247130,10362.883188
1205.747228,766.095498,-592.164754,9400.615463
1205.747544,459.657299,-666.185348,9622.677246
1205.747860,1302.362347,-370.102971,9918.759623
1205.748176,1302.362347,-0.000000,7994.224174
1205.748492,1072.533697,518.144159,8660.409521
1205.748807,536.266849,-0.000000,9548.656652
1205.749123,536.266849,-370.102971,9918.759623
1205.749439,842.705048,-666.185348,9548.656652
1205.749755,306.438199,-0.000000,9326.594869
1205.750071,306.438199,-592.164754,9622.677246
1205.750386,766.095498,-592.164754,9474.636058
1205.750702,536.266849,-1110.308913,9400.615463
1205.751018,-153.219100,-592.164754,9696.697840
1205.751334,0.000000,-444.123565,10362.883188
1205.751650,0.000000,296.082377,8068.244768
1205.751965,459.657299,-74.020594,9104.533087
1205.752281,459.657299,-296.082377,9474.636058
1205.752597,76.609550,-0.000000,9326.594869
1205.752913,0.000000,-0.000000,8882.471304
1205.753229,153.219100,-296.082377,9400.615463
1205.753544,536.266849,-814.226536,9474.636058
1205.753860,459.657299,-0.000000,8364.327145
1205.754176,-536.266849,222.061783,9030.512492
1205.754492,0.000000,-666.185348,9474.636058
1205.754808,689.485948,-888.247130,9770.718434
1205.755123,306.438199,-0.000000,9178.553681
1205.755439,153.219100,-370.102971,8956.491898
1205.755755,612.876398,-222.061783,9548.656652
1205.756071,459.657299,-0.000000,8512.368333
1205.756387,612.876398,-370.102971,8882.471304
1205.756703,919.314598,-518.144159,9696.697840
1205.757018,306.438199,-370.102971,9030.512492
1205.757334,0.000000,-148.041188,9326.594869
1205.757650,0.000000,-740.205942,9474.636058
1205.757966,459.657299,-1110.308913,9770.718434
1205.758282,229.828649,-0.000000,9622.677246
1205.758597,153.219100,296.082377,10066.800811
1205.758913,0.000000,222.061783,9030.512492
1205.759229,229.828649,-0.000000,9622.677246
1205.759545,229.828649,222.061783,9178.553681
1205.759861,612.876398,222.061783,10288.862594
1205.760176,536.266849,-0.000000,9104.533087
1205.760492,0.000000,222.061783,9178.553681
1205.760808,306.438199,-1406.391290,10658.965565
1205.761124,459.657299,-666.185348,10584.944971
1205.761440,0.000000,1036.288319,8660.409521
1205.761755,0.000000,1036.288319,9326.594869
1205.762071,536.266849,-0.000000,10584.944971
1205.762387,536.266849,962.267725,9474.636058
1205.762703,612.876398,1406.391290,9326.594869
1205.763019,153.219100,888.247130,8734.430116
1205.763334,229.828649,-148.041188,10436.903782
1205.763650,459.657299,-518.144159,9548.656652
1205.763966,306.438199,-222.061783,10288.862594
1205.764282,-306.438199,296.082377,10362.883188
1205.764598,0.000000,-222.061783,9844.739029
1205.764913,995.924147,-0.000000,10066.800811
1205.765229,612.876398,740.205942,9474.636058
1205.765545,919.314598,1406.391290,9400.615463
1205.765861,919.314598,1258.350101,8586.388927
1205.766177,995.924147,518.144159,9844.739029
1205.766492,1072.533697,148.041188,9474.636058
1205.766808,766.095498,962.267725,8216.285956
1205.767124,536.266849,-296.082377,9992.780217
1205.767440,229.828649,-666.185348,9030.512492
1205.767756,229.828649,-0.000000,10066.800811
1205.768072,229.828649,-444.123565,9326.594869
1205.768387,-536.266849,-296.082377,9400.615463
1205.768703,0.000000,-370.102971,10510.924376
1205.769019,0.000000,-296.082377,9622.677246
1205.769335,459.657299,-518.144159,9474.636058
1205.769651,229.828649,-592.164754,9622.677246
1205.769966,383.047749,-740.205942,9622.677246
1205.770282,459.657299,-740.205942,8438.347739
1205.770598,919.314598,-518.144159,9178.553681
1205.770914,1302.362347,370.102971,9030.512492
1205.771230,1149.143247,-296.082377,8734.430116
1205.771545,536.266849,-0.000000,8734.430116
1205.771861,1225.752797,-74.020594,9326.594869
1205.772177,1455.581446,-74.020594,8956.491898
1205.772493,995.924147,-148.041188,9252.574275
1205.772809,612.876398,-518.144159,9400.615463
1205.773124,919.314598,-888.247130,9252.574275
1205.773440,1225.752797,-1332.370696,9770.718434
1205.773756,995.924147,-1110.308913,8734.430116
1205.774072,689.485948,-740.205942,9474.636058
1205.774388,306.438199,-962.267725,9104.533087
1205.774703,229.828649,-1036.288319,9326.594869
1205.775019,536.266849,-592.164754,9696.697840
1205.775335,306.438199,-814.226536,9178.553681
1205.775651,76.609550,-148.041188,9252.574275
1205.775967,76.609550,-370.102971,9252.574275
1205.776282,536.266849,-740.205942,10066.800811
1205.776598,459.657299,-1036.288319,9178.553681
1205.776914,306.438199,-148.041188,8882.471304
1205.777230,0.000000,-74.020594,9178.553681
1205.777546,459.657299,-814.226536,9844.739029
1205.777861,612.876398,-1332.370696,9992.780217
1205.778177,0.000000,-666.185348,9770.718434
1205.778493,-766.095498,-222.061783,9918.759623
1205.778809,-306.438199,-296.082377,9104.533087
1205.779125,689.485948,-814.226536,10362.883188
1205.779441,1072.533697,-0.000000,9770.718434
1205.779756,229.828649,888.247130,8438.347739
1205.780072,689.485948,-0.000000,9918.759623
1205.780388,766.095498,-0.000000,9844.739029
1205.780704,689.485948,-74.020594,9030.512492
1205.781020,153.219100,222.061783,9326.594869
1205.781335,0.000000,296.082377,10140.821405
1205.781651,-229.828649,-74.020594,9622.677246
1205.781967,229.828649,-296.082377,10214.842000
1205.782283,0.000000,-0.000000,9696.697840
1205.782599,-153.219100,-444.123565,9622.677246
1205.782914,-229.828649,-0.000000,9252.574275
1205.783230,76.609550,-592.164754,10214.842000
1205.783546,306.438199,-814.226536,9918.759623
1205.783862,536.266849,-296.082377,9548.656652
1205.784178,383.047749,444.123565,9326.594869
1205.784493,229.828649,-0.000000,8956.491898
1205.784809,0.000000,-0.000000,9104.533087
1205.785125,1302.362347,222.061783,8808.450710
1205.785441,1072.533697,518.144159,8956.491898
1205.785757,383.047749,814.226536,8956.491898
1205.786072,689.485948,-592.164754,9622.677246
1205.786388,995.924147,-1036.288319,10658.965565
1205.786704,1072.533697,-518.144159,9178.553681
1205.787020,153.219100,-0.000000,9548.656652
1205.787336,689.485948,-0.000000,9918.759623
1205.787651,919.314598,-74.020594,10066.800811
1205.787967,842.705048,592.164754,9252.574275
1205.788283,766.095498,296.082377,9844.739029
1205.788599,0.000000,740.205942,9474.636058
1205.788915,689.485948,1332.370696,8882.471304
1205.789231,612.876398,-740.205942,10362.883188
1205.789546,612.876398,-666.185348,10066.800811
1205.789862,612.876398,-74.020594,9178.553681
1205.790178,0.000000,-222.061783,9104.533087
1205.790494,76.609550,-370.102971,10510.924376
1205.790810,229.828649,-1332.370696,9400.615463
1205.791125,459.657299,-0.000000,9326.594869
1205.791441,0.000000,444.123565,9992.780217
1205.791757,0.000000,-370.102971,9696.697840
1205.792073,919.314598,-518.144159,9474.636058
1205.792389,306.438199,-518.144159,9030.512492
1205.792704,689.485948,-222.061783,10214.842000
1205.793020,1378.971896,-148.041188,9252.574275
1205.793336,1532.190996,148.041188,8734.430116
1205.793652,1532.190996,-296.082377,9400.615463
1205.793968,1225.752797,-0.000000,9104.533087
1205.794283,689.485948,518.144159,9030.512492
1205.794599,383.047749,-0.000000,9548.656652
1205.794915,766.095498,-148.041188,9104.533087
1205.795231,76.609550,-148.041188,9030.512492
1205.795547,0.000000,370.102971,9178.553681
1205.795862,-76.609550,-222.061783,9548.656652
1205.796178,-306.438199,-222.061783,9622.677246
1205.796494,536.266849,-444.123565,9104.533087
1205.796810,-919.314598,-148.041188,8882.471304
1205.797126,-919.314598,-370.102971,10288.862594
1205.797441,-153.219100,-1036.288319,10066.800811
1205.797757,0.000000,-444.123565,9770.718434
1205.798073,0.000000,-0.000000,9696.697840
1205.798389,0.000000,-0.000000,9104.533087
1205.798705,153.219100,222.061783,9104.533087
1205.799020,995.924147,-1036.288319,9474.636058
1205.799336,1378.971896,-518.144159,9400.615463
1205.799652,1149.143247,-0.000000,8882.471304
1205.799968,766.095498,592.164754,8660.409521
1205.800284,536.266849,-444.123565,9104.533087
1205.800600,766.095498,-1184.329507,10140.821405
1205.800915,612.876398,-888.247130,10140.821405
1205.801231,0.000000,-370.102971,9474.636058
1205.801547,229.828649,-518.144159,9548.656652
1205.801863,0.000000,-1184.329507,10362.883188
1205.802179,76.609550,-1628.453072,10066.800811
1205.802494,459.657299,-518.144159,9696.697840
1205.802810,153.219100,-0.000000,9844.739029
1205.803126,0.000000,-0.000000,9030.512492
1205.803442,919.314598,-444.123565,9326.594869
1205.803758,459.657299,-2368.659014,10214.842000
1205.804073,306.438199,-592.164754,10288.862594
1205.804389,459.657299,-0.000000,9622.677246
1205.804705,536.266849,-518.144159,9696.697840
1205.805021,536.266849,-222.061783,9474.636058
1205.805337,919.314598,-518.144159,9326.594869
1205.805652,919.314598,-0.000000,9326.594869
1205.805968,536.266849,-666.185348,9844.739029
1205.806284,995.924147,-444.123565,9992.780217
1205.806600,1149.143247,-592.164754,8808.450710
1205.806916,1225.752797,518.144159,8734.430116
1205.807231,842.705048,370.102971,9770.718434
1205.807547,1455.581446,-0.000000,9326.594869
1205.807863,1455.581446,-222.061783,8808.450710
1205.808179,689.485948,444.123565,9104.533087
1205.808495,536.266849,296.082377,9178.553681
1205.808810,612.876398,222.061783,8586.388927
1205.809126,383.047749,-222.061783,9696.697840
1205.809442,612.876398,-962.267725,10214.842000
1205.809758,612.876398,-592.164754,9548.656652
1205.810074,383.047749,-0.000000,8808.450710
1205.810390,0.000000,-0.000000,9030.512492
1205.810705,306.438199,-296.082377,9696.697840
1205.811021,229.828649,148.041188,8586.388927
1205.811337,459.657299,666.185348,9548.656652
1205.811653,0.000000,296.082377,9400.615463
1205.811969,306.438199,-518.144159,9622.677246
1205.812284,536.266849,-518.144159,8808.450710
1205.812600,76.609550,-296.082377,9696.697840
1205.812916,153.219100,-222.061783,10140.821405
1205.813232,0.000000,370.102971,8882.471304
1205.813548,842.705048,-0.000000,9252.574275
1205.813863,383.047749,-518.144159,9918.759623
1205.814179,-383.047749,-296.082377,9992.780217
1205.814495,-153.219100,-0.000000,9474.636058
1205.814811,383.047749,-962.267725,9992.780217
1205.815127,689.485948,-888.247130,9696.697840
1205.815442,536.266849,-444.123565,9844.739029
1205.815758,612.876398,-370.102971,9622.677246
1205.816074,1072.533697,-962.267725,9474.636058
1205.816390,1149.143247,-222.061783,9696.697840
1205.816706,1225.752797,518.144159,8586.388927
1205.817021,536.266849,222.061783,9252.574275
1205.817337,689.485948,-148.041188,9548.656652
1205.817653,766.095498,-592.164754,10510.924376
1205.817969,612.876398,-814.226536,9844.739029
1205.818285,153.219100,-74.020594,9548.656652
1205.818600,0.000000,-222.061783,9326.594869
1205.818916,229.828649,-74.020594,9696.697840
1205.819232,766.095498,-518.144159,10066.800811
1205.819548,383.047749,-740.205942,9252.574275
1205.819864,0.000000,592.164754,9992.780217
1205.820179,306.438199,-222.061783,10436.903782
1205.820495,689.485948,-518.144159,9400.615463
1205.820811,842.705048,-370.102971,10658.965565
1205.821127,306.438199,-0.000000,9548.656652
1205.821443,919.314598,222.061783,8512.368333
1205.821759,1302.362347,222.061783,10140.821405
1205.822074,995.924147,-148.041188,9622.677246
1205.822390,1302.362347,518.144159,9104.533087
1205.822706,1302.362347,222.061783,8512.368333
1205.823022,1225.752797,666.185348,9178.553681
1205.823338,1302.362347,370.102971,9178.553681
1205.823653,1608.800546,222.061783,9030.512492
1205.823969,76.609550,148.041188,8734.430116
1205.824285,0.000000,-0.000000,9326.594869
1205.824601,76.609550,-592.164754,9474.636058
1205.824917,-383.047749,-518.144159,9326.594869
1205.825232,-536.266849,-814.226536,9548.656652
1205.825548,-995.924147,-148.041188,9474.636058
1205.825864,-919.314598,222.061783,9474.636058
1205.826180,-995.924147,-740.205942,9992.780217
1205.826496,-459.657299,-1850.514855,10362.883188
1205.826811,-1072.533697,-962.267725,8956.491898
1205.827127,-1072.533697,-814.226536,10066.800811
1205.827443,-306.438199,-666.185348,9104.533087
1205.827759,459.657299,-962.267725,8882.471304
1205.828075,1072.533697,-0.000000,8808.450710
1205.828390,459.657299,666.185348,8290.306550
1205.828706,459.657299,-0.000000,8512.368333
1205.829022,1225.752797,-74.020594,9474.636058
1205.829338,1302.362347,-148.041188,8586.388927
1205.829654,1072.533697,-74.020594,8734.430116
1205.829969,842.705048,-444.123565,9992.780217
1205.830285,995.924147,-444.123565,9400.615463
1205.830601,1762.019645,-518.144159,9918.759623
1205.830917,1302.362347,-0.000000,8438.347739
1205.831233,153.219100,-0.000000,9326.594869
1205.831548,153.219100,518.144159,10140.821405
1205.831864,76.609550,148.041188,9474.636058
1205.832180,383.047749,-0.000000,9622.677246
1205.832496,229.828649,-370.102971,9844.739029
1205.832812,-459.657299,-148.041188,9622.677246
1205.833128,-306.438199,-888.247130,9918.759623
1205.833443,0.000000,-1110.308913,10955.047942
1205.833765,153.219100,-814.226536,10066.800811
1205.834081,689.485948,444.123565,9474.636058
1205.834397,229.828649,888.247130,9474.636058
1205.834713,459.657299,222.061783,9696.697840
1205.835028,919.314598,148.041188,9696.697840
1205.835344,919.314598,518.144159,9178.553681
1205.835660,1455.581446,1036.288319,9844.739029
1205.835976,1225.752797,-148.041188,9622.677246
1205.836291,1762.019645,296.082377,8808.450710
1205.836607,1838.629195,666.185348,8512.368333
1205.836923,1302.362347,888.247130,9104.533087
1205.837239,1302.362347,888.247130,9474.636058
1205.837554,1149.143247,-148.041188,9622.677246
1205.837870,919.314598,-370.102971,10732.986159
1205.838186,383.047749,370.102971,9474.636058
1205.838502,383.047749,-0.000000,9178.553681
1205.838818,76.609550,-148.041188,9474.636058
1205.839133,383.047749,-74.020594,10436.903782
1205.839449,459.657299,-296.082377,9104.533087
1205.839765,-689.485948,-222.061783,9474.636058
1205.840081,-766.095498,-1332.370696,10140.821405
1205.840396,0.000000,-740.205942,10362.883188
1205.840712,0.000000,-592.164754,9696.697840
1205.841028,0.000000,-1110.308913,9400.615463
1205.841344,229.828649,-222.061783,9622.677246
1205.841659,459.657299,592.164754,8734.430116
1205.841975,1378.971896,-74.020594,9326.594869
1205.842291,1149.143247,-148.041188,8364.327145
1205.842607,842.705048,222.061783,9326.594869
1205.842922,612.876398,296.082377,8438.347739
1205.843238,612.876398,-0.000000,9104.533087
1205.843554,1378.971896,-888.247130,10140.821405
1205.843870,229.828649,-666.185348,8882.471304
1205.844185,-536.266849,-962.267725,9844.739029
1205.844501,-766.095498,-1036.288319,10288.862594
1205.844817,-153.219100,-1036.288319,9992.780217
1205.845133,153.219100,-1258.350101,9474.636058
1205.845448,-229.828649,-148.041188,9770.718434
1205.845764,-76.609550,-0.000000,9474.636058
1205.846080,153.219100,-1036.288319,9844.739029
1205.846396,306.438199,-740.205942,9474.636058
1205.846711,383.047749,-814.226536,9030.512492
1205.847027,0.000000,-444.123565,9400.615463
1205.847343,0.000000,-1036.288319,9918.759623
1205.847659,612.876398,-518.144159,9844.739029
1205.847974,766.095498,-74.020594,8586.388927
1205.848290,383.047749,666.185348,9326.594869
1205.848606,306.438199,-0.000000,9178.553681
1205.848922,383.047749,-0.000000,9104.533087
1205.849237,919.314598,-148.041188,9992.780217
1205.849553,383.047749,-814.226536,9326.594869
1205.849869,229.828649,-444.123565,9844.739029
1205.850185,0.000000,-370.102971,9770.718434
1205.850500,229.828649,-740.205942,9918.759623
1205.850816,995.924147,-0.000000,8660.409521
1205.851132,383.047749,148.041188,9548.656652
1205.851448,-306.438199,222.061783,10658.965565
1205.851763,76.609550,-0.000000,9992.780217
1205.852079,842.705048,-0.000000,9104.533087
1205.852395,383.047749,-0.000000,8956.491898
1205.852711,229.828649,-370.102971,9992.780217
1205.853027,612.876398,-0.000000,9104.533087
1205.853342,536.266849,444.123565,9696.697840
1205.853658,919.314598,-0.000000,9474.636058
1205.853974,383.047749,370.102971,9252.574275
1205.854290,0.000000,814.226536,9326.594869
1205.854605,153.219100,222.061783,8808.450710
1205.854921,919.314598,-518.144159,9918.759623
1205.855237,689.485948,-148.041188,9326.594869
1205.855553,0.000000,222.061783,9474.636058
1205.855868,229.828649,-518.144159,10066.800811
1205.856184,689.485948,-888.247130,9992.780217
1205.856500,995.924147,-0.000000,8586.388927
1205.856816,536.266849,-0.000000,9770.718434
1205.857131,153.219100,-0.000000,9548.656652
1205.857447,689.485948,-888.247130,9992.780217
1205.857763,1378.971896,-1258.350101,10288.862594
1205.858079,76.609550,-962.267725,9104.533087
1205.858394,612.876398,148.041188,10066.800811
1205.858710,1302.362347,-148.041188,9252.574275
1205.859026,1608.800546,222.061783,9622.677246
1205.859342,1455.581446,296.082377,9548.656652
1205.859657,1991.848295,518.144159,8216.285956
1205.859973,919.314598,370.102971,8808.450710
1205.860289,306.438199,-592.164754,10140.821405
1205.860605,1072.533697,-444.123565,10066.800811
1205.860920,612.876398,-0.000000,9104.533087
1205.861236,-383.047749,1036.288319,9844.739029
1205.861552,-153.219100,148.041188,9844.739029
1205.861868,0.000000,-296.082377,9622.677246
1205.862183,0.000000,-444.123565,9622.677246
1205.862499,-306.438199,-592.164754,10362.883188
1205.862815,0.000000,-148.041188,9696.697840
1205.863131,-536.266849,-148.041188,9252.574275
1205.863446,0.000000,-592.164754,10436.903782
1205.863762,383.047749,-740.205942,9474.636058
1205.864078,229.828649,666.185348,9844.739029
1205.864394,-459.657299,-0.000000,9104.533087
1205.864709,229.828649,-74.020594,9918.759623
1205.865025,1532.190996,-592.164754,9474.636058
1205.865341,766.095498,-0.000000,8216.285956
1205.865657,1149.143247,888.247130,9474.636058
1205.865973,766.095498,444.123565,9104.533087
1205.866288,1072.533697,-148.041188,8882.471304
1205.866604,995.924147,222.061783,8734.430116
1205.866920,153.219100,666.185348,8586.388927
1205.867236,-229.828649,-0.000000,9474.636058
1205.867551,229.828649,-518.144159,10066.800811
1205.867867,229.828649,-592.164754,9770.718434
1205.868183,-459.657299,-148.041188,8586.388927
1205.868499,-1225.752797,-0.000000,9548.656652
1205.868814,-689.485948,-888.247130,10066.800811
1205.869130,-766.095498,-1258.350101,10066.800811
1205.869446,-536.266849,-888.247130,9918.759623
1205.869762,-383.047749,-370.102971,10436.903782
1205.870077,-612.876398,-296.082377,9104.533087
1205.870393,-306.438199,-518.144159,9326.594869
1205.870709,306.438199,-666.185348,9622.677246
1205.871025,383.047749,-370.102971,8734.430116
1205.871340,536.266849,370.102971,8956.491898
1205.871656,383.047749,-740.205942,8956.491898
1205.871972,995.924147,-592.164754,9474.636058
1205.872288,1378.971896,-592.164754,9030.512492
1205.872603,995.924147,-0.000000,9104.533087
1205.872919,1072.533697,-296.082377,9252.574275
1205.873235,1378.971896,-296.082377,9844.739029
1205.873551,1072.533697,-74.020594,9474.636058
1205.873866,995.924147,-370.102971,9474.636058
1205.874182,536.266849,-0.000000,9104.533087
1205.874498,306.438199,-444.123565,10066.800811
1205.874814,919.314598,-1036.288319,10955.047942
1205.875129,842.705048,-74.020594,9400.615463
1205.875445,229.828649,222.061783,9770.718434
1205.875761,459.657299,-148.041188,9326.594869
1205.876077,383.047749,-1110.308913,9918.759623
1205.876392,1072.533697,-444.123565,10436.903782
1205.876708,1072.533697,-0.000000,9696.697840
1205.877024,536.266849,-0.000000,9326.594869
1205.877340,536.266849,-0.000000,10066.800811
1205.877655,995.924147,-296.082377,9992.780217
1205.877971,1455.581446,296.082377,8956.491898
1205.878287,1072.533697,814.226536,9770.718434
1205.878603,612.876398,-222.061783,9474.636058
1205.878919,1225.752797,-0.000000,9622.677246
1205.879234,1915.238745,-592.164754,9622.677246
1205.879550,1225.752797,296.082377,8438.347739
1205.879866,919.314598,740.205942,9992.780217
1205.880182,842.705048,-0.000000,9844.739029
1205.880497,1149.143247,370.102971,9622.677246
1205.880813,842.705048,-0.000000,9252.574275
1205.881129,0.000000,-0.000000,9918.759623
1205.881445,76.609550,296.082377,9474.636058
1205.881760,-383.047749,-74.020594,8290.306550
1205.882076,153.219100,-222.061783,9918.759623
1205.882392,0.000000,-1036.288319,10288.862594
1205.882708,-612.876398,-1036.288319,9622.677246
1205.883023,-689.485948,-370.102971,9770.718434
1205.883339,-459.657299,-444.123565,9104.533087
1205.883655,229.828649,-1184.329507,8808.450710
1205.883971,0.000000,-148.041188,9474.636058
1205.884286,-229.828649,-0.000000,9548.656652
1205.884602,459.657299,-444.123565,9104.533087
1205.884918,612.876398,-888.247130,9104.533087
1205.885234,383.047749,-592.164754,8364.327145
1205.885549,536.266849,222.061783,8586.388927
1205.885865,689.485948,-74.020594,7994.224174
1205.886181,459.657299,-518.144159,8882.471304
1205.886497,536.266849,-1628.453072,10732.986159
1205.886812,306.438199,-222.061783,8808.450710
1205.887128,-383.047749,148.041188,9030.512492
1205.887444,0.000000,-148.041188,9104.533087
1205.887760,383.047749,-592.164754,9104.533087
1205.888075,536.266849,-222.061783,9326.594869
1205.888391,-383.047749,296.082377,9104.533087
1205.888707,-459.657299,-814.226536,9622.677246
1205.889023,-306.438199,-1406.391290,9400.615463
1205.889338,76.609550,-444.123565,9844.739029
1205.889654,76.609550,-148.041188,9178.553681
1205.889970,0.000000,-296.082377,9918.759623
1205.890286,153.219100,-370.102971,9992.780217
1205.890601,536.266849,-74.020594,9474.636058
1205.890917,153.219100,222.061783,9252.574275
1205.891233,153.219100,518.144159,9992.780217
1205.891549,383.047749,370.102971,9474.636058
1205.891865,612.876398,444.123565,9474.636058
1205.892180,995.924147,-0.000000,9622.677246
1205.892496,842.705048,-0.000000,9548.656652
1205.892812,1225.752797,-74.020594,10288.862594
1205.893128,612.876398,-0.000000,9252.574275
1205.893443,842.705048,-148.041188,9400.615463
1205.893759,1225.752797,-74.020594,9696.697840
1205.894075,842.705048,-222.061783,10362.883188
1205.894391,612.876398,592.164754,9992.780217
1205.894706,766.095498,296.082377,9696.697840
1205.895022,1225.752797,-0.000000,8438.347739
1205.895338,1072.533697,370.102971,9326.594869
1205.895654,383.047749,-0.000000,10066.800811
1205.895969,383.047749,-370.102971,9770.718434
1205.896285,995.924147,-0.000000,9474.636058
1205.896601,229.828649,-518.144159,9104.533087
1205.896917,536.266849,296.082377,10140.821405
1205.897232,229.828649,-0.000000,8586.388927
1205.897548,306.438199,-74.020594,9326.594869
1205.897864,1072.533697,-444.123565,11103.089130
1205.898180,0.000000,-444.123565,8660.409521
1205.898495,153.219100,666.185348,9030.512492
1205.898811,-153.219100,296.082377,9474.636058
1205.899127,612.876398,-888.247130,9622.677246
1205.899443,689.485948,-444.123565,9474.636058
1205.899758,0.000000,-370.102971,9474.636058
1205.900074,0.000000,-666.185348,10066.800811
1205.900390,306.438199,-1184.329507,9918.759623
1205.900706,842.705048,-370.102971,9178.553681
1205.901021,842.705048,148.041188,9178.553681
1205.901337,536.266849,740.205942,8882.471304
1205.901653,306.438199,444.123565,7920.203579
1205.901969,1072.533697,-74.020594,9252.574275
1205.902284,689.485948,-592.164754,9326.594869
1205.902600,536.266849,-0.000000,8290.306550
1205.902916,-229.828649,-0.000000,9326.594869
1205.903232,76.609550,-1850.514855,10214.842000
1205.903547,76.609550,-1850.514855,10584.944971
1205.903863,-306.438199,-296.082377,9474.636058
1205.904179,-842.705048,-518.144159,9548.656652
1205.904495,-536.266849,-814.226536,9548.656652
1205.904811,536.266849,-370.102971,10140.821405
1205.905126,459.657299,-148.041188,8734.430116
1205.905442,0.000000,444.123565,8956.491898
1205.905758,0.000000,444.123565,8586.388927
1205.906074,153.219100,-592.164754,8882.471304
1205.906389,766.095498,-0.000000,9696.697840
1205.906705,229.828649,-444.123565,9844.739029
1205.907021,0.000000,-296.082377,9622.677246
1205.907337,0.000000,-518.144159,9252.574275
1205.907652,612.876398,-740.205942,10288.862594
1205.907968,383.047749,-74.020594,9474.636058
1205.908284,766.095498,-0.000000,9844.739029
1205.908600,689.485948,814.226536,9030.512492
1205.908915,612.876398,1406.391290,8808.450710
1205.909231,995.924147,888.247130,9030.512492
1205.909547,766.095498,370.102971,8734.430116
1205.909863,229.828649,-0.000000,9178.553681
1205.910178,-306.438199,-0.000000,9548.656652
1205.910494,-153.219100,-148.041188,9622.677246
1205.910810,0.000000,-962.267725,9474.636058
1205.911126,-612.876398,-592.164754,10288.862594
1205.911441,-766.095498,-740.205942,9992.780217
1205.911757,-612.876398,-0.000000,9178.553681
1205.912073,-229.828649,-0.000000,9992.780217
1205.912389,0.000000,148.041188,9622.677246
1205.912704,459.657299,814.226536,9030.512492
1205.913020,0.000000,148.041188,8660.409521
1205.913336,383.047749,-296.082377,9474.636058
1205.913652,766.095498,-1776.494261,9770.718434
1205.913967,612.876398,-444.123565,9326.594869
1205.914283,536.266849,-0.000000,9770.718434
1205.914599,1455.581446,518.144159,9474.636058
1205.914915,1149.143247,-0.000000,9622.677246
1205.915230,1149.143247,-0.000000,9178.553681
1205.915546,842.705048,222.061783,9696.697840
1205.915862,842.705048,148.041188,9622.677246
1205.916178,995.924147,-74.020594,9696.697840
1205.916493,1455.581446,222.061783,9474.636058
1205.916809,995.924147,-74.020594,9326.594869
1205.917125,229.828649,-0.000000,9622.677246
1205.917441,153.219100,-296.082377,9696.697840
1205.917756,306.438199,-518.144159,10066.800811
1205.918072,153.219100,-444.123565,9400.615463
1205.918388,76.609550,-74.020594,10066.800811
1205.918704,229.828649,-222.061783,9844.739029
1205.919020,612.876398,-592.164754,9548.656652
1205.919335,1225.752797,-74.020594,9474.636058
1205.919651,919.314598,-0.000000,9548.656652
1205.919967,689.485948,592.164754,9030.512492
1205.920283,459.657299,-148.041188,9400.615463
1205.920598,1149.143247,-148.041188,9770.718434
1205.920914,919.314598,-666.185348,9770.718434
1205.921230,229.828649,-148.041188,9622.677246
1205.921546,842.705048,-0.000000,9918.759623
1205.921861,459.657299,-666.185348,8882.471304
1205.922177,1225.752797,-666.185348,9474.636058
1205.922493,689.485948,-0.000000,9770.718434
1205.922809,536.266849,222.061783,8956.491898
1205.923124,306.438199,518.144159,9104.533087
1205.923440,842.705048,-592.164754,9252.574275
1205.923756,536.266849,-740.205942,8882.471304
1205.924072,76.609550,-74.020594,9474.636058
1205.924387,-229.828649,-666.185348,9918.759623
1205.924703,689.485948,-666.185348,9918.759623
1205.925019,153.219100,-888.247130,9104.533087
1205.925335,-306.438199,296.082377,8438.347739
1205.925650,-383.047749,-148.041188,9918.759623
1205.925966,229.828649,-666.185348,9548.656652
1205.926282,459.657299,-74.020594,9326.594869
1205.926598,306.438199,-296.082377,9622.677246
1205.926913,0.000000,-74.020594,8660.409521
1205.927229,0.000000,-0.000000,9178.553681
1205.927545,919.314598,-222.061783,9252.574275
1205.927861,612.876398,-962.267725,9104.533087
1205.928176,612.876398,-74.020594,9770.718434
1205.928492,153.219100,-370.102971,9030.512492
1205.928808,0.000000,-444.123565,9178.553681
1205.929124,1072.533697,-1554.432478,10955.047942
1205.929439,612.876398,-666.185348,8586.388927
1205.929755,153.219100,148.041188,9178.553681
1205.930071,306.438199,-666.185348,10436.903782
1205.930387,536.266849,-666.185348,9400.615463
1205.930702,919.314598,-444.123565,9400.615463
1205.931018,919.314598,-74.020594,8734.430116
1205.931334,76.609550,-518.144159,9622.677246
1205.931650,689.485948,-222.061783,9252.574275
1205.931966,689.485948,-740.205942,9474.636058
1205.932281,766.095498,-518.144159,9844.739029
1205.932597,459.657299,-0.000000,9918.759623
1205.932913,306.438199,-0.000000,8882.471304
1205.933229,306.438199,-592.164754,10140.821405
1205.933544,1302.362347,-888.247130,10584.944971
1205.933860,766.095498,-0.000000,8808.450710
1205.934176,153.219100,-0.000000,9918.759623
1205.934492,0.000000,-74.020594,10214.842000
1205.934807,229.828649,-148.041188,9474.636058
1205.935123,1072.533697,-296.082377,9178.553681
1205.935439,536.266849,-370.102971,10288.862594
1205.935755,612.876398,592.164754,9992.780217
1205.936070,1149.143247,370.102971,9178.553681
1205.936386,766.095498,-0.000000,9178.553681
1205.936702,1302.362347,-296.082377,9622.677246
1205.937018,459.657299,296.082377,8660.409521
1205.937333,612.876398,-0.000000,9548.656652
1205.937649,536.266849,-0.000000,9474.636058
1205.937965,1302.362347,296.082377,9252.574275
1205.938281,306.438199,1184.329507,8364.327145
1205.938597,76.609550,296.082377,9992.780217
1205.938912,689.485948,-370.102971,9474.636058
1205.939228,536.266849,-222.061783,9326.594869
1205.939544,153.219100,-370.102971,9696.697840
1205.939860,76.609550,-592.164754,9622.677246
1205.940175,-229.828649,-296.082377,9178.553681
1205.940491,229.828649,-0.000000,9770.718434
1205.940807,0.000000,-592.164754,9400.615463
1205.941123,-383.047749,-592.164754,9770.718434
1205.941438,-383.047749,-0.000000,9622.677246
1205.941754,76.609550,-666.185348,9400.615463
1205.942070,1072.533697,-592.164754,8808.450710
1205.942386,383.047749,-962.267725,9104.533087
1205.942702,76.609550,-1184.329507,10288.862594
1205.943017,229.828649,-740.205942,9474.636058
1205.943333,689.485948,-148.041188,9104.533087
1205.943649,1072.533697,-148.041188,8956.491898
1205.943965,536.266849,296.082377,8512.368333
1205.944280,1149.143247,296.082377,9696.697840
1205.944596,766.095498,-444.123565,9326.594869
1205.944912,995.924147,-444.123565,9030.512492
1205.945228,995.924147,-222.061783,9474.636058
1205.945543,-153.219100,370.102971,8512.368333
1205.945859,0.000000,-296.082377,9622.677246
1205.946175,536.266849,-666.185348,10510.924376
1205.946491,306.438199,-666.185348,8956.491898
1205.946807,-229.828649,-0.000000,9992.780217
1205.947122,-383.047749,-814.226536,9918.759623
1205.947438,-612.876398,-592.164754,9844.739029
1205.947754,459.657299,-148.041188,9844.739029
1205.948070,229.828649,222.061783,8882.471304
1205.948385,153.219100,444.123565,9696.697840
1205.948701,-153.219100,444.123565,9474.636058
1205.949017,766.095498,-0.000000,9474.636058
1205.949333,1072.533697,-592.164754,9548.656652
1205.949648,919.314598,-296.082377,9770.718434
1205.949964,766.095498,-222.061783,9622.677246
1205.950280,1072.533697,-148.041188,10214.842000
1205.950596,1915.238745,-222.061783,10362.883188
1205.950912,1762.019645,-0.000000,8068.244768
1205.951227,766.095498,1406.391290,8956.491898
1205.951543,536.266849,518.144159,9252.574275
1205.951859,842.705048,-370.102971,9844.739029
1205.952175,1149.143247,-222.061783,9252.574275
1205.952490,612.876398,-0.000000,9474.636058
1205.952806,0.000000,-148.041188,9474.636058
1205.953122,0.000000,-962.267725,9622.677246
1205.953438,0.000000,-666.185348,9400.615463
1205.953753,0.000000,-888.247130,9918.759623
1205.954069,-153.219100,296.082377,8956.491898
1205.954385,-459.657299,370.102971,9548.656652
1205.954701,-229.828649,-740.205942,9918.759623
1205.955017,0.000000,-814.226536,9992.780217
1205.955332,0.000000,-444.123565,8512.368333
1205.955648,-459.657299,148.041188,9030.512492
1205.955964,766.095498,-148.041188,9622.677246
1205.956280,842.705048,-814.226536,8734.430116
1205.956595,689.485948,-370.102971,8586.388927
1205.956911,536.266849,-222.061783,9992.780217
1205.957227,612.876398,-444.123565,8808.450710
1205.957543,995.924147,-0.000000,9178.553681
1205.957858,842.705048,-814.226536,9104.533087
1205.958174,766.095498,-370.102971,9474.636058
1205.958490,1225.752797,-370.102971,9548.656652
1205.958806,459.657299,-0.000000,8216.285956
1205.959122,1072.533697,-148.041188,10066.800811
1205.959437,1378.971896,-444.123565,9178.553681
1205.959753,842.705048,222.061783,8586.388927
1205.960069,0.000000,-0.000000,9844.739029
1205.960385,383.047749,-1258.350101,10584.944971
1205.960700,536.266849,-1110.308913,9548.656652
1205.961016,0.000000,-296.082377,9770.718434
1205.961332,0.000000,-518.144159,10288.862594
1205.961648,76.609550,-740.205942,10658.965565
1205.961963,919.314598,-0.000000,9918.759623
1205.962279,689.485948,-0.000000,8734.430116
1205.962595,153.219100,296.082377,9474.636058
1205.962911,0.000000,-148.041188,9548.656652
1205.963227,306.438199,-296.082377,9696.697840
1205.963542,1149.143247,-222.061783,9992.780217
1205.963858,1225.752797,-222.061783,9178.553681
1205.964174,766.095498,296.082377,9770.718434
1205.964490,995.924147,-888.247130,9918.759623
1205.964805,919.314598,-0.000000,9474.636058
1205.965121,1378.971896,222.061783,8882.471304
1205.965437,306.438199,148.041188,9104.533087
1205.965753,689.485948,222.061783,10066.800811
1205.966068,383.047749,-74.020594,9548.656652
1205.966384,459.657299,-0.000000,9474.636058
1205.966700,0.000000,-148.041188,9770.718434
1205.967016,-153.219100,-148.041188,9474.636058
1205.967332,-383.047749,222.061783,8882.471304
1205.967647,229.828649,-1184.329507,10214.842000
1205.967963,0.000000,-1036.288319,9622.677246
1205.968279,0.000000,148.041188,9252.574275
1205.968595,-536.266849,296.082377,8660.409521
1205.968910,919.314598,-444.123565,10214.842000
1205.969226,459.657299,-518.144159,9104.533087
1205.969542,689.485948,-0.000000,9622.677246
1205.969858,76.609550,666.185348,8956.491898
1205.970173,0.000000,296.082377,8808.450710
1205.970489,919.314598,444.123565,8882.471304
1205.970805,689.485948,444.123565,8290.306550
1205.971121,306.438199,444.123565,9474.636058
1205.971437,153.219100,-74.020594,9622.677246
1205.971752,0.000000,-1110.308913,9696.697840
1205.972068,229.828649,-962.267725,10510.924376
1205.972384,306.438199,-592.164754,9992.780217
1205.972700,153.219100,296.082377,8586.388927
1205.973015,229.828649,-0.000000,10140.821405
1205.973331,536.266849,-518.144159,10066.800811
1205.973647,229.828649,-370.102971,9400.615463
1205.973963,0.000000,-222.061783,9252.574275
1205.974278,0.000000,-592.164754,9622.677246
1205.974594,306.438199,-222.061783,9400.615463
1205.974910,612.876398,-1036.288319,10140.821405
1205.975226,76.609550,-518.144159,9548.656652
1205.975542,0.000000,444.123565,9844.739029
1205.975857,153.219100,-444.123565,9474.636058
1205.976173,306.438199,-592.164754,9474.636058
1205.976489,459.657299,-1184.329507,9696.697840
1205.976805,536.266849,-222.061783,9548.656652
1205.977120,153.219100,296.082377,9326.594869
1205.977436,0.000000,-592.164754,9918.759623
1205.977752,1072.533697,-814.226536,9844.739029
1205.978068,383.047749,-74.020594,8660.409521
1205.978383,153.219100,-518.144159,9400.615463
1205.978699,0.000000,-74.020594,9992.780217
1205.979015,612.876398,-296.082377,9104.533087
1205.979331,1608.800546,-148.041188,9326.594869
1205.979647,995.924147,148.041188,8734.430116
1205.979962,689.485948,148.041188,10066.800811
1205.980278,995.924147,-518.144159,10140.821405
1205.980594,919.314598,-0.000000,8586.388927
1205.980910,995.924147,296.082377,9474.636058
1205.981225,842.705048,-222.061783,9178.553681
1205.981541,0.000000,-74.020594,8808.450710
1205.981857,459.657299,-0.000000,9844.739029
1205.982173,995.924147,-1036.288319,9770.718434
1205.982488,459.657299,-148.041188,9252.574275
1205.982804,-383.047749,296.082377,9474.636058
1205.983120,76.609550,-666.185348,9326.594869
1205.983436,842.705048,-1036.288319,9992.780217
1205.983752,842.705048,-1184.329507,10140.821405
1205.984067,1149.143247,-888.247130,10140.821405
1205.984383,306.438199,-666.185348,10362.883188
1205.984699,1072.533697,-740.205942,9400.615463
1205.985015,2221.676944,-1258.350101,8438.347739
1205.985330,1608.800546,518.144159,9178.553681
1205.985646,1685.410096,222.061783,9474.636058
1205.985962,1608.800546,-0.000000,8068.244768
1205.986278,2068.457845,-148.041188,9030.512492
1205.986593,1532.190996,-1184.329507,8956.491898
1205.986909,689.485948,-814.226536,9326.594869
1205.987225,0.000000,-1110.308913,9178.553681
1205.987541,459.657299,-1924.535449,10955.047942
1205.987857,153.219100,-2220.617826,10066.800811
1205.988172,-689.485948,-1184.329507,9474.636058
1205.988488,-1455.581446,-1184.329507,10732.986159
1205.988804,-1455.581446,-2220.617826,10436.903782
1205.989120,-919.314598,-2146.597232,10955.047942
1205.989435,-689.485948,-1036.288319,9770.718434
1205.989751,-995.924147,-888.247130,9622.677246
1205.990067,76.609550,-1110.308913,10214.842000
1205.990383,0.000000,-962.267725,8512.368333
1205.990698,1302.362347,-740.205942,8586.388927
1205.991014,1838.629195,-1184.329507,9474.636058
1205.991330,1608.800546,-1036.288319,9474.636058
1205.991646,1455.581446,-518.144159,8956.491898
1205.991962,1762.019645,-814.226536,9474.636058
1205.992277,2451.505594,-1332.370696,9252.574275
1205.992593,1302.362347,-296.082377,9474.636058
1205.992909,1225.752797,-444.123565,9474.636058
1205.993225,1378.971896,-518.144159,8586.388927
1205.993540,1608.800546,-1406.391290,8956.491898
1205.993856,1532.190996,-1702.473667,9770.718434
1205.994172,1225.752797,-1924.535449,9770.718434
1205.994488,689.485948,-1776.494261,9696.697840
1205.994803,689.485948,-2368.659014,10214.842000
1205.995119,1608.800546,-2886.803174,10436.903782
1205.995435,2145.067394,-1998.556043,9696.697840
1205.995751,2068.457845,-1110.308913,9474.636058
1205.996067,2451.505594,-962.267725,8438.347739
1205.996382,3447.429741,-1702.473667,8882.471304
1205.996698,4290.134789,-2146.597232,9696.697840
1205.997014,4366.744339,-666.185348,7994.224174
1205.997330,3753.867940,-740.205942,8438.347739
1205.997645,3447.429741,-1036.288319,8290.306550
1205.997961,3600.648841,-1184.329507,9400.615463
1205.998277,3753.867940,-1258.350101,9622.677246
1205.998593,2834.553343,-296.082377,8882.471304
1205.998908,1915.238745,-1258.350101,8734.430116
1205.999224,1532.190996,-2738.761985,9844.739029
1205.999540,1608.800546,-2442.679609,10510.924376
1205.999856,1915.238745,-2812.782580,10584.944971
1206.000172,995.924147,-2516.700203,9992.780217
1206.000487,536.266849,-2368.659014,9992.780217
1206.000803,842.705048,-3108.864956,9696.697840
1206.001119,2068.457845,-3923.091493,11029.068536
1206.001435,2374.896044,-2812.782580,10955.047942
1206.001750,2604.724693,-1850.514855,9474.636058
1206.002066,2681.334243,-2072.576638,9104.533087
1206.002382,3217.601092,-2294.638420,9548.656652
1206.002698,4596.572988,-2368.659014,9474.636058
1206.003013,4979.620737,-74.020594,8808.450710
1206.003329,4596.572988,-148.041188,7179.997637
1206.003645,4290.134789,-1480.411884,8660.409521
1206.003961,4136.915689,-2738.761985,9030.512492
1206.004277,4136.915689,-2590.720797,9844.739029
1206.004592,4136.915689,-1998.556043,10214.842000
1206.004908,3217.601092,-1924.535449,8512.368333
1206.005224,2834.553343,-2294.638420,8882.471304
1206.005540,2145.067394,-2664.741391,10214.842000
1206.005855,1991.848295,-2590.720797,10510.924376
1206.006171,1915.238745,-1850.514855,9918.759623
1206.006487,1762.019645,-1628.453072,9104.533087
1206.006803,1302.362347,-2590.720797,9622.677246
1206.007118,1225.752797,-3478.967927,11399.171507
1206.007434,1378.971896,-2738.761985,10732.986159
1206.007750,1608.800546,-1406.391290,9400.615463
1206.008066,2374.896044,-888.247130,8512.368333
1206.008382,2451.505594,-1554.432478,8808.450710
1206.008697,3447.429741,-2146.597232,9474.636058
1206.009013,3447.429741,-2590.720797,9548.656652
1206.009329,2987.772442,-2146.597232,8734.430116
1206.009645,3907.087040,-1850.514855,8882.471304
1206.009960,3830.477490,-1924.535449,8660.409521
1206.010276,3983.696590,-1924.535449,8808.450710
1206.010592,3677.258390,-2146.597232,8734.430116
1206.010908,2757.943793,-2294.638420,9030.512492
1206.011223,1991.848295,-2442.679609,9326.594869
1206.011539,2604.724693,-2812.782580,9696.697840
1206.011855,1455.581446,-2664.741391,9696.697840
1206.012171,1455.581446,-2368.659014,9844.739029
1206.012487,1302.362347,-2738.761985,9696.697840
1206.012802,1072.533697,-3404.947333,9548.656652
1206.013118,536.266849,-3330.926739,10214.842000
1206.013434,1072.533697,-2442.679609,9474.636058
1206.013750,1455.581446,-2442.679609,9474.636058
1206.014065,1838.629195,-1998.556043,9104.533087
1206.014381,2068.457845,-2368.659014,9474.636058
1206.014697,2834.553343,-2960.823768,9696.697840
1206.015013,2604.724693,-2368.659014,9104.533087
1206.015328,2451.505594,-1258.350101,8438.347739
1206.015644,2987.772442,-1110.308913,8734.430116
1206.015960,3677.258390,-1036.288319,9474.636058
1206.016276,3524.039291,-1258.350101,9474.636058
1206.016592,3140.991542,-1924.535449,9104.533087
1206.016907,3064.381992,-2590.720797,9474.636058
1206.017223,2987.772442,-2590.720797,9548.656652
1206.017539,2987.772442,-1776.494261,9474.636058
1206.017855,2757.943793,-2146.597232,9918.759623
1206.018170,2681.334243,-1998.556043,10732.986159
1206.018486,2374.896044,-1702.473667,9474.636058
1206.018802,2145.067394,-2220.617826,9474.636058
1206.019118,2604.724693,-2738.761985,10066.800811
1206.019433,2834.553343,-2442.679609,9770.718434
1206.019749,2834.553343,-1628.453072,9548.656652
1206.020065,2834.553343,-1776.494261,9992.780217
1206.020381,3064.381992,-2072.576638,9918.759623
1206.020697,3217.601092,-2590.720797,9770.718434
1206.021012,2834.553343,-2220.617826,9252.574275
1206.021328,3140.991542,-2516.700203,9770.718434
1206.021644,3524.039291,-2072.576638,9770.718434
1206.021960,3600.648841,-1850.514855,9326.594869
1206.022275,3064.381992,-1998.556043,9622.677246
1206.022591,3217.601092,-2294.638420,9622.677246
1206.022907,2834.553343,-2960.823768,9474.636058
1206.023223,2528.115143,-3034.844362,9622.677246
1206.023538,2834.553343,-2960.823768,9622.677246
1206.023854,2451.505594,-2738.761985,9548.656652
1206.024170,2528.115143,-3108.864956,10140.821405
1206.024486,2528.115143,-3108.864956,10066.800811
1206.024802,2374.896044,-2738.761985,9474.636058
1206.025117,2374.896044,-2368.659014,9548.656652
1206.025433,2528.115143,-2664.741391,9918.759623
1206.025749,3140.991542,-2368.659014,9178.553681
1206.026065,2681.334243,-2072.576638,9030.512492
1206.026380,2528.115143,-1924.535449,8808.450710
1206.026696,2987.772442,-1850.514855,8586.388927
1206.027012,2987.772442,-1924.535449,8808.450710
1206.027328,2451.505594,-1924.535449,8660.409521
1206.027643,1915.238745,-2146.597232,9178.553681
1206.027959,1762.019645,-2368.659014,9992.780217
1206.028275,1302.362347,-3256.906145,10140.821405
1206.028591,1838.629195,-2368.659014,9696.697840
1206.028907,1762.019645,-1924.535449,9030.512492
1206.029222,1608.800546,-1776.494261,8734.430116
1206.029538,1838.629195,-1628.453072,8956.491898
1206.029854,1838.629195,-1776.494261,9252.574275
1206.030170,1991.848295,-1554.432478,9030.512492
1206.030485,2145.067394,-1998.556043,9474.636058
1206.030801,1762.019645,-2368.659014,9474.636058
1206.031117,2374.896044,-2664.741391,9622.677246
1206.031433,2604.724693,-2960.823768,9622.677246
1206.031748,3140.991542,-2294.638420,9622.677246
1206.032064,3217.601092,-1776.494261,9252.574275
1206.032380,2987.772442,-1258.350101,9030.512492
1206.032696,3447.429741,-592.164754,8882.471304
1206.033012,3753.867940,-74.020594,8734.430116
1206.033327,3370.820191,222.061783,8882.471304
1206.033643,2987.772442,-888.247130,9326.594869
1206.033959,2298.286494,-2146.597232,10066.800811
1206.034275,2068.457845,-3330.926739,10510.924376
1206.034590,1838.629195,-3849.070898,10807.006753
1206.034906,1685.410096,-3256.906145,10584.944971
1206.035222,1838.629195,-2220.617826,9992.780217
1206.035538,1838.629195,-1332.370696,9918.759623
1206.035853,1838.629195,-1332.370696,9918.759623
1206.036169,1915.238745,-814.226536,9474.636058
1206.036485,2145.067394,-296.082377,9474.636058
1206.036801,1991.848295,-1406.391290,9326.594869
1206.037117,2451.505594,-1998.556043,9548.656652
1206.037433,2757.943793,-3034.844362,10214.842000
1206.037748,3064.381992,-3923.091493,10214.842000
1206.038064,2757.943793,-3997.112087,10362.883188
1206.038380,3140.991542,-3627.009116,10288.862594
1206.038696,2834.553343,-3478.967927,10214.842000
1206.039012,3370.820191,-2886.803174,9992.780217
1206.039328,3524.039291,-1480.411884,9474.636058
1206.039643,3447.429741,-592.164754,8882.471304
1206.039959,3294.210641,-222.061783,8216.285956
1206.040275,3524.039291,-0.000000,7846.182985
1206.040591,2911.162892,-370.102971,8142.265362
1206.040907,2068.457845,-1184.329507,8216.285956
1206.041223,1455.581446,-1998.556043,9178.553681
1206.041538,1072.533697,-3552.988522,10066.800811
1206.041854,153.219100,-4737.318029,10807.006753
1206.042170,0.000000,-5477.523971,11621.233289
1206.042486,766.095498,-5699.585753,11917.315666
1206.042802,995.924147,-4589.276840,11695.253884
1206.043118,2068.457845,-3330.926739,10732.986159
1206.043433,2987.772442,-2368.659014,9770.718434
1206.043749,4596.572988,-1776.494261,8882.471304
1206.044065,5056.230287,-888.247130,7772.162391
1206.044381,5592.497135,-592.164754,6957.935855
1206.044697,5592.497135,-222.061783,6217.729913
1206.045013,5132.839837,-296.082377,6735.874072
1206.045328,4290.134789,-666.185348,7254.018232
1206.045644,3294.210641,-1184.329507,7624.121203
1206.045960,1762.019645,-1998.556043,8734.430116
1206.046276,536.266849,-3182.885551,9770.718434
1206.046592,-153.219100,-3923.091493,11103.089130
1206.046908,-919.314598,-5107.421000,11695.253884
1206.047223,-229.828649,-5699.585753,11843.295072
1206.047539,0.000000,-5477.523971,11695.253884
1206.047855,383.047749,-5107.421000,11399.171507
1206.048171,1455.581446,-4219.173869,11029.068536
1206.048487,2374.896044,-3330.926739,9992.780217
1206.048803,3294.210641,-2220.617826,8586.388927
1206.049118,4366.744339,-444.123565,7772.162391
1206.049434,5056.230287,518.144159,7105.977043
1206.049750,5439.278036,814.226536,6735.874072
1206.050066,5592.497135,222.061783,6957.935855
1206.050382,5362.668486,-370.102971,7476.080014
1206.050698,4136.915689,-1924.535449,8364.327145
1206.051013,3140.991542,-2886.803174,9474.636058
1206.051329,2145.067394,-3330.926739,10436.903782
1206.051645,1378.971896,-3627.009116,10955.047942
1206.051961,689.485948,-3627.009116,11399.171507
1206.052277,0.000000,-3330.926739,11251.130318
1206.052593,-153.219100,-2960.823768,10955.047942
1206.052908,306.438199,-3330.926739,10510.924376
1206.053224,536.266849,-2442.679609,10510.924376
1206.053540,1378.971896,-1850.514855,9474.636058
1206.053856,2298.286494,-1554.432478,9104.533087
1206.054172,3217.601092,-1480.411884,8734.430116
1206.054488,3447.429741,-1406.391290,8956.491898
1206.054803,3600.648841,-1628.453072,9030.512492
1206.055119,3370.820191,-1924.535449,9252.574275
1206.055435,3294.210641,-1924.535449,9252.574275
1206.055751,2681.334243,-1850.514855,9918.759623
1206.056067,3140.991542,-1480.411884,9918.759623
1206.056382,3064.381992,-1184.329507,9844.739029
1206.056698,2604.724693,-814.226536,9622.677246
1206.057014,2681.334243,-962.267725,9474.636058
1206.057330,3447.429741,-1702.473667,9696.697840
1206.057646,3217.601092,-1924.535449,9622.677246
1206.057962,2604.724693,-1924.535449,9696.697840
1206.058277,2681.334243,-1776.494261,9474.636058
1206.058593,2528.115143,-1776.494261,9400.615463
1206.058909,2374.896044,-1628.453072,9474.636058
1206.059225,1915.238745,-1628.453072,9622.677246
1206.059541,1838.629195,-1554.432478,9844.739029
1206.059857,1455.581446,-2072.576638,10066.800811
1206.060172,1532.190996,-1628.453072,9992.780217
1206.060488,1302.362347,-1554.432478,9548.656652
1206.060804,1455.581446,-962.267725,9178.553681
1206.061120,1302.362347,-370.102971,8586.388927
1206.061436,1455.581446,-370.102971,8586.388927
1206.061752,1762.019645,-1036.288319,8734.430116
1206.062067,1072.533697,-1258.350101,8956.491898
1206.062383,842.705048,-1554.432478,9400.615463
1206.062699,1149.143247,-1850.514855,9400.615463
1206.063015,1378.971896,-1776.494261,9474.636058
1206.063331,1762.019645,-1776.494261,9770.718434
1206.063647,1838.629195,-1850.514855,9696.697840
1206.063962,2451.505594,-1924.535449,9770.718434
1206.064278,2604.724693,-1776.494261,9696.697840
1206.064594,2528.115143,-1924.535449,9622.677246
1206.064910,2681.334243,-1480.411884,9622.677246
1206.065226,2451.505594,-1184.329507,9696.697840
1206.065542,2528.115143,-814.226536,9548.656652
1206.065857,2757.943793,-1184.329507,9622.677246
1206.066173,3140.991542,-1258.350101,9844.739029
1206.066489,3370.820191,-1406.391290,9770.718434
1206.066805,3524.039291,-1998.556043,9770.718434
1206.067121,3753.867940,-2368.659014,9548.656652
1206.067437,4213.525239,-2516.700203,9918.759623
1206.067752,4290.134789,-2812.782580,10140.821405
1206.068068,4366.744339,-3404.947333,10214.842000
1206.068384,4366.744339,-3330.926739,10288.862594
1206.068700,3983.696590,-3404.947333,9992.780217
1206.069016,3677.258390,-3552.988522,9918.759623
1206.069332,3983.696590,-2738.761985,10140.821405
1206.069647,3294.210641,-2960.823768,9918.759623
1206.069963,3524.039291,-3108.864956,9474.636058
1206.070279,3524.039291,-3034.844362,9178.553681
1206.070595,3217.601092,-3552.988522,8956.491898
1206.070911,3370.820191,-4367.215058,9030.512492
1206.071227,2681.334243,-4293.194464,9622.677246
1206.071542,2451.505594,-4811.338623,9696.697840
1206.071858,2221.676944,-4959.379811,9992.780217
1206.072174,2068.457845,-5329.482782,10140.821405
1206.072490,2221.676944,-5181.441594,9918.759623
1206.072806,1991.848295,-4737.318029,9992.780217
1206.073122,2221.676944,-3849.070898,9252.574275
1206.073437,2681.334243,-3627.009116,9104.533087
1206.073753,2987.772442,-3108.864956,8882.471304
1206.074069,2987.772442,-2294.638420,8142.265362
1206.074385,3140.991542,-2590.720797,7994.224174
1206.074701,3064.381992,-2738.761985,8586.388927
1206.075017,2681.334243,-3552.988522,8882.471304
1206.075332,3064.381992,-3923.091493,9178.553681
1206.075648,2681.334243,-4293.194464,9696.697840
1206.075964,2451.505594,-4367.215058,9400.615463
1206.076280,2681.334243,-4145.153275,9622.677246
1206.076596,3217.601092,-3404.947333,9252.574275
1206.076911,2987.772442,-2368.659014,9104.533087
1206.077227,2911.162892,-1184.329507,8290.306550
1206.077543,2451.505594,-222.061783,7772.162391
1206.077859,2528.115143,-370.102971,7846.182985
1206.078175,1762.019645,-592.164754,7846.182985
1206.078491,1532.190996,-444.123565,7994.224174
1206.078806,842.705048,-1184.329507,8808.450710
1206.079122,459.657299,-2442.679609,9178.553681
1206.079438,383.047749,-3330.926739,10584.944971
1206.079754,229.828649,-3701.029710,10955.047942
1206.080070,306.438199,-4071.132681,11251.130318
1206.080386,995.924147,-3997.112087,11251.130318
1206.080701,1915.238745,-3478.967927,11177.109724
1206.081017,2604.724693,-2442.679609,10658.965565
1206.081333,3447.429741,-1110.308913,9326.594869
1206.081649,4673.182538,222.061783,8512.368333
1206.081965,4979.620737,962.267725,7179.997637
1206.082281,4826.401637,1628.453072,7105.977043
1206.082596,4443.353888,1554.432478,7476.080014
1206.082912,3524.039291,1406.391290,7624.121203
1206.083228,2834.553343,592.164754,8438.347739
1206.083544,1455.581446,-0.000000,9474.636058
1206.083860,306.438199,-1554.432478,10510.924376
1206.084176,-383.047749,-2590.720797,11547.212695
1206.084491,-1072.533697,-3849.070898,12435.459826
1206.084807,-1532.190996,-4515.256246,13249.686362
1206.085123,-842.705048,-4589.276840,13027.624579
1206.085439,153.219100,-3701.029710,12509.480420
1206.085755,1072.533697,-2738.761985,11769.274478
1206.086071,2221.676944,-1406.391290,10732.986159
1206.086386,2911.162892,-0.000000,8956.491898
1206.086702,4903.011187,1480.411884,8068.244768
1206.087018,5975.544884,2442.679609,7254.018232
1206.087334,6358.592633,3034.844362,6957.935855
1206.087650,6665.030833,2886.803174,7031.956449
1206.087966,5745.716235,1036.288319,7846.182985
1206.088281,4366.744339,-444.123565,8882.471304
1206.088597,3294.210641,-2146.597232,10362.883188
1206.088913,2145.067394,-3627.009116,11843.295072
1206.089229,1302.362347,-4293.194464,12213.398043
1206.089545,0.000000,-4293.194464,12657.521608
1206.089861,0.000000,-3404.947333,12065.356855
1206.090176,459.657299,-2590.720797,11399.171507
1206.090492,1149.143247,-1776.494261,10881.027347
1206.090808,2221.676944,-1628.453072,9992.780217
1206.091124,2757.943793,-1628.453072,9104.533087
1206.091440,3677.258390,-1776.494261,9178.553681
1206.091756,4903.011187,-2072.576638,8290.306550
1206.092071,4979.620737,-2072.576638,8216.285956
1206.092387,5515.887586,-2516.700203,8142.265362
1206.092703,5209.449386,-3404.947333,8438.347739
1206.093019,5132.839837,-3849.070898,9400.615463
1206.093335,4673.182538,-3701.029710,9178.553681
1206.093651,4826.401637,-2886.803174,9104.533087
1206.093966,3907.087040,-2146.597232,8438.347739
1206.094282,3370.820191,-2146.597232,8438.347739
1206.094598,2681.334243,-2738.761985,8882.471304
1206.094914,2298.286494,-3627.009116,8882.471304
1206.095230,1455.581446,-4145.153275,9252.574275
1206.095546,919.314598,-4959.379811,9326.594869
1206.095861,689.485948,-5625.565159,9474.636058
1206.096177,842.705048,-5181.441594,9622.677246
1206.096493,919.314598,-4219.173869,8956.491898
1206.096809,842.705048,-3775.050304,9178.553681
1206.097125,612.876398,-4145.153275,9474.636058
1206.097440,1455.581446,-3849.070898,9622.677246
1206.097756,2451.505594,-3478.967927,9030.512492
1206.098072,2221.676944,-3330.926739,8956.491898
1206.098388,2834.553343,-3478.967927,8586.388927
1206.098704,3447.429741,-3330.926739,8216.285956
1206.099020,3600.648841,-2664.741391,7920.203579
1206.099335,3294.210641,-2294.638420,7772.162391
1206.099651,3064.381992,-2072.576638,8512.368333
1206.099967,2681.334243,-2516.700203,8512.368333
1206.100283,2757.943793,-1998.556043,8586.388927
1206.100599,2528.115143,-1332.370696,8512.368333
1206.100915,2298.286494,-1924.535449,8660.409521
1206.101230,2145.067394,-2220.617826,9326.594869
1206.101546,1455.581446,-2368.659014,9622.677246
1206.101862,383.047749,-2516.700203,9622.677246
1206.102178,383.047749,-3256.906145,10362.883188
1206.102494,76.609550,-3256.906145,11325.150913
1206.102810,-153.219100,-3404.947333,10510.924376
1206.103125,229.828649,-3182.885551,10658.965565
1206.103441,1225.752797,-3034.844362,10881.027347
1206.103757,2298.286494,-2368.659014,10584.944971
1206.104073,3294.210641,-1628.453072,9474.636058
1206.104389,4366.744339,-888.247130,9252.574275
1206.104705,5132.839837,-518.144159,8068.244768
1206.105020,6052.154434,-222.061783,8290.306550
1206.105336,6358.592633,-370.102971,8216.285956
1206.105652,5745.716235,-148.041188,8512.368333
1206.105968,5362.668486,-444.123565,8808.450710
1206.106284,4366.744339,-740.205942,9918.759623
1206.106600,3447.429741,-592.164754,10140.821405
1206.106915,1991.848295,-518.144159,10436.903782
1206.107231,842.705048,-962.267725,10510.924376
1206.107547,536.266849,-1924.535449,11325.150913
1206.107863,0.000000,-2368.659014,11843.295072
1206.108179,0.000000,-2886.803174,11843.295072
1206.108495,383.047749,-3404.947333,11769.274478
1206.108810,536.266849,-2664.741391,11473.192101
1206.109126,1455.581446,-2812.782580,11251.130318
1206.109442,2604.724693,-2220.617826,10584.944971
1206.109758,3370.820191,-888.247130,9326.594869
1206.110074,3907.087040,-296.082377,9030.512492
1206.110390,4979.620737,-518.144159,8956.491898
1206.110705,4979.620737,296.082377,7994.224174
1206.111021,5592.497135,-0.000000,8216.285956
1206.111337,5132.839837,-666.185348,7994.224174
1206.111653,3830.477490,-444.123565,8512.368333
1206.111969,3064.381992,-666.185348,8734.430116
1206.112285,2451.505594,-962.267725,9030.512492
1206.112600,1685.410096,-1184.329507,9770.718434
1206.112916,766.095498,-2146.597232,10732.986159
1206.113232,76.609550,-3330.926739,10955.047942
1206.113548,-766.095498,-3923.091493,10807.006753
1206.113864,-459.657299,-4145.153275,11251.130318
1206.114180,306.438199,-4071.132681,10584.944971
1206.114495,1685.410096,-3330.926739,10658.965565
1206.114811,2145.067394,-2664.741391,9474.636058
1206.115127,2987.772442,-2146.597232,8882.471304
1206.115443,3753.867940,-3182.885551,8364.327145
1206.115759,4136.915689,-1776.494261,7772.162391
1206.116075,4903.011187,-296.082377,6735.874072
1206.116390,5286.058936,-518.144159,7179.997637
1206.116706,4290.134789,-0.000000,6513.812290
1206.117022,3753.867940,-1036.288319,7994.224174
1206.117338,3217.601092,-2220.617826,8512.368333
1206.117654,2374.896044,-2812.782580,8734.430116
1206.117969,2145.067394,-3256.906145,9030.512492
1206.118285,1455.581446,-4441.235652,9474.636058
1206.118601,0.000000,-4589.276840,10436.903782
1206.118917,306.438199,-4663.297435,11029.068536
1206.119233,459.657299,-3404.947333,9992.780217
1206.119549,383.047749,-2812.782580,9992.780217
1206.119864,612.876398,-2516.700203,9844.739029
1206.120180,1149.143247,-1924.535449,9178.553681
1206.120496,1915.238745,-2294.638420,8882.471304
1206.120812,3524.039291,-2294.638420,10066.800811
1206.121128,3753.867940,-2072.576638,8808.450710
1206.121444,3983.696590,-1036.288319,8142.265362
1206.121759,4060.306139,-1924.535449,8068.244768
1206.122075,4136.915689,-1702.473667,8734.430116
1206.122391,4136.915689,-888.247130,9474.636058
1206.122707,4443.353888,-666.185348,9178.553681
1206.123023,3524.039291,-370.102971,9548.656652
1206.123339,2451.505594,-592.164754,8882.471304
1206.123654,1762.019645,-1332.370696,9696.697840
1206.123970,1685.410096,-1776.494261,10214.842000
1206.124286,1991.848295,-1258.350101,10658.965565
1206.124602,766.095498,-1110.308913,9178.553681
1206.124918,-383.047749,-1924.535449,10584.944971
1206.125234,-306.438199,-2960.823768,11695.253884
1206.125549,0.000000,-3182.885551,11917.315666
1206.125865,689.485948,-1406.391290,11325.150913
1206.126181,0.000000,-1036.288319,10140.821405
1206.126497,-229.828649,-888.247130,9622.677246
1206.126813,689.485948,-1702.473667,10584.944971
1206.127129,1378.971896,-1702.473667,10807.006753
1206.127444,1991.848295,-1258.350101,10140.821405
1206.127760,2221.676944,-0.000000,9104.533087
1206.128076,1685.410096,444.123565,7624.121203
1206.128392,2068.457845,370.102971,8438.347739
1206.128708,3907.087040,1258.350101,9474.636058
1206.129024,2911.162892,1924.535449,7550.100608
1206.129339,612.876398,2220.617826,7698.141797
1206.129655,153.219100,-0.000000,9844.739029
1206.129971,76.609550,-2294.638420,9992.780217
1206.130287,229.828649,-1628.453072,10955.047942
1206.130603,-536.266849,-2072.576638,11029.068536
1206.130919,-1302.362347,-2072.576638,10732.986159
1206.131234,-919.314598,-1850.514855,10881.027347
1206.131550,-229.828649,-1776.494261,11029.068536
1206.131866,383.047749,-74.020594,9548.656652
1206.132182,-153.219100,740.205942,8956.491898
1206.132498,0.000000,962.267725,8290.306550
1206.132814,995.924147,814.226536,8290.306550
1206.133129,2221.676944,814.226536,8734.430116
1206.133445,1838.629195,1850.514855,7402.059420
1206.133761,842.705048,1924.535449,6883.915261
1206.134077,1532.190996,962.267725,8216.285956
1206.134393,536.266849,-518.144159,7994.224174
1206.134709,689.485948,-74.020594,10140.821405
1206.135024,76.609550,-148.041188,10066.800811
1206.135340,-1608.800546,-814.226536,9400.615463
1206.135656,-1685.410096,-1480.411884,10807.006753
1206.135972,-1455.581446,-1554.432478,11103.089130
1206.136288,-995.924147,-740.205942,10658.965565
1206.136604,-1455.581446,-0.000000,9918.759623
1206.136919,-995.924147,592.164754,9326.594869
1206.137235,0.000000,-0.000000,9252.574275
1206.137551,383.047749,888.247130,9696.697840
1206.137867,383.047749,1924.535449,8216.285956
1206.138182,229.828649,1480.411884,8438.347739
1206.138498,689.485948,888.247130,9474.636058
1206.138814,766.095498,222.061783,9548.656652
1206.139130,536.266849,518.144159,9326.594869
1206.139445,0.000000,666.185348,9326.594869
1206.139761,-766.095498,-0.000000,9252.574275
1206.140077,229.828649,-740.205942,9992.780217
1206.140393,612.876398,-370.102971,10288.862594
1206.140709,0.000000,-888.247130,11251.130318
1206.141024,-1072.533697,-0.000000,9696.697840
1206.141340,153.219100,-370.102971,9696.697840
1206.141656,612.876398,-1258.350101,9918.759623
1206.141972,842.705048,-74.020594,9548.656652
1206.142287,1149.143247,222.061783,9474.636058
1206.142603,1149.143247,-222.061783,9104.533087
1206.142919,995.924147,-1110.308913,9696.697840
1206.143235,1608.800546,-1332.370696,9770.718434
1206.143550,995.924147,-666.185348,9326.594869
1206.143866,536.266849,-370.102971,9548.656652
1206.144182,612.876398,-962.267725,9918.759623
1206.144498,1532.190996,-74.020594,9326.594869
1206.144813,1225.752797,-518.144159,8956.491898
1206.145129,842.705048,-148.041188,9474.636058
1206.145445,919.314598,-592.164754,8808.450710
1206.145761,1072.533697,-740.205942,8956.491898
1206.146077,1378.971896,-1110.308913,9770.718434
1206.146392,1225.752797,-1036.288319,9400.615463
1206.146708,383.047749,-666.185348,9400.615463
1206.147024,842.705048,-148.041188,9474.636058
1206.147340,306.438199,-1554.432478,9400.615463
1206.147655,383.047749,-1776.494261,9770.718434
1206.147971,0.000000,-1702.473667,11103.089130
1206.148287,-766.095498,-1628.453072,9844.739029
1206.148603,-229.828649,-962.267725,8882.471304
1206.148918,76.609550,-1258.350101,8956.491898
1206.149234,0.000000,-1184.329507,9918.759623
1206.149550,76.609550,740.205942,9474.636058
1206.149866,0.000000,148.041188,7994.224174
1206.150182,306.438199,-962.267725,9178.553681
1206.150497,459.657299,-1258.350101,10066.800811
1206.150813,842.705048,-814.226536,9252.574275
1206.151129,536.266849,-222.061783,8882.471304
1206.151445,1302.362347,296.082377,8956.491898
1206.151760,2068.457845,-0.000000,9104.533087
1206.152076,1608.800546,740.205942,8438.347739
1206.152392,76.609550,592.164754,8438.347739
1206.152708,-306.438199,-0.000000,9474.636058
1206.153023,229.828649,-962.267725,9918.759623
1206.153339,229.828649,-592.164754,9252.574275
1206.153655,-842.705048,-0.000000,9918.759623
1206.153971,-766.095498,-666.185348,10214.842000
1206.154287,-1302.362347,-444.123565,9770.718434
1206.154602,0.000000,-1036.288319,9474.636058
1206.154918,-383.047749,-1406.391290,10214.842000
1206.155234,-766.095498,296.082377,9622.677246
1206.155550,-306.438199,-74.020594,8290.306550
1206.155865,995.924147,-148.041188,10288.862594
1206.156181,919.314598,148.041188,8956.491898
1206.156497,153.219100,-222.061783,9548.656652
1206.156813,536.266849,-0.000000,9326.594869
1206.157128,689.485948,370.102971,8660.409521
1206.157444,1225.752797,962.267725,8808.450710
1206.157760,1072.533697,962.267725,8808.450710
1206.158076,0.000000,296.082377,9252.574275
1206.158392,0.000000,-0.000000,10140.821405
1206.158707,-153.219100,-666.185348,10881.027347
1206.159023,306.438199,-518.144159,10732.986159
1206.159339,-459.657299,-0.000000,10955.047942
1206.159655,-842.705048,814.226536,8734.430116
1206.159970,0.000000,370.102971,10510.924376
1206.160286,536.266849,-0.000000,9696.697840
1206.160602,842.705048,518.144159,9474.636058
1206.160918,612.876398,962.267725,9622.677246
1206.161233,612.876398,962.267725,9104.533087
1206.161549,1072.533697,1036.288319,9178.553681
1206.161865,919.314598,814.226536,9622.677246
1206.162181,689.485948,888.247130,9696.697840
1206.162497,153.219100,1036.288319,9474.636058
1206.162812,153.219100,888.247130,9696.697840
1206.163128,1378.971896,-74.020594,9770.718434
1206.163444,229.828649,-148.041188,9844.739029
1206.163760,536.266849,370.102971,9918.759623
1206.164075,-306.438199,-518.144159,9992.780217
1206.164391,919.314598,-1184.329507,11251.130318
1206.164707,689.485948,-814.226536,10362.883188
1206.165023,689.485948,370.102971,9770.718434
1206.165338,995.924147,888.247130,8882.471304
1206.165654,1225.752797,-0.000000,9474.636058
1206.165970,2145.067394,-0.000000,9030.512492
1206.166286,2451.505594,222.061783,8956.491898
1206.166602,1685.410096,1036.288319,8364.327145
1206.166917,1378.971896,222.061783,8512.368333
1206.167233,1685.410096,-518.144159,9770.718434
1206.167549,1608.800546,-1110.308913,9178.553681
1206.167865,842.705048,-814.226536,9622.677246
1206.168180,229.828649,-740.205942,10362.883188
1206.168496,229.828649,-1332.370696,9474.636058
1206.168812,766.095498,-1850.514855,10214.842000
1206.169128,612.876398,-888.247130,9474.636058
1206.169443,76.609550,-518.144159,9326.594869
1206.169759,536.266849,148.041188,8216.285956
1206.170075,383.047749,-296.082377,8142.265362
1206.170391,536.266849,-1036.288319,9770.718434
1206.170706,0.000000,-1258.350101,9400.615463
1206.171022,-153.219100,-888.247130,9400.615463
1206.171338,-229.828649,-1258.350101,8734.430116
1206.171654,306.438199,-1480.411884,9548.656652
1206.171970,766.095498,-296.082377,8808.450710
1206.172285,153.219100,-0.000000,8290.306550
1206.172601,-229.828649,-222.061783,9104.533087
1206.172917,-459.657299,-1406.391290,9918.759623
1206.173233,0.000000,-1924.535449,9992.780217
1206.173548,0.000000,-888.247130,8882.471304
1206.173864,-306.438199,-1332.370696,9474.636058
1206.174180,76.609550,-1554.432478,9696.697840
1206.174496,1225.752797,-518.144159,9252.574275
1206.174811,612.876398,-962.267725,9178.553681
1206.175127,306.438199,-296.082377,8512.368333
1206.175443,76.609550,296.082377,8586.388927
1206.175759,383.047749,-444.123565,9252.574275
1206.176075,689.485948,-592.164754,9178.553681
1206.176390,306.438199,-444.123565,9844.739029
1206.176706,0.000000,-888.247130,9918.759623
1206.177022,76.609550,-592.164754,9918.759623
1206.177338,76.609550,-666.185348,9252.574275
1206.177653,919.314598,-0.000000,9548.656652
1206.177969,459.657299,296.082377,9622.677246
1206.178285,76.609550,370.102971,9474.636058
1206.178601,536.266849,148.041188,9622.677246
1206.178916,689.485948,-888.247130,9844.739029
1206.179232,1149.143247,-444.123565,9918.759623
1206.179548,919.314598,518.144159,9770.718434
1206.179864,459.657299,1258.350101,8734.430116
1206.180180,1685.410096,296.082377,9548.656652
1206.180495,1378.971896,148.041188,9326.594869
1206.180811,1302.362347,888.247130,9326.594869
1206.181127,612.876398,1332.370696,8734.430116
1206.181443,459.657299,296.082377,9696.697840
1206.181758,459.657299,-222.061783,10140.821405
1206.182074,536.266849,370.102971,10214.842000
1206.182390,76.609550,-0.000000,9918.759623
1206.182706,0.000000,-296.082377,10881.027347
1206.183021,459.657299,-0.000000,10436.903782
1206.183337,383.047749,296.082377,8512.368333
1206.183653,612.876398,888.247130,9918.759623
1206.183969,0.000000,888.247130,9770.718434
1206.184285,-153.219100,148.041188,9474.636058
1206.184600,306.438199,666.185348,10510.924376
1206.184916,0.000000,666.185348,9400.615463
1206.185232,-229.828649,-0.000000,9474.636058
1206.185548,153.219100,518.144159,10288.862594
1206.185863,153.219100,-0.000000,9918.759623
1206.186179,689.485948,740.205942,9326.594869
1206.186495,536.266849,740.205942,10066.800811
1206.186811,0.000000,-222.061783,9104.533087
1206.187126,229.828649,296.082377,9548.656652
1206.187442,459.657299,-74.020594,9548.656652
1206.187758,229.828649,-148.041188,9918.759623
1206.188074,459.657299,-444.123565,9178.553681
1206.188390,-229.828649,666.185348,8956.491898
1206.188705,306.438199,-148.041188,9548.656652
1206.189021,689.485948,-518.144159,8364.327145
1206.189337,459.657299,-74.020594,8438.347739
1206.189653,-459.657299,296.082377,8808.450710
1206.189968,76.609550,-1036.288319,10881.027347
1206.190284,306.438199,-666.185348,8956.491898
1206.190600,306.438199,-370.102971,9030.512492
1206.190916,-612.876398,-370.102971,9918.759623
1206.191231,0.000000,-0.000000,8808.450710
1206.191547,536.266849,518.144159,9104.533087
1206.191863,766.095498,-740.205942,8956.491898
1206.192179,153.219100,-592.164754,9252.574275
1206.192495,536.266849,-0.000000,9474.636058
1206.192810,459.657299,-888.247130,8808.450710
1206.193126,536.266849,-1332.370696,9770.718434
1206.193442,459.657299,-962.267725,10658.965565
1206.193758,459.657299,-444.123565,9548.656652
1206.194073,459.657299,-296.082377,8956.491898
1206.194389,612.876398,-0.000000,10214.842000
1206.194705,1532.190996,-370.102971,8216.285956
1206.195021,1532.190996,962.267725,8734.430116
1206.195336,153.219100,1110.308913,9104.533087
1206.195652,536.266849,-74.020594,9104.533087
1206.195968,1378.971896,-666.185348,9326.594869
1206.196284,995.924147,-592.164754,9474.636058
1206.196600,76.609550,-296.082377,9622.677246
1206.196915,0.000000,-740.205942,9400.615463
1206.197231,1072.533697,-1184.329507,10510.924376
1206.197547,459.657299,-1332.370696,9918.759623
1206.197863,306.438199,-444.123565,9770.718434
1206.198178,0.000000,-592.164754,9326.594869
1206.198494,-153.219100,74.020594,8956.491898
1206.198810,766.095498,-962.267725,9992.780217
1206.199126,766.095498,-296.082377,9474.636058
1206.199441,-612.876398,-0.000000,9252.574275
1206.199757,-383.047749,-74.020594,9326.594869
1206.200073,842.705048,-2146.597232,10584.944971
1206.200389,612.876398,-1628.453072,9622.677246
1206.200704,0.000000,-0.000000,8808.450710
1206.201020,306.438199,-814.226536,10066.800811
1206.201336,229.828649,-518.144159,10288.862594
1206.201652,229.828649,-888.247130,9548.656652
1206.201968,536.266849,-296.082377,9104.533087
1206.202283,842.705048,-592.164754,9474.636058
1206.202599,229.828649,-740.205942,9844.739029
1206.202915,1149.143247,-962.267725,9474.636058
1206.203231,995.924147,-740.205942,8438.347739
1206.203546,1915.238745,-0.000000,9104.533087
1206.203862,842.705048,-0.000000,8586.388927
1206.204178,766.095498,-518.144159,9400.615463
1206.204494,459.657299,-222.061783,9696.697840
1206.204809,766.095498,-0.000000,9030.512492
1206.205125,306.438199,222.061783,8956.491898
1206.205441,306.438199,-148.041188,9104.533087
1206.205757,229.828649,-0.000000,9474.636058
1206.206073,689.485948,222.061783,9104.533087
1206.206388,0.000000,148.041188,8956.491898
1206.206704,-306.438199,592.164754,9252.574275
1206.207020,-383.047749,518.144159,9474.636058
1206.207336,383.047749,-444.123565,9474.636058
1206.207651,0.000000,-666.185348,10436.903782
1206.207967,76.609550,-518.144159,10214.842000
1206.208283,229.828649,370.102971,9178.553681
1206.208599,842.705048,1110.308913,8438.347739
1206.208914,689.485948,1332.370696,9030.512492
1206.209230,1685.410096,740.205942,9178.553681
1206.209546,842.705048,740.205942,8660.409521
1206.209862,459.657299,888.247130,9474.636058
1206.210178,842.705048,-0.000000,9844.739029
1206.210493,1532.190996,-0.000000,9400.615463
1206.210809,459.657299,444.123565,8586.388927
1206.211125,-689.485948,-148.041188,9918.759623
1206.211441,689.485948,-1184.329507,11177.109724
1206.211756,383.047749,-1184.329507,10214.842000
1206.212072,-229.828649,-0.000000,9252.574275
1206.212388,0.000000,518.144159,9326.594869
1206.212704,306.438199,-0.000000,9548.656652
1206.213019,689.485948,-296.082377,9992.780217
1206.213335,459.657299,222.061783,9696.697840
1206.213651,689.485948,-148.041188,9104.533087
1206.213967,153.219100,222.061783,8956.491898
1206.214283,0.000000,-370.102971,9548.656652
1206.214598,766.095498,-1184.329507,10288.862594
1206.214914,995.924147,-148.041188,9252.574275
1206.215230,153.219100,370.102971,9400.615463
1206.215546,0.000000,444.123565,9252.574275
1206.215861,383.047749,-296.082377,9770.718434
1206.216177,536.266849,-370.102971,9474.636058
1206.216493,153.219100,-0.000000,9400.615463
1206.216809,0.000000,-518.144159,9770.718434
1206.217124,0.000000,-296.082377,10140.821405
1206.217440,689.485948,-1110.308913,9474.636058
1206.217756,612.876398,-962.267725,9548.656652
1206.218072,0.000000,-518.144159,9400.615463
1206.218388,-612.876398,370.102971,8882.471304
1206.218703,383.047749,666.185348,8956.491898
1206.219019,689.485948,-296.082377,9030.512492
1206.219335,0.000000,-444.123565,9992.780217
1206.219651,-153.219100,-592.164754,9030.512492
1206.219966,-229.828649,-296.082377,8882.471304
1206.220282,229.828649,-666.185348,10066.800811
1206.220598,766.095498,-1036.288319,9252.574275
1206.220914,459.657299,-0.000000,9326.594869
1206.221229,-306.438199,518.144159,8586.388927
1206.221545,306.438199,-814.226536,9548.656652
1206.221861,766.095498,-1184.329507,10214.842000
1206.222177,766.095498,-296.082377,9844.739029
1206.222493,0.000000,814.226536,8956.491898
1206.222808,383.047749,814.226536,9178.553681
1206.223124,1302.362347,-518.144159,9548.656652
1206.223440,1378.971896,-888.247130,9696.697840
1206.223756,459.657299,740.205942,9252.574275
1206.224071,536.266849,296.082377,8882.471304
1206.224387,383.047749,-370.102971,9400.615463
1206.224703,306.438199,-888.247130,10732.986159
1206.225019,383.047749,-148.041188,10510.924376
1206.225334,0.000000,-0.000000,9696.697840
1206.225650,229.828649,-888.247130,9474.636058
1206.225966,689.485948,-444.123565,9770.718434
1206.226282,1225.752797,-370.102971,9178.553681
1206.226597,536.266849,-518.144159,9548.656652
1206.226913,1149.143247,-666.185348,10288.862594
1206.227229,1225.752797,-518.144159,9696.697840
1206.227545,1302.362347,-222.061783,8956.491898
1206.227861,1072.533697,-0.000000,9178.553681
1206.228176,995.924147,-222.061783,9770.718434
1206.228492,842.705048,-0.000000,9400.615463
1206.228808,919.314598,-1036.288319,9548.656652
1206.229124,919.314598,-814.226536,9326.594869
1206.229439,1302.362347,-1036.288319,9474.636058
1206.229755,459.657299,-814.226536,9770.718434
1206.230071,689.485948,-370.102971,10214.842000
1206.230387,612.876398,-1184.329507,9104.533087
1206.230702,383.047749,-888.247130,9400.615463
1206.231018,229.828649,-666.185348,10214.842000
1206.231334,459.657299,-370.102971,9030.512492
1206.231650,842.705048,-814.226536,9104.533087
1206.231966,612.876398,-888.247130,8734.430116
1206.232281,383.047749,-148.041188,9474.636058
1206.232597,383.047749,-148.041188,9400.615463
1206.232913,459.657299,-74.020594,9474.636058
1206.233229,689.485948,-0.000000,8882.471304
1206.233544,76.609550,-518.144159,9030.512492
1206.233860,-383.047749,-0.000000,9252.574275
1206.234176,-76.609550,222.061783,9178.553681
1206.234492,0.000000,-222.061783,9548.656652
1206.234807,76.609550,-74.020594,9178.553681
1206.235123,0.000000,296.082377,9474.636058
1206.235439,-76.609550,-0.000000,8808.450710
1206.235755,0.000000,-0.000000,9696.697840
1206.236071,153.219100,-370.102971,9844.739029
1206.236386,76.609550,-222.061783,9474.636058
1206.236702,0.000000,444.123565,9400.615463
1206.237018,0.000000,666.185348,9770.718434
1206.237334,306.438199,-0.000000,9548.656652
1206.237649,306.438199,222.061783,8882.471304
1206.237965,0.000000,518.144159,9918.759623
1206.238281,306.438199,1184.329507,9326.594869
1206.238597,459.657299,-0.000000,9400.615463
1206.238912,459.657299,-222.061783,9548.656652
1206.239228,306.438199,-222.061783,10732.986159
1206.239544,459.657299,-0.000000,9474.636058
1206.239860,-153.219100,518.144159,9178.553681
1206.240176,689.485948,-0.000000,10066.800811
1206.240491,1149.143247,-148.041188,9622.677246
1206.240807,383.047749,962.267725,8882.471304
1206.241123,-229.828649,518.144159,9696.697840
1206.241439,919.314598,-296.082377,10881.027347
1206.241754,689.485948,-370.102971,9252.574275
1206.242070,842.705048,518.144159,9252.574275
1206.242386,153.219100,-0.000000,9696.697840
1206.242701,-153.219100,-1036.288319,10436.903782
1206.243017,459.657299,-444.123565,10362.883188
1206.243333,229.828649,-518.144159,9474.636058
1206.243649,536.266849,370.102971,9696.697840
1206.243964,383.047749,296.082377,9326.594869
1206.244280,229.828649,-222.061783,9548.656652
1206.244596,536.266849,-740.205942,10214.842000
1206.244911,689.485948,-222.061783,9400.615463
1206.245227,229.828649,-222.061783,8956.491898
1206.245543,0.000000,-740.205942,9844.739029
1206.245859,612.876398,-1332.370696,10288.862594
1206.246174,1072.533697,-1184.329507,9474.636058
1206.246490,1072.533697,-0.000000,9104.533087
1206.246806,766.095498,-296.082377,9326.594869
1206.247122,459.657299,148.041188,8660.409521
1206.247437,1225.752797,-444.123565,8956.491898
1206.247753,766.095498,-370.102971,9030.512492
1206.248069,153.219100,-148.041188,9474.636058
1206.248384,153.219100,-0.000000,9326.594869
1206.248700,995.924147,-148.041188,8808.450710
1206.249016,0.000000,-666.185348,9474.636058
1206.249332,0.000000,-1776.494261,10362.883188
1206.249647,229.828649,-148.041188,9474.636058
1206.249963,459.657299,-740.205942,9548.656652
1206.250279,995.924147,-370.102971,9770.718434
1206.250594,1302.362347,-148.041188,9252.574275
1206.250910,1149.143247,-0.000000,8956.491898
1206.251226,1225.752797,370.102971,9548.656652
1206.251542,1378.971896,-74.020594,9252.574275
1206.251857,1838.629195,-74.020594,8586.388927
1206.252173,1455.581446,444.123565,9400.615463
1206.252489,536.266849,370.102971,8586.388927
1206.252805,1225.752797,370.102971,9622.677246
1206.253120,1225.752797,-222.061783,9622.677246
1206.253436,689.485948,-518.144159,9252.574275
1206.253752,0.000000,-0.000000,10066.800811
1206.254067,-383.047749,-370.102971,9918.759623
1206.254383,-383.047749,-592.164754,9474.636058
1206.254699,0.000000,-1184.329507,10436.903782
1206.255015,-536.266849,-1554.432478,10807.006753
1206.255330,-766.095498,-592.164754,9400.615463
1206.255646,-459.657299,-740.205942,9400.615463
1206.255962,-306.438199,-1406.391290,9844.739029
1206.256277,0.000000,-814.226536,9992.780217
1206.256593,229.828649,-296.082377,9844.739029
1206.256909,0.000000,-222.061783,9252.574275
1206.257225,0.000000,-0.000000,9400.615463
1206.257540,1302.362347,-0.000000,9252.574275
1206.257856,459.657299,-0.000000,8068.244768
1206.258172,612.876398,592.164754,9622.677246
1206.258488,536.266849,-814.226536,10140.821405
1206.258803,689.485948,-666.185348,9252.574275
1206.259119,536.266849,-518.144159,9326.594869
1206.259435,76.609550,-592.164754,9696.697840
1206.259750,76.609550,222.061783,9326.594869
1206.260066,0.000000,-148.041188,8808.450710
1206.260382,306.438199,-666.185348,9548.656652
1206.260698,383.047749,-1258.350101,10955.047942
1206.261013,-229.828649,-222.061783,9622.677246
1206.261329,-229.828649,444.123565,8956.491898
1206.261645,0.000000,-814.226536,8438.347739
1206.261960,842.705048,-296.082377,9548.656652
1206.262276,459.657299,-370.102971,9844.739029
1206.262592,229.828649,-0.000000,8660.409521
1206.262908,689.485948,444.123565,9030.512492
1206.263223,919.314598,-370.102971,9252.574275
1206.263539,1149.143247,-296.082377,8956.491898
1206.263855,689.485948,1036.288319,9548.656652
1206.264171,995.924147,888.247130,9548.656652
1206.264486,1378.971896,518.144159,9178.553681
1206.264802,919.314598,-0.000000,9104.533087
1206.265118,1378.971896,296.082377,9474.636058
1206.265433,383.047749,444.123565,9178.553681
1206.265749,842.705048,-296.082377,9548.656652
1206.266065,842.705048,-740.205942,9992.780217
1206.266381,766.095498,-74.020594,10510.924376
1206.266696,612.876398,814.226536,9696.697840
1206.267012,76.609550,1480.411884,8956.491898
1206.267328,383.047749,1110.308913,9696.697840
1206.267643,229.828649,444.123565,9326.594869
1206.267959,612.876398,-0.000000,10436.903782
1206.268275,0.000000,-0.000000,9622.677246
1206.268591,766.095498,-962.267725,10214.842000
1206.268906,229.828649,-1036.288319,10140.821405
1206.269222,612.876398,296.082377,9474.636058
1206.269538,689.485948,740.205942,9474.636058
1206.269854,383.047749,666.185348,9474.636058
1206.270169,536.266849,296.082377,9400.615463
1206.270485,689.485948,-74.020594,9178.553681
1206.270801,383.047749,-0.000000,10214.842000
1206.271116,306.438199,-0.000000,9474.636058
1206.271432,153.219100,-222.061783,8956.491898
1206.271748,459.657299,-1184.329507,9474.636058
1206.272064,459.657299,-370.102971,10066.800811
1206.272379,0.000000,-0.000000,9252.574275
1206.272695,-919.314598,-222.061783,8808.450710
1206.273011,-689.485948,-1184.329507,10436.903782
1206.273326,229.828649,-1628.453072,10288.862594
1206.273642,0.000000,-666.185348,9474.636058
1206.273958,-306.438199,-0.000000,9030.512492
1206.274274,-76.609550,-370.102971,9326.594869
1206.274589,459.657299,-1110.308913,9178.553681
1206.274905,919.314598,-518.144159,9178.553681
1206.275221,153.219100,-592.164754,9104.533087
1206.275537,229.828649,-370.102971,8956.491898
1206.275852,689.485948,-888.247130,9770.718434
1206.276168,1225.752797,-592.164754,8808.450710
1206.276484,459.657299,-148.041188,9326.594869
1206.276799,383.047749,296.082377,8734.430116
