#time,accel_x,accel_y,accel_z
1208.655620,383.047749,-222.061783,9548.656652
1208.655936,306.438199,-222.061783,9326.594869
1208.656252,459.657299,-148.041188,9474.636058
1208.656568,306.438199,-148.041188,9400.615463
1208.656884,306.438199,-0.000000,9474.636058
1208.657200,766.095498,-0.000000,9474.636058
1208.657516,536.266849,-148.041188,9474.636058
1208.657832,459.657299,-222.061783,9400.615463
1208.658148,459.657299,-74.020594,9400.615463
1208.658464,153.219100,-0.000000,9548.656652
1208.658780,536.266849,-222.061783,9400.615463
1208.659096,383.047749,-0.000000,9400.615463
1208.659413,842.705048,-0.000000,9474.636058
1208.659729,459.657299,-222.061783,9400.615463
1208.660045,536.266849,-148.041188,9474.636058
1208.660361,383.047749,-370.102971,9696.697840
1208.660677,459.657299,-444.123565,9696.697840
1208.660993,383.047749,-74.020594,9622.677246
1208.661309,383.047749,-148.041188,9400.615463
1208.661625,459.657299,-0.000000,9400.615463
1208.661941,612.876398,-0.000000,9252.574275
1208.662257,459.657299,222.061783,9326.594869
1208.662573,766.095498,444.123565,9400.615463
1208.662889,612.876398,518.144159,9474.636058
1208.663205,459.657299,296.082377,9326.594869
1208.663521,153.219100,-0.000000,9400.615463
1208.663837,612.876398,-0.000000,9474.636058
1208.664153,612.876398,-0.000000,9548.656652
1208.664469,459.657299,296.082377,9548.656652
1208.664785,306.438199,444.123565,9548.656652
1208.665101,766.095498,444.123565,9696.697840
1208.665417,306.438199,444.123565,9326.594869
1208.665733,229.828649,1184.329507,9400.615463
1208.666049,306.438199,1184.329507,9326.594869
1208.666365,459.657299,962.267725,9326.594869
1208.666681,459.657299,888.247130,9326.594869
1208.666997,0.000000,888.247130,9030.512492
1208.667313,229.828649,814.226536,9326.594869
1208.667629,0.000000,740.205942,9474.636058
1208.667945,0.000000,1036.288319,9400.615463
1208.668261,-536.266849,1110.308913,9400.615463
1208.668577,-306.438199,1332.370696,9400.615463
1208.668893,-536.266849,1554.432478,9400.615463
1208.669209,-689.485948,1406.391290,9178.553681
1208.669525,-1302.362347,1480.411884,9326.594869
1208.669841,-1225.752797,1554.432478,9400.615463
1208.670157,-1302.362347,1480.411884,9474.636058
1208.670473,-1608.800546,1406.391290,9696.697840
1208.670789,-2145.067394,1332.370696,9622.677246
1208.671105,-1838.629195,1554.432478,9770.718434
1208.671421,-2221.676944,1406.391290,9770.718434
1208.671737,-1991.848295,1702.473667,9696.697840
1208.672053,-2298.286494,1702.473667,9474.636058
1208.672369,-1915.238745,1850.514855,9474.636058
1208.672685,-1762.019645,1776.494261,9474.636058
1208.673001,-1685.410096,1702.473667,9474.636058
1208.673317,-1838.629195,1924.535449,9474.636058
1208.673633,-1685.410096,1702.473667,9474.636058
1208.673949,-1455.581446,1702.473667,9548.656652
1208.674265,-1762.019645,1776.494261,9622.677246
1208.674581,-1378.971896,2146.597232,9770.718434
1208.674897,-1455.581446,1924.535449,9696.697840
1208.675213,-1225.752797,2146.597232,9474.636058
1208.675529,-383.047749,2368.659014,9474.636058
1208.675845,-1378.971896,2294.638420,9326.594869
1208.676161,-1378.971896,2368.659014,9326.594869
1208.676477,-1455.581446,2146.597232,9400.615463
1208.676793,-1685.410096,1628.453072,9326.594869
1208.677109,-2145.067394,1406.391290,9696.697840
1208.677425,-2374.896044,1036.288319,9696.697840
1208.677741,-2221.676944,1184.329507,9696.697840
1208.678057,-2145.067394,1258.350101,9918.759623
1208.678373,-2221.676944,1332.370696,9844.739029
1208.678689,-2145.067394,1480.411884,9622.677246
1208.679005,-2374.896044,1110.308913,9474.636058
1208.679321,-2298.286494,1332.370696,9622.677246
1208.679637,-1991.848295,1258.350101,9696.697840
1208.679953,-1685.410096,1258.350101,9474.636058
1208.680269,-1762.019645,1480.411884,9326.594869
1208.680585,-2145.067394,1628.453072,9104.533087
1208.680901,-1991.848295,1850.514855,9178.553681
1208.681217,-2145.067394,2220.617826,8882.471304
1208.681533,-2221.676944,2368.659014,8882.471304
1208.681849,-2298.286494,2516.700203,9030.512492
1208.682165,-2528.115143,2368.659014,9104.533087
1208.682481,-2681.334243,1776.494261,9400.615463
1208.682797,-2987.772442,1332.370696,9770.718434
1208.683113,-2757.943793,296.082377,10288.862594
1208.683429,-2528.115143,296.082377,10288.862594
1208.683745,-1915.238745,444.123565,10214.842000
1208.684061,-1915.238745,370.102971,9992.780217
1208.684377,-1302.362347,888.247130,9844.739029
1208.684693,-689.485948,1850.514855,9548.656652
1208.685009,-229.828649,2072.576638,8882.471304
1208.685325,383.047749,2960.823768,8364.327145
1208.685641,383.047749,3108.864956,8068.244768
1208.685957,842.705048,2886.803174,8142.265362
1208.686273,0.000000,2886.803174,7846.182985
1208.686589,-153.219100,2960.823768,8068.244768
1208.686905,-995.924147,2738.761985,8512.368333
1208.687221,-1302.362347,2220.617826,9030.512492
1208.687537,-2757.943793,1776.494261,9474.636058
1208.687853,-3217.601092,1184.329507,10066.800811
1208.688169,-3447.429741,888.247130,10288.862594
1208.688485,-4060.306139,740.205942,10807.006753
1208.688801,-3753.867940,-0.000000,11103.089130
1208.689117,-2987.772442,-148.041188,11103.089130
1208.689433,-2374.896044,444.123565,10881.027347
1208.689749,-1685.410096,814.226536,9770.718434
1208.690065,-689.485948,1184.329507,9400.615463
1208.690381,153.219100,1628.453072,9178.553681
1208.690697,842.705048,2220.617826,8438.347739
1208.691013,842.705048,3034.844362,8216.285956
1208.691329,1072.533697,3775.050304,7920.203579
1208.691645,612.876398,4145.153275,7624.121203
1208.691961,689.485948,4367.215058,7698.141797
1208.692277,-536.266849,4219.173869,7920.203579
1208.692593,-1608.800546,3627.009116,8438.347739
1208.692909,-2987.772442,2590.720797,9326.594869
1208.693225,-3983.696590,1332.370696,10288.862594
1208.693541,-4903.011187,-148.041188,11473.192101
1208.693857,-4903.011187,-888.247130,11843.295072
1208.694173,-5515.887586,-1850.514855,12287.418637
1208.694489,-5056.230287,-1702.473667,12583.501014
1208.694805,-4060.306139,-1184.329507,12139.377449
1208.695121,-2451.505594,-148.041188,10807.006753
1208.695437,-1149.143247,1776.494261,9474.636058
1208.695753,0.000000,3404.947333,8290.306550
1208.696069,1149.143247,4737.318029,7031.956449
1208.696385,1608.800546,5773.606348,6217.729913
1208.696701,1455.581446,5773.606348,6143.709319
1208.697017,1072.533697,5033.400406,6661.853478
1208.697333,153.219100,4219.173869,7031.956449
1208.697649,-1378.971896,2590.720797,8660.409521
1208.697965,-2298.286494,888.247130,9844.739029
1208.698281,-3524.039291,-296.082377,11251.130318
1208.698597,-4136.915689,-1258.350101,12213.398043
1208.698913,-4673.182538,-888.247130,12435.459826
1208.699229,-4443.353888,-592.164754,11991.336260
1208.699545,-4213.525239,148.041188,11473.192101
1208.699861,-3140.991542,1110.308913,11251.130318
1208.700177,-1915.238745,2294.638420,9622.677246
1208.700493,-1149.143247,3330.926739,8512.368333
1208.700809,-229.828649,3849.070898,7624.121203
1208.701125,229.828649,4441.235652,7328.038826
1208.701441,536.266849,3404.947333,7624.121203
1208.701757,459.657299,2738.761985,8068.244768
1208.702073,229.828649,2220.617826,8882.471304
1208.702389,-153.219100,2146.597232,8438.347739
1208.702705,-919.314598,2072.576638,9252.574275
1208.703021,-2068.457845,1924.535449,9844.739029
1208.703337,-2068.457845,1850.514855,10288.862594
1208.703653,-2757.943793,1850.514855,9992.780217
1208.703969,-3370.820191,1480.411884,9918.759623
1208.704285,-3524.039291,518.144159,10214.842000
1208.704601,-3524.039291,-0.000000,10658.965565
1208.704917,-2834.553343,-0.000000,10362.883188
1208.705233,-2757.943793,962.267725,9696.697840
1208.705549,-2374.896044,1480.411884,9326.594869
1208.705865,-1838.629195,1924.535449,8660.409521
1208.706181,-1149.143247,1776.494261,9400.615463
1208.706497,-1378.971896,3701.029710,9104.533087
1208.706813,-1455.581446,2664.741391,9030.512492
1208.707129,-689.485948,1850.514855,9474.636058
1208.707445,-689.485948,2294.638420,9400.615463
1208.707761,-842.705048,1258.350101,8586.388927
1208.708077,-612.876398,1406.391290,9400.615463
1208.708393,-1149.143247,888.247130,9548.656652
1208.708709,-1455.581446,1406.391290,9178.553681
1208.709025,-1072.533697,1554.432478,9474.636058
1208.709341,-2374.896044,1702.473667,9622.677246
1208.709657,-1762.019645,1850.514855,10066.800811
1208.709973,-1838.629195,1998.556043,9400.615463
1208.710289,-1762.019645,2664.741391,9326.594869
1208.710605,-1302.362347,2960.823768,9030.512492
1208.710921,-1455.581446,2146.597232,8956.491898
1208.711237,-1685.410096,2442.679609,9104.533087
1208.711553,-2068.457845,2368.659014,9326.594869
1208.711869,-2451.505594,1184.329507,9696.697840
1208.712185,-1762.019645,1110.308913,10658.965565
1208.712501,-2068.457845,666.185348,10584.944971
1208.712817,-2068.457845,1258.350101,10214.842000
1208.713133,-1532.190996,1332.370696,9696.697840
1208.713449,-1149.143247,1184.329507,9622.677246
1208.713766,-766.095498,2146.597232,9474.636058
1208.714081,0.000000,2368.659014,8586.388927
1208.714397,229.828649,2516.700203,8660.409521
1208.714713,459.657299,3256.906145,8216.285956
1208.715028,0.000000,3330.926739,8364.327145
1208.715344,76.609550,2886.803174,7624.121203
1208.715660,-1225.752797,3182.885551,8586.388927
1208.715975,-2145.067394,3108.864956,9474.636058
1208.716291,-2681.334243,2146.597232,9992.780217
1208.716607,-3447.429741,1924.535449,10288.862594
1208.716922,-4290.134789,1554.432478,10510.924376
1208.717238,-3983.696590,814.226536,9992.780217
1208.717554,-4519.963438,-0.000000,10955.047942
1208.717869,-4519.963438,296.082377,11621.233289
1208.718185,-3830.477490,-444.123565,11769.274478
1208.718501,-3217.601092,-0.000000,11103.089130
1208.718817,-2528.115143,1406.391290,9696.697840
1208.719132,-1455.581446,1332.370696,8956.491898
1208.719448,-689.485948,1776.494261,8512.368333
1208.719764,0.000000,2960.823768,8142.265362
1208.720079,919.314598,4071.132681,7402.059420
1208.720395,919.314598,4367.215058,7105.977043
1208.720711,383.047749,4219.173869,7994.224174
1208.721026,0.000000,3627.009116,7476.080014
1208.721342,-1149.143247,3034.844362,7772.162391
1208.721658,-2451.505594,2220.617826,9622.677246
1208.721973,-2681.334243,1110.308913,10732.986159
1208.722289,-2757.943793,148.041188,11029.068536
1208.722605,-4060.306139,-0.000000,11547.212695
1208.722921,-4826.401637,-962.267725,11325.150913
1208.723236,-4366.744339,-1184.329507,11473.192101
1208.723552,-3524.039291,-518.144159,11547.212695
1208.723868,-2221.676944,148.041188,10658.965565
1208.724183,-842.705048,2368.659014,9474.636058
1208.724499,153.219100,2664.741391,8586.388927
1208.724815,459.657299,3552.988522,7179.997637
1208.725130,1072.533697,3701.029710,7328.038826
1208.725446,1762.019645,3256.906145,7179.997637
1208.725762,2298.286494,3701.029710,7772.162391
1208.726077,1608.800546,3404.947333,8142.265362
1208.726393,842.705048,2738.761985,8438.347739
1208.726709,-842.705048,1924.535449,8512.368333
1208.727025,-1455.581446,592.164754,10510.924376
1208.727340,-1532.190996,814.226536,10955.047942
1208.727656,-2068.457845,814.226536,10362.883188
1208.727972,-3064.381992,666.185348,10214.842000
1208.728287,-3753.867940,740.205942,10881.027347
1208.728603,-3140.991542,-74.020594,10510.924376
1208.728919,-2834.553343,370.102971,9918.759623
1208.729234,-2528.115143,1258.350101,10362.883188
1208.729550,-2451.505594,740.205942,9548.656652
1208.729866,-2451.505594,518.144159,9696.697840
1208.730181,-2298.286494,1406.391290,10066.800811
1208.730497,-766.095498,1184.329507,9696.697840
1208.730813,0.000000,2812.782580,8512.368333
1208.731129,-842.705048,2146.597232,8216.285956
1208.731444,-689.485948,1628.453072,9252.574275
1208.731760,-306.438199,814.226536,9252.574275
1208.732076,-612.876398,740.205942,9178.553681
1208.732391,0.000000,1850.514855,9770.718434
1208.732707,-612.876398,1998.556043,8142.265362
1208.733023,-1762.019645,1776.494261,9326.594869
1208.733338,-2221.676944,1110.308913,9770.718434
1208.733654,-1608.800546,222.061783,10362.883188
1208.733970,-1838.629195,1554.432478,9474.636058
1208.734285,-2987.772442,1702.473667,9696.697840
1208.734601,-2834.553343,1406.391290,9770.718434
1208.734917,-2834.553343,888.247130,9844.739029
1208.735232,-2451.505594,296.082377,11177.109724
1208.735548,-2221.676944,1110.308913,11177.109724
1208.735864,-1762.019645,370.102971,9770.718434
1208.736180,-1991.848295,-74.020594,9622.677246
1208.736495,-1302.362347,518.144159,9696.697840
1208.736811,689.485948,-814.226536,10955.047942
1208.737127,1455.581446,592.164754,8290.306550
1208.737442,842.705048,2960.823768,7772.162391
1208.737758,1762.019645,1332.370696,7698.141797
1208.738074,2221.676944,1480.411884,7920.203579
1208.738389,2221.676944,2146.597232,8512.368333
1208.738705,1762.019645,2146.597232,8216.285956
1208.739021,919.314598,1258.350101,8808.450710
1208.739336,-229.828649,-888.247130,9474.636058
1208.739652,0.000000,-1110.308913,11103.089130
1208.739968,-459.657299,-1406.391290,10732.986159
1208.740284,-1532.190996,-814.226536,10584.944971
1208.740599,-1762.019645,-444.123565,10288.862594
1208.740915,-1685.410096,-1480.411884,11177.109724
1208.741231,-1302.362347,-1110.308913,10807.006753
1208.741546,-1225.752797,-0.000000,10066.800811
1208.741862,-995.924147,-296.082377,9696.697840
1208.742178,383.047749,-814.226536,9178.553681
1208.742493,536.266849,-518.144159,9178.553681
1208.742809,1685.410096,-444.123565,9400.615463
1208.743125,1225.752797,-370.102971,9622.677246
1208.743440,1608.800546,222.061783,8734.430116
1208.743756,995.924147,-148.041188,8364.327145
1208.744072,2221.676944,-1332.370696,10288.862594
1208.744388,2068.457845,-444.123565,9474.636058
1208.744703,1685.410096,592.164754,9474.636058
1208.745019,1378.971896,-148.041188,9400.615463
1208.745335,1991.848295,-1036.288319,9474.636058
1208.745650,2528.115143,-0.000000,9548.656652
1208.745966,2145.067394,592.164754,7698.141797
1208.746282,995.924147,740.205942,8660.409521
1208.746597,1302.362347,-0.000000,9326.594869
1208.746913,1838.629195,-1184.329507,9548.656652
1208.747229,1149.143247,148.041188,8882.471304
1208.747544,0.000000,296.082377,9474.636058
1208.747860,229.828649,-888.247130,9326.594869
1208.748176,306.438199,-592.164754,9696.697840
1208.748492,919.314598,-814.226536,9770.718434
1208.748807,229.828649,-444.123565,10066.800811
1208.749123,612.876398,-0.000000,10362.883188
1208.749439,536.266849,-0.000000,8734.430116
1208.749754,1302.362347,-370.102971,9252.574275
1208.750070,1685.410096,-0.000000,9326.594869
1208.750386,842.705048,666.185348,9104.533087
1208.750701,1072.533697,962.267725,8734.430116
1208.751017,1302.362347,666.185348,8882.471304
1208.751333,1608.800546,888.247130,8956.491898
1208.751648,1378.971896,962.267725,8216.285956
1208.751964,383.047749,444.123565,8808.450710
1208.752280,459.657299,-814.226536,9844.739029
1208.752595,76.609550,-1702.473667,10436.903782
1208.752911,-842.705048,-814.226536,9992.780217
1208.753227,-1762.019645,-592.164754,10732.986159
1208.753543,-1608.800546,-814.226536,9992.780217
1208.753858,-1532.190996,-1258.350101,10140.821405
1208.754174,-1455.581446,-1258.350101,10362.883188
1208.754490,-842.705048,-1480.411884,9918.759623
1208.754805,-1072.533697,-370.102971,9548.656652
1208.755121,-766.095498,-888.247130,8882.471304
1208.755437,459.657299,-1332.370696,10436.903782
1208.755752,383.047749,-740.205942,9326.594869
1208.756068,0.000000,666.185348,8734.430116
1208.756384,459.657299,-74.020594,8808.450710
1208.756699,919.314598,-814.226536,9622.677246
1208.757015,995.924147,-222.061783,9474.636058
1208.757331,383.047749,518.144159,8808.450710
1208.757647,0.000000,888.247130,8808.450710
1208.757962,76.609550,666.185348,8956.491898
1208.758278,229.828649,-222.061783,10362.883188
1208.758594,153.219100,-0.000000,8882.471304
1208.758909,-459.657299,148.041188,10140.821405
1208.759225,-383.047749,-370.102971,10436.903782
1208.759541,306.438199,-592.164754,10807.006753
1208.759856,459.657299,-148.041188,9548.656652
1208.760172,306.438199,814.226536,9326.594869
1208.760488,536.266849,1110.308913,9622.677246
1208.760803,1455.581446,1184.329507,8512.368333
1208.761119,1532.190996,1332.370696,9030.512492
1208.761435,1378.971896,1776.494261,8586.388927
1208.761751,1455.581446,1480.411884,9252.574275
1208.762066,766.095498,1480.411884,8290.306550
1208.762382,459.657299,370.102971,9400.615463
1208.762698,1072.533697,-0.000000,9770.718434
1208.763013,842.705048,-0.000000,8734.430116
1208.763329,612.876398,814.226536,9918.759623
1208.763645,0.000000,-0.000000,9844.739029
1208.763960,1072.533697,-666.185348,10510.924376
1208.764276,383.047749,222.061783,9030.512492
1208.764592,153.219100,370.102971,10288.862594
1208.764907,612.876398,-0.000000,9400.615463
1208.765223,766.095498,-592.164754,9844.739029
1208.765539,842.705048,-370.102971,9770.718434
1208.765855,459.657299,-370.102971,9178.553681
1208.766170,-306.438199,-592.164754,10510.924376
1208.766486,0.000000,-222.061783,9770.718434
1208.766802,1302.362347,-296.082377,9844.739029
1208.767117,995.924147,-888.247130,9548.656652
1208.767433,229.828649,148.041188,9770.718434
1208.767749,229.828649,-0.000000,9104.533087
1208.768064,1685.410096,-1628.453072,9918.759623
1208.768380,842.705048,-222.061783,9104.533087
1208.768696,766.095498,-74.020594,9548.656652
1208.769011,1455.581446,296.082377,8734.430116
1208.769327,1225.752797,-1036.288319,9178.553681
1208.769643,995.924147,-740.205942,10288.862594
1208.769958,1149.143247,-518.144159,9178.553681
1208.770274,0.000000,-518.144159,9178.553681
1208.770590,0.000000,-888.247130,10140.821405
1208.770906,229.828649,-1184.329507,9622.677246
1208.771221,76.609550,-740.205942,9548.656652
1208.771537,-306.438199,-370.102971,10288.862594
1208.771853,0.000000,222.061783,9252.574275
1208.772168,0.000000,-148.041188,8882.471304
1208.772484,689.485948,-1702.473667,10214.842000
1208.772800,383.047749,-962.267725,9030.512492
1208.773115,1302.362347,-0.000000,9400.615463
1208.773431,536.266849,-0.000000,8512.368333
1208.773747,995.924147,-0.000000,9474.636058
1208.774062,1762.019645,444.123565,8956.491898
1208.774378,1072.533697,962.267725,8512.368333
1208.774694,612.876398,666.185348,8808.450710
1208.775010,995.924147,148.041188,9252.574275
1208.775325,689.485948,148.041188,8734.430116
1208.775641,153.219100,-148.041188,8290.306550
1208.775957,-536.266849,-0.000000,10362.883188
1208.776272,-306.438199,-0.000000,9474.636058
1208.776588,-766.095498,-518.144159,9474.636058
1208.776904,-1225.752797,-666.185348,10214.842000
1208.777219,-2068.457845,-740.205942,9400.615463
1208.777535,-995.924147,-814.226536,9474.636058
1208.777851,-1149.143247,-1554.432478,10362.883188
1208.778166,-842.705048,-1258.350101,10732.986159
1208.778482,153.219100,-0.000000,8290.306550
1208.778798,0.000000,-148.041188,8808.450710
1208.779114,76.609550,-666.185348,9474.636058
1208.779429,919.314598,-888.247130,8808.450710
1208.779745,842.705048,444.123565,7254.018232
1208.780061,536.266849,-370.102971,9770.718434
1208.780376,0.000000,-740.205942,10214.842000
1208.780692,1225.752797,-370.102971,9474.636058
1208.781008,995.924147,-222.061783,8882.471304
1208.781323,306.438199,-592.164754,9326.594869
1208.781639,229.828649,-888.247130,9622.677246
1208.781955,153.219100,-1110.308913,9770.718434
1208.782270,689.485948,-1036.288319,10510.924376
1208.782586,612.876398,-814.226536,9548.656652
1208.782902,229.828649,74.020594,9474.636058
1208.783218,0.000000,370.102971,9252.574275
1208.783533,689.485948,-666.185348,10140.821405
1208.783849,766.095498,222.061783,10140.821405
1208.784165,689.485948,592.164754,8808.450710
1208.784480,766.095498,592.164754,9844.739029
1208.784796,1149.143247,-0.000000,9918.759623
1208.785112,1838.629195,-370.102971,9918.759623
1208.785427,1685.410096,370.102971,8808.450710
1208.785743,919.314598,370.102971,9696.697840
1208.786059,842.705048,814.226536,9844.739029
1208.786374,1455.581446,444.123565,10510.924376
1208.786690,1455.581446,222.061783,9326.594869
1208.787006,919.314598,1332.370696,9548.656652
1208.787321,459.657299,1036.288319,9400.615463
1208.787637,995.924147,-148.041188,9770.718434
1208.787953,2145.067394,-0.000000,10214.842000
1208.788269,1378.971896,-222.061783,9252.574275
1208.788584,536.266849,296.082377,9696.697840
1208.788900,1072.533697,592.164754,9326.594869
1208.789216,1378.971896,148.041188,9844.739029
1208.789531,689.485948,814.226536,9696.697840
1208.789847,383.047749,148.041188,9252.574275
1208.790163,229.828649,-0.000000,9696.697840
1208.790478,383.047749,222.061783,9326.594869
1208.790794,383.047749,-148.041188,9474.636058
1208.791110,0.000000,-222.061783,9326.594869
1208.791425,0.000000,-0.000000,9696.697840
1208.791741,-459.657299,-0.000000,9178.553681
1208.792057,0.000000,-444.123565,9178.553681
1208.792373,-689.485948,-962.267725,9622.677246
1208.792688,-459.657299,-1332.370696,10140.821405
1208.793004,-612.876398,-962.267725,9474.636058
1208.793320,-919.314598,-1332.370696,9696.697840
1208.793635,-383.047749,-1184.329507,10881.027347
1208.793951,-612.876398,-962.267725,8660.409521
1208.794267,-306.438199,740.205942,9178.553681
1208.794582,-842.705048,-148.041188,8882.471304
1208.794898,459.657299,-888.247130,9030.512492
1208.795214,76.609550,-740.205942,9252.574275
1208.795529,0.000000,-296.082377,8438.347739
1208.795845,0.000000,-444.123565,8808.450710
1208.796161,306.438199,-814.226536,9400.615463
1208.796477,153.219100,-1110.308913,9104.533087
1208.796792,229.828649,-592.164754,8734.430116
1208.797108,153.219100,-74.020594,9400.615463
1208.797424,459.657299,-962.267725,8734.430116
1208.797739,612.876398,-888.247130,9696.697840
1208.798055,153.219100,-1480.411884,9104.533087
1208.798371,0.000000,-888.247130,9252.574275
1208.798686,76.609550,-518.144159,9474.636058
1208.799002,-76.609550,-296.082377,9474.636058
1208.799318,383.047749,-370.102971,10140.821405
1208.799633,153.219100,296.082377,8808.450710
1208.799949,0.000000,296.082377,9326.594869
1208.800265,0.000000,-444.123565,9770.718434
1208.800581,612.876398,-518.144159,10288.862594
1208.800896,1378.971896,-518.144159,10140.821405
1208.801212,1072.533697,-0.000000,9844.739029
1208.801528,919.314598,1258.350101,9474.636058
1208.801843,1455.581446,296.082377,8808.450710
1208.802159,2145.067394,148.041188,9696.697840
1208.802475,1915.238745,1110.308913,8216.285956
1208.802790,1762.019645,1258.350101,9252.574275
1208.803106,1302.362347,740.205942,9104.533087
1208.803422,1225.752797,-0.000000,8882.471304
1208.803737,1072.533697,-222.061783,10066.800811
1208.804053,76.609550,-444.123565,9918.759623
1208.804369,0.000000,148.041188,9030.512492
1208.804684,0.000000,-370.102971,10066.800811
1208.805000,-306.438199,-370.102971,10362.883188
1208.805316,-229.828649,-370.102971,9474.636058
1208.805632,-459.657299,-0.000000,9844.739029
1208.805947,-612.876398,-518.144159,9178.553681
1208.806263,-383.047749,-370.102971,10510.924376
1208.806579,0.000000,-962.267725,10362.883188
1208.806894,0.000000,-0.000000,9178.553681
1208.807210,76.609550,814.226536,9400.615463
1208.807526,842.705048,-740.205942,8882.471304
1208.807841,1455.581446,148.041188,8956.491898
1208.808157,919.314598,518.144159,9326.594869
1208.808473,1225.752797,222.061783,9622.677246
1208.808788,1378.971896,740.205942,9326.594869
1208.809104,1838.629195,296.082377,9474.636058
1208.809420,1225.752797,444.123565,8882.471304
1208.809736,1149.143247,444.123565,9474.636058
1208.810051,383.047749,-148.041188,9400.615463
1208.810367,919.314598,-444.123565,9918.759623
1208.810683,612.876398,-296.082377,10140.821405
1208.810998,459.657299,-444.123565,9178.553681
1208.811314,0.000000,-296.082377,9548.656652
1208.811630,-612.876398,-814.226536,9474.636058
1208.811945,76.609550,-740.205942,9918.759623
1208.812261,0.000000,-814.226536,9622.677246
1208.812577,-612.876398,-740.205942,9770.718434
1208.812892,0.000000,148.041188,9770.718434
1208.813208,306.438199,-814.226536,8808.450710
1208.813524,612.876398,-592.164754,9918.759623
1208.813840,306.438199,-666.185348,9326.594869
1208.814155,612.876398,-740.205942,10140.821405
1208.814471,536.266849,-592.164754,8586.388927
1208.814787,1149.143247,-592.164754,8956.491898
1208.815103,1302.362347,-1184.329507,9622.677246
1208.815419,536.266849,-222.061783,9326.594869
1208.815734,229.828649,296.082377,9030.512492
1208.816050,536.266849,148.041188,9474.636058
1208.816366,919.314598,148.041188,9548.656652
1208.816682,0.000000,962.267725,8438.347739
1208.816997,-383.047749,370.102971,9622.677246
1208.817313,306.438199,-740.205942,9178.553681
1208.817629,153.219100,-962.267725,10658.965565
1208.817945,-536.266849,-1332.370696,9992.780217
1208.818261,-536.266849,-814.226536,9474.636058
1208.818576,-229.828649,-296.082377,9770.718434
1208.818892,306.438199,-962.267725,10140.821405
1208.819208,766.095498,148.041188,8956.491898
1208.819524,306.438199,1110.308913,8586.388927
1208.819840,842.705048,296.082377,9474.636058
1208.820155,995.924147,-148.041188,8734.430116
1208.820471,1378.971896,-0.000000,9104.533087
1208.820787,1072.533697,-0.000000,8438.347739
1208.821103,229.828649,-740.205942,9918.759623
1208.821418,76.609550,-0.000000,9178.553681
1208.821734,536.266849,-222.061783,9326.594869
1208.822050,76.609550,-518.144159,9326.594869
1208.822366,0.000000,-592.164754,9844.739029
1208.822682,153.219100,-444.123565,10362.883188
1208.822997,76.609550,-814.226536,9474.636058
1208.823313,76.609550,-1258.350101,10214.842000
1208.823629,995.924147,-740.205942,9696.697840
1208.823945,612.876398,-148.041188,9252.574275
1208.824260,995.924147,-0.000000,9252.574275
1208.824576,1532.190996,-296.082377,9770.718434
1208.824892,1991.848295,-518.144159,9400.615463
1208.825208,1455.581446,-0.000000,9030.512492
1208.825524,1378.971896,1184.329507,8290.306550
1208.825839,1455.581446,-0.000000,8808.450710
1208.826155,2068.457845,-518.144159,10140.821405
1208.826471,995.924147,-148.041188,9030.512492
1208.826787,459.657299,-0.000000,9474.636058
1208.827103,306.438199,-148.041188,9844.739029
1208.827418,229.828649,-888.247130,9844.739029
1208.827734,-306.438199,-1110.308913,10140.821405
1208.828050,-153.219100,-1110.308913,10288.862594
1208.828366,0.000000,-518.144159,9548.656652
1208.828681,-229.828649,-814.226536,10066.800811
1208.828997,-229.828649,-444.123565,10288.862594
1208.829313,1072.533697,-518.144159,9474.636058
1208.829629,306.438199,888.247130,9474.636058
1208.829945,919.314598,888.247130,8882.471304
1208.830260,1225.752797,-0.000000,9474.636058
1208.830576,1302.362347,-0.000000,8956.491898
1208.830892,1302.362347,-222.061783,9326.594869
1208.831208,766.095498,444.123565,9548.656652
1208.831523,766.095498,148.041188,9326.594869
1208.831839,536.266849,370.102971,9696.697840
1208.832155,612.876398,814.226536,9104.533087
1208.832471,459.657299,1406.391290,9548.656652
1208.832787,-383.047749,814.226536,9400.615463
1208.833102,-383.047749,-148.041188,10362.883188
1208.833418,-229.828649,-74.020594,9474.636058
1208.833734,-459.657299,-0.000000,9400.615463
1208.834050,-459.657299,-0.000000,10362.883188
1208.834366,306.438199,-370.102971,9696.697840
1208.834681,0.000000,148.041188,9696.697840
1208.834997,0.000000,370.102971,9104.533087
1208.835313,-536.266849,-0.000000,9696.697840
1208.835629,0.000000,-0.000000,9474.636058
1208.835944,306.438199,-444.123565,10362.883188
1208.836260,383.047749,-74.020594,9400.615463
1208.836576,306.438199,-518.144159,9326.594869
1208.836892,536.266849,-888.247130,9696.697840
1208.837208,306.438199,-518.144159,8882.471304
1208.837523,1149.143247,-1184.329507,10066.800811
1208.837839,383.047749,-1110.308913,9178.553681
1208.838155,153.219100,-0.000000,10288.862594
1208.838471,536.266849,-444.123565,9178.553681
1208.838786,306.438199,-962.267725,9844.739029
1208.839102,306.438199,-74.020594,9474.636058
1208.839418,229.828649,-0.000000,8956.491898
1208.839734,76.609550,296.082377,8808.450710
1208.840050,383.047749,-1110.308913,9992.780217
1208.840365,842.705048,-1406.391290,10584.944971
1208.840681,229.828649,-592.164754,8882.471304
1208.840997,-383.047749,-518.144159,9992.780217
1208.841313,0.000000,-666.185348,9474.636058
1208.841629,1149.143247,-814.226536,9622.677246
1208.841944,536.266849,-0.000000,9548.656652
1208.842260,0.000000,666.185348,9474.636058
1208.842576,76.609550,-74.020594,9178.553681
1208.842892,689.485948,-592.164754,9104.533087
1208.843207,612.876398,-740.205942,9770.718434
1208.843523,766.095498,-592.164754,9252.574275
1208.843839,1149.143247,-74.020594,9548.656652
1208.844155,1225.752797,-0.000000,8512.368333
1208.844471,1685.410096,-74.020594,9400.615463
1208.844786,1455.581446,-148.041188,8364.327145
1208.845102,1072.533697,740.205942,8808.450710
1208.845418,995.924147,666.185348,9696.697840
1208.845734,766.095498,-0.000000,9474.636058
1208.846049,842.705048,-518.144159,9400.615463
1208.846365,612.876398,370.102971,9252.574275
1208.846681,459.657299,222.061783,8512.368333
1208.846997,306.438199,-666.185348,8882.471304
1208.847313,612.876398,-592.164754,10510.924376
1208.847628,229.828649,-740.205942,9770.718434
1208.847944,-459.657299,-296.082377,9696.697840
1208.848260,0.000000,-222.061783,9992.780217
1208.848576,383.047749,-666.185348,9622.677246
1208.848892,306.438199,222.061783,9326.594869
1208.849207,306.438199,-370.102971,9252.574275
1208.849523,536.266849,370.102971,10140.821405
1208.849839,229.828649,296.082377,9474.636058
1208.850155,536.266849,-148.041188,8660.409521
1208.850470,612.876398,-0.000000,8882.471304
1208.850786,0.000000,-740.205942,10436.903782
1208.851102,459.657299,-740.205942,9918.759623
1208.851418,689.485948,-1036.288319,10362.883188
1208.851734,229.828649,-1258.350101,9992.780217
1208.852049,0.000000,-296.082377,9474.636058
1208.852365,383.047749,-444.123565,9252.574275
1208.852681,919.314598,-518.144159,9548.656652
1208.852997,1302.362347,-518.144159,9622.677246
1208.853312,1225.752797,-296.082377,8882.471304
1208.853628,1225.752797,-0.000000,8808.450710
1208.853944,0.000000,-814.226536,8512.368333
1208.854260,306.438199,-1480.411884,9992.780217
1208.854576,766.095498,-1110.308913,9918.759623
1208.854891,-229.828649,-814.226536,9548.656652
1208.855207,-153.219100,-0.000000,10140.821405
1208.855523,-306.438199,-592.164754,9622.677246
1208.855839,459.657299,-814.226536,10436.903782
1208.856155,0.000000,-0.000000,9696.697840
1208.856470,153.219100,444.123565,9030.512492
1208.856786,459.657299,444.123565,9400.615463
1208.857102,842.705048,-74.020594,10066.800811
1208.857418,766.095498,-0.000000,9326.594869
1208.857733,1225.752797,-0.000000,9548.656652
1208.858049,383.047749,740.205942,8068.244768
1208.858365,612.876398,-148.041188,9696.697840
1208.858681,1225.752797,-148.041188,9622.677246
1208.858997,1149.143247,370.102971,8660.409521
1208.859312,229.828649,888.247130,8956.491898
1208.859628,383.047749,370.102971,8586.388927
1208.859944,766.095498,-0.000000,9252.574275
1208.860260,689.485948,-222.061783,9030.512492
1208.860575,0.000000,-222.061783,9548.656652
1208.860891,0.000000,-444.123565,9696.697840
1208.861207,-459.657299,-1036.288319,9474.636058
1208.861523,0.000000,-0.000000,9474.636058
1208.861839,-153.219100,-666.185348,9548.656652
1208.862154,-153.219100,-814.226536,10214.842000
1208.862470,-459.657299,222.061783,8956.491898
1208.862786,153.219100,148.041188,10140.821405
1208.863102,995.924147,-148.041188,8660.409521
1208.863418,536.266849,296.082377,8512.368333
1208.863733,689.485948,444.123565,9474.636058
1208.864049,536.266849,370.102971,9178.553681
1208.864365,995.924147,-0.000000,9548.656652
1208.864681,1302.362347,74.020594,8956.491898
1208.864996,306.438199,222.061783,8956.491898
1208.865312,0.000000,-592.164754,9622.677246
1208.865628,842.705048,-1406.391290,11029.068536
1208.865944,1149.143247,-592.164754,10066.800811
1208.866260,459.657299,-370.102971,9474.636058
1208.866575,459.657299,-0.000000,9548.656652
1208.866891,1072.533697,-888.247130,9474.636058
1208.867207,1225.752797,-370.102971,9474.636058
1208.867523,1149.143247,-0.000000,8882.471304
1208.867838,612.876398,74.020594,9622.677246
1208.868154,229.828649,222.061783,8956.491898
1208.868470,766.095498,-666.185348,10140.821405
1208.868786,459.657299,-518.144159,9474.636058
1208.869102,0.000000,-666.185348,9474.636058
1208.869417,0.000000,-222.061783,9474.636058
1208.869733,306.438199,-518.144159,9548.656652
1208.870049,459.657299,-962.267725,10362.883188
1208.870365,153.219100,-740.205942,9400.615463
1208.870681,153.219100,-0.000000,9918.759623
1208.870996,536.266849,-148.041188,9770.718434
1208.871312,612.876398,370.102971,9474.636058
1208.871628,689.485948,-0.000000,9326.594869
1208.871944,1072.533697,-370.102971,10066.800811
1208.872259,1149.143247,370.102971,10140.821405
1208.872575,919.314598,-148.041188,9474.636058
1208.872891,1225.752797,-0.000000,9622.677246
1208.873207,612.876398,222.061783,8660.409521
1208.873523,383.047749,148.041188,9104.533087
1208.873838,459.657299,-0.000000,9992.780217
1208.874154,459.657299,-740.205942,10214.842000
1208.874470,-153.219100,-74.020594,9326.594869
1208.874786,-459.657299,-518.144159,10214.842000
1208.875101,-689.485948,-148.041188,9104.533087
1208.875417,229.828649,-0.000000,9844.739029
1208.875733,306.438199,-0.000000,8882.471304
1208.876049,153.219100,-296.082377,9104.533087
1208.876365,-229.828649,-296.082377,9844.739029
1208.876680,229.828649,-1184.329507,9252.574275
1208.876996,306.438199,-1480.411884,10140.821405
1208.877312,0.000000,-222.061783,8364.327145
1208.877628,306.438199,-0.000000,8956.491898
1208.877944,306.438199,-0.000000,9104.533087
1208.878259,459.657299,-222.061783,9252.574275
1208.878575,612.876398,-0.000000,9400.615463
1208.878891,76.609550,-222.061783,8438.347739
1208.879207,536.266849,-0.000000,8882.471304
1208.879522,76.609550,-296.082377,8364.327145
1208.879838,1225.752797,-888.247130,10214.842000
1208.880154,1072.533697,-962.267725,9474.636058
1208.880470,0.000000,-592.164754,9696.697840
1208.880786,0.000000,-222.061783,8808.450710
1208.881101,1149.143247,-592.164754,9548.656652
1208.881417,1225.752797,-370.102971,8808.450710
1208.881733,536.266849,222.061783,9548.656652
1208.882049,459.657299,518.144159,9548.656652
1208.882364,612.876398,-148.041188,8734.430116
1208.882680,383.047749,222.061783,9622.677246
1208.882996,1149.143247,-592.164754,9252.574275
1208.883312,0.000000,-0.000000,8882.471304
1208.883628,0.000000,-74.020594,10362.883188
1208.883943,0.000000,-518.144159,10658.965565
1208.884259,306.438199,-444.123565,9548.656652
1208.884575,0.000000,296.082377,9252.574275
1208.884891,-306.438199,444.123565,9770.718434
1208.885207,153.219100,-296.082377,9400.615463
1208.885522,689.485948,-370.102971,10510.924376
1208.885838,306.438199,-0.000000,9770.718434
1208.886154,459.657299,-148.041188,9918.759623
1208.886470,612.876398,370.102971,9252.574275
1208.886785,995.924147,962.267725,9326.594869
1208.887101,1455.581446,148.041188,9252.574275
1208.887417,1072.533697,518.144159,9252.574275
1208.887733,383.047749,444.123565,9622.677246
1208.888049,766.095498,592.164754,9474.636058
1208.888364,612.876398,-222.061783,9622.677246
1208.888680,76.609550,148.041188,9622.677246
1208.888996,0.000000,-0.000000,10510.924376
1208.889312,-612.876398,-0.000000,9474.636058
1208.889627,0.000000,370.102971,10214.842000
1208.889943,76.609550,-74.020594,9326.594869
1208.890259,-536.266849,-370.102971,8882.471304
1208.890575,-919.314598,148.041188,10362.883188
1208.890891,-459.657299,-962.267725,9770.718434
1208.891206,0.000000,-814.226536,10214.842000
1208.891522,-459.657299,-148.041188,9252.574275
1208.891838,-612.876398,-0.000000,9252.574275
1208.892154,229.828649,-0.000000,9030.512492
1208.892470,229.828649,-1036.288319,9992.780217
1208.892785,842.705048,-444.123565,8882.471304
1208.893101,536.266849,-0.000000,8660.409521
1208.893417,306.438199,370.102971,8512.368333
1208.893733,383.047749,-666.185348,9474.636058
1208.894048,1378.971896,-1110.308913,10140.821405
1208.894364,229.828649,-296.082377,8586.388927
1208.894680,0.000000,518.144159,9104.533087
1208.894996,536.266849,-962.267725,9400.615463
1208.895312,1072.533697,-1258.350101,9326.594869
1208.895627,536.266849,-74.020594,9474.636058
1208.895943,459.657299,-296.082377,8808.450710
1208.896259,153.219100,-1110.308913,9474.636058
1208.896575,383.047749,-962.267725,9622.677246
1208.896890,459.657299,-518.144159,9548.656652
1208.897206,229.828649,-814.226536,9030.512492
1208.897522,0.000000,-444.123565,9548.656652
1208.897838,306.438199,-740.205942,9770.718434
1208.898154,689.485948,-0.000000,10066.800811
1208.898469,1149.143247,-222.061783,8438.347739
1208.898785,612.876398,-0.000000,8882.471304
1208.899101,536.266849,-0.000000,9992.780217
1208.899417,1072.533697,370.102971,8882.471304
1208.899733,1225.752797,-370.102971,9178.553681
1208.900048,689.485948,-740.205942,9622.677246
1208.900364,842.705048,-0.000000,9178.553681
1208.900680,1378.971896,-444.123565,9474.636058
1208.900996,1762.019645,-518.144159,10140.821405
1208.901311,689.485948,-296.082377,9252.574275
1208.901627,1225.752797,-148.041188,9622.677246
1208.901943,1455.581446,740.205942,8586.388927
1208.902259,919.314598,444.123565,9178.553681
1208.902575,1532.190996,-0.000000,9622.677246
1208.902890,842.705048,222.061783,8512.368333
1208.903206,0.000000,-222.061783,9326.594869
1208.903522,383.047749,-296.082377,10066.800811
1208.903838,229.828649,-444.123565,10066.800811
1208.904153,-383.047749,-370.102971,9548.656652
1208.904469,-766.095498,-296.082377,9696.697840
1208.904785,-766.095498,-740.205942,9474.636058
1208.905101,76.609550,-1406.391290,10807.006753
1208.905417,383.047749,-222.061783,10510.924376
1208.905732,-995.924147,148.041188,9474.636058
1208.906048,-229.828649,-0.000000,9474.636058
1208.906364,0.000000,-148.041188,9178.553681
1208.906680,689.485948,-148.041188,9474.636058
1208.906996,842.705048,-0.000000,9178.553681
1208.907311,1149.143247,74.020594,9030.512492
1208.907627,459.657299,518.144159,9252.574275
1208.907943,842.705048,444.123565,9326.594869
1208.908259,1225.752797,370.102971,8956.491898
1208.908574,995.924147,592.164754,9030.512492
1208.908890,459.657299,1036.288319,10214.842000
1208.909206,76.609550,-0.000000,9548.656652
1208.909522,689.485948,-666.185348,10732.986159
1208.909838,0.000000,-888.247130,10362.883188
1208.910153,383.047749,-296.082377,9104.533087
1208.910469,459.657299,296.082377,9252.574275
1208.910785,0.000000,-592.164754,9844.739029
1208.911101,76.609550,-370.102971,10658.965565
1208.911416,459.657299,-148.041188,9548.656652
1208.911732,-383.047749,666.185348,9400.615463
1208.912048,-229.828649,592.164754,9252.574275
1208.912364,306.438199,-296.082377,9548.656652
1208.912680,689.485948,-0.000000,9326.594869
1208.912995,153.219100,-222.061783,9326.594869
1208.913311,689.485948,-444.123565,9548.656652
1208.913627,766.095498,-370.102971,9178.553681
1208.913943,459.657299,-0.000000,9178.553681
1208.914259,306.438199,148.041188,9030.512492
1208.914574,383.047749,592.164754,9178.553681
1208.914890,536.266849,1036.288319,9400.615463
1208.915206,766.095498,-740.205942,9104.533087
1208.915522,383.047749,-296.082377,9104.533087
1208.915837,612.876398,-0.000000,8956.491898
1208.916153,612.876398,-0.000000,8512.368333
1208.916469,919.314598,-0.000000,9844.739029
1208.916785,536.266849,518.144159,9400.615463
1208.917101,306.438199,444.123565,8142.265362
1208.917417,-612.876398,148.041188,9030.512492
1208.917732,-383.047749,-518.144159,9474.636058
1208.918048,766.095498,-1184.329507,10214.842000
1208.918364,153.219100,-222.061783,8512.368333
1208.918680,-459.657299,74.020594,9178.553681
1208.918996,153.219100,-148.041188,9844.739029
1208.919312,383.047749,-0.000000,9252.574275
1208.919627,536.266849,-370.102971,9474.636058
1208.919943,229.828649,-296.082377,8512.368333
1208.920259,612.876398,222.061783,9696.697840
1208.920575,766.095498,-0.000000,9252.574275
1208.920891,1608.800546,-444.123565,9770.718434
1208.921207,1149.143247,-518.144159,8882.471304
1208.921522,536.266849,-0.000000,9474.636058
1208.921838,536.266849,296.082377,8808.450710
1208.922154,995.924147,-740.205942,10066.800811
1208.922470,459.657299,-148.041188,9178.553681
1208.922786,612.876398,-740.205942,10140.821405
1208.923102,383.047749,-370.102971,10066.800811
1208.923417,383.047749,-592.164754,10140.821405
1208.923733,229.828649,-962.267725,10362.883188
1208.924049,612.876398,-592.164754,9696.697840
1208.924365,919.314598,-444.123565,10066.800811
1208.924681,153.219100,-370.102971,10288.862594
1208.924997,689.485948,-370.102971,10510.924376
1208.925312,1072.533697,-740.205942,9548.656652
1208.925628,995.924147,-0.000000,9326.594869
1208.925944,919.314598,-0.000000,9548.656652
1208.926260,1378.971896,-888.247130,9622.677246
1208.926576,1838.629195,-592.164754,9474.636058
1208.926892,1072.533697,-74.020594,8512.368333
1208.927207,1072.533697,-148.041188,10362.883188
1208.927523,995.924147,-222.061783,9252.574275
1208.927839,689.485948,222.061783,9474.636058
1208.928155,459.657299,-666.185348,9844.739029
1208.928471,0.000000,-814.226536,9474.636058
1208.928787,0.000000,-148.041188,9400.615463
1208.929103,383.047749,-1184.329507,9770.718434
1208.929418,383.047749,-1258.350101,10288.862594
1208.929734,0.000000,-814.226536,9474.636058
1208.930050,229.828649,-296.082377,9252.574275
1208.930366,-229.828649,222.061783,9548.656652
1208.930682,842.705048,-74.020594,9400.615463
1208.930998,766.095498,-74.020594,8438.347739
1208.931313,0.000000,444.123565,8660.409521
1208.931629,-153.219100,-0.000000,9622.677246
1208.931945,459.657299,-74.020594,9400.615463
1208.932261,1302.362347,-444.123565,9474.636058
1208.932577,306.438199,-0.000000,8512.368333
1208.932893,0.000000,370.102971,9252.574275
1208.933208,383.047749,-296.082377,8068.244768
1208.933524,919.314598,-1036.288319,9844.739029
1208.933840,0.000000,-518.144159,9844.739029
1208.934156,612.876398,-592.164754,9326.594869
1208.934472,-229.828649,222.061783,8882.471304
1208.934788,0.000000,-148.041188,9696.697840
1208.935103,459.657299,-148.041188,8956.491898
1208.935419,306.438199,-444.123565,9252.574275
1208.935735,0.000000,222.061783,9474.636058
1208.936051,-229.828649,-1036.288319,9400.615463
1208.936367,459.657299,-1554.432478,9844.739029
1208.936683,0.000000,-518.144159,9474.636058
1208.936998,-383.047749,-0.000000,9622.677246
1208.937314,383.047749,-74.020594,9178.553681
1208.937630,0.000000,-74.020594,9400.615463
1208.937946,-229.828649,-222.061783,10288.862594
1208.938262,459.657299,-222.061783,9326.594869
1208.938578,459.657299,-296.082377,8734.430116
1208.938893,229.828649,666.185348,9252.574275
1208.939209,689.485948,-814.226536,10214.842000
1208.939525,766.095498,-592.164754,9918.759623
1208.939841,76.609550,1110.308913,9474.636058
1208.940157,0.000000,148.041188,9326.594869
1208.940473,153.219100,370.102971,10288.862594
1208.940788,536.266849,-0.000000,10214.842000
1208.941104,0.000000,1184.329507,8660.409521
1208.941420,153.219100,962.267725,9844.739029
1208.941736,-153.219100,222.061783,10510.924376
1208.942052,612.876398,-222.061783,10214.842000
1208.942368,76.609550,148.041188,9400.615463
1208.942683,0.000000,296.082377,10510.924376
1208.942999,689.485948,-74.020594,9992.780217
1208.943315,995.924147,-74.020594,9844.739029
1208.943631,1302.362347,814.226536,10140.821405
1208.943947,842.705048,1110.308913,9104.533087
1208.944263,1072.533697,1110.308913,9178.553681
1208.944578,1302.362347,444.123565,9178.553681
1208.944894,1455.581446,592.164754,9104.533087
1208.945210,1225.752797,370.102971,9474.636058
1208.945526,612.876398,222.061783,9474.636058
1208.945842,536.266849,-0.000000,9844.739029
1208.946158,383.047749,222.061783,9548.656652
1208.946473,459.657299,-740.205942,9696.697840
1208.946789,-229.828649,-814.226536,9252.574275
1208.947105,-536.266849,-370.102971,10732.986159
1208.947421,0.000000,-888.247130,9548.656652
1208.947737,-153.219100,-814.226536,9696.697840
1208.948053,0.000000,-740.205942,9770.718434
1208.948368,0.000000,-592.164754,9548.656652
1208.948684,306.438199,-148.041188,9104.533087
1208.949000,612.876398,-0.000000,9104.533087
1208.949316,1072.533697,-962.267725,9104.533087
1208.949632,383.047749,-1184.329507,9548.656652
1208.949948,536.266849,-1554.432478,9104.533087
1208.950263,1149.143247,-222.061783,9030.512492
1208.950579,1685.410096,-740.205942,10584.944971
1208.950895,1455.581446,-444.123565,7698.141797
1208.951211,1149.143247,962.267725,8216.285956
1208.951527,689.485948,-0.000000,8956.491898
1208.951843,1302.362347,-1332.370696,9474.636058
1208.952158,995.924147,-666.185348,9474.636058
1208.952474,842.705048,-1480.411884,9474.636058
1208.952790,229.828649,-1184.329507,8438.347739
1208.953106,76.609550,-1406.391290,9474.636058
1208.953422,536.266849,-1776.494261,10140.821405
1208.953738,306.438199,-666.185348,9548.656652
1208.954053,-229.828649,-370.102971,9918.759623
1208.954369,-229.828649,-740.205942,9326.594869
1208.954685,229.828649,-740.205942,9474.636058
1208.955001,383.047749,-1258.350101,9326.594869
1208.955317,689.485948,-444.123565,9622.677246
1208.955633,459.657299,-222.061783,9252.574275
1208.955948,842.705048,-222.061783,8364.327145
1208.956264,1302.362347,-148.041188,9252.574275
1208.956580,536.266849,-296.082377,9548.656652
1208.956896,459.657299,370.102971,9474.636058
1208.957212,459.657299,-0.000000,8882.471304
1208.957528,689.485948,-148.041188,9696.697840
1208.957843,689.485948,-0.000000,10288.862594
1208.958159,612.876398,-74.020594,8956.491898
1208.958475,76.609550,-0.000000,9548.656652
1208.958791,0.000000,-444.123565,9918.759623
1208.959107,842.705048,-740.205942,10362.883188
1208.959423,459.657299,814.226536,8660.409521
1208.959738,-229.828649,814.226536,9030.512492
1208.960054,-306.438199,-222.061783,10066.800811
1208.960370,306.438199,-518.144159,10584.944971
1208.960686,229.828649,-222.061783,9548.656652
1208.961002,-536.266849,444.123565,8734.430116
1208.961318,0.000000,-0.000000,9918.759623
1208.961633,229.828649,-666.185348,9400.615463
1208.961949,995.924147,-0.000000,10658.965565
1208.962265,995.924147,-0.000000,8882.471304
1208.962581,306.438199,-518.144159,9400.615463
1208.962897,306.438199,296.082377,9770.718434
1208.963213,1072.533697,-888.247130,9770.718434
1208.963528,612.876398,518.144159,8808.450710
1208.963844,612.876398,-0.000000,9770.718434
1208.964160,459.657299,148.041188,10288.862594
1208.964476,536.266849,222.061783,9030.512492
1208.964792,536.266849,-370.102971,9918.759623
1208.965108,995.924147,-962.267725,10288.862594
1208.965423,766.095498,-0.000000,9844.739029
1208.965739,536.266849,296.082377,8882.471304
1208.966055,1455.581446,-0.000000,10510.924376
1208.966371,1378.971896,-0.000000,9622.677246
1208.966687,383.047749,962.267725,8290.306550
1208.967003,0.000000,592.164754,9548.656652
1208.967319,153.219100,-74.020594,10584.944971
1208.967634,1225.752797,-74.020594,9548.656652
1208.967950,383.047749,592.164754,8660.409521
1208.968266,153.219100,-0.000000,10140.821405
1208.968582,459.657299,-592.164754,10214.842000
1208.968898,1149.143247,-0.000000,9178.553681
1208.969214,76.609550,-0.000000,8956.491898
1208.969529,459.657299,-74.020594,9696.697840
1208.969845,76.609550,296.082377,9548.656652
1208.970161,459.657299,-222.061783,10066.800811
1208.970477,229.828649,-666.185348,9992.780217
1208.970793,0.000000,-222.061783,9178.553681
1208.971109,0.000000,148.041188,9030.512492
1208.971424,842.705048,148.041188,9400.615463
1208.971740,1608.800546,-518.144159,9770.718434
1208.972056,842.705048,-0.000000,8586.388927
1208.972372,689.485948,-0.000000,9696.697840
1208.972688,459.657299,-370.102971,9622.677246
1208.973004,842.705048,-74.020594,8364.327145
1208.973319,995.924147,296.082377,9474.636058
1208.973635,76.609550,-148.041188,8586.388927
1208.973951,153.219100,148.041188,9548.656652
1208.974267,229.828649,296.082377,8956.491898
1208.974583,383.047749,-370.102971,8956.491898
1208.974899,0.000000,-444.123565,9104.533087
1208.975214,0.000000,-296.082377,9400.615463
1208.975530,-536.266849,-0.000000,8734.430116
1208.975846,-612.876398,-592.164754,10584.944971
1208.976162,-306.438199,-1184.329507,10362.883188
1208.976478,-842.705048,-0.000000,9622.677246
1208.976794,-919.314598,370.102971,9770.718434
1208.977109,-919.314598,-592.164754,8882.471304
1208.977425,76.609550,-962.267725,10807.006753
1208.977741,229.828649,-0.000000,9030.512492
1208.978057,1072.533697,444.123565,9030.512492
1208.978373,459.657299,-222.061783,9548.656652
1208.978689,612.876398,-814.226536,10140.821405
1208.979004,995.924147,-888.247130,9326.594869
1208.979320,1225.752797,-1110.308913,9326.594869
1208.979636,689.485948,-0.000000,9770.718434
1208.979952,842.705048,-0.000000,8882.471304
1208.980268,1225.752797,-296.082377,9104.533087
1208.980584,1378.971896,-1036.288319,9178.553681
1208.980899,459.657299,-296.082377,9326.594869
1208.981215,0.000000,-74.020594,9326.594869
1208.981531,153.219100,-444.123565,9992.780217
1208.981847,229.828649,-1258.350101,9548.656652
1208.982163,76.609550,-1036.288319,9400.615463
1208.982479,-153.219100,-962.267725,10807.006753
1208.982794,0.000000,-2146.597232,10436.903782
1208.983110,459.657299,-962.267725,9992.780217
1208.983426,689.485948,-518.144159,9474.636058
1208.983742,459.657299,-814.226536,9474.636058
1208.984058,1072.533697,-0.000000,9696.697840
1208.984374,1608.800546,518.144159,9474.636058
1208.984689,1685.410096,-0.000000,9104.533087
1208.985005,1072.533697,592.164754,9178.553681
1208.985321,1302.362347,370.102971,9474.636058
1208.985637,1532.190996,370.102971,8068.244768
1208.985953,1302.362347,740.205942,9400.615463
1208.986269,1838.629195,-518.144159,9030.512492
1208.986584,459.657299,-74.020594,8882.471304
1208.986900,-153.219100,-444.123565,9844.739029
1208.987216,0.000000,-1184.329507,10881.027347
1208.987532,919.314598,-518.144159,9326.594869
1208.987848,153.219100,370.102971,9030.512492
1208.988164,0.000000,518.144159,9696.697840
1208.988479,76.609550,-296.082377,9252.574275
1208.988795,1225.752797,-444.123565,9474.636058
1208.989111,229.828649,370.102971,8290.306550
1208.989427,0.000000,-0.000000,8660.409521
1208.989743,-153.219100,296.082377,9474.636058
1208.990059,383.047749,-74.020594,9770.718434
1208.990374,383.047749,-0.000000,9400.615463
1208.990690,0.000000,814.226536,8882.471304
1208.991006,-842.705048,-296.082377,8882.471304
1208.991322,-229.828649,-370.102971,9178.553681
1208.991638,383.047749,-592.164754,10584.944971
1208.991954,0.000000,-1184.329507,9252.574275
1208.992269,-229.828649,148.041188,9696.697840
1208.992585,0.000000,-0.000000,8956.491898
1208.992901,383.047749,-888.247130,9770.718434
1208.993217,306.438199,-814.226536,10214.842000
1208.993533,153.219100,-222.061783,9548.656652
1208.993849,689.485948,-0.000000,9474.636058
1208.994164,766.095498,222.061783,9104.533087
1208.994480,1685.410096,-296.082377,9548.656652
1208.994796,1455.581446,-0.000000,8808.450710
1208.995112,612.876398,518.144159,9400.615463
1208.995428,689.485948,592.164754,8882.471304
1208.995744,919.314598,-148.041188,9844.739029
1208.996059,459.657299,-370.102971,9326.594869
1208.996375,229.828649,-444.123565,9992.780217
1208.996691,0.000000,-1036.288319,10066.800811
1208.997007,76.609550,-1110.308913,10214.842000
1208.997323,229.828649,-814.226536,10807.006753
1208.997639,689.485948,-370.102971,9622.677246
1208.997954,0.000000,296.082377,9548.656652
1208.998270,383.047749,518.144159,9030.512492
1208.998586,1149.143247,-148.041188,9918.759623
1208.998902,1378.971896,222.061783,10140.821405
1208.999218,995.924147,592.164754,8586.388927
1208.999534,0.000000,-0.000000,9548.656652
1208.999849,1149.143247,-888.247130,10214.842000
1209.000165,919.314598,-370.102971,9696.697840
1209.000481,995.924147,592.164754,8808.450710
1209.000797,919.314598,518.144159,10066.800811
1209.001113,766.095498,-0.000000,9622.677246
1209.001429,1455.581446,-0.000000,9178.553681
1209.001744,459.657299,592.164754,8512.368333
1209.002060,306.438199,-370.102971,9548.656652
1209.002376,0.000000,-370.102971,9474.636058
1209.002692,0.000000,-222.061783,9474.636058
1209.003008,383.047749,-296.082377,9918.759623
1209.003324,-459.657299,-592.164754,8660.409521
1209.003639,-383.047749,-0.000000,9474.636058
1209.003955,-766.095498,-518.144159,9178.553681
1209.004271,0.000000,-740.205942,9844.739029
1209.004587,-383.047749,-666.185348,9918.759623
1209.004903,-612.876398,-888.247130,9770.718434
1209.005219,-383.047749,-666.185348,9622.677246
1209.005535,-459.657299,-74.020594,9326.594869
1209.005850,306.438199,-740.205942,8808.450710
1209.006166,383.047749,-1036.288319,8660.409521
1209.006482,229.828649,-444.123565,9178.553681
1209.006798,536.266849,-444.123565,9030.512492
1209.007114,766.095498,-740.205942,9992.780217
1209.007430,766.095498,-518.144159,8882.471304
1209.007745,229.828649,-296.082377,8660.409521
1209.008061,842.705048,222.061783,9178.553681
1209.008377,995.924147,-666.185348,9474.636058
1209.008693,1838.629195,-1258.350101,9178.553681
1209.009009,1302.362347,-222.061783,9030.512492
1209.009325,153.219100,296.082377,9400.615463
1209.009640,536.266849,814.226536,8734.430116
1209.009956,383.047749,-0.000000,9252.574275
1209.010272,0.000000,-0.000000,9252.574275
1209.010588,-229.828649,-296.082377,9992.780217
1209.010904,-459.657299,-370.102971,9770.718434
1209.011220,-229.828649,-888.247130,10510.924376
1209.011535,689.485948,-1110.308913,10066.800811
1209.011851,306.438199,-296.082377,8660.409521
1209.012167,0.000000,592.164754,9696.697840
1209.012483,995.924147,370.102971,9622.677246
1209.012799,995.924147,-0.000000,9400.615463
1209.013115,689.485948,370.102971,9326.594869
1209.013430,153.219100,814.226536,9696.697840
1209.013746,689.485948,296.082377,9030.512492
1209.014062,1455.581446,444.123565,9548.656652
1209.014378,1149.143247,444.123565,9918.759623
1209.014694,1149.143247,444.123565,9030.512492
1209.015010,1149.143247,1036.288319,8364.327145
1209.015325,383.047749,-148.041188,9696.697840
1209.015641,842.705048,-74.020594,11103.089130
1209.015957,842.705048,-296.082377,9400.615463
1209.016273,0.000000,1036.288319,9326.594869
1209.016589,229.828649,-0.000000,9992.780217
1209.016905,689.485948,-148.041188,9696.697840
1209.017220,536.266849,148.041188,9696.697840
1209.017536,76.609550,444.123565,8882.471304
1209.017852,-153.219100,370.102971,9326.594869
1209.018167,536.266849,-74.020594,9696.697840
1209.018483,766.095498,-592.164754,9844.739029
1209.018799,612.876398,-222.061783,9252.574275
1209.019114,76.609550,-148.041188,9696.697840
1209.019430,306.438199,-0.000000,9548.656652
1209.019746,842.705048,-222.061783,10140.821405
1209.020061,919.314598,-0.000000,8882.471304
1209.020377,689.485948,740.205942,8660.409521
1209.020693,459.657299,-0.000000,9326.594869
1209.021008,689.485948,-962.267725,9696.697840
1209.021324,766.095498,-814.226536,10362.883188
1209.021640,612.876398,-1406.391290,9622.677246
1209.021955,459.657299,148.041188,9696.697840
1209.022271,536.266849,-0.000000,9474.636058
1209.022587,689.485948,-444.123565,9844.739029
1209.022902,536.266849,-518.144159,9622.677246
1209.023218,-153.219100,-296.082377,8956.491898
1209.023534,-383.047749,370.102971,9400.615463
1209.023849,76.609550,-592.164754,9918.759623
1209.024165,306.438199,-814.226536,9326.594869
1209.024481,0.000000,-148.041188,9400.615463
1209.024796,-536.266849,-1036.288319,10214.842000
1209.025112,-766.095498,-1702.473667,10584.944971
1209.025428,0.000000,-1184.329507,10288.862594
1209.025743,0.000000,-740.205942,8956.491898
1209.026059,76.609550,-296.082377,9622.677246
1209.026375,0.000000,-296.082377,9918.759623
1209.026690,153.219100,-148.041188,9696.697840
1209.027006,766.095498,-74.020594,9400.615463
1209.027322,612.876398,148.041188,8290.306550
1209.027637,76.609550,370.102971,8364.327145
1209.027953,383.047749,-962.267725,9622.677246
1209.028269,1378.971896,-444.123565,9992.780217
1209.028584,1455.581446,-148.041188,8142.265362
1209.028900,459.657299,444.123565,8068.244768
1209.029216,153.219100,-74.020594,9104.533087
1209.029531,0.000000,-296.082377,9474.636058
1209.029847,383.047749,-518.144159,9400.615463
1209.030163,-383.047749,-296.082377,9252.574275
1209.030478,153.219100,-222.061783,9104.533087
1209.030794,-536.266849,-666.185348,9548.656652
1209.031110,229.828649,-1184.329507,9474.636058
1209.031425,842.705048,-1332.370696,9622.677246
1209.031741,459.657299,-0.000000,8882.471304
1209.032057,0.000000,666.185348,8808.450710
1209.032372,612.876398,-222.061783,9696.697840
1209.032688,919.314598,-370.102971,9326.594869
1209.033004,383.047749,592.164754,8512.368333
1209.033319,306.438199,518.144159,9622.677246
1209.033635,459.657299,-666.185348,9178.553681
1209.033951,1225.752797,-296.082377,10140.821405
1209.034266,1149.143247,-74.020594,8956.491898
1209.034582,842.705048,-222.061783,8734.430116
1209.034898,919.314598,-222.061783,9770.718434
1209.035213,766.095498,-296.082377,9770.718434
1209.035529,1378.971896,-740.205942,9992.780217
1209.035845,306.438199,-296.082377,9474.636058
1209.036160,536.266849,-74.020594,10732.986159
1209.036476,612.876398,-0.000000,9622.677246
1209.036792,1225.752797,-148.041188,9696.697840
1209.037107,842.705048,-0.000000,8438.347739
1209.037423,689.485948,-222.061783,9992.780217
1209.037739,766.095498,-370.102971,10066.800811
1209.038054,766.095498,-148.041188,10436.903782
1209.038370,766.095498,-0.000000,9918.759623
1209.038686,229.828649,-0.000000,9400.615463
1209.039001,-153.219100,-0.000000,9918.759623
1209.039317,459.657299,-0.000000,10362.883188
1209.039633,766.095498,-0.000000,9918.759623
1209.039948,0.000000,148.041188,9844.739029
1209.040264,153.219100,370.102971,9548.656652
1209.040580,383.047749,-74.020594,9104.533087
1209.040895,612.876398,-0.000000,10584.944971
1209.041211,612.876398,-444.123565,10658.965565
1209.041527,459.657299,296.082377,9696.697840
1209.041843,153.219100,296.082377,10066.800811
1209.042158,76.609550,296.082377,9474.636058
1209.042474,919.314598,222.061783,9992.780217
1209.042790,1072.533697,222.061783,9918.759623
1209.043105,229.828649,666.185348,9178.553681
1209.043421,689.485948,1110.308913,8882.471304
1209.043737,689.485948,888.247130,9326.594869
1209.044052,842.705048,-0.000000,8660.409521
1209.044368,383.047749,444.123565,9252.574275
1209.044684,383.047749,-370.102971,8882.471304
1209.044999,-536.266849,-518.144159,10214.842000
1209.045315,0.000000,-592.164754,10066.800811
1209.045631,0.000000,-1776.494261,9252.574275
1209.045946,-842.705048,-74.020594,8882.471304
1209.046262,-995.924147,-814.226536,9030.512492
1209.046578,-383.047749,-962.267725,9548.656652
1209.046893,-536.266849,-1036.288319,9400.615463
1209.047209,-612.876398,-444.123565,8808.450710
1209.047525,-919.314598,-74.020594,8438.347739
1209.047840,-306.438199,-370.102971,9178.553681
1209.048156,0.000000,-888.247130,8808.450710
1209.048472,0.000000,-888.247130,9030.512492
1209.048787,0.000000,-1332.370696,9474.636058
1209.049103,0.000000,-1110.308913,8586.388927
1209.049419,306.438199,-740.205942,9400.615463
1209.049734,383.047749,-740.205942,9252.574275
1209.050050,306.438199,-370.102971,9326.594869
1209.050366,1149.143247,148.041188,8882.471304
1209.050681,919.314598,-74.020594,8290.306550
1209.050997,1378.971896,-962.267725,9400.615463
1209.051313,1302.362347,-1184.329507,9770.718434
1209.051628,1072.533697,-222.061783,8586.388927
1209.051944,842.705048,-74.020594,9400.615463
1209.052260,1149.143247,-0.000000,9178.553681
1209.052575,842.705048,-666.185348,9030.512492
1209.052891,766.095498,-370.102971,9548.656652
1209.053207,306.438199,-148.041188,9474.636058
1209.053522,612.876398,-518.144159,9992.780217
1209.053838,1072.533697,-444.123565,9770.718434
1209.054154,919.314598,-296.082377,9252.574275
1209.054469,689.485948,-0.000000,9770.718434
1209.054785,1302.362347,-74.020594,9770.718434
1209.055101,689.485948,-814.226536,10510.924376
1209.055416,995.924147,-444.123565,9622.677246
1209.055732,689.485948,-444.123565,9622.677246
1209.056048,1149.143247,-740.205942,10288.862594
1209.056363,919.314598,-592.164754,10658.965565
1209.056679,1608.800546,444.123565,10066.800811
1209.056995,1455.581446,1110.308913,9548.656652
1209.057310,1762.019645,1332.370696,8512.368333
1209.057626,1455.581446,962.267725,9326.594869
1209.057942,1991.848295,518.144159,9844.739029
1209.058257,1225.752797,444.123565,9104.533087
1209.058573,766.095498,-0.000000,9696.697840
1209.058889,0.000000,222.061783,10140.821405
1209.059204,0.000000,-148.041188,9918.759623
1209.059520,0.000000,-814.226536,10140.821405
1209.059836,-153.219100,-592.164754,10288.862594
1209.060151,-919.314598,-518.144159,10436.903782
1209.060467,-612.876398,-518.144159,10510.924376
1209.060783,0.000000,-296.082377,9104.533087
1209.061098,153.219100,-370.102971,8956.491898
1209.061414,0.000000,296.082377,9918.759623
1209.061730,153.219100,-148.041188,8660.409521
1209.062045,229.828649,-148.041188,9252.574275
1209.062361,612.876398,-222.061783,9252.574275
1209.062677,76.609550,-888.247130,8586.388927
1209.062992,536.266849,-740.205942,9326.594869
1209.063308,459.657299,-592.164754,9030.512492
1209.063624,1302.362347,-518.144159,9696.697840
1209.063939,1302.362347,-148.041188,8512.368333
1209.064255,153.219100,-592.164754,9252.574275
1209.064571,-153.219100,-296.082377,9696.697840
1209.064886,689.485948,148.041188,9030.512492
1209.065202,612.876398,-0.000000,7624.121203
1209.065518,612.876398,-518.144159,9548.656652
1209.065833,-536.266849,-518.144159,10140.821405
1209.066149,0.000000,-0.000000,8956.491898
1209.066465,-153.219100,-74.020594,9030.512492
1209.066780,-306.438199,-814.226536,10066.800811
1209.067096,-153.219100,-666.185348,9622.677246
1209.067412,-306.438199,-370.102971,9474.636058
1209.067727,0.000000,-444.123565,10807.006753
1209.068043,459.657299,-666.185348,9844.739029
1209.068359,229.828649,222.061783,8734.430116
1209.068674,689.485948,-0.000000,9918.759623
1209.068990,0.000000,518.144159,9104.533087
1209.069306,1225.752797,222.061783,9548.656652
1209.069621,842.705048,222.061783,9326.594869
1209.069937,842.705048,962.267725,9548.656652
1209.070253,766.095498,370.102971,8808.450710
1209.070569,1149.143247,-148.041188,8956.491898
1209.070884,1378.971896,-962.267725,10658.965565
1209.071200,766.095498,-222.061783,9844.739029
1209.071516,1378.971896,962.267725,9548.656652
1209.071831,1302.362347,-0.000000,9844.739029
1209.072147,919.314598,222.061783,9400.615463
1209.072463,1225.752797,296.082377,9622.677246
1209.072778,383.047749,444.123565,8438.347739
1209.073094,383.047749,444.123565,9992.780217
1209.073410,536.266849,-814.226536,10362.883188
1209.073725,689.485948,-444.123565,9548.656652
1209.074041,0.000000,-296.082377,9770.718434
1209.074357,153.219100,-444.123565,9548.656652
1209.074672,-306.438199,-518.144159,10140.821405
1209.074988,459.657299,-74.020594,9770.718434
1209.075304,459.657299,-0.000000,9474.636058
1209.075619,153.219100,-148.041188,9992.780217
1209.075935,0.000000,-222.061783,9622.677246
1209.076251,842.705048,-74.020594,9622.677246
1209.076566,766.095498,296.082377,8290.306550
1209.076882,1378.971896,592.164754,9474.636058
1209.077198,919.314598,518.144159,9104.533087
1209.077513,612.876398,148.041188,8512.368333
1209.077829,1455.581446,-962.267725,9326.594869
1209.078145,612.876398,-1184.329507,9770.718434
1209.078460,0.000000,-370.102971,9252.574275
1209.078776,153.219100,-962.267725,9326.594869
1209.079092,306.438199,-518.144159,9474.636058
1209.079407,76.609550,-962.267725,9548.656652
1209.079723,-383.047749,-222.061783,9326.594869
1209.080039,0.000000,-518.144159,9474.636058
1209.080354,-306.438199,-1036.288319,9252.574275
1209.080670,153.219100,-592.164754,9252.574275
1209.080986,-153.219100,-1332.370696,9622.677246
1209.081301,-306.438199,-888.247130,9104.533087
1209.081617,76.609550,-888.247130,9474.636058
1209.081933,0.000000,-1110.308913,10881.027347
1209.082248,536.266849,-444.123565,9548.656652
1209.082564,0.000000,888.247130,8216.285956
1209.082880,76.609550,666.185348,9104.533087
1209.083195,919.314598,-0.000000,9844.739029
1209.083511,1072.533697,-74.020594,9622.677246
1209.083827,842.705048,296.082377,8808.450710
1209.084142,383.047749,-296.082377,10066.800811
1209.084458,766.095498,-444.123565,9474.636058
1209.084774,1072.533697,-74.020594,9030.512492
1209.085089,766.095498,-0.000000,9770.718434
1209.085405,689.485948,666.185348,9548.656652
1209.085721,536.266849,370.102971,9178.553681
1209.086036,689.485948,1110.308913,9104.533087
1209.086352,689.485948,-148.041188,9178.553681
1209.086668,459.657299,444.123565,8586.388927
1209.086983,153.219100,888.247130,9326.594869
1209.087299,-383.047749,-222.061783,8956.491898
1209.087615,0.000000,-148.041188,9844.739029
1209.087930,-459.657299,-370.102971,9770.718434
1209.088246,-842.705048,-592.164754,9474.636058
1209.088562,-919.314598,-0.000000,9918.759623
1209.088877,-842.705048,-666.185348,9918.759623
1209.089193,229.828649,-666.185348,10214.842000
1209.089509,76.609550,-740.205942,9474.636058
1209.089824,0.000000,-0.000000,9474.636058
1209.090140,383.047749,-0.000000,9770.718434
1209.090456,919.314598,296.082377,9030.512492
1209.090771,1072.533697,518.144159,8586.388927
1209.091087,766.095498,1036.288319,8956.491898
1209.091403,995.924147,592.164754,9696.697840
1209.091718,995.924147,-296.082377,9844.739029
1209.092034,919.314598,-296.082377,9696.697840
1209.092350,919.314598,-0.000000,9622.677246
1209.092665,76.609550,-222.061783,9918.759623
1209.092981,153.219100,370.102971,9474.636058
1209.093297,766.095498,148.041188,10584.944971
1209.093612,842.705048,-148.041188,9104.533087
1209.093928,383.047749,-0.000000,9696.697840
1209.094244,306.438199,-370.102971,9918.759623
1209.094559,383.047749,-740.205942,9474.636058
1209.094875,229.828649,-222.061783,9770.718434
1209.095191,459.657299,-296.082377,10362.883188
1209.095506,536.266849,296.082377,9030.512492
1209.095822,306.438199,444.123565,8364.327145
1209.096138,1149.143247,-222.061783,9992.780217
1209.096453,1302.362347,-888.247130,9622.677246
1209.096769,842.705048,-0.000000,9696.697840
1209.097085,689.485948,518.144159,8364.327145
1209.097400,995.924147,-0.000000,8512.368333
1209.097716,995.924147,-148.041188,9844.739029
1209.098032,995.924147,-0.000000,10140.821405
1209.098347,306.438199,1258.350101,9178.553681
1209.098663,153.219100,-0.000000,9474.636058
1209.098979,153.219100,-370.102971,9844.739029
1209.099295,383.047749,-444.123565,9400.615463
1209.099610,0.000000,-148.041188,9548.656652
1209.099926,153.219100,-814.226536,10288.862594
1209.100242,306.438199,-1036.288319,10288.862594
1209.100557,383.047749,-296.082377,9104.533087
1209.100873,76.609550,814.226536,9474.636058
1209.101189,-459.657299,370.102971,9178.553681
1209.101504,153.219100,296.082377,9030.512492
1209.101820,919.314598,-0.000000,9030.512492
1209.102136,229.828649,-814.226536,8882.471304
1209.102451,153.219100,-888.247130,10140.821405
1209.102767,-153.219100,-888.247130,9178.553681
1209.103083,612.876398,-1406.391290,9770.718434
1209.103398,76.609550,-222.061783,9548.656652
1209.103714,0.000000,148.041188,9030.512492
1209.104030,-229.828649,-444.123565,9326.594869
1209.104345,76.609550,-1480.411884,9844.739029
1209.104661,383.047749,-1628.453072,9326.594869
1209.104977,536.266849,-814.226536,9622.677246
1209.105292,229.828649,-222.061783,9178.553681
1209.105608,306.438199,-814.226536,9252.574275
1209.105924,1149.143247,-74.020594,9622.677246
1209.106239,1149.143247,-444.123565,9400.615463
1209.106555,383.047749,-888.247130,9178.553681
1209.106871,383.047749,-1110.308913,9474.636058
1209.107186,0.000000,-888.247130,9770.718434
1209.107502,1455.581446,-1480.411884,9474.636058
1209.107818,1532.190996,-296.082377,9474.636058
1209.108133,1302.362347,592.164754,8290.306550
1209.108449,383.047749,-0.000000,8734.430116
1209.108765,1072.533697,-222.061783,9252.574275
1209.109080,1838.629195,-962.267725,9696.697840
1209.109396,995.924147,148.041188,8882.471304
1209.109712,76.609550,-148.041188,8882.471304
1209.110027,229.828649,-1332.370696,9696.697840
1209.110343,1225.752797,-1332.370696,10066.800811
1209.110659,1225.752797,-518.144159,8956.491898
1209.110974,0.000000,-148.041188,9770.718434
1209.111290,229.828649,370.102971,8808.450710
1209.111606,0.000000,-0.000000,9326.594869
1209.111921,383.047749,-666.185348,9844.739029
1209.112237,536.266849,-666.185348,10140.821405
1209.112553,0.000000,-740.205942,9992.780217
1209.112868,383.047749,-592.164754,9622.677246
1209.113184,766.095498,-740.205942,10066.800811
1209.113500,842.705048,-222.061783,9770.718434
1209.113815,1915.238745,370.102971,8734.430116
1209.114131,536.266849,518.144159,9474.636058
1209.114447,1532.190996,222.061783,10288.862594
1209.114762,1532.190996,444.123565,9178.553681
1209.115078,536.266849,814.226536,8586.388927
1209.115394,459.657299,-148.041188,9696.697840
1209.115709,842.705048,222.061783,9474.636058
1209.116025,995.924147,666.185348,9252.574275
1209.116341,459.657299,666.185348,9252.574275
1209.116656,-383.047749,1184.329507,9400.615463
1209.116972,-536.266849,-74.020594,9992.780217
1209.117288,-153.219100,-740.205942,9770.718434
1209.117603,-842.705048,-1184.329507,10140.821405
1209.117919,-612.876398,-518.144159,10436.903782
1209.118234,-229.828649,-0.000000,9696.697840
1209.118550,-1072.533697,-296.082377,9030.512492
1209.118866,459.657299,-296.082377,10436.903782
1209.119181,536.266849,-74.020594,8660.409521
1209.119497,459.657299,740.205942,8660.409521
1209.119813,689.485948,370.102971,9326.594869
1209.120128,1225.752797,-814.226536,9104.533087
1209.120444,1532.190996,444.123565,8734.430116
1209.120760,766.095498,296.082377,8438.347739
1209.121075,383.047749,-592.164754,9474.636058
1209.121391,842.705048,-592.164754,10362.883188
1209.121707,1149.143247,-0.000000,9030.512492
1209.122022,766.095498,296.082377,9178.553681
1209.122338,76.609550,-444.123565,9474.636058
1209.122653,-229.828649,-518.144159,9178.553681
1209.122969,0.000000,-666.185348,10140.821405
1209.123285,76.609550,-888.247130,10288.862594
1209.123600,-153.219100,-0.000000,9474.636058
1209.123916,-842.705048,-222.061783,9474.636058
1209.124232,-153.219100,-518.144159,10436.903782
1209.124547,229.828649,370.102971,9696.697840
1209.124863,0.000000,370.102971,8512.368333
1209.125179,-383.047749,296.082377,9030.512492
1209.125494,-306.438199,-222.061783,10066.800811
1209.125810,459.657299,-370.102971,9548.656652
1209.126126,842.705048,148.041188,10214.842000
1209.126441,0.000000,740.205942,9474.636058
1209.126757,536.266849,666.185348,8586.388927
1209.127072,919.314598,222.061783,9326.594869
1209.127388,1762.019645,-444.123565,10658.965565
1209.127704,1378.971896,148.041188,9400.615463
1209.128019,842.705048,888.247130,9178.553681
1209.128335,383.047749,-0.000000,9104.533087
1209.128651,1378.971896,-740.205942,9992.780217
1209.128966,766.095498,296.082377,9474.636058
1209.129282,229.828649,370.102971,9030.512492
1209.129598,76.609550,-0.000000,9548.656652
1209.129913,536.266849,-0.000000,9474.636058
1209.130229,229.828649,-296.082377,9696.697840
1209.130545,0.000000,-962.267725,9622.677246
1209.130860,-459.657299,-962.267725,9918.759623
1209.131176,-536.266849,-1036.288319,9844.739029
1209.131492,0.000000,-1258.350101,10955.047942
1209.131807,306.438199,-740.205942,9696.697840
1209.132123,306.438199,296.082377,8290.306550
1209.132438,-153.219100,-518.144159,9400.615463
1209.132754,766.095498,-592.164754,9770.718434
1209.133070,1532.190996,-296.082377,8882.471304
1209.133385,919.314598,-444.123565,8660.409521
1209.133701,842.705048,-518.144159,9252.574275
1209.134017,1302.362347,-444.123565,9474.636058
1209.134332,1225.752797,-444.123565,9178.553681
1209.134648,536.266849,-814.226536,9178.553681
1209.134964,459.657299,-740.205942,9178.553681
1209.135279,459.657299,-222.061783,8660.409521
1209.135595,383.047749,-814.226536,10288.862594
1209.135911,689.485948,-1776.494261,10584.944971
1209.136226,383.047749,-296.082377,8216.285956
1209.136542,0.000000,296.082377,8660.409521
1209.136857,0.000000,-1036.288319,9548.656652
1209.137173,919.314598,-1110.308913,10066.800811
1209.137489,536.266849,-370.102971,9104.533087
1209.137804,-612.876398,-740.205942,9474.636058
1209.138120,0.000000,-1184.329507,9622.677246
1209.138436,612.876398,-0.000000,10066.800811
1209.138751,536.266849,-296.082377,9622.677246
1209.139067,306.438199,222.061783,9326.594869
1209.139383,306.438199,592.164754,9178.553681
1209.139698,766.095498,-0.000000,9326.594869
1209.140014,1149.143247,-296.082377,9622.677246
1209.140330,459.657299,-222.061783,9474.636058
1209.140645,229.828649,-518.144159,9696.697840
1209.140961,306.438199,-962.267725,10288.862594
1209.141276,1072.533697,-444.123565,9622.677246
1209.141592,995.924147,-74.020594,9548.656652
1209.141908,842.705048,592.164754,8216.285956
1209.142223,229.828649,370.102971,8882.471304
1209.142539,766.095498,666.185348,10066.800811
1209.142855,1302.362347,296.082377,9696.697840
1209.143170,766.095498,592.164754,8142.265362
1209.143486,76.609550,518.144159,9696.697840
1209.143802,-459.657299,-518.144159,9844.739029
1209.144117,459.657299,148.041188,9548.656652
1209.144433,0.000000,-0.000000,9252.574275
1209.144749,-842.705048,-148.041188,9474.636058
1209.145064,-995.924147,-74.020594,9770.718434
1209.145380,0.000000,-592.164754,9844.739029
1209.145696,153.219100,222.061783,9844.739029
1209.146011,-306.438199,-296.082377,10066.800811
1209.146327,76.609550,222.061783,9770.718434
1209.146642,383.047749,296.082377,8882.471304
1209.146958,919.314598,592.164754,9622.677246
1209.147274,842.705048,-0.000000,9474.636058
1209.147589,612.876398,-0.000000,9104.533087
1209.147905,689.485948,962.267725,9030.512492
1209.148221,1149.143247,-0.000000,9548.656652
1209.148536,1072.533697,-148.041188,9326.594869
1209.148852,689.485948,-0.000000,9178.553681
1209.149168,76.609550,-0.000000,10436.903782
1209.149483,0.000000,148.041188,9474.636058
1209.149799,612.876398,592.164754,9252.574275
1209.150115,459.657299,-518.144159,9030.512492
1209.150430,-459.657299,-962.267725,10436.903782
1209.150746,536.266849,-666.185348,10288.862594
1209.151061,0.000000,-518.144159,9104.533087
1209.151377,-306.438199,-814.226536,9918.759623
1209.151693,229.828649,-1036.288319,10658.965565
1209.152008,0.000000,444.123565,8956.491898
1209.152324,-153.219100,296.082377,8512.368333
1209.152640,383.047749,-444.123565,10436.903782
1209.152955,995.924147,-444.123565,9104.533087
1209.153271,383.047749,518.144159,8512.368333
1209.153587,0.000000,296.082377,8734.430116
1209.153902,76.609550,-518.144159,10510.924376
1209.154218,842.705048,-740.205942,9844.739029
1209.154534,229.828649,-0.000000,8512.368333
1209.154849,383.047749,148.041188,10510.924376
1209.155165,842.705048,-1554.432478,10807.006753
1209.155480,1072.533697,-74.020594,9548.656652
1209.155796,1455.581446,-0.000000,9178.553681
1209.156112,1072.533697,296.082377,8586.388927
1209.156427,1455.581446,518.144159,8956.491898
1209.156743,1685.410096,-0.000000,9178.553681
1209.157059,1225.752797,-0.000000,9178.553681
1209.157374,459.657299,-0.000000,8882.471304
1209.157690,0.000000,-444.123565,9918.759623
1209.158006,-766.095498,-518.144159,8956.491898
1209.158321,0.000000,-444.123565,9992.780217
1209.158637,153.219100,-666.185348,9178.553681
1209.158953,-306.438199,-814.226536,9992.780217
1209.159268,0.000000,-1110.308913,10584.944971
1209.159584,0.000000,-1924.535449,10140.821405
1209.159900,153.219100,-1702.473667,10066.800811
1209.160215,995.924147,-1184.329507,9622.677246
1209.160531,1225.752797,-148.041188,8882.471304
1209.160846,919.314598,-0.000000,9178.553681
1209.161162,2145.067394,-962.267725,9770.718434
1209.161478,2681.334243,-666.185348,8512.368333
1209.161793,2145.067394,888.247130,7031.956449
1209.162109,1378.971896,-0.000000,7920.203579
1209.162425,1072.533697,-1258.350101,9104.533087
1209.162740,1608.800546,-1480.411884,10066.800811
1209.163056,459.657299,-962.267725,8882.471304
1209.163372,-689.485948,-740.205942,10066.800811
1209.163687,-1149.143247,-2442.679609,10362.883188
1209.164003,-1302.362347,-2368.659014,10658.965565
1209.164319,-1225.752797,-2516.700203,10658.965565
1209.164634,-1072.533697,-2220.617826,10066.800811
1209.164950,-1225.752797,-2368.659014,10955.047942
1209.165265,-612.876398,-2146.597232,10510.924376
1209.165581,229.828649,-1776.494261,9474.636058
1209.165897,919.314598,-888.247130,8586.388927
1209.166212,689.485948,-1110.308913,8734.430116
1209.166528,1378.971896,-1332.370696,9548.656652
1209.166844,2528.115143,-1554.432478,9918.759623
1209.167159,2604.724693,-888.247130,8216.285956
1209.167475,2604.724693,-370.102971,8512.368333
1209.167791,2604.724693,-444.123565,8660.409521
1209.168106,1685.410096,-370.102971,9104.533087
1209.168422,2374.896044,-1110.308913,9992.780217
1209.168738,2451.505594,-1998.556043,9400.615463
1209.169053,1302.362347,-518.144159,9474.636058
1209.169369,689.485948,-1332.370696,9474.636058
1209.169684,1225.752797,-2294.638420,9696.697840
1209.170000,1685.410096,-2072.576638,10658.965565
1209.170316,1838.629195,-1702.473667,9548.656652
1209.170631,1302.362347,-1184.329507,8956.491898
1209.170947,1608.800546,-2072.576638,9622.677246
1209.171263,2374.896044,-2812.782580,9918.759623
1209.171578,2987.772442,-2220.617826,9400.615463
1209.171894,3064.381992,-1628.453072,9400.615463
1209.172210,2604.724693,-1332.370696,8956.491898
1209.172525,3064.381992,-1184.329507,9622.677246
1209.172841,4136.915689,-962.267725,8438.347739
1209.173157,4136.915689,-0.000000,8142.265362
1209.173472,3294.210641,-0.000000,8438.347739
1209.173788,2604.724693,-888.247130,8734.430116
1209.174104,2298.286494,-1628.453072,9548.656652
1209.174419,2298.286494,-1406.391290,9622.677246
1209.174735,2374.896044,-888.247130,9770.718434
1209.175050,1838.629195,-1406.391290,9474.636058
1209.175366,766.095498,-1998.556043,9770.718434
1209.175682,1072.533697,-2738.761985,10584.944971
1209.175997,1608.800546,-2960.823768,11251.130318
1209.176313,1532.190996,-2590.720797,9992.780217
1209.176629,1149.143247,-1924.535449,9918.759623
1209.176944,1302.362347,-1998.556043,10510.924376
1209.177260,2374.896044,-2590.720797,10066.800811
1209.177576,3064.381992,-2072.576638,10140.821405
1209.177891,3370.820191,-1480.411884,9474.636058
1209.178207,3524.039291,-1036.288319,8660.409521
1209.178523,4060.306139,-1554.432478,8882.471304
1209.178838,4060.306139,-2590.720797,9622.677246
1209.179154,4903.011187,-1850.514855,10214.842000
1209.179469,5056.230287,-814.226536,8808.450710
1209.179785,4443.353888,-592.164754,8216.285956
1209.180101,3600.648841,-1776.494261,8660.409521
1209.180416,3600.648841,-2664.741391,9474.636058
1209.180732,3830.477490,-2146.597232,10066.800811
1209.181048,3140.991542,-1554.432478,9474.636058
1209.181363,2604.724693,-1776.494261,9030.512492
1209.181679,1915.238745,-2886.803174,9622.677246
1209.181995,1378.971896,-3182.885551,10584.944971
1209.182310,1608.800546,-2812.782580,10584.944971
1209.182626,1378.971896,-2072.576638,9548.656652
1209.182942,1149.143247,-1480.411884,9474.636058
1209.183257,1072.533697,-2886.803174,10510.924376
1209.183573,1532.190996,-3034.844362,10658.965565
1209.183888,1838.629195,-2294.638420,9474.636058
1209.184204,2298.286494,-1332.370696,8660.409521
1209.184520,2681.334243,-1850.514855,8734.430116
1209.184835,3064.381992,-2516.700203,8808.450710
1209.185151,3600.648841,-2516.700203,9474.636058
1209.185467,3064.381992,-1702.473667,8956.491898
1209.185782,2987.772442,-1850.514855,8216.285956
1209.186098,3140.991542,-2368.659014,9178.553681
1209.186414,3064.381992,-2886.803174,9326.594869
1209.186729,3217.601092,-2294.638420,9770.718434
1209.187045,2374.896044,-2516.700203,9400.615463
1209.187361,1915.238745,-2738.761985,9104.533087
1209.187676,2068.457845,-2590.720797,9696.697840
1209.187992,2145.067394,-2516.700203,9400.615463
1209.188308,2068.457845,-2442.679609,9474.636058
1209.188623,1532.190996,-2812.782580,9326.594869
1209.188939,1302.362347,-3478.967927,9696.697840
1209.189254,1685.410096,-3923.091493,10066.800811
1209.189570,1378.971896,-3552.988522,9400.615463
1209.189886,1608.800546,-2516.700203,9178.553681
1209.190201,2374.896044,-2516.700203,9400.615463
1209.190517,2681.334243,-1924.535449,8660.409521
1209.190833,2834.553343,-2516.700203,9474.636058
1209.191148,3140.991542,-3256.906145,9696.697840
1209.191464,2528.115143,-1924.535449,8882.471304
1209.191780,3140.991542,-1480.411884,8660.409521
1209.192095,3217.601092,-1776.494261,8808.450710
1209.192411,3753.867940,-1776.494261,9474.636058
1209.192727,3217.601092,-1850.514855,9400.615463
1209.193042,2757.943793,-2516.700203,9696.697840
1209.193358,2528.115143,-2812.782580,9696.697840
1209.193673,2911.162892,-2368.659014,9622.677246
1209.193989,2834.553343,-2072.576638,9474.636058
1209.194305,2987.772442,-1924.535449,10288.862594
1209.194620,3064.381992,-1924.535449,10066.800811
1209.194936,2451.505594,-2368.659014,9474.636058
1209.195252,2681.334243,-2442.679609,9770.718434
1209.195567,3140.991542,-2294.638420,9844.739029
1209.195883,3294.210641,-1406.391290,9252.574275
1209.196199,2834.553343,-1628.453072,9474.636058
1209.196514,2987.772442,-1776.494261,9918.759623
1209.196830,3140.991542,-1850.514855,9696.697840
1209.197146,2757.943793,-1850.514855,9104.533087
1209.197461,2145.067394,-2590.720797,9474.636058
1209.197777,2834.553343,-2590.720797,9770.718434
1209.198092,2834.553343,-2368.659014,9474.636058
1209.198408,2451.505594,-2368.659014,10214.842000
1209.198724,2374.896044,-2516.700203,10584.944971
1209.199039,2528.115143,-2738.761985,10362.883188
1209.199355,2298.286494,-2368.659014,9696.697840
1209.199671,2528.115143,-1702.473667,9326.594869
1209.199986,2681.334243,-1776.494261,9104.533087
1209.200302,2911.162892,-2294.638420,9326.594869
1209.200618,2987.772442,-2442.679609,9770.718434
1209.200933,2681.334243,-2442.679609,9696.697840
1209.201249,2451.505594,-2738.761985,9548.656652
1209.201565,2221.676944,-2812.782580,9770.718434
1209.201880,2298.286494,-2294.638420,9696.697840
1209.202196,2528.115143,-1702.473667,9474.636058
1209.202512,2221.676944,-1406.391290,8660.409521
1209.202827,2528.115143,-1850.514855,9178.553681
1209.203143,2528.115143,-2294.638420,9696.697840
1209.203458,2451.505594,-2146.597232,9252.574275
1209.203774,1838.629195,-1998.556043,9178.553681
1209.204090,1762.019645,-2442.679609,9992.780217
1209.204405,1915.238745,-2516.700203,9844.739029
1209.204721,2298.286494,-2442.679609,9474.636058
1209.205037,1991.848295,-2442.679609,9326.594869
1209.205352,1991.848295,-2220.617826,9104.533087
1209.205668,2221.676944,-1776.494261,8734.430116
1209.205984,2451.505594,-1258.350101,8808.450710
1209.206299,2681.334243,-1406.391290,8956.491898
1209.206615,3217.601092,-1776.494261,9252.574275
1209.206931,1991.848295,-2146.597232,9326.594869
1209.207246,1838.629195,-2738.761985,9696.697840
1209.207562,2298.286494,-3108.864956,10066.800811
1209.207877,2987.772442,-2590.720797,9326.594869
1209.208193,3370.820191,-2368.659014,9030.512492
1209.208509,2911.162892,-2146.597232,8882.471304
1209.208824,3294.210641,-1332.370696,8808.450710
1209.209140,3217.601092,-962.267725,8734.430116
1209.209456,2834.553343,-296.082377,8734.430116
1209.209771,3064.381992,-592.164754,8660.409521
1209.210087,2298.286494,-1406.391290,9030.512492
1209.210403,1915.238745,-2590.720797,9770.718434
1209.210718,1838.629195,-3256.906145,10362.883188
1209.211034,1991.848295,-3404.947333,10436.903782
1209.211350,1838.629195,-2886.803174,10214.842000
1209.211665,1378.971896,-2146.597232,9992.780217
1209.211981,1532.190996,-2072.576638,9918.759623
1209.212296,1762.019645,-1258.350101,9548.656652
1209.212612,1915.238745,-666.185348,9548.656652
1209.212928,2451.505594,-962.267725,9474.636058
1209.213243,2451.505594,-1332.370696,9400.615463
1209.213559,2528.115143,-2368.659014,9992.780217
1209.213875,3140.991542,-3182.885551,9992.780217
1209.214190,3064.381992,-3701.029710,10436.903782
1209.214506,3600.648841,-3997.112087,10288.862594
1209.214822,3753.867940,-3034.844362,10362.883188
1209.215137,3600.648841,-2664.741391,10214.842000
1209.215453,3600.648841,-1776.494261,9992.780217
1209.215769,3447.429741,-666.185348,9252.574275
1209.216084,3600.648841,-370.102971,8734.430116
1209.216400,3140.991542,-74.020594,8438.347739
1209.216716,2911.162892,-222.061783,8142.265362
1209.217031,2757.943793,-1480.411884,8882.471304
1209.217347,2298.286494,-2590.720797,9770.718434
1209.217662,1762.019645,-3849.070898,9770.718434
1209.217978,1072.533697,-5181.441594,10584.944971
1209.218294,612.876398,-5625.565159,11251.130318
1209.218609,919.314598,-5699.585753,11843.295072
1209.218925,1915.238745,-4441.235652,11843.295072
1209.219241,2298.286494,-3552.988522,10510.924376
1209.219556,3064.381992,-2516.700203,9770.718434
1209.219872,4290.134789,-1776.494261,8956.491898
1209.220188,5056.230287,-814.226536,7698.141797
1209.220503,5439.278036,-296.082377,6957.935855
1209.220819,5439.278036,-370.102971,6439.791695
1209.221135,4749.792088,-222.061783,6661.853478
1209.221450,3907.087040,-296.082377,7105.977043
1209.221766,2911.162892,-1036.288319,7698.141797
1209.222082,1378.971896,-1998.556043,8808.450710
1209.222397,76.609550,-2812.782580,9696.697840
1209.222713,-995.924147,-3997.112087,11029.068536
1209.223029,-1072.533697,-5033.400406,11917.315666
1209.223344,-689.485948,-5403.503377,11991.336260
1209.223660,-153.219100,-5403.503377,11769.274478
1209.223976,0.000000,-5107.421000,11399.171507
1209.224291,1072.533697,-4589.276840,10436.903782
1209.224607,2374.896044,-3627.009116,9844.739029
1209.224923,3370.820191,-1998.556043,8660.409521
1209.225238,4213.525239,-740.205942,7550.100608
1209.225554,4903.011187,518.144159,6809.894666
1209.225870,5439.278036,1036.288319,6661.853478
1209.226185,5439.278036,296.082377,7105.977043
1209.226501,5286.058936,-518.144159,7328.038826
1209.226817,4519.963438,-1628.453072,8142.265362
1209.227132,3217.601092,-2812.782580,9474.636058
1209.227448,2374.896044,-3775.050304,10140.821405
1209.227764,1225.752797,-4071.132681,11103.089130
1209.228079,229.828649,-3923.091493,11695.253884
1209.228395,0.000000,-3552.988522,11251.130318
1209.228711,-459.657299,-3330.926739,10955.047942
1209.229026,0.000000,-3108.864956,10955.047942
1209.229342,459.657299,-2664.741391,10362.883188
1209.229658,1302.362347,-2072.576638,9622.677246
1209.229973,1991.848295,-1332.370696,8808.450710
1209.230289,3294.210641,-1110.308913,8512.368333
1209.230605,3447.429741,-1184.329507,8364.327145
1209.230920,3830.477490,-1406.391290,8808.450710
1209.231236,3677.258390,-1702.473667,9030.512492
1209.231551,3677.258390,-1702.473667,9178.553681
1209.231867,3294.210641,-1776.494261,9622.677246
1209.232183,3064.381992,-1554.432478,9770.718434
1209.232498,2757.943793,-1184.329507,9770.718434
1209.232814,3140.991542,-1184.329507,9844.739029
1209.233130,2987.772442,-1036.288319,9548.656652
1209.233445,2374.896044,-1702.473667,9548.656652
1209.233761,2451.505594,-2072.576638,10066.800811
1209.234077,2604.724693,-2294.638420,9622.677246
1209.234392,2528.115143,-1998.556043,9622.677246
1209.234708,2451.505594,-1850.514855,9474.636058
1209.235024,2374.896044,-1480.411884,9770.718434
1209.235339,2145.067394,-1554.432478,9770.718434
1209.235655,1915.238745,-1258.350101,10362.883188
1209.235971,1455.581446,-1924.535449,10140.821405
1209.236286,1378.971896,-1702.473667,9844.739029
1209.236602,1532.190996,-1628.453072,9770.718434
1209.236918,1685.410096,-1480.411884,9548.656652
1209.237233,1838.629195,-888.247130,9400.615463
1209.237549,1455.581446,-888.247130,9030.512492
1209.237865,1532.190996,-962.267725,8734.430116
1209.238180,1455.581446,-1332.370696,9178.553681
1209.238496,1532.190996,-1406.391290,8808.450710
1209.238812,1532.190996,-1554.432478,9178.553681
1209.239127,1838.629195,-1702.473667,9474.636058
1209.239443,1991.848295,-1924.535449,9770.718434
1209.239759,2451.505594,-1924.535449,9992.780217
1209.240074,2681.334243,-2220.617826,10140.821405
1209.240390,2681.334243,-2220.617826,9844.739029
1209.240706,2757.943793,-2294.638420,9770.718434
1209.241021,2987.772442,-1924.535449,9622.677246
1209.241337,2987.772442,-1702.473667,9548.656652
1209.241653,3140.991542,-1702.473667,9548.656652
1209.241968,2834.553343,-1036.288319,9326.594869
1209.242284,3064.381992,-1332.370696,9252.574275
1209.242600,3217.601092,-1702.473667,9326.594869
1209.242915,3447.429741,-2294.638420,9252.574275
1209.243231,3524.039291,-2664.741391,9400.615463
1209.243547,3983.696590,-2960.823768,9548.656652
1209.243862,3830.477490,-3404.947333,9622.677246
1209.244178,4366.744339,-3478.967927,9770.718434
1209.244494,4060.306139,-3552.988522,9770.718434
1209.244809,3753.867940,-3330.926739,9992.780217
1209.245125,3370.820191,-3182.885551,9696.697840
1209.245441,3370.820191,-2664.741391,9696.697840
1209.245756,2987.772442,-2368.659014,9474.636058
1209.246072,3217.601092,-2738.761985,9178.553681
1209.246388,3294.210641,-2590.720797,9104.533087
1209.246703,2911.162892,-2960.823768,8882.471304
1209.247019,2681.334243,-3182.885551,9104.533087
1209.247335,2911.162892,-3404.947333,9474.636058
1209.247650,2757.943793,-3701.029710,9474.636058
1209.247966,2221.676944,-3849.070898,9844.739029
1209.248282,2451.505594,-3997.112087,9918.759623
1209.248597,2221.676944,-4219.173869,9918.759623
1209.248913,1991.848295,-3849.070898,9918.759623
1209.249229,2145.067394,-3775.050304,9548.656652
1209.249544,2451.505594,-3034.844362,9548.656652
1209.249860,2604.724693,-2368.659014,9030.512492
1209.250176,2911.162892,-2072.576638,8512.368333
1209.250491,2757.943793,-2146.597232,8512.368333
1209.250807,2911.162892,-2368.659014,8734.430116
1209.251122,2834.553343,-3108.864956,9104.533087
1209.251438,2681.334243,-3775.050304,9474.636058
1209.251754,2757.943793,-3923.091493,9844.739029
1209.252069,2604.724693,-3997.112087,9696.697840
1209.252385,2604.724693,-3923.091493,9918.759623
1209.252701,3064.381992,-3552.988522,9992.780217
1209.253016,3370.820191,-2738.761985,9326.594869
1209.253332,2911.162892,-1776.494261,8734.430116
1209.253648,2834.553343,-1258.350101,8142.265362
1209.253963,2221.676944,-888.247130,7920.203579
1209.254279,2298.286494,-666.185348,8290.306550
1209.254595,1762.019645,-740.205942,8216.285956
1209.254910,842.705048,-1110.308913,8660.409521
1209.255226,383.047749,-2220.617826,9178.553681
1209.255542,306.438199,-3182.885551,10140.821405
1209.255857,76.609550,-4367.215058,10807.006753
1209.256173,306.438199,-4293.194464,11029.068536
1209.256489,766.095498,-4515.256246,11325.150913
1209.256804,1378.971896,-4145.153275,11103.089130
1209.257120,2834.553343,-3404.947333,11029.068536
1209.257436,3140.991542,-2072.576638,9992.780217
1209.257751,3983.696590,-740.205942,9030.512492
1209.258067,4366.744339,296.082377,8290.306550
1209.258383,4673.182538,1184.329507,7328.038826
1209.258698,4749.792088,1702.473667,6957.935855
1209.259014,4290.134789,1850.514855,7105.977043
1209.259330,3370.820191,1110.308913,7476.080014
1209.259645,2451.505594,222.061783,8586.388927
1209.259961,1608.800546,-888.247130,9474.636058
1209.260277,689.485948,-2812.782580,10658.965565
1209.260592,-459.657299,-3775.050304,12065.356855
1209.260908,-1149.143247,-4737.318029,12731.542202
1209.261224,-689.485948,-4589.276840,12879.583391
1209.261539,-612.876398,-4515.256246,12805.562797
1209.261855,229.828649,-3256.906145,12213.398043
1209.262171,1991.848295,-2960.823768,10807.006753
1209.262486,3524.039291,-1258.350101,9696.697840
1209.262802,4290.134789,148.041188,8290.306550
1209.263118,5362.668486,888.247130,7698.141797
1209.263433,6281.983084,1998.556043,7031.956449
1209.263749,6128.763984,2220.617826,6587.832884
1209.264065,5898.935335,1628.453072,7254.018232
1209.264380,5209.449386,-0.000000,8142.265362
1209.264696,3907.087040,-1554.432478,9326.594869
1209.265012,2911.162892,-3108.864956,10732.986159
1209.265327,1838.629195,-3997.112087,11769.274478
1209.265643,919.314598,-3997.112087,11769.274478
1209.265959,76.609550,-3478.967927,11621.233289
1209.266274,153.219100,-2812.782580,11325.150913
1209.266590,919.314598,-2368.659014,11177.109724
1209.266906,1455.581446,-2072.576638,10510.924376
1209.267221,1608.800546,-1628.453072,9104.533087
1209.267537,2528.115143,-1702.473667,8808.450710
1209.267853,3217.601092,-2220.617826,8882.471304
1209.268168,4366.744339,-1554.432478,8586.388927
1209.268484,4519.963438,-2368.659014,8364.327145
1209.268800,4673.182538,-2960.823768,8586.388927
1209.269115,4596.572988,-3330.926739,8808.450710
1209.269431,4826.401637,-3182.885551,9474.636058
1209.269747,4673.182538,-2738.761985,8956.491898
1209.270062,3983.696590,-2220.617826,8586.388927
1209.270378,3447.429741,-1850.514855,8290.306550
1209.270694,2987.772442,-2146.597232,8808.450710
1209.271009,2604.724693,-3182.885551,9326.594869
1209.271325,1991.848295,-3775.050304,9178.553681
1209.271640,919.314598,-4293.194464,9252.574275
1209.271956,766.095498,-4663.297435,9696.697840
1209.272272,1225.752797,-4737.318029,9474.636058
1209.272587,1685.410096,-3552.988522,8956.491898
1209.272903,995.924147,-2590.720797,9252.574275
1209.273219,842.705048,-3108.864956,9548.656652
1209.273534,1149.143247,-3997.112087,10066.800811
1209.273850,1455.581446,-3997.112087,10362.883188
1209.274166,1532.190996,-3923.091493,10140.821405
1209.274481,2145.067394,-3404.947333,9622.677246
1209.274797,2834.553343,-2960.823768,9104.533087
1209.275113,3600.648841,-1998.556043,8364.327145
1209.275428,3753.867940,-1628.453072,8438.347739
1209.275744,3217.601092,-1332.370696,7994.224174
1209.276060,3217.601092,-1406.391290,8438.347739
1209.276375,3064.381992,-1628.453072,8734.430116
1209.276691,2911.162892,-1628.453072,8882.471304
1209.277007,2757.943793,-1554.432478,8660.409521
1209.277322,2528.115143,-1554.432478,8882.471304
1209.277638,1915.238745,-2294.638420,8956.491898
1209.277954,1378.971896,-2294.638420,9696.697840
1209.278269,842.705048,-2664.741391,10436.903782
1209.278585,306.438199,-3478.967927,11177.109724
1209.278901,0.000000,-3627.009116,11177.109724
1209.279216,0.000000,-3627.009116,11325.150913
1209.279532,842.705048,-3701.029710,10955.047942
1209.279848,1915.238745,-3256.906145,10881.027347
1209.280163,2834.553343,-2146.597232,10288.862594
1209.280479,3600.648841,-1480.411884,9474.636058
1209.280795,4979.620737,-444.123565,8438.347739
1209.281110,5898.935335,-222.061783,7994.224174
1209.281426,5745.716235,-814.226536,7698.141797
1209.281742,6205.373534,-814.226536,8142.265362
1209.282057,5439.278036,-888.247130,8216.285956
1209.282373,4519.963438,-814.226536,8660.409521
1209.282689,4136.915689,-1184.329507,9770.718434
1209.283004,2604.724693,-666.185348,10140.821405
1209.283320,1608.800546,-888.247130,10140.821405
1209.283636,1149.143247,-1554.432478,9918.759623
1209.283951,383.047749,-2590.720797,10732.986159
1209.284267,-153.219100,-2960.823768,12065.356855
1209.284583,0.000000,-3478.967927,11991.336260
1209.284898,383.047749,-3330.926739,11695.253884
1209.285214,689.485948,-3182.885551,11473.192101
1209.285530,1608.800546,-3034.844362,10436.903782
1209.285845,2451.505594,-1998.556043,10214.842000
1209.286161,3524.039291,-518.144159,8438.347739
1209.286477,4290.134789,-0.000000,8438.347739
1209.286792,4903.011187,-0.000000,8808.450710
1209.287108,5745.716235,-222.061783,7846.182985
1209.287424,4903.011187,-222.061783,7994.224174
1209.287739,4596.572988,-814.226536,7698.141797
1209.288055,3600.648841,-962.267725,8586.388927
1209.288371,3064.381992,-888.247130,8734.430116
1209.288686,1991.848295,-888.247130,9474.636058
1209.289002,1532.190996,-1628.453072,9770.718434
1209.289318,689.485948,-2664.741391,10658.965565
1209.289633,-612.876398,-3775.050304,10362.883188
1209.289949,-383.047749,-4663.297435,11103.089130
1209.290265,306.438199,-4737.318029,11029.068536
1209.290580,689.485948,-3923.091493,10658.965565
1209.290896,2221.676944,-2960.823768,10658.965565
1209.291212,2834.553343,-3182.885551,9030.512492
1209.291527,2528.115143,-2886.803174,8808.450710
1209.291843,3447.429741,-1850.514855,8882.471304
1209.292158,4903.011187,-1998.556043,8142.265362
1209.292474,4596.572988,592.164754,6957.935855
1209.292790,4366.744339,444.123565,7179.997637
1209.293105,4136.915689,-1110.308913,6661.853478
1209.293421,3140.991542,-1480.411884,8438.347739
1209.293737,2298.286494,-1850.514855,8808.450710
1209.294052,2528.115143,-2442.679609,9030.512492
1209.294368,1915.238745,-3182.885551,9104.533087
1209.294684,229.828649,-3849.070898,10362.883188
1209.294999,536.266849,-4959.379811,11325.150913
1209.295315,76.609550,-4145.153275,11029.068536
1209.295631,76.609550,-2738.761985,9770.718434
1209.295946,689.485948,-2812.782580,10140.821405
1209.296262,1072.533697,-2368.659014,10436.903782
1209.296578,1762.019645,-2072.576638,9326.594869
1209.296893,2451.505594,-1776.494261,10140.821405
1209.297209,3524.039291,-1258.350101,8438.347739
1209.297525,4136.915689,-1036.288319,7698.141797
1209.297840,4749.792088,-0.000000,8290.306550
1209.298156,4060.306139,-1184.329507,8438.347739
1209.298472,4290.134789,-2294.638420,9622.677246
1209.298787,4596.572988,-1776.494261,9548.656652
1209.299103,4136.915689,-296.082377,8142.265362
1209.299419,3677.258390,148.041188,9104.533087
1209.299734,2374.896044,-1036.288319,8956.491898
1209.300050,2451.505594,-1406.391290,10955.047942
1209.300366,2528.115143,-1036.288319,10584.944971
1209.300681,1455.581446,-740.205942,9104.533087
1209.300997,383.047749,-1258.350101,9770.718434
1209.301313,76.609550,-2886.803174,11029.068536
1209.301628,229.828649,-2886.803174,10807.006753
1209.301944,842.705048,-1850.514855,10955.047942
1209.302260,459.657299,-1184.329507,9992.780217
1209.302575,-306.438199,-1406.391290,9696.697840
1209.302891,-383.047749,-1924.535449,11029.068536
1209.303207,1149.143247,-2072.576638,10288.862594
1209.303522,2068.457845,-666.185348,8882.471304
1209.303838,2145.067394,370.102971,9178.553681
1209.304154,1608.800546,296.082377,7772.162391
1209.304469,1608.800546,-0.000000,9178.553681
1209.304785,2604.724693,-74.020594,9104.533087
1209.305101,2145.067394,962.267725,9104.533087
1209.305416,1302.362347,1702.473667,7846.182985
1209.305732,306.438199,592.164754,8216.285956
1209.306048,153.219100,-962.267725,10066.800811
1209.306363,383.047749,-1184.329507,10955.047942
1209.306679,0.000000,-1258.350101,10658.965565
1209.306995,-1149.143247,-592.164754,10214.842000
1209.307310,-1225.752797,-2368.659014,10066.800811
1209.307626,0.000000,-3182.885551,11399.171507
1209.307942,153.219100,-1776.494261,10584.944971
1209.308257,229.828649,-370.102971,9770.718434
1209.308573,76.609550,-0.000000,8956.491898
1209.308889,995.924147,-296.082377,8734.430116
1209.309204,2068.457845,-296.082377,9474.636058
1209.309520,1762.019645,1998.556043,8142.265362
1209.309836,1915.238745,2738.761985,7179.997637
1209.310151,1302.362347,1776.494261,7031.956449
1209.310467,1072.533697,296.082377,8216.285956
1209.310783,1302.362347,-444.123565,9104.533087
1209.311098,689.485948,-0.000000,8882.471304
1209.311414,-919.314598,296.082377,8364.327145
1209.311729,-1762.019645,-962.267725,10288.862594
1209.312045,-1532.190996,-2368.659014,11399.171507
1209.312361,-1762.019645,-2590.720797,11473.192101
1209.312676,-2068.457845,-1554.432478,11399.171507
1209.312992,-1838.629195,-296.082377,10214.842000
1209.313308,-536.266849,-962.267725,9696.697840
1209.313623,459.657299,-888.247130,9696.697840
1209.313939,766.095498,962.267725,9474.636058
1209.314255,689.485948,2146.597232,7476.080014
1209.314570,1532.190996,1184.329507,8142.265362
1209.314886,1072.533697,-148.041188,8142.265362
1209.315202,1302.362347,-0.000000,10288.862594
1209.315517,689.485948,-0.000000,9474.636058
1209.315833,0.000000,74.020594,8438.347739
1209.316149,766.095498,296.082377,9474.636058
1209.316464,1072.533697,-0.000000,9104.533087
1209.316780,0.000000,-0.000000,9474.636058
1209.317096,-229.828649,222.061783,9622.677246
1209.317412,-459.657299,-888.247130,9622.677246
1209.317727,-612.876398,-1924.535449,10510.924376
1209.318043,306.438199,-1480.411884,11695.253884
1209.318359,-766.095498,-1036.288319,9770.718434
1209.318675,-153.219100,-0.000000,9696.697840
1209.318990,0.000000,-0.000000,10584.944971
1209.319306,612.876398,-74.020594,8882.471304
1209.319622,459.657299,-518.144159,9252.574275
1209.319938,229.828649,-370.102971,10658.965565
1209.320253,842.705048,-814.226536,10436.903782
1209.320569,1915.238745,-666.185348,9178.553681
1209.320885,995.924147,740.205942,9252.574275
1209.321200,842.705048,-444.123565,9770.718434
1209.321516,2145.067394,1184.329507,8882.471304
1209.321832,1225.752797,370.102971,8364.327145
1209.322148,1378.971896,-222.061783,9400.615463
1209.322463,1072.533697,-592.164754,9104.533087
1209.322779,1685.410096,-1406.391290,9030.512492
1209.323095,306.438199,-444.123565,9474.636058
1209.323411,1149.143247,-1702.473667,10288.862594
1209.323726,689.485948,-1406.391290,9918.759623
1209.324042,-229.828649,-444.123565,9992.780217
1209.324358,-842.705048,-518.144159,9844.739029
1209.324674,-306.438199,-814.226536,9326.594869
1209.324989,153.219100,-814.226536,9326.594869
1209.325305,0.000000,-222.061783,9548.656652
1209.325621,-459.657299,148.041188,9252.574275
1209.325937,153.219100,-0.000000,9326.594869
1209.326252,0.000000,-962.267725,9104.533087
1209.326568,-229.828649,-1110.308913,9178.553681
1209.326884,0.000000,-148.041188,9474.636058
1209.327200,919.314598,-0.000000,9104.533087
1209.327515,1685.410096,-296.082377,9548.656652
1209.327831,1608.800546,-222.061783,8956.491898
1209.328147,1225.752797,-0.000000,8660.409521
1209.328463,689.485948,222.061783,8734.430116
1209.328778,995.924147,-0.000000,9474.636058
1209.329094,1225.752797,296.082377,9400.615463
1209.329410,689.485948,1480.411884,8290.306550
1209.329726,-536.266849,-0.000000,8660.409521
1209.330041,-842.705048,-814.226536,10584.944971
1209.330357,-766.095498,-1480.411884,10658.965565
1209.330673,-689.485948,-1036.288319,9696.697840
1209.330988,-1378.971896,-444.123565,9252.574275
1209.331304,-1302.362347,-1110.308913,10362.883188
1209.331620,-842.705048,-1036.288319,9844.739029
1209.331936,-306.438199,-1702.473667,10436.903782
1209.332251,0.000000,-370.102971,9326.594869
1209.332567,0.000000,-444.123565,9030.512492
1209.332883,229.828649,-0.000000,9104.533087
1209.333199,1455.581446,-666.185348,9400.615463
1209.333514,1762.019645,962.267725,8734.430116
1209.333830,1762.019645,814.226536,7772.162391
1209.334146,842.705048,1110.308913,7476.080014
1209.334462,1378.971896,-0.000000,10140.821405
1209.334777,2068.457845,-666.185348,9696.697840
1209.335093,536.266849,-0.000000,9992.780217
1209.335409,306.438199,518.144159,9548.656652
1209.335725,-306.438199,-370.102971,9696.697840
1209.336040,76.609550,-962.267725,11103.089130
1209.336356,76.609550,-1332.370696,9918.759623
1209.336672,-306.438199,-814.226536,9844.739029
1209.336988,-536.266849,-74.020594,10214.842000
1209.337303,0.000000,-0.000000,10288.862594
1209.337619,383.047749,370.102971,9400.615463
1209.337935,842.705048,666.185348,9178.553681
1209.338251,612.876398,1184.329507,9770.718434
1209.338566,536.266849,962.267725,9104.533087
1209.338882,1608.800546,148.041188,9104.533087
1209.339198,1225.752797,222.061783,8956.491898
1209.339514,1225.752797,518.144159,9326.594869
1209.339829,612.876398,222.061783,8882.471304
1209.340145,612.876398,444.123565,9992.780217
1209.340461,995.924147,-814.226536,11029.068536
1209.340776,919.314598,-148.041188,9548.656652
1209.341092,766.095498,-148.041188,9548.656652
1209.341408,766.095498,-814.226536,9770.718434
1209.341724,1149.143247,-518.144159,9770.718434
1209.342039,1455.581446,148.041188,9474.636058
1209.342355,842.705048,518.144159,8734.430116
1209.342671,919.314598,-0.000000,9474.636058
1209.342987,1072.533697,-74.020594,8808.450710
1209.343302,1225.752797,-296.082377,9326.594869
1209.343618,689.485948,-592.164754,10066.800811
1209.343934,306.438199,-888.247130,9622.677246
1209.344250,919.314598,-444.123565,8956.491898
1209.344565,1149.143247,-74.020594,9474.636058
1209.344881,919.314598,-518.144159,9400.615463
1209.345197,0.000000,-222.061783,8956.491898
1209.345513,-229.828649,-370.102971,9326.594869
1209.345828,76.609550,-888.247130,10362.883188
1209.346144,0.000000,-518.144159,8586.388927
1209.346460,306.438199,-1110.308913,9844.739029
1209.346776,-536.266849,-1998.556043,9696.697840
1209.347091,76.609550,-1702.473667,9992.780217
1209.347407,766.095498,-666.185348,9992.780217
1209.347723,459.657299,592.164754,8290.306550
1209.348039,306.438199,888.247130,8364.327145
1209.348354,306.438199,370.102971,8290.306550
1209.348670,689.485948,-296.082377,9474.636058
1209.348986,229.828649,-1184.329507,9252.574275
1209.349302,76.609550,-1258.350101,9548.656652
1209.349617,153.219100,-1110.308913,9326.594869
1209.349933,-306.438199,-1258.350101,9696.697840
1209.350249,459.657299,-1332.370696,9844.739029
1209.350565,766.095498,-666.185348,9696.697840
1209.350880,383.047749,-0.000000,8734.430116
1209.351196,229.828649,444.123565,8660.409521
1209.351512,689.485948,-666.185348,9696.697840
1209.351827,1532.190996,-814.226536,9992.780217
1209.352143,766.095498,370.102971,8734.430116
1209.352459,153.219100,148.041188,8660.409521
1209.352775,459.657299,-0.000000,9918.759623
1209.353090,1225.752797,-370.102971,9104.533087
1209.353406,536.266849,74.020594,8808.450710
1209.353722,0.000000,-0.000000,9770.718434
1209.354038,-153.219100,-444.123565,9992.780217
1209.354353,459.657299,-222.061783,10288.862594
1209.354669,-383.047749,-370.102971,9844.739029
1209.354985,0.000000,-592.164754,10140.821405
1209.355301,-229.828649,-666.185348,10510.924376
1209.355616,459.657299,-444.123565,9918.759623
1209.355932,919.314598,222.061783,9326.594869
1209.356248,1072.533697,-0.000000,9326.594869
1209.356564,1762.019645,666.185348,8882.471304
1209.356879,1149.143247,740.205942,8808.450710
1209.357195,1762.019645,740.205942,9474.636058
1209.357511,1302.362347,1184.329507,8808.450710
1209.357827,612.876398,1036.288319,8882.471304
1209.358142,536.266849,814.226536,9326.594869
1209.358458,536.266849,-0.000000,10807.006753
1209.358774,229.828649,-592.164754,9918.759623
1209.359090,306.438199,-222.061783,9770.718434
1209.359405,0.000000,-222.061783,9770.718434
1209.359721,-689.485948,-0.000000,9548.656652
1209.360037,-153.219100,-0.000000,10510.924376
1209.360353,-229.828649,-518.144159,10066.800811
1209.360668,-383.047749,740.205942,9548.656652
1209.360984,-995.924147,370.102971,9622.677246
1209.361300,153.219100,-74.020594,9474.636058
1209.361615,766.095498,-74.020594,9696.697840
1209.361931,1072.533697,1184.329507,9400.615463
1209.362247,766.095498,518.144159,8808.450710
1209.362563,612.876398,592.164754,9326.594869
1209.362878,766.095498,222.061783,9474.636058
1209.363194,689.485948,148.041188,8808.450710
1209.363510,459.657299,592.164754,9696.697840
1209.363826,0.000000,-370.102971,9326.594869
1209.364141,306.438199,-1184.329507,11103.089130
1209.364457,229.828649,-1036.288319,9548.656652
1209.364773,153.219100,-592.164754,8956.491898
1209.365089,76.609550,444.123565,8660.409521
1209.365404,76.609550,148.041188,9400.615463
1209.365720,383.047749,-444.123565,9844.739029
1209.366036,383.047749,-296.082377,9178.553681
1209.366352,0.000000,-222.061783,9474.636058
1209.366667,306.438199,-518.144159,9326.594869
1209.366983,536.266849,-296.082377,9030.512492
1209.367299,689.485948,-444.123565,8734.430116
1209.367615,689.485948,-0.000000,9104.533087
1209.367930,153.219100,296.082377,8882.471304
1209.368246,536.266849,-0.000000,9030.512492
1209.368562,842.705048,222.061783,8956.491898
1209.368878,0.000000,-296.082377,8660.409521
1209.369193,76.609550,-740.205942,10066.800811
1209.369509,306.438199,-1110.308913,8882.471304
1209.369825,383.047749,-148.041188,10066.800811
1209.370141,1455.581446,-1110.308913,9400.615463
1209.370456,842.705048,-0.000000,8808.450710
1209.370772,76.609550,296.082377,9104.533087
1209.371088,536.266849,-0.000000,9844.739029
1209.371403,1072.533697,222.061783,9622.677246
1209.371719,995.924147,518.144159,8438.347739
1209.372035,689.485948,-0.000000,9326.594869
1209.372351,306.438199,-1332.370696,9844.739029
1209.372666,0.000000,-1406.391290,10510.924376
1209.372982,995.924147,-1036.288319,9844.739029
1209.373298,766.095498,-370.102971,9178.553681
1209.373614,-383.047749,222.061783,9622.677246
1209.373929,-306.438199,-444.123565,9770.718434
1209.374245,229.828649,-1184.329507,10214.842000
1209.374561,229.828649,-1480.411884,10436.903782
1209.374877,-153.219100,-1332.370696,9770.718434
1209.375192,0.000000,-1110.308913,9474.636058
1209.375508,459.657299,-1110.308913,9770.718434
1209.375824,1149.143247,-444.123565,9844.739029
1209.376140,1685.410096,370.102971,8734.430116
1209.376455,689.485948,814.226536,7920.203579
1209.376771,536.266849,-0.000000,9622.677246
1209.377087,766.095498,-888.247130,9178.553681
1209.377403,689.485948,-1036.288319,9622.677246
1209.377718,0.000000,-148.041188,9622.677246
1209.378034,-536.266849,-740.205942,9548.656652
1209.378350,0.000000,-1110.308913,9770.718434
1209.378666,0.000000,-962.267725,10658.965565
1209.378981,229.828649,-0.000000,9474.636058
1209.379297,-306.438199,-0.000000,8512.368333
1209.379613,0.000000,-74.020594,8882.471304
1209.379929,536.266849,-1184.329507,9992.780217
1209.380244,459.657299,-1110.308913,9918.759623
1209.380560,459.657299,-370.102971,9104.533087
1209.380876,0.000000,-0.000000,8734.430116
1209.381191,1072.533697,740.205942,8956.491898
1209.381507,1455.581446,666.185348,8216.285956
1209.381823,1072.533697,1554.432478,8808.450710
1209.382139,766.095498,1036.288319,9252.574275
1209.382454,459.657299,222.061783,9178.553681
1209.382770,766.095498,-814.226536,9030.512492
1209.383086,689.485948,-370.102971,9918.759623
1209.383402,76.609550,-370.102971,10288.862594
1209.383717,-383.047749,-0.000000,9474.636058
1209.384033,0.000000,666.185348,9696.697840
1209.384349,306.438199,666.185348,10288.862594
1209.384665,766.095498,592.164754,8882.471304
1209.384980,76.609550,888.247130,8512.368333
1209.385296,766.095498,-74.020594,9696.697840
1209.385612,766.095498,-0.000000,10214.842000
1209.385928,1378.971896,-0.000000,9548.656652
1209.386243,229.828649,444.123565,9326.594869
1209.386559,306.438199,592.164754,9918.759623
1209.386875,689.485948,-0.000000,9918.759623
1209.387191,919.314598,148.041188,8956.491898
1209.387506,842.705048,148.041188,10140.821405
1209.387822,536.266849,-74.020594,9992.780217
1209.388138,995.924147,296.082377,9474.636058
1209.388454,153.219100,-296.082377,9474.636058
1209.388769,919.314598,-0.000000,9992.780217
1209.389085,383.047749,222.061783,8956.491898
1209.389401,-306.438199,444.123565,8808.450710
1209.389717,229.828649,-444.123565,10288.862594
1209.390032,536.266849,-1184.329507,10807.006753
1209.390348,459.657299,-444.123565,10066.800811
1209.390664,-612.876398,-0.000000,8882.471304
1209.390980,0.000000,-222.061783,10066.800811
1209.391295,383.047749,-1036.288319,9918.759623
1209.391611,536.266849,-296.082377,8882.471304
1209.391927,-153.219100,-0.000000,9844.739029
1209.392242,-459.657299,-370.102971,10362.883188
1209.392558,536.266849,-222.061783,9548.656652
1209.392874,689.485948,-0.000000,8512.368333
1209.393190,842.705048,-518.144159,8660.409521
1209.393505,383.047749,-74.020594,8734.430116
1209.393821,689.485948,148.041188,9474.636058
1209.394137,995.924147,-370.102971,9400.615463
1209.394453,0.000000,444.123565,8956.491898
1209.394768,0.000000,592.164754,8586.388927
1209.395084,-153.219100,-0.000000,9548.656652
1209.395400,76.609550,-444.123565,9622.677246
1209.395716,306.438199,-592.164754,9770.718434
1209.396031,153.219100,-0.000000,9252.574275
1209.396347,-689.485948,370.102971,8216.285956
1209.396663,-229.828649,-740.205942,10066.800811
1209.396979,306.438199,-666.185348,9992.780217
1209.397294,0.000000,-148.041188,9696.697840
1209.397610,-383.047749,-74.020594,9474.636058
1209.397926,0.000000,-74.020594,10732.986159
1209.398242,229.828649,-444.123565,9696.697840
1209.398557,1608.800546,-370.102971,9030.512492
1209.398873,536.266849,666.185348,7994.224174
1209.399189,919.314598,740.205942,8438.347739
1209.399505,1532.190996,-370.102971,8512.368333
1209.399820,1225.752797,-444.123565,9622.677246
1209.400136,689.485948,-148.041188,9770.718434
1209.400452,229.828649,-1110.308913,9104.533087
1209.400768,0.000000,-444.123565,9474.636058
1209.401083,383.047749,-962.267725,10436.903782
1209.401399,766.095498,-1184.329507,10066.800811
1209.401715,536.266849,-370.102971,8956.491898
1209.402030,-229.828649,-148.041188,9622.677246
1209.402346,459.657299,-592.164754,10140.821405
1209.402662,459.657299,-518.144159,9696.697840
1209.402978,536.266849,296.082377,9400.615463
1209.403293,459.657299,-370.102971,9252.574275
1209.403609,383.047749,-740.205942,9474.636058
1209.403925,1532.190996,-1184.329507,11029.068536
1209.404241,1072.533697,-1184.329507,9252.574275
1209.404556,995.924147,-592.164754,8956.491898
1209.404872,1225.752797,-296.082377,9548.656652
1209.405188,1608.800546,-0.000000,9474.636058
1209.405504,1915.238745,-888.247130,9326.594869
1209.405819,1149.143247,-666.185348,9030.512492
1209.406135,689.485948,-0.000000,9104.533087
1209.406451,383.047749,-74.020594,9252.574275
1209.406767,1149.143247,-370.102971,8734.430116
1209.407082,689.485948,-370.102971,8438.347739
1209.407398,536.266849,-962.267725,9548.656652
1209.407714,153.219100,-814.226536,10066.800811
1209.408030,0.000000,-666.185348,9622.677246
1209.408345,0.000000,-444.123565,8882.471304
1209.408661,536.266849,-1036.288319,9696.697840
1209.408977,0.000000,-222.061783,9770.718434
1209.409293,0.000000,-0.000000,9252.574275
1209.409608,459.657299,-222.061783,9992.780217
1209.409924,842.705048,-296.082377,9474.636058
1209.410240,842.705048,518.144159,8068.244768
1209.410556,0.000000,740.205942,9104.533087
1209.410871,689.485948,740.205942,9474.636058
1209.411187,919.314598,370.102971,9104.533087
1209.411503,842.705048,444.123565,9622.677246
1209.411818,0.000000,592.164754,9548.656652
1209.412134,0.000000,-74.020594,9992.780217
1209.412450,306.438199,814.226536,9548.656652
1209.412766,-383.047749,740.205942,8586.388927
1209.413081,153.219100,814.226536,9548.656652
1209.413397,-383.047749,444.123565,10881.027347
1209.413713,306.438199,296.082377,10288.862594
1209.414029,-306.438199,-444.123565,9918.759623
1209.414344,-229.828649,-222.061783,10214.842000
1209.414660,-536.266849,-0.000000,9844.739029
1209.414976,536.266849,-0.000000,10066.800811
1209.415292,383.047749,-0.000000,10288.862594
1209.415607,383.047749,-0.000000,9474.636058
1209.415923,76.609550,666.185348,8808.450710
1209.416239,536.266849,370.102971,8882.471304
1209.416555,689.485948,-74.020594,9918.759623
1209.416870,612.876398,-148.041188,9918.759623
1209.417186,459.657299,-74.020594,9548.656652
1209.417502,-459.657299,-74.020594,9030.512492
1209.417818,459.657299,-370.102971,10510.924376
1209.418133,995.924147,-222.061783,9770.718434
1209.418449,612.876398,148.041188,8438.347739
1209.418765,306.438199,-0.000000,9104.533087
1209.419080,-229.828649,-518.144159,9918.759623
1209.419396,459.657299,-1036.288319,10140.821405
1209.419712,383.047749,-444.123565,9622.677246
1209.420028,306.438199,-148.041188,9178.553681
1209.420343,-459.657299,-592.164754,9326.594869
1209.420659,0.000000,-814.226536,10510.924376
1209.420975,766.095498,-1036.288319,9844.739029
1209.421290,383.047749,-148.041188,8512.368333
1209.421606,766.095498,148.041188,9474.636058
1209.421922,612.876398,-0.000000,8290.306550
1209.422237,1302.362347,-0.000000,9548.656652
1209.422553,1072.533697,-592.164754,8882.471304
1209.422869,1149.143247,-148.041188,8734.430116
1209.423185,689.485948,-444.123565,9326.594869
1209.423500,689.485948,-74.020594,9770.718434
1209.423816,1149.143247,-370.102971,8586.388927
1209.424132,766.095498,-444.123565,8734.430116
1209.424447,842.705048,-74.020594,10214.842000
1209.424763,766.095498,-592.164754,9622.677246
1209.425079,766.095498,-518.144159,9548.656652
1209.425395,766.095498,-370.102971,9548.656652
1209.425710,536.266849,-370.102971,9474.636058
1209.426026,229.828649,148.041188,9474.636058
1209.426342,766.095498,-148.041188,9770.718434
1209.426657,1455.581446,-148.041188,9548.656652
1209.426973,1685.410096,-74.020594,8512.368333
1209.427289,1072.533697,296.082377,8512.368333
1209.427604,1532.190996,-148.041188,9844.739029
1209.427920,1225.752797,-814.226536,9844.739029
1209.428236,1225.752797,-74.020594,8512.368333
1209.428552,459.657299,-0.000000,9474.636058
1209.428867,383.047749,-222.061783,9548.656652
1209.429183,1149.143247,-74.020594,10140.821405
1209.429499,459.657299,-148.041188,8956.491898
1209.429814,76.609550,-74.020594,9252.574275
1209.430130,0.000000,-740.205942,9844.739029
1209.430446,-229.828649,-444.123565,9400.615463
1209.430762,-459.657299,-1110.308913,9918.759623
1209.431077,-612.876398,-1776.494261,10436.903782
1209.431393,0.000000,-962.267725,10362.883188
1209.431709,-536.266849,-888.247130,9178.553681
1209.432024,-919.314598,-444.123565,9844.739029
1209.432340,995.924147,-592.164754,10214.842000
1209.432656,459.657299,-370.102971,8808.450710
1209.432971,153.219100,296.082377,8956.491898
1209.433287,-306.438199,-0.000000,9178.553681
1209.433603,1072.533697,-444.123565,9474.636058
1209.433919,919.314598,-0.000000,8290.306550
1209.434234,306.438199,-0.000000,8808.450710
1209.434550,-536.266849,-518.144159,9770.718434
1209.434866,76.609550,-1332.370696,10881.027347
1209.435181,536.266849,-740.205942,9400.615463
1209.435497,-153.219100,-0.000000,8956.491898
1209.435813,-153.219100,-370.102971,9696.697840
1209.436128,153.219100,-370.102971,9400.615463
1209.436444,229.828649,-222.061783,9474.636058
1209.436760,459.657299,-444.123565,9918.759623
1209.437076,0.000000,-0.000000,9104.533087
1209.437391,153.219100,296.082377,8808.450710
1209.437707,459.657299,-518.144159,9548.656652
1209.438023,995.924147,-370.102971,9770.718434
1209.438338,1149.143247,370.102971,9178.553681
1209.438654,689.485948,1406.391290,8364.327145
1209.438970,306.438199,592.164754,9178.553681
1209.439286,1455.581446,-148.041188,10066.800811
1209.439601,1072.533697,666.185348,8808.450710
1209.439917,229.828649,148.041188,8956.491898
1209.440233,306.438199,-0.000000,9622.677246
1209.440548,842.705048,296.082377,10584.944971
1209.440864,1149.143247,370.102971,9548.656652
1209.441180,383.047749,1406.391290,9178.553681
1209.441495,383.047749,888.247130,9474.636058
1209.441811,536.266849,962.267725,9474.636058
1209.442127,919.314598,296.082377,9918.759623
1209.442443,383.047749,-666.185348,10066.800811
1209.442758,383.047749,-370.102971,10510.924376
1209.443074,76.609550,-0.000000,10066.800811
1209.443390,689.485948,296.082377,9622.677246
1209.443705,612.876398,222.061783,9326.594869
1209.444021,919.314598,222.061783,9770.718434
1209.444337,306.438199,296.082377,9400.615463
1209.444653,153.219100,-518.144159,10288.862594
1209.444968,306.438199,-814.226536,10510.924376
1209.445284,689.485948,-222.061783,9178.553681
1209.445600,766.095498,-0.000000,9770.718434
1209.445915,76.609550,-148.041188,9326.594869
1209.446231,459.657299,-0.000000,10658.965565
1209.446547,689.485948,-222.061783,9474.636058
1209.446862,383.047749,-74.020594,8956.491898
1209.447178,76.609550,-74.020594,9474.636058
1209.447494,76.609550,-444.123565,9326.594869
1209.447810,306.438199,-592.164754,9696.697840
1209.448125,0.000000,-370.102971,9770.718434
1209.448441,-459.657299,-1258.350101,10140.821405
1209.448757,-459.657299,-962.267725,10140.821405
1209.449072,229.828649,-518.144159,9178.553681
1209.449388,689.485948,-296.082377,9178.553681
1209.449704,306.438199,-1036.288319,9030.512492
1209.450020,76.609550,-666.185348,9252.574275
1209.450335,153.219100,-444.123565,9474.636058
1209.450651,1302.362347,-444.123565,9770.718434
1209.450967,536.266849,-740.205942,8808.450710
1209.451282,229.828649,74.020594,8660.409521
1209.451598,383.047749,444.123565,8660.409521
1209.451914,1149.143247,-296.082377,9400.615463
1209.452229,766.095498,-222.061783,9104.533087
1209.452545,842.705048,-222.061783,8438.347739
1209.452861,383.047749,-148.041188,8586.388927
1209.453177,0.000000,-814.226536,9178.553681
1209.453492,0.000000,-2072.576638,10436.903782
1209.453808,536.266849,-1406.391290,10510.924376
1209.454124,0.000000,222.061783,9400.615463
1209.454439,229.828649,222.061783,9622.677246
1209.454755,995.924147,-370.102971,9474.636058
1209.455071,919.314598,-222.061783,9326.594869
1209.455386,1455.581446,-0.000000,8882.471304
1209.455702,536.266849,-0.000000,8956.491898
1209.456018,689.485948,-370.102971,9696.697840
1209.456334,1685.410096,-666.185348,9326.594869
