#time,accel_x,accel_y,accel_z
835.287788,612.876398,-296.082377,9400.615463
835.288104,383.047749,-148.041188,9474.636058
835.288419,383.047749,-592.164754,9474.636058
835.288735,229.828649,-74.020594,9548.656652
835.289051,459.657299,-222.061783,9400.615463
835.289366,536.266849,-0.000000,9548.656652
835.289682,536.266849,-222.061783,9400.615463
835.289998,0.000000,-74.020594,9178.553681
835.290313,306.438199,-0.000000,9474.636058
835.290629,612.876398,-74.020594,9178.553681
835.290945,229.828649,-222.061783,9400.615463
835.291261,459.657299,-74.020594,9622.677246
835.291576,306.438199,-296.082377,9474.636058
835.291892,689.485948,-0.000000,9474.636058
835.292208,459.657299,-222.061783,9696.697840
835.292523,459.657299,-222.061783,9474.636058
835.292839,229.828649,-0.000000,9696.697840
835.293155,459.657299,-148.041188,9474.636058
835.293470,536.266849,-222.061783,9622.677246
835.293786,229.828649,296.082377,9326.594869
835.294102,306.438199,296.082377,9326.594869
835.294417,689.485948,-0.000000,9400.615463
835.294733,0.000000,-0.000000,9326.594869
835.295049,153.219100,-0.000000,9400.615463
835.295365,459.657299,-148.041188,9622.677246
835.295680,0.000000,-74.020594,9474.636058
835.295996,0.000000,-296.082377,9918.759623
835.296312,229.828649,-0.000000,9548.656652
835.296627,612.876398,222.061783,9548.656652
835.296943,459.657299,370.102971,9400.615463
835.297259,536.266849,740.205942,9326.594869
835.297574,229.828649,666.185348,9474.636058
835.297890,766.095498,740.205942,9252.574275
835.298206,612.876398,814.226536,8956.491898
835.298521,689.485948,814.226536,9252.574275
835.298837,689.485948,740.205942,9474.636058
835.299153,612.876398,518.144159,9548.656652
835.299469,536.266849,296.082377,9622.677246
835.299784,536.266849,592.164754,9548.656652
835.300100,919.314598,518.144159,9622.677246
835.300416,612.876398,740.205942,9548.656652
835.300731,995.924147,1036.288319,9474.636058
835.301047,1378.971896,1184.329507,9474.636058
835.301363,1762.019645,1332.370696,9252.574275
835.301678,1455.581446,1480.411884,9252.574275
835.301994,2068.457845,1406.391290,9178.553681
835.302310,2298.286494,1702.473667,9326.594869
835.302625,2298.286494,1628.453072,9252.574275
835.302941,2604.724693,1776.494261,9474.636058
835.303257,2528.115143,1480.411884,9400.615463
835.303573,2451.505594,1702.473667,9474.636058
835.303888,2757.943793,1924.535449,9400.615463
835.304204,2757.943793,1628.453072,9548.656652
835.304520,2681.334243,2368.659014,9696.697840
835.304835,3447.429741,2294.638420,9548.656652
835.305151,3217.601092,2294.638420,9548.656652
835.305467,2987.772442,2368.659014,9326.594869
835.305782,3217.601092,2368.659014,9326.594869
835.306098,3294.210641,2516.700203,9326.594869
835.306414,3753.867940,2368.659014,9400.615463
835.306729,3524.039291,2590.720797,9474.636058
835.307045,3217.601092,2442.679609,9252.574275
835.307361,3294.210641,2590.720797,9474.636058
835.307677,3370.820191,2590.720797,9474.636058
835.307992,2681.334243,2146.597232,9622.677246
835.308308,3217.601092,2442.679609,9622.677246
835.308624,2987.772442,2368.659014,9696.697840
835.308939,2757.943793,2220.617826,9844.739029
835.309255,2604.724693,2220.617826,9918.759623
835.309571,2834.553343,2072.576638,10066.800811
835.309886,2681.334243,2220.617826,10066.800811
835.310202,2604.724693,2072.576638,9992.780217
835.310518,2528.115143,2294.638420,9992.780217
835.310833,2451.505594,2220.617826,9622.677246
835.311149,3064.381992,2294.638420,9622.677246
835.311465,2604.724693,1998.556043,9696.697840
835.311781,2911.162892,2368.659014,9474.636058
835.312096,2834.553343,2146.597232,9548.656652
835.312412,2834.553343,2072.576638,9326.594869
835.312728,2451.505594,1924.535449,9252.574275
835.313043,2298.286494,2146.597232,9252.574275
835.313359,1762.019645,1554.432478,9548.656652
835.313675,1302.362347,1184.329507,9770.718434
835.313990,995.924147,666.185348,9696.697840
835.314306,383.047749,-0.000000,10362.883188
835.314622,536.266849,-148.041188,10658.965565
835.314937,536.266849,-518.144159,10658.965565
835.315253,919.314598,-444.123565,10658.965565
835.315569,1072.533697,-222.061783,10881.027347
835.315885,2145.067394,222.061783,9992.780217
835.316200,2451.505594,1036.288319,9400.615463
835.316516,3217.601092,2368.659014,8734.430116
835.316832,3830.477490,2812.782580,7994.224174
835.317147,3753.867940,2960.823768,7328.038826
835.317463,4213.525239,2738.761985,7698.141797
835.317779,4673.182538,2368.659014,7179.997637
835.318094,3907.087040,2072.576638,7624.121203
835.318410,3140.991542,1554.432478,8290.306550
835.318726,2145.067394,1036.288319,9030.512492
835.319041,1149.143247,518.144159,9326.594869
835.319357,459.657299,296.082377,10066.800811
835.319673,-536.266849,148.041188,10140.821405
835.319989,-766.095498,-222.061783,10584.944971
835.320304,-536.266849,-740.205942,11103.089130
835.320620,-689.485948,-962.267725,11029.068536
835.320936,-229.828649,-444.123565,11029.068536
835.321251,459.657299,-74.020594,10658.965565
835.321567,1532.190996,814.226536,10066.800811
835.321883,2911.162892,1554.432478,9474.636058
835.322198,4136.915689,2738.761985,8512.368333
835.322514,5056.230287,3478.967927,7920.203579
835.322830,6205.373534,3923.091493,7328.038826
835.323145,6511.811733,4515.256246,6809.894666
835.323461,6511.811733,4663.297435,6513.812290
835.323777,6511.811733,4441.235652,6957.935855
835.324093,5515.887586,3849.070898,7624.121203
835.324408,4673.182538,3108.864956,8290.306550
835.324724,3140.991542,1776.494261,9548.656652
835.325040,1685.410096,592.164754,10881.027347
835.325355,229.828649,-222.061783,11917.315666
835.325671,-766.095498,-888.247130,12879.583391
835.325987,-1225.752797,-740.205942,13323.706956
835.326302,-1225.752797,-444.123565,12953.603985
835.326618,-153.219100,-0.000000,12435.459826
835.326934,842.705048,1998.556043,11103.089130
835.327249,1991.848295,3330.926739,9918.759623
835.327565,3447.429741,4367.215058,7994.224174
835.327881,5209.449386,4737.318029,7105.977043
835.328197,6205.373534,4959.379811,6587.832884
835.328512,7124.688131,4145.153275,7105.977043
835.328828,6741.640382,3404.947333,7402.059420
835.329144,5975.544884,2812.782580,8290.306550
835.329459,4979.620737,2220.617826,9326.594869
835.329775,3830.477490,2146.597232,10362.883188
835.330091,2834.553343,1850.514855,11399.171507
835.330406,1685.410096,1628.453072,11843.295072
835.330722,459.657299,1998.556043,11621.233289
835.331038,229.828649,2664.741391,11547.212695
835.331353,919.314598,2516.700203,10807.006753
835.331669,1225.752797,2294.638420,10362.883188
835.331985,1532.190996,2220.617826,9992.780217
835.332301,1608.800546,1850.514855,9178.553681
835.332616,2068.457845,1406.391290,9326.594869
835.332932,2681.334243,1554.432478,9030.512492
835.333248,2834.553343,2368.659014,8660.409521
835.333563,2451.505594,3034.844362,8512.368333
835.333879,1915.238745,2442.679609,8882.471304
835.334195,1532.190996,2146.597232,9548.656652
835.334510,1608.800546,1554.432478,9844.739029
835.334826,2221.676944,962.267725,9992.780217
835.335142,1532.190996,888.247130,10436.903782
835.335457,1378.971896,1110.308913,10807.006753
835.335773,1762.019645,1554.432478,11177.109724
835.336089,2145.067394,1924.535449,10510.924376
835.336405,2911.162892,2738.761985,9252.574275
835.336720,2757.943793,3923.091493,8142.265362
835.337036,3600.648841,3404.947333,7624.121203
835.337352,4443.353888,2590.720797,7328.038826
835.337667,4749.792088,2886.803174,6957.935855
835.337983,3830.477490,2220.617826,7254.018232
835.338299,3294.210641,962.267725,8512.368333
835.338614,2374.896044,-222.061783,9326.594869
835.338930,1225.752797,-222.061783,10362.883188
835.339246,0.000000,592.164754,10955.047942
835.339561,-153.219100,1184.329507,11547.212695
835.339877,306.438199,1332.370696,10955.047942
835.340193,1072.533697,1628.453072,10510.924376
835.340509,689.485948,1480.411884,9918.759623
835.340824,1608.800546,1406.391290,10140.821405
835.341140,2834.553343,814.226536,9770.718434
835.341456,3524.039291,1036.288319,9030.512492
835.341771,3983.696590,2294.638420,8068.244768
835.342087,4979.620737,2442.679609,7920.203579
835.342403,5286.058936,2812.782580,7698.141797
835.342718,4979.620737,2664.741391,7402.059420
835.343034,4749.792088,2368.659014,7994.224174
835.343350,4213.525239,1998.556043,8734.430116
835.343665,2604.724693,2146.597232,9104.533087
835.343981,2298.286494,2368.659014,9770.718434
835.344297,1608.800546,1850.514855,9622.677246
835.344613,1455.581446,1110.308913,10436.903782
835.344928,76.609550,740.205942,11769.274478
835.345244,-459.657299,-0.000000,11621.233289
835.345560,-306.438199,-1110.308913,11991.336260
835.345875,-459.657299,-518.144159,11399.171507
835.346191,612.876398,592.164754,11621.233289
835.346507,2221.676944,814.226536,10584.944971
835.346822,3600.648841,2368.659014,9474.636058
835.347138,3983.696590,3108.864956,8068.244768
835.347454,4979.620737,3108.864956,7920.203579
835.347769,5515.887586,3256.906145,7254.018232
835.348085,5056.230287,3849.070898,7254.018232
835.348400,4826.401637,3034.844362,7994.224174
835.348716,4826.401637,2220.617826,8586.388927
835.349032,3524.039291,2442.679609,9474.636058
835.349347,2298.286494,1924.535449,9770.718434
835.349663,1685.410096,666.185348,11029.068536
835.349979,842.705048,1332.370696,11251.130318
835.350294,919.314598,1480.411884,11177.109724
835.350610,995.924147,740.205942,10658.965565
835.350926,1072.533697,666.185348,11029.068536
835.351241,689.485948,888.247130,10881.027347
835.351557,1455.581446,666.185348,10510.924376
835.351873,2221.676944,1850.514855,9252.574275
835.352188,2221.676944,2516.700203,8660.409521
835.352504,2911.162892,1924.535449,9030.512492
835.352820,3447.429741,2368.659014,8808.450710
835.353135,2911.162892,2664.741391,8290.306550
835.353451,3064.381992,2368.659014,8586.388927
835.353767,2987.772442,2516.700203,8216.285956
835.354082,3140.991542,2738.761985,9326.594869
835.354398,3140.991542,2220.617826,9252.574275
835.354714,2528.115143,2146.597232,9104.533087
835.355029,1685.410096,2294.638420,9400.615463
835.355345,1378.971896,2146.597232,9030.512492
835.355661,1608.800546,2146.597232,8882.471304
835.355976,1762.019645,962.267725,10288.862594
835.356292,1378.971896,1184.329507,9918.759623
835.356608,766.095498,1036.288319,9030.512492
835.356923,536.266849,370.102971,9770.718434
835.357239,0.000000,1628.453072,9104.533087
835.357554,995.924147,962.267725,9918.759623
835.357870,1608.800546,888.247130,10436.903782
835.358186,383.047749,1998.556043,9474.636058
835.358501,612.876398,1258.350101,9474.636058
835.358817,1685.410096,1850.514855,9548.656652
835.359133,2374.896044,2738.761985,8882.471304
835.359448,2681.334243,2368.659014,9622.677246
835.359764,2681.334243,2590.720797,9696.697840
835.360080,2757.943793,2220.617826,8956.491898
835.360395,3983.696590,2812.782580,8586.388927
835.360711,4290.134789,3478.967927,7624.121203
835.361027,4826.401637,2146.597232,9178.553681
835.361342,4979.620737,2368.659014,9252.574275
835.361658,2911.162892,1850.514855,9474.636058
835.361974,1838.629195,1184.329507,9548.656652
835.362289,2451.505594,1628.453072,9992.780217
835.362605,2145.067394,740.205942,9178.553681
835.362921,2068.457845,444.123565,11103.089130
835.363236,1302.362347,740.205942,11029.068536
835.363552,995.924147,666.185348,10288.862594
835.363868,1838.629195,444.123565,9992.780217
835.364183,2451.505594,222.061783,10436.903782
835.364499,2757.943793,740.205942,10436.903782
835.364815,2911.162892,1184.329507,9326.594869
835.365130,2604.724693,1480.411884,9030.512492
835.365446,3677.258390,1332.370696,10140.821405
835.365762,4903.011187,1406.391290,9918.759623
835.366077,4443.353888,2220.617826,7624.121203
835.366393,3294.210641,2368.659014,8660.409521
835.366708,3753.867940,370.102971,9400.615463
835.367024,3140.991542,888.247130,9844.739029
835.367340,2604.724693,1184.329507,10584.944971
835.367655,1838.629195,296.082377,9622.677246
835.367971,536.266849,1110.308913,10140.821405
835.368287,-383.047749,518.144159,9770.718434
835.368602,-612.876398,-0.000000,11029.068536
835.368918,-536.266849,-666.185348,11917.315666
835.369234,-306.438199,-1406.391290,10584.944971
835.369549,-842.705048,-1480.411884,10436.903782
835.369865,-1225.752797,-888.247130,10436.903782
835.370181,383.047749,-1924.535449,10955.047942
835.370496,919.314598,-74.020594,9844.739029
835.370812,612.876398,1036.288319,9178.553681
835.371128,1455.581446,1406.391290,7328.038826
835.371443,2604.724693,2146.597232,6143.709319
835.371759,2451.505594,888.247130,7105.977043
835.372075,2451.505594,-518.144159,8142.265362
835.372390,1378.971896,-1036.288319,7994.224174
835.372706,766.095498,-370.102971,8364.327145
835.373022,766.095498,-1998.556043,9548.656652
835.373337,-229.828649,-2368.659014,9992.780217
835.373653,-1072.533697,-740.205942,10510.924376
835.373969,-1225.752797,-814.226536,9474.636058
835.374284,-689.485948,-518.144159,9178.553681
835.374600,0.000000,-222.061783,9696.697840
835.374916,76.609550,-370.102971,9474.636058
835.375231,76.609550,-222.061783,8068.244768
835.375547,459.657299,518.144159,7772.162391
835.375862,1532.190996,518.144159,7254.018232
835.376178,1072.533697,666.185348,7105.977043
835.376494,995.924147,1110.308913,8512.368333
835.376809,383.047749,-74.020594,8734.430116
835.377125,0.000000,-444.123565,8438.347739
835.377441,229.828649,-296.082377,9548.656652
835.377756,-536.266849,-592.164754,9844.739029
835.378072,-919.314598,-666.185348,11029.068536
835.378388,-842.705048,148.041188,10510.924376
835.378703,-766.095498,518.144159,9548.656652
835.379019,-536.266849,814.226536,9252.574275
835.379335,-536.266849,1332.370696,10214.842000
835.379650,-383.047749,1258.350101,9178.553681
835.379966,612.876398,296.082377,8512.368333
835.380282,1302.362347,-444.123565,9104.533087
835.380597,842.705048,-148.041188,9178.553681
835.380913,612.876398,-0.000000,10732.986159
835.381229,766.095498,148.041188,9104.533087
835.381544,1302.362347,-74.020594,10066.800811
835.381860,612.876398,888.247130,9474.636058
835.382176,-306.438199,1480.411884,10288.862594
835.382491,-229.828649,444.123565,11029.068536
835.382807,0.000000,-148.041188,10510.924376
835.383123,229.828649,-296.082377,10140.821405
835.383438,612.876398,-0.000000,10807.006753
835.383754,-153.219100,592.164754,10881.027347
835.384070,153.219100,-0.000000,10140.821405
835.384385,1455.581446,-518.144159,10288.862594
835.384701,1762.019645,-0.000000,9104.533087
835.385016,1225.752797,740.205942,9400.615463
835.385332,1838.629195,666.185348,10436.903782
835.385648,1991.848295,148.041188,9178.553681
835.385963,2298.286494,148.041188,9104.533087
835.386279,1838.629195,296.082377,8734.430116
835.386595,919.314598,370.102971,9548.656652
835.386910,919.314598,-222.061783,10732.986159
835.387226,919.314598,-1110.308913,10288.862594
835.387542,383.047749,-518.144159,9474.636058
835.387857,306.438199,-0.000000,10362.883188
835.388173,76.609550,-518.144159,10066.800811
835.388489,536.266849,-222.061783,9400.615463
835.388804,995.924147,-74.020594,8142.265362
835.389120,995.924147,-0.000000,8364.327145
835.389436,383.047749,592.164754,9844.739029
835.389751,1302.362347,-0.000000,9030.512492
835.390067,1378.971896,-888.247130,7994.224174
835.390383,1072.533697,-592.164754,8364.327145
835.390698,995.924147,-592.164754,9548.656652
835.391014,459.657299,-0.000000,8660.409521
835.391330,0.000000,-0.000000,8660.409521
835.391645,919.314598,-222.061783,8512.368333
835.391961,-612.876398,370.102971,7920.203579
835.392277,-689.485948,444.123565,9400.615463
835.392592,-919.314598,-148.041188,9474.636058
835.392908,-306.438199,-1554.432478,9548.656652
835.393224,-229.828649,-1850.514855,9030.512492
835.393539,-1072.533697,-888.247130,10066.800811
835.393855,-842.705048,-814.226536,9918.759623
835.394170,0.000000,-1184.329507,9548.656652
835.394486,306.438199,-888.247130,8512.368333
835.394802,229.828649,-74.020594,8586.388927
835.395117,153.219100,-148.041188,9770.718434
835.395433,306.438199,-814.226536,9918.759623
835.395749,612.876398,-592.164754,9326.594869
835.396064,459.657299,-444.123565,8660.409521
835.396380,-153.219100,814.226536,9548.656652
835.396696,-306.438199,592.164754,9252.574275
835.397011,0.000000,-0.000000,8956.491898
835.397327,306.438199,-444.123565,9030.512492
835.397643,-536.266849,-962.267725,10066.800811
835.397958,-842.705048,-666.185348,10658.965565
835.398274,-536.266849,-1332.370696,10288.862594
835.398590,0.000000,-1258.350101,9918.759623
835.398905,0.000000,-74.020594,9770.718434
835.399221,-306.438199,814.226536,9104.533087
835.399537,76.609550,-0.000000,10214.842000
835.399852,0.000000,-888.247130,9622.677246
835.400168,383.047749,-1332.370696,9622.677246
835.400484,-153.219100,-1332.370696,9918.759623
835.400799,-383.047749,-740.205942,10658.965565
835.401115,-459.657299,-444.123565,11029.068536
835.401431,459.657299,-370.102971,9696.697840
835.401746,306.438199,666.185348,9252.574275
835.402062,-306.438199,2072.576638,9030.512492
835.402378,766.095498,1184.329507,9474.636058
835.402693,1455.581446,-74.020594,8734.430116
835.403009,1302.362347,592.164754,8290.306550
835.403324,1072.533697,-0.000000,9548.656652
835.403640,1149.143247,-740.205942,10584.944971
835.403956,1149.143247,666.185348,9696.697840
835.404271,689.485948,-666.185348,9178.553681
835.404587,689.485948,-0.000000,9326.594869
835.404903,612.876398,444.123565,10732.986159
835.405218,-306.438199,1480.411884,9474.636058
835.405534,306.438199,222.061783,9770.718434
835.405850,383.047749,-740.205942,9326.594869
835.406165,459.657299,-370.102971,10362.883188
835.406481,306.438199,-740.205942,10362.883188
835.406797,306.438199,-1036.288319,9326.594869
835.407112,842.705048,-1406.391290,9918.759623
835.407428,1991.848295,-444.123565,8882.471304
835.407744,2068.457845,1258.350101,9252.574275
835.408059,2221.676944,1110.308913,8512.368333
835.408375,2681.334243,370.102971,8068.244768
835.408691,3140.991542,-148.041188,7402.059420
835.409006,2068.457845,444.123565,8882.471304
835.409322,2374.896044,444.123565,9252.574275
835.409638,1532.190996,-444.123565,8882.471304
835.409953,1378.971896,-1184.329507,9770.718434
835.410269,229.828649,-444.123565,9326.594869
835.410585,0.000000,148.041188,10288.862594
835.410900,0.000000,222.061783,9696.697840
835.411216,-383.047749,-444.123565,9400.615463
835.411532,383.047749,-592.164754,10140.821405
835.411847,-229.828649,-666.185348,9474.636058
835.412163,-383.047749,222.061783,9474.636058
835.412478,612.876398,-74.020594,9326.594869
835.412794,995.924147,-370.102971,7994.224174
835.413110,842.705048,592.164754,8068.244768
835.413425,612.876398,888.247130,9030.512492
835.413741,459.657299,-0.000000,8142.265362
835.414057,383.047749,-222.061783,8882.471304
835.414372,306.438199,-592.164754,8808.450710
835.414688,0.000000,370.102971,9252.574275
835.415004,-689.485948,-148.041188,10436.903782
835.415319,-995.924147,-740.205942,10140.821405
835.415635,0.000000,-296.082377,9252.574275
835.415951,-383.047749,222.061783,9696.697840
835.416266,0.000000,296.082377,10214.842000
835.416582,-842.705048,-296.082377,9992.780217
835.416898,229.828649,-962.267725,9104.533087
835.417213,306.438199,-370.102971,9252.574275
835.417529,153.219100,148.041188,9474.636058
835.417845,229.828649,962.267725,9252.574275
835.418160,0.000000,-0.000000,9474.636058
835.418476,306.438199,-0.000000,9474.636058
835.418792,612.876398,296.082377,9104.533087
835.419107,-383.047749,1036.288319,9104.533087
835.419423,-383.047749,-222.061783,9474.636058
835.419739,383.047749,-1554.432478,10140.821405
835.420054,-229.828649,-1480.411884,9992.780217
835.420370,-995.924147,-740.205942,11695.253884
835.420686,-842.705048,-518.144159,11325.150913
835.421001,-612.876398,-444.123565,10214.842000
835.421317,306.438199,-296.082377,10066.800811
835.421632,306.438199,-0.000000,9548.656652
835.421948,306.438199,592.164754,9770.718434
835.422264,995.924147,-370.102971,8956.491898
835.422579,1838.629195,-740.205942,9104.533087
835.422895,1991.848295,-740.205942,9548.656652
835.423211,1378.971896,-444.123565,9326.594869
835.423526,536.266849,148.041188,9252.574275
835.423842,1149.143247,-222.061783,9918.759623
835.424158,1455.581446,-592.164754,10214.842000
835.424473,919.314598,-0.000000,9548.656652
835.424789,229.828649,-0.000000,10658.965565
835.425105,-306.438199,-888.247130,9696.697840
835.425420,1378.971896,-1628.453072,9622.677246
835.425736,1608.800546,-1036.288319,9548.656652
835.426052,459.657299,370.102971,9326.594869
835.426367,689.485948,-222.061783,10140.821405
835.426683,612.876398,-1184.329507,8586.388927
835.426999,1225.752797,-1406.391290,9622.677246
835.427314,536.266849,-814.226536,8956.491898
835.427630,383.047749,-148.041188,9326.594869
835.427946,459.657299,-592.164754,8586.388927
835.428261,1225.752797,-1554.432478,8808.450710
835.428577,919.314598,-1258.350101,9104.533087
835.428893,383.047749,-148.041188,9252.574275
835.429208,383.047749,-740.205942,8956.491898
835.429524,383.047749,-1406.391290,9178.553681
835.429840,1225.752797,-1554.432478,9844.739029
835.430155,995.924147,-740.205942,8512.368333
835.430471,383.047749,370.102971,8512.368333
835.430786,612.876398,-518.144159,9104.533087
835.431102,1455.581446,-666.185348,8734.430116
835.431418,1762.019645,296.082377,7328.038826
835.431733,842.705048,1258.350101,8068.244768
835.432049,919.314598,-148.041188,9252.574275
835.432365,995.924147,-1702.473667,9252.574275
835.432680,1149.143247,-296.082377,8882.471304
835.432996,306.438199,518.144159,9104.533087
835.433312,76.609550,370.102971,10362.883188
835.433627,-306.438199,666.185348,8660.409521
835.433943,229.828649,518.144159,9548.656652
835.434259,0.000000,814.226536,9474.636058
835.434574,-766.095498,222.061783,10732.986159
835.434890,-1072.533697,444.123565,10658.965565
835.435206,229.828649,370.102971,9992.780217
835.435521,383.047749,-0.000000,9104.533087
835.435837,0.000000,1332.370696,9178.553681
835.436153,229.828649,1332.370696,10214.842000
835.436468,0.000000,518.144159,9548.656652
835.436784,1072.533697,666.185348,10288.862594
835.437100,1072.533697,814.226536,9030.512492
835.437415,995.924147,1184.329507,10288.862594
835.437731,153.219100,888.247130,10510.924376
835.438047,306.438199,-444.123565,9918.759623
835.438362,1225.752797,-222.061783,10288.862594
835.438678,306.438199,370.102971,10140.821405
835.438994,-229.828649,962.267725,11325.150913
835.439309,-306.438199,666.185348,9548.656652
835.439625,766.095498,74.020594,9548.656652
835.439940,842.705048,370.102971,10140.821405
835.440256,-153.219100,888.247130,9992.780217
835.440572,0.000000,-222.061783,10881.027347
835.440887,0.000000,-666.185348,9844.739029
835.441203,153.219100,-888.247130,9474.636058
835.441519,153.219100,-0.000000,10214.842000
835.441834,-153.219100,-444.123565,10510.924376
835.442150,76.609550,-1036.288319,9622.677246
835.442466,383.047749,-962.267725,9696.697840
835.442781,536.266849,-888.247130,9474.636058
835.443097,-153.219100,-0.000000,9326.594869
835.443413,-459.657299,-0.000000,9030.512492
835.443728,0.000000,-1184.329507,9992.780217
835.444044,536.266849,-1406.391290,9178.553681
835.444360,76.609550,-0.000000,9252.574275
835.444675,0.000000,-0.000000,9400.615463
835.444991,383.047749,-814.226536,8364.327145
835.445307,1991.848295,-888.247130,7328.038826
835.445622,1072.533697,-592.164754,8956.491898
835.445938,383.047749,-518.144159,9844.739029
835.446254,383.047749,-666.185348,9252.574275
835.446569,306.438199,-962.267725,7994.224174
835.446885,153.219100,-740.205942,8586.388927
835.447201,-383.047749,-222.061783,9696.697840
835.447516,-383.047749,-0.000000,9400.615463
835.447832,0.000000,-0.000000,8882.471304
835.448148,536.266849,-1110.308913,9030.512492
835.448464,536.266849,-1406.391290,9104.533087
835.448779,459.657299,-444.123565,9844.739029
835.449095,-229.828649,-1110.308913,9252.574275
835.449411,536.266849,-1628.453072,9326.594869
835.449726,1225.752797,-666.185348,9696.697840
835.450042,536.266849,222.061783,8808.450710
835.450358,612.876398,222.061783,8734.430116
835.450674,919.314598,-148.041188,9104.533087
835.450989,1302.362347,-814.226536,8660.409521
835.451305,1378.971896,-148.041188,9030.512492
835.451621,1455.581446,-370.102971,10214.842000
835.451937,306.438199,-592.164754,9326.594869
835.452252,1149.143247,-1036.288319,9844.739029
835.452568,1072.533697,-814.226536,9400.615463
835.452884,766.095498,592.164754,10066.800811
835.453200,0.000000,370.102971,9622.677246
835.453515,612.876398,-0.000000,9918.759623
835.453831,1149.143247,-444.123565,9474.636058
835.454147,536.266849,-370.102971,8734.430116
835.454463,153.219100,-0.000000,10807.006753
835.454778,383.047749,-518.144159,9400.615463
835.455094,842.705048,-222.061783,9918.759623
835.455410,536.266849,-370.102971,9992.780217
835.455726,0.000000,-296.082377,9992.780217
835.456041,383.047749,1110.308913,10140.821405
835.456357,0.000000,-0.000000,8882.471304
835.456673,306.438199,-814.226536,10362.883188
835.456989,0.000000,296.082377,10288.862594
835.457304,-995.924147,296.082377,9696.697840
835.457620,-383.047749,-0.000000,9696.697840
835.457936,0.000000,-370.102971,9622.677246
835.458252,-153.219100,-592.164754,10140.821405
835.458567,-536.266849,-296.082377,10362.883188
835.458883,0.000000,-0.000000,10140.821405
835.459199,76.609550,-0.000000,9252.574275
835.459515,612.876398,222.061783,8808.450710
835.459830,842.705048,-0.000000,8808.450710
835.460146,76.609550,666.185348,9992.780217
835.460462,0.000000,-148.041188,9326.594869
835.460778,689.485948,-296.082377,9474.636058
835.461093,612.876398,-148.041188,9326.594869
835.461409,0.000000,666.185348,8956.491898
835.461725,383.047749,222.061783,9474.636058
835.462041,536.266849,-814.226536,9178.553681
835.462356,842.705048,-444.123565,9474.636058
835.462672,383.047749,962.267725,9030.512492
835.462988,153.219100,518.144159,9548.656652
835.463304,76.609550,-0.000000,8882.471304
835.463619,995.924147,-296.082377,9696.697840
835.463935,229.828649,-148.041188,9030.512492
835.464251,-459.657299,296.082377,9918.759623
835.464566,229.828649,814.226536,9104.533087
835.464882,536.266849,-296.082377,9030.512492
835.465198,689.485948,-1184.329507,9918.759623
835.465514,919.314598,-0.000000,9400.615463
835.465829,306.438199,444.123565,9622.677246
835.466145,0.000000,-0.000000,10288.862594
835.466461,1378.971896,-740.205942,9622.677246
835.466777,1455.581446,1036.288319,8734.430116
835.467092,842.705048,1332.370696,9178.553681
835.467408,383.047749,-0.000000,9178.553681
835.467724,1991.848295,-222.061783,8956.491898
835.468040,1532.190996,-814.226536,8512.368333
835.468355,1149.143247,-814.226536,9178.553681
835.468671,612.876398,-888.247130,10214.842000
835.468987,229.828649,-1406.391290,9030.512492
835.469303,0.000000,-1036.288319,9474.636058
835.469618,459.657299,-1184.329507,10288.862594
835.469934,-459.657299,-74.020594,9622.677246
835.470250,-459.657299,-0.000000,9400.615463
835.470566,-383.047749,-888.247130,9178.553681
835.470881,306.438199,-2368.659014,9770.718434
835.471197,0.000000,-1628.453072,9548.656652
835.471513,0.000000,-740.205942,10362.883188
835.471829,-306.438199,-1258.350101,9548.656652
835.472144,919.314598,-1628.453072,9474.636058
835.472460,459.657299,-962.267725,8364.327145
835.472776,612.876398,296.082377,10436.903782
835.473092,1455.581446,444.123565,8734.430116
835.473407,1532.190996,518.144159,7994.224174
835.473723,1762.019645,592.164754,8734.430116
835.474039,1685.410096,296.082377,8438.347739
835.474355,689.485948,518.144159,8660.409521
835.474670,842.705048,-148.041188,9622.677246
835.474986,612.876398,-1628.453072,9770.718434
835.475302,76.609550,-740.205942,9844.739029
835.475618,-612.876398,-0.000000,10510.924376
835.475933,-306.438199,222.061783,10362.883188
835.476249,0.000000,-0.000000,10288.862594
835.476565,536.266849,-74.020594,9326.594869
835.476881,306.438199,444.123565,9474.636058
835.477196,0.000000,148.041188,9844.739029
835.477512,229.828649,-444.123565,8956.491898
835.477828,689.485948,-962.267725,9622.677246
835.478144,919.314598,-370.102971,9474.636058
835.478459,536.266849,666.185348,9770.718434
835.478775,0.000000,592.164754,9252.574275
835.479091,842.705048,-0.000000,9474.636058
835.479406,1072.533697,370.102971,8660.409521
835.479722,383.047749,-0.000000,9252.574275
835.480038,76.609550,-444.123565,11103.089130
835.480354,153.219100,-1258.350101,9548.656652
835.480669,612.876398,-296.082377,10066.800811
835.480985,612.876398,-0.000000,9548.656652
835.481301,0.000000,592.164754,9696.697840
835.481617,0.000000,1184.329507,9400.615463
835.481932,383.047749,-592.164754,9252.574275
835.482248,229.828649,-666.185348,9622.677246
835.482564,0.000000,-444.123565,9622.677246
835.482880,0.000000,-74.020594,9696.697840
835.483195,0.000000,-370.102971,9844.739029
835.483511,459.657299,-1332.370696,9326.594869
835.483827,383.047749,592.164754,9104.533087
835.484143,-229.828649,888.247130,9696.697840
835.484458,-612.876398,-0.000000,8808.450710
835.484774,0.000000,-888.247130,9696.697840
835.485090,689.485948,-1406.391290,9548.656652
835.485406,76.609550,-370.102971,9178.553681
835.485721,-689.485948,-222.061783,10362.883188
835.486037,306.438199,-518.144159,9696.697840
835.486353,1455.581446,-74.020594,9326.594869
835.486669,842.705048,444.123565,8660.409521
835.486984,612.876398,962.267725,8956.491898
835.487300,995.924147,518.144159,8734.430116
835.487616,2221.676944,-666.185348,8660.409521
835.487932,1455.581446,-74.020594,9178.553681
835.488247,1455.581446,148.041188,9326.594869
835.488563,842.705048,-74.020594,8882.471304
835.488879,689.485948,148.041188,9326.594869
835.489195,1072.533697,-0.000000,9474.636058
835.489510,689.485948,-74.020594,8882.471304
835.489826,-229.828649,-0.000000,10807.006753
835.490142,76.609550,-74.020594,9844.739029
835.490458,919.314598,-0.000000,8956.491898
835.490773,842.705048,222.061783,9030.512492
835.491089,536.266849,-666.185348,10140.821405
835.491405,153.219100,222.061783,10288.862594
835.491721,153.219100,-0.000000,9178.553681
835.492036,229.828649,-518.144159,9474.636058
835.492352,229.828649,74.020594,9622.677246
835.492668,536.266849,-74.020594,9696.697840
835.492984,-306.438199,-0.000000,9400.615463
835.493299,766.095498,-1110.308913,10658.965565
835.493615,1302.362347,-888.247130,9696.697840
835.493931,689.485948,1406.391290,8956.491898
835.494246,0.000000,-148.041188,10214.842000
835.494562,612.876398,-814.226536,9696.697840
835.494878,842.705048,-814.226536,9548.656652
835.495194,383.047749,-0.000000,9474.636058
835.495509,-153.219100,-592.164754,10955.047942
835.495825,-689.485948,-962.267725,9178.553681
835.496141,1072.533697,-1184.329507,9918.759623
835.496457,306.438199,-444.123565,8586.388927
835.496772,153.219100,-888.247130,9696.697840
835.497088,-229.828649,-370.102971,10214.842000
835.497404,-153.219100,-1924.535449,10140.821405
835.497720,229.828649,-962.267725,9030.512492
835.498035,153.219100,-444.123565,9252.574275
835.498351,-995.924147,-222.061783,9844.739029
835.498667,-306.438199,-518.144159,10140.821405
835.498983,459.657299,-74.020594,9030.512492
835.499298,0.000000,-444.123565,8660.409521
835.499614,-459.657299,-296.082377,9992.780217
835.499930,0.000000,-666.185348,10584.944971
835.500246,383.047749,-222.061783,8438.347739
835.500561,766.095498,-148.041188,9622.677246
835.500877,306.438199,222.061783,8364.327145
835.501193,229.828649,370.102971,9474.636058
835.501509,536.266849,592.164754,8438.347739
835.501824,766.095498,-444.123565,8586.388927
835.502140,919.314598,-0.000000,8290.306550
835.502456,459.657299,592.164754,9104.533087
835.502772,-383.047749,222.061783,9696.697840
835.503087,766.095498,-296.082377,9178.553681
835.503403,612.876398,148.041188,8512.368333
835.503719,0.000000,-0.000000,9400.615463
835.504035,-536.266849,-0.000000,9918.759623
835.504350,0.000000,-222.061783,8956.491898
835.504666,689.485948,-296.082377,9844.739029
835.504982,689.485948,-148.041188,9104.533087
835.505298,76.609550,-444.123565,9770.718434
835.505613,536.266849,666.185348,10214.842000
835.505929,766.095498,-592.164754,9104.533087
835.506245,689.485948,-222.061783,9252.574275
835.506561,689.485948,666.185348,9622.677246
835.506876,306.438199,592.164754,9474.636058
835.507192,1149.143247,-0.000000,9104.533087
835.507508,1378.971896,-518.144159,9474.636058
835.507824,842.705048,-148.041188,9326.594869
835.508139,995.924147,-0.000000,10510.924376
835.508455,229.828649,-74.020594,9326.594869
835.508771,689.485948,-518.144159,9770.718434
835.509086,1149.143247,-444.123565,9770.718434
835.509402,536.266849,592.164754,9474.636058
835.509718,229.828649,444.123565,10510.924376
835.510034,919.314598,-814.226536,9474.636058
835.510349,1378.971896,-592.164754,9252.574275
835.510665,1225.752797,-0.000000,9178.553681
835.510981,1072.533697,-296.082377,9992.780217
835.511297,0.000000,-296.082377,9548.656652
835.511612,612.876398,-1184.329507,10584.944971
835.511928,995.924147,-740.205942,10140.821405
835.512244,383.047749,222.061783,9326.594869
835.512560,0.000000,222.061783,9770.718434
835.512875,76.609550,-1480.411884,10066.800811
835.513191,842.705048,-1036.288319,9770.718434
835.513507,1225.752797,-0.000000,8660.409521
835.513823,459.657299,740.205942,9252.574275
835.514138,76.609550,-962.267725,10362.883188
835.514454,766.095498,-1850.514855,10214.842000
835.514770,1149.143247,-74.020594,9548.656652
835.515086,459.657299,518.144159,8956.491898
835.515401,995.924147,222.061783,9770.718434
835.515717,1532.190996,-0.000000,8734.430116
835.516033,1378.971896,-148.041188,9252.574275
835.516349,1302.362347,-148.041188,8808.450710
835.516664,766.095498,222.061783,8734.430116
835.516980,153.219100,-222.061783,9104.533087
835.517296,689.485948,-1184.329507,9992.780217
835.517612,1378.971896,-962.267725,9474.636058
835.517927,76.609550,296.082377,9178.553681
835.518243,-689.485948,592.164754,9252.574275
835.518559,-229.828649,-0.000000,9104.533087
835.518875,536.266849,-962.267725,9474.636058
835.519190,229.828649,-888.247130,9178.553681
835.519506,-383.047749,-370.102971,10066.800811
835.519822,-306.438199,-518.144159,9622.677246
835.520138,229.828649,-1554.432478,8734.430116
835.520453,1072.533697,-370.102971,9326.594869
835.520769,689.485948,518.144159,9326.594869
835.521085,-459.657299,222.061783,8068.244768
835.521401,-612.876398,-222.061783,8512.368333
835.521716,689.485948,-1406.391290,9622.677246
835.522032,536.266849,-296.082377,8956.491898
835.522348,383.047749,370.102971,8734.430116
835.522664,-229.828649,-0.000000,9030.512492
835.522979,536.266849,-888.247130,9474.636058
835.523295,689.485948,-666.185348,8956.491898
835.523611,306.438199,888.247130,9918.759623
835.523927,0.000000,592.164754,8956.491898
835.524242,383.047749,-518.144159,9178.553681
835.524558,842.705048,-518.144159,9030.512492
835.524874,536.266849,518.144159,10214.842000
835.525189,0.000000,444.123565,9474.636058
835.525505,153.219100,888.247130,9104.533087
835.525821,612.876398,-0.000000,10140.821405
835.526137,383.047749,222.061783,8734.430116
835.526452,0.000000,-0.000000,9844.739029
835.526768,-766.095498,-518.144159,10510.924376
835.527084,-536.266849,-1258.350101,10658.965565
835.527400,1072.533697,-148.041188,9844.739029
835.527715,459.657299,222.061783,8956.491898
835.528031,-229.828649,296.082377,11177.109724
835.528347,306.438199,-666.185348,10955.047942
835.528663,919.314598,-370.102971,9178.553681
835.528978,1225.752797,592.164754,9326.594869
835.529294,842.705048,1110.308913,9622.677246
835.529610,1149.143247,222.061783,9104.533087
835.529926,1455.581446,-0.000000,9104.533087
835.530241,2068.457845,-592.164754,9178.553681
835.530557,1455.581446,148.041188,9104.533087
835.530873,383.047749,-222.061783,10066.800811
835.531189,0.000000,-888.247130,9696.697840
835.531504,612.876398,-888.247130,10288.862594
835.531820,689.485948,-148.041188,9474.636058
835.532136,0.000000,518.144159,9844.739029
835.532452,-612.876398,222.061783,10066.800811
835.532767,0.000000,-1036.288319,9918.759623
835.533083,536.266849,-888.247130,9918.759623
835.533399,0.000000,-0.000000,9104.533087
835.533715,-306.438199,-666.185348,10214.842000
835.534030,689.485948,-814.226536,9474.636058
835.534346,919.314598,-1628.453072,10066.800811
835.534662,766.095498,-592.164754,9252.574275
835.534978,0.000000,-0.000000,9400.615463
835.535293,229.828649,592.164754,9548.656652
835.535609,1532.190996,-0.000000,9178.553681
835.535925,1915.238745,-370.102971,8142.265362
835.536241,1608.800546,222.061783,8290.306550
835.536556,459.657299,-296.082377,9474.636058
835.536872,612.876398,-666.185348,9030.512492
835.537188,1378.971896,-1258.350101,9400.615463
835.537504,1532.190996,-222.061783,9474.636058
835.537819,383.047749,1258.350101,9178.553681
835.538135,76.609550,740.205942,8956.491898
835.538451,689.485948,-222.061783,9252.574275
835.538767,1225.752797,-888.247130,9178.553681
835.539082,459.657299,-592.164754,9104.533087
835.539398,229.828649,-666.185348,10584.944971
835.539714,0.000000,-1628.453072,9548.656652
835.540029,536.266849,-1628.453072,10288.862594
835.540345,842.705048,-74.020594,10066.800811
835.540661,0.000000,666.185348,9104.533087
835.540977,0.000000,1036.288319,8586.388927
835.541292,383.047749,-296.082377,9622.677246
835.541608,842.705048,-370.102971,9474.636058
835.541924,0.000000,-518.144159,9104.533087
835.542240,76.609550,-740.205942,9992.780217
835.542555,76.609550,-1332.370696,9400.615463
835.542871,536.266849,-1628.453072,10066.800811
835.543187,995.924147,-0.000000,8660.409521
835.543503,-153.219100,370.102971,9622.677246
835.543818,-229.828649,222.061783,10140.821405
835.544134,689.485948,-518.144159,8956.491898
835.544450,459.657299,-222.061783,8512.368333
835.544766,306.438199,-296.082377,9622.677246
835.545082,-153.219100,-888.247130,9992.780217
835.545398,229.828649,-444.123565,9474.636058
835.545714,229.828649,-444.123565,9696.697840
835.546030,-153.219100,-0.000000,8808.450710
835.546346,-536.266849,370.102971,9622.677246
835.546661,-919.314598,-222.061783,9992.780217
835.546977,0.000000,-518.144159,10140.821405
835.547293,383.047749,-518.144159,9770.718434
835.547609,306.438199,444.123565,9326.594869
835.547925,0.000000,814.226536,10288.862594
835.548241,76.609550,-148.041188,9030.512492
835.548557,1302.362347,-0.000000,10140.821405
835.548873,383.047749,888.247130,9326.594869
835.549189,229.828649,1258.350101,9918.759623
835.549505,459.657299,444.123565,9844.739029
835.549820,995.924147,-518.144159,9622.677246
835.550136,1149.143247,-518.144159,10288.862594
835.550452,1072.533697,222.061783,9400.615463
835.550768,229.828649,740.205942,10140.821405
835.551084,536.266849,-592.164754,9696.697840
835.551400,1149.143247,-0.000000,10066.800811
835.551716,842.705048,1110.308913,8660.409521
835.552032,0.000000,592.164754,10288.862594
835.552348,306.438199,-0.000000,9770.718434
835.552664,995.924147,-1036.288319,9474.636058
835.552980,1608.800546,-666.185348,9178.553681
835.553295,536.266849,-444.123565,9252.574275
835.553611,0.000000,-740.205942,9622.677246
835.553927,306.438199,-888.247130,9992.780217
835.554243,383.047749,-1184.329507,9770.718434
835.554559,842.705048,518.144159,8512.368333
835.554875,153.219100,814.226536,9326.594869
835.555191,-306.438199,592.164754,8734.430116
835.555507,842.705048,-1184.329507,10140.821405
835.555823,1378.971896,-962.267725,9474.636058
835.556139,-229.828649,-518.144159,8956.491898
835.556455,153.219100,-370.102971,9844.739029
835.556770,842.705048,-1110.308913,9474.636058
835.557086,1378.971896,-222.061783,8586.388927
835.557402,459.657299,444.123565,7846.182985
835.557718,383.047749,962.267725,9992.780217
835.558034,76.609550,444.123565,8438.347739
835.558350,842.705048,-296.082377,8882.471304
835.558666,1225.752797,-0.000000,9030.512492
835.558982,689.485948,666.185348,9030.512492
835.559298,153.219100,296.082377,8660.409521
835.559614,383.047749,-444.123565,9104.533087
835.559929,919.314598,-1406.391290,9918.759623
835.560245,0.000000,74.020594,9326.594869
835.560561,-612.876398,666.185348,9844.739029
835.560877,-689.485948,-592.164754,9400.615463
835.561193,612.876398,-0.000000,10658.965565
835.561509,536.266849,1036.288319,9252.574275
835.561825,919.314598,1110.308913,9252.574275
835.562141,76.609550,888.247130,10362.883188
835.562457,766.095498,-592.164754,8956.491898
835.562773,1378.971896,-0.000000,9326.594869
835.563089,1455.581446,-0.000000,9548.656652
835.563404,0.000000,592.164754,9252.574275
835.563720,383.047749,666.185348,9696.697840
835.564036,1225.752797,-592.164754,10584.944971
835.564352,1072.533697,370.102971,9326.594869
835.564668,306.438199,666.185348,9548.656652
835.564984,229.828649,-148.041188,9844.739029
835.565300,995.924147,-962.267725,10066.800811
835.565616,689.485948,-1850.514855,10807.006753
835.565932,229.828649,-148.041188,9474.636058
835.566248,-383.047749,370.102971,10510.924376
835.566563,0.000000,-296.082377,9992.780217
835.566879,153.219100,-0.000000,9770.718434
835.567195,153.219100,-666.185348,9622.677246
835.567511,-229.828649,-666.185348,10066.800811
835.567827,-689.485948,-814.226536,10066.800811
835.568143,153.219100,-2368.659014,10288.862594
835.568459,842.705048,-1554.432478,10140.821405
835.568775,0.000000,-444.123565,9104.533087
835.569091,-153.219100,-0.000000,10214.842000
835.569407,0.000000,-518.144159,9104.533087
835.569723,689.485948,-1036.288319,9178.553681
835.570038,76.609550,-444.123565,9104.533087
835.570354,76.609550,-1036.288319,9770.718434
835.570670,0.000000,-1702.473667,9770.718434
835.570986,612.876398,-1406.391290,9844.739029
835.571302,536.266849,-1554.432478,8956.491898
835.571618,995.924147,-296.082377,8438.347739
835.571934,0.000000,592.164754,9178.553681
835.572250,612.876398,-370.102971,8882.471304
835.572566,1378.971896,-1110.308913,8438.347739
835.572882,919.314598,-370.102971,8512.368333
835.573198,229.828649,-666.185348,9696.697840
835.573513,153.219100,-592.164754,9548.656652
835.573829,689.485948,-1110.308913,9104.533087
835.574145,842.705048,-518.144159,8364.327145
835.574461,689.485948,-0.000000,9030.512492
835.574777,383.047749,666.185348,9400.615463
835.575093,229.828649,-0.000000,8734.430116
835.575409,1532.190996,-1036.288319,9474.636058
835.575725,842.705048,-222.061783,7994.224174
835.576041,919.314598,666.185348,9844.739029
835.576357,0.000000,-148.041188,9252.574275
835.576672,459.657299,-740.205942,8956.491898
835.576988,536.266849,-888.247130,9474.636058
835.577304,766.095498,-370.102971,8882.471304
835.577620,76.609550,296.082377,9992.780217
835.577936,229.828649,-666.185348,9178.553681
835.578252,536.266849,-1184.329507,9696.697840
835.578568,766.095498,-962.267725,9770.718434
835.578884,536.266849,-0.000000,10066.800811
835.579200,229.828649,-0.000000,9400.615463
835.579516,612.876398,-1036.288319,9696.697840
835.579832,1225.752797,-962.267725,9770.718434
835.580147,842.705048,222.061783,9400.615463
835.580463,76.609550,1184.329507,9992.780217
835.580779,153.219100,296.082377,8956.491898
835.581095,612.876398,-814.226536,9104.533087
835.581411,995.924147,-0.000000,9474.636058
835.581727,536.266849,592.164754,9992.780217
835.582043,0.000000,-296.082377,9844.739029
835.582359,306.438199,-518.144159,10140.821405
835.582675,459.657299,-222.061783,9918.759623
835.582991,153.219100,444.123565,9844.739029
835.583307,-229.828649,1184.329507,10807.006753
835.583622,-383.047749,740.205942,9400.615463
835.583938,383.047749,296.082377,9474.636058
835.584254,0.000000,518.144159,9474.636058
835.584570,0.000000,370.102971,10807.006753
835.584886,383.047749,222.061783,9770.718434
835.585202,536.266849,370.102971,9622.677246
835.585518,536.266849,1554.432478,8882.471304
835.585834,842.705048,1850.514855,9474.636058
835.586150,153.219100,2072.576638,9696.697840
835.586466,153.219100,1036.288319,8956.491898
835.586781,919.314598,-148.041188,9622.677246
835.587097,766.095498,518.144159,8660.409521
835.587413,0.000000,888.247130,10584.944971
835.587729,0.000000,222.061783,10881.027347
835.588045,306.438199,-74.020594,9696.697840
835.588361,306.438199,1036.288319,9104.533087
835.588677,0.000000,1702.473667,8586.388927
835.588993,-153.219100,962.267725,9326.594869
835.589309,689.485948,-0.000000,9696.697840
835.589625,536.266849,-0.000000,8956.491898
835.589941,766.095498,-0.000000,8512.368333
835.590256,229.828649,-296.082377,9548.656652
835.590572,-153.219100,-592.164754,9252.574275
835.590888,306.438199,-1480.411884,10510.924376
835.591204,612.876398,-962.267725,8882.471304
835.591520,0.000000,-518.144159,9326.594869
835.591836,0.000000,-0.000000,9622.677246
835.592152,536.266849,-1184.329507,8734.430116
835.592468,689.485948,-1924.535449,10510.924376
835.592784,536.266849,-1036.288319,8956.491898
835.593100,153.219100,-296.082377,9844.739029
835.593416,383.047749,-222.061783,9770.718434
835.593731,1532.190996,-1110.308913,8882.471304
835.594047,1072.533697,-814.226536,8660.409521
835.594363,995.924147,-740.205942,9622.677246
835.594679,919.314598,-148.041188,8808.450710
835.594995,842.705048,-518.144159,9178.553681
835.595311,2068.457845,-1258.350101,9252.574275
835.595627,1225.752797,-1036.288319,9178.553681
835.595943,536.266849,-148.041188,9770.718434
835.596259,0.000000,-888.247130,9178.553681
835.596575,153.219100,-1258.350101,9918.759623
835.596890,229.828649,-1332.370696,9992.780217
835.597206,0.000000,-814.226536,10066.800811
835.597522,-229.828649,-0.000000,10066.800811
835.597838,0.000000,-1184.329507,9548.656652
835.598154,536.266849,-1406.391290,9104.533087
835.598470,229.828649,-370.102971,9400.615463
835.598786,153.219100,-666.185348,10140.821405
835.599102,-153.219100,-1036.288319,9400.615463
835.599418,536.266849,-1406.391290,9770.718434
835.599734,995.924147,-1110.308913,8512.368333
835.600050,689.485948,-370.102971,9326.594869
835.600365,0.000000,-296.082377,9622.677246
835.600681,842.705048,-1406.391290,9252.574275
835.600997,1072.533697,-1258.350101,9178.553681
835.601313,919.314598,-370.102971,8216.285956
835.601629,76.609550,-814.226536,10362.883188
835.601945,153.219100,-1332.370696,9622.677246
835.602261,612.876398,-1998.556043,9474.636058
835.602577,612.876398,-666.185348,9178.553681
835.602893,76.609550,-148.041188,9548.656652
835.603209,76.609550,-74.020594,9400.615463
835.603524,689.485948,-444.123565,8364.327145
835.603840,766.095498,-666.185348,8364.327145
835.604156,612.876398,-222.061783,9252.574275
835.604472,0.000000,-370.102971,10140.821405
835.604788,-536.266849,-518.144159,9918.759623
835.605104,-76.609550,-1036.288319,10436.903782
835.605420,-383.047749,-222.061783,9474.636058
835.605736,-766.095498,814.226536,9992.780217
835.606052,-1608.800546,370.102971,9992.780217
835.606368,-229.828649,-592.164754,10214.842000
835.606684,383.047749,-592.164754,10362.883188
835.606999,153.219100,-148.041188,9548.656652
835.607315,-153.219100,-0.000000,11103.089130
835.607631,153.219100,-148.041188,9474.636058
835.607947,919.314598,-148.041188,9622.677246
835.608263,1149.143247,1554.432478,9474.636058
835.608579,995.924147,2368.659014,8512.368333
835.608895,842.705048,2072.576638,8734.430116
835.609211,689.485948,-222.061783,8956.491898
835.609527,1378.971896,-148.041188,10362.883188
835.609843,995.924147,-222.061783,8808.450710
835.610159,-229.828649,444.123565,9992.780217
835.610474,-612.876398,-740.205942,10658.965565
835.610790,383.047749,-1332.370696,10732.986159
835.611106,153.219100,740.205942,8956.491898
835.611422,-689.485948,1036.288319,10214.842000
835.611738,0.000000,222.061783,10288.862594
835.612054,612.876398,-296.082377,9030.512492
835.612370,536.266849,-148.041188,8290.306550
835.612686,1378.971896,-518.144159,9918.759623
835.613002,612.876398,222.061783,9326.594869
835.613318,689.485948,370.102971,8512.368333
835.613633,1378.971896,-370.102971,9252.574275
835.613949,1302.362347,-0.000000,8882.471304
835.614265,1072.533697,1480.411884,9178.553681
835.614581,612.876398,1702.473667,8364.327145
835.614897,1455.581446,666.185348,8734.430116
835.615213,1762.019645,296.082377,8808.450710
835.615529,1532.190996,1036.288319,8882.471304
835.615845,229.828649,740.205942,9400.615463
835.616161,1072.533697,370.102971,9104.533087
835.616477,612.876398,296.082377,9696.697840
835.616793,383.047749,370.102971,10288.862594
835.617108,-153.219100,1332.370696,10288.862594
835.617424,-306.438199,1258.350101,9252.574275
835.617740,229.828649,370.102971,9326.594869
835.618056,1072.533697,444.123565,9326.594869
835.618372,612.876398,1184.329507,9400.615463
835.618688,0.000000,1406.391290,10066.800811
835.619004,76.609550,814.226536,9622.677246
835.619320,1149.143247,592.164754,9548.656652
835.619636,306.438199,814.226536,9178.553681
835.619952,536.266849,740.205942,11251.130318
835.620268,76.609550,740.205942,9992.780217
835.620583,842.705048,-740.205942,10214.842000
835.620899,919.314598,-148.041188,9770.718434
835.621215,1149.143247,666.185348,9844.739029
835.621531,842.705048,1332.370696,9400.615463
835.621847,459.657299,-222.061783,9178.553681
835.622163,1225.752797,-1036.288319,10214.842000
835.622479,1532.190996,-0.000000,9548.656652
835.622795,536.266849,148.041188,10066.800811
835.623111,0.000000,-740.205942,9548.656652
835.623427,536.266849,-2072.576638,10436.903782
835.623742,1149.143247,-1628.453072,9622.677246
835.624058,229.828649,-888.247130,10066.800811
835.624374,0.000000,-1258.350101,10362.883188
835.624690,0.000000,-1850.514855,10066.800811
835.625006,0.000000,-1776.494261,10214.842000
835.625322,0.000000,-888.247130,9326.594869
835.625638,76.609550,-814.226536,9992.780217
835.625954,-459.657299,-1628.453072,8808.450710
835.626270,76.609550,-3182.885551,10140.821405
835.626586,842.705048,-2516.700203,9326.594869
835.626902,0.000000,-1332.370696,8586.388927
835.627217,-306.438199,-1332.370696,9252.574275
835.627533,76.609550,-1554.432478,9622.677246
835.627849,1072.533697,-2220.617826,9400.615463
835.628165,689.485948,-1480.411884,8290.306550
835.628481,0.000000,-0.000000,8734.430116
835.628797,153.219100,-1628.453072,9104.533087
835.629113,1149.143247,-1998.556043,8290.306550
835.629429,1072.533697,-1258.350101,8290.306550
835.629745,229.828649,-740.205942,8586.388927
835.630061,229.828649,-370.102971,8216.285956
835.630377,-306.438199,-962.267725,8438.347739
835.630692,536.266849,-1258.350101,9474.636058
835.631008,766.095498,-740.205942,8216.285956
835.631324,-536.266849,444.123565,8734.430116
835.631640,0.000000,-222.061783,9474.636058
835.631956,229.828649,-1258.350101,8734.430116
835.632272,76.609550,-370.102971,8660.409521
835.632588,-306.438199,-814.226536,9548.656652
835.632904,-383.047749,-296.082377,9918.759623
835.633220,-459.657299,-740.205942,9474.636058
835.633536,76.609550,-518.144159,9474.636058
835.633851,-306.438199,-0.000000,9696.697840
835.634167,-612.876398,148.041188,10288.862594
835.634483,-229.828649,1036.288319,9474.636058
835.634799,1149.143247,296.082377,9622.677246
835.635115,1225.752797,592.164754,9030.512492
835.635431,1149.143247,1554.432478,9104.533087
835.635747,383.047749,888.247130,9030.512492
835.636063,1762.019645,-518.144159,10362.883188
835.636379,1608.800546,222.061783,9400.615463
835.636695,919.314598,1184.329507,8956.491898
835.637011,1302.362347,740.205942,10881.027347
835.637326,689.485948,962.267725,9252.574275
835.637642,1149.143247,296.082377,9474.636058
835.637958,1149.143247,296.082377,9548.656652
835.638274,306.438199,592.164754,10140.821405
835.638590,0.000000,740.205942,10288.862594
835.638906,-153.219100,-888.247130,10436.903782
835.639222,229.828649,-1110.308913,10881.027347
835.639538,-153.219100,444.123565,10658.965565
835.639854,-612.876398,962.267725,10288.862594
835.640170,-153.219100,222.061783,10436.903782
835.640486,766.095498,-592.164754,10881.027347
835.640801,995.924147,740.205942,9770.718434
835.641117,153.219100,888.247130,10658.965565
835.641433,229.828649,592.164754,9548.656652
835.641749,689.485948,592.164754,9918.759623
835.642065,1378.971896,1036.288319,9696.697840
835.642381,1149.143247,1406.391290,9622.677246
835.642697,612.876398,2072.576638,9844.739029
835.643013,459.657299,1184.329507,9326.594869
835.643329,995.924147,-148.041188,9992.780217
835.643645,1378.971896,592.164754,9178.553681
835.643960,612.876398,1480.411884,9622.677246
835.644276,0.000000,740.205942,9770.718434
835.644592,383.047749,-518.144159,10288.862594
835.644908,689.485948,592.164754,9474.636058
835.645224,459.657299,2072.576638,8660.409521
835.645540,-229.828649,962.267725,8808.450710
835.645856,76.609550,-592.164754,9104.533087
835.646171,766.095498,-888.247130,9622.677246
835.646487,919.314598,-592.164754,9030.512492
835.646803,-459.657299,-0.000000,8808.450710
835.647119,-919.314598,-740.205942,10140.821405
835.647435,383.047749,-1036.288319,9474.636058
835.647750,306.438199,-0.000000,8512.368333
835.648066,306.438199,1036.288319,9030.512492
835.648382,76.609550,962.267725,8808.450710
835.648698,612.876398,-814.226536,8586.388927
835.649014,1532.190996,-1776.494261,9548.656652
835.649329,1532.190996,-518.144159,8586.388927
835.649645,1072.533697,-444.123565,9030.512492
835.649961,229.828649,-74.020594,8808.450710
835.650277,766.095498,-1036.288319,9548.656652
835.650593,1072.533697,-1110.308913,8808.450710
835.650908,459.657299,296.082377,8586.388927
835.651224,-612.876398,-370.102971,9030.512492
835.651540,0.000000,-2146.597232,9844.739029
835.651856,459.657299,-2664.741391,10214.842000
835.652171,0.000000,-1110.308913,8956.491898
835.652487,-229.828649,-740.205942,9918.759623
835.652803,-612.876398,-1258.350101,9178.553681
835.653119,-383.047749,-1850.514855,9770.718434
835.653435,0.000000,-1702.473667,10214.842000
835.653750,-229.828649,-1332.370696,10658.965565
835.654066,-459.657299,-888.247130,9770.718434
835.654382,-229.828649,-740.205942,9104.533087
835.654698,1378.971896,-2368.659014,9548.656652
835.655014,766.095498,-592.164754,8512.368333
835.655329,612.876398,-592.164754,10066.800811
835.655645,459.657299,-1332.370696,8882.471304
835.655961,1149.143247,-1258.350101,9548.656652
835.656277,842.705048,-962.267725,9326.594869
835.656593,536.266849,-888.247130,9400.615463
835.656908,153.219100,-444.123565,10510.924376
835.657224,229.828649,-1258.350101,9104.533087
835.657540,842.705048,-1110.308913,9104.533087
835.657856,766.095498,-740.205942,9326.594869
835.658171,306.438199,-296.082377,9770.718434
835.658487,536.266849,-444.123565,9400.615463
835.658803,612.876398,-1332.370696,9992.780217
835.659119,919.314598,-148.041188,9548.656652
835.659435,612.876398,-0.000000,9252.574275
835.659750,-229.828649,148.041188,9696.697840
835.660066,229.828649,-814.226536,9918.759623
835.660382,1608.800546,-296.082377,9252.574275
835.660698,689.485948,666.185348,7994.224174
835.661014,76.609550,888.247130,9992.780217
835.661329,612.876398,-814.226536,9474.636058
835.661645,842.705048,-1110.308913,10510.924376
835.661961,842.705048,222.061783,10362.883188
835.662277,383.047749,962.267725,9030.512492
835.662592,689.485948,740.205942,9844.739029
835.662908,1378.971896,444.123565,9104.533087
835.663224,2068.457845,370.102971,8068.244768
835.663540,1762.019645,1406.391290,9030.512492
835.663856,612.876398,518.144159,9844.739029
835.664171,306.438199,222.061783,8734.430116
835.664487,995.924147,-370.102971,9918.759623
835.664803,612.876398,-370.102971,9474.636058
835.665119,0.000000,962.267725,10066.800811
835.665435,0.000000,814.226536,9474.636058
835.665750,0.000000,-444.123565,9696.697840
835.666066,229.828649,-370.102971,10066.800811
835.666382,0.000000,-0.000000,9696.697840
835.666698,-536.266849,1036.288319,9770.718434
835.667014,-842.705048,518.144159,10214.842000
835.667329,-229.828649,-148.041188,10066.800811
835.667645,459.657299,962.267725,9252.574275
835.667961,306.438199,740.205942,8512.368333
835.668277,-229.828649,666.185348,10362.883188
835.668592,536.266849,148.041188,9622.677246
835.668908,842.705048,444.123565,8586.388927
835.669224,1149.143247,1258.350101,8882.471304
835.669540,689.485948,814.226536,9918.759623
835.669856,153.219100,296.082377,9770.718434
835.670171,536.266849,-222.061783,10066.800811
835.670487,306.438199,296.082377,9326.594869
835.670803,0.000000,962.267725,9918.759623
835.671119,-459.657299,962.267725,9696.697840
835.671435,383.047749,518.144159,8956.491898
835.671750,1302.362347,148.041188,9104.533087
835.672066,306.438199,222.061783,8956.491898
835.672382,0.000000,148.041188,9770.718434
835.672698,459.657299,-148.041188,9474.636058
835.673014,1302.362347,-370.102971,9178.553681
835.673329,306.438199,740.205942,9178.553681
835.673645,1072.533697,592.164754,9622.677246
835.673961,306.438199,666.185348,9326.594869
835.674277,689.485948,-0.000000,9474.636058
835.674592,1302.362347,-370.102971,9326.594869
835.674908,1149.143247,-222.061783,9326.594869
835.675224,689.485948,-0.000000,9918.759623
835.675540,689.485948,-444.123565,8660.409521
835.675856,1685.410096,-962.267725,9696.697840
835.676171,1149.143247,-0.000000,9474.636058
835.676487,383.047749,666.185348,9622.677246
835.676803,76.609550,-0.000000,9474.636058
835.677119,76.609550,-1184.329507,9474.636058
835.677435,995.924147,-1258.350101,9770.718434
835.677750,383.047749,-962.267725,9770.718434
835.678066,383.047749,-740.205942,9474.636058
835.678382,459.657299,-1628.453072,9326.594869
835.678698,612.876398,-1628.453072,10510.924376
835.679014,1072.533697,-518.144159,9548.656652
835.679329,0.000000,296.082377,9474.636058
835.679645,0.000000,-0.000000,8734.430116
835.679961,536.266849,-1332.370696,9400.615463
835.680277,1072.533697,-1702.473667,9622.677246
835.680592,995.924147,-740.205942,9326.594869
835.680908,0.000000,-370.102971,8364.327145
835.681224,306.438199,-1554.432478,9622.677246
835.681540,919.314598,-1850.514855,10362.883188
835.681856,689.485948,-444.123565,8956.491898
835.682171,-306.438199,370.102971,9474.636058
835.682487,-306.438199,-370.102971,8882.471304
835.682803,383.047749,-1554.432478,10066.800811
835.683119,459.657299,-1110.308913,9104.533087
835.683435,0.000000,-814.226536,9030.512492
835.683750,-689.485948,-1110.308913,9770.718434
835.684066,-383.047749,-1998.556043,9918.759623
835.684382,0.000000,-1628.453072,9474.636058
835.684698,0.000000,-592.164754,9326.594869
835.685014,-306.438199,222.061783,9548.656652
835.685329,153.219100,-222.061783,8882.471304
835.685645,919.314598,-1184.329507,9252.574275
835.685961,1225.752797,-740.205942,8512.368333
835.686277,689.485948,-148.041188,7846.182985
835.686592,383.047749,-0.000000,9252.574275
835.686908,383.047749,-1184.329507,9400.615463
835.687224,842.705048,-1406.391290,9178.553681
835.687540,229.828649,-222.061783,8586.388927
835.687856,-689.485948,-518.144159,9696.697840
835.688171,-689.485948,-518.144159,8808.450710
835.688487,-229.828649,-1110.308913,10362.883188
835.688803,0.000000,-814.226536,9400.615463
835.689119,-306.438199,-0.000000,8956.491898
835.689435,-612.876398,296.082377,10214.842000
835.689750,-1072.533697,-962.267725,9696.697840
835.690066,0.000000,-592.164754,10140.821405
835.690382,0.000000,-0.000000,9770.718434
835.690698,-383.047749,962.267725,9770.718434
835.691014,229.828649,888.247130,9622.677246
835.691329,995.924147,592.164754,9326.594869
835.691645,1378.971896,666.185348,8808.450710
835.691961,1225.752797,888.247130,9326.594869
835.692277,1302.362347,1406.391290,10140.821405
835.692592,995.924147,1332.370696,9326.594869
835.692908,1302.362347,814.226536,9622.677246
835.693224,1762.019645,1258.350101,9622.677246
835.693540,689.485948,1406.391290,9992.780217
835.693856,612.876398,1110.308913,9474.636058
835.694171,1455.581446,-0.000000,10140.821405
835.694487,1532.190996,-0.000000,9696.697840
835.694803,766.095498,1628.453072,9104.533087
835.695119,766.095498,1480.411884,9696.697840
835.695435,919.314598,148.041188,10066.800811
835.695750,1455.581446,-148.041188,10362.883188
835.696066,689.485948,518.144159,9326.594869
835.696382,383.047749,1036.288319,9622.677246
835.696698,229.828649,370.102971,9548.656652
835.697013,1455.581446,-1258.350101,10881.027347
835.697329,1532.190996,-0.000000,9844.739029
835.697645,459.657299,1258.350101,8808.450710
835.697961,153.219100,888.247130,9474.636058
835.698277,1149.143247,-0.000000,10288.862594
835.698592,919.314598,-444.123565,9548.656652
835.698908,689.485948,740.205942,9400.615463
835.699224,383.047749,814.226536,9992.780217
835.699540,842.705048,148.041188,9326.594869
835.699856,766.095498,370.102971,9178.553681
835.700171,689.485948,-740.205942,8956.491898
835.700487,536.266849,444.123565,9548.656652
835.700803,383.047749,888.247130,9030.512492
835.701119,0.000000,-962.267725,8956.491898
835.701435,689.485948,-592.164754,10362.883188
835.701750,153.219100,-740.205942,9326.594869
835.702066,-459.657299,444.123565,9326.594869
835.702382,-612.876398,-666.185348,9474.636058
835.702698,153.219100,-1258.350101,9696.697840
835.703013,229.828649,444.123565,9030.512492
835.703329,-306.438199,-296.082377,9770.718434
835.703645,-229.828649,-370.102971,9696.697840
835.703961,0.000000,-1036.288319,9770.718434
835.704277,383.047749,-1110.308913,9474.636058
835.704592,0.000000,296.082377,8882.471304
835.704908,0.000000,296.082377,9400.615463
835.705224,459.657299,-148.041188,8586.388927
835.705540,995.924147,-740.205942,9178.553681
835.705856,612.876398,-444.123565,9030.512492
835.706171,536.266849,-74.020594,9104.533087
835.706487,0.000000,-370.102971,9030.512492
835.706803,383.047749,-1554.432478,10436.903782
835.707119,766.095498,-1332.370696,9844.739029
835.707435,0.000000,-0.000000,8290.306550
835.707750,-153.219100,370.102971,9326.594869
835.708066,0.000000,-814.226536,9548.656652
835.708382,0.000000,-1332.370696,10066.800811
835.708698,306.438199,-1110.308913,9400.615463
835.709013,0.000000,-666.185348,9030.512492
835.709329,-383.047749,-1110.308913,9992.780217
835.709645,536.266849,-2220.617826,9474.636058
835.709961,306.438199,-814.226536,8882.471304
835.710277,306.438199,-888.247130,9992.780217
835.710592,76.609550,-444.123565,8956.491898
835.710908,383.047749,-592.164754,9178.553681
835.711224,383.047749,-1628.453072,9918.759623
835.711540,842.705048,-1110.308913,8882.471304
835.711856,229.828649,-592.164754,9474.636058
835.712171,76.609550,-962.267725,10066.800811
835.712487,842.705048,-1702.473667,9622.677246
835.712803,612.876398,-1184.329507,9400.615463
835.713119,612.876398,-148.041188,9326.594869
835.713435,-229.828649,-592.164754,9918.759623
835.713750,76.609550,-592.164754,9992.780217
835.714066,1072.533697,-1036.288319,9770.718434
835.714382,689.485948,-0.000000,7920.203579
835.714698,1072.533697,222.061783,9474.636058
835.715013,536.266849,-444.123565,8734.430116
835.715329,612.876398,-962.267725,9326.594869
835.715645,842.705048,-1258.350101,9770.718434
835.715961,689.485948,666.185348,9326.594869
835.716277,76.609550,740.205942,9992.780217
835.716592,153.219100,-444.123565,8956.491898
835.716908,1149.143247,-592.164754,9548.656652
835.717224,689.485948,296.082377,9326.594869
835.717540,76.609550,740.205942,9622.677246
835.717856,0.000000,-0.000000,9400.615463
835.718171,995.924147,-888.247130,10584.944971
835.718487,1302.362347,296.082377,8882.471304
835.718803,0.000000,1110.308913,9178.553681
835.719119,153.219100,222.061783,9918.759623
835.719435,459.657299,-444.123565,10066.800811
835.719750,995.924147,296.082377,9548.656652
835.720066,1532.190996,518.144159,9104.533087
835.720382,842.705048,1258.350101,9622.677246
835.720698,76.609550,-74.020594,9844.739029
835.721013,919.314598,-1110.308913,9696.697840
835.721329,612.876398,1110.308913,9992.780217
835.721645,612.876398,1406.391290,8956.491898
835.721961,76.609550,1702.473667,8956.491898
835.722277,459.657299,814.226536,9918.759623
835.722592,689.485948,-148.041188,8512.368333
835.722908,1378.971896,444.123565,9178.553681
835.723224,383.047749,-0.000000,9992.780217
835.723540,-766.095498,-962.267725,9696.697840
835.723856,383.047749,-1036.288319,10510.924376
835.724171,0.000000,-74.020594,9474.636058
835.724487,0.000000,444.123565,9918.759623
835.724803,-306.438199,814.226536,9326.594869
835.725119,-459.657299,-0.000000,9178.553681
835.725435,76.609550,-1184.329507,9918.759623
835.725750,459.657299,-888.247130,9104.533087
835.726066,0.000000,-0.000000,9696.697840
835.726382,229.828649,-518.144159,9696.697840
835.726698,0.000000,-1184.329507,9030.512492
835.727013,766.095498,-148.041188,9844.739029
835.727329,995.924147,962.267725,9252.574275
835.727645,459.657299,962.267725,8660.409521
835.727961,459.657299,1110.308913,7994.224174
835.728277,1991.848295,-222.061783,8956.491898
835.728592,1378.971896,296.082377,8364.327145
835.728908,842.705048,592.164754,9104.533087
835.729224,842.705048,666.185348,9104.533087
835.729540,1302.362347,-444.123565,9252.574275
835.729856,229.828649,518.144159,8438.347739
835.730171,612.876398,740.205942,9696.697840
835.730487,-306.438199,-74.020594,9030.512492
835.730803,0.000000,-444.123565,9918.759623
835.731119,383.047749,-1480.411884,10807.006753
835.731435,459.657299,-814.226536,9918.759623
835.731750,0.000000,-0.000000,9474.636058
835.732066,76.609550,-74.020594,9252.574275
835.732382,1532.190996,-740.205942,10510.924376
835.732698,1149.143247,-222.061783,9178.553681
835.733013,919.314598,296.082377,8882.471304
835.733329,536.266849,-222.061783,9622.677246
835.733645,1072.533697,-1554.432478,9400.615463
835.733961,1991.848295,-444.123565,9548.656652
835.734277,1915.238745,-0.000000,8882.471304
835.734592,1072.533697,148.041188,9326.594869
835.734908,919.314598,-666.185348,9548.656652
835.735224,1149.143247,-1332.370696,9622.677246
835.735540,1072.533697,-518.144159,9400.615463
835.735856,459.657299,-222.061783,9696.697840
835.736171,-306.438199,370.102971,9696.697840
835.736487,0.000000,-1036.288319,10584.944971
835.736803,0.000000,-1628.453072,9474.636058
835.737119,0.000000,-0.000000,9696.697840
835.737434,-995.924147,-148.041188,9696.697840
835.737750,-1072.533697,-1184.329507,9918.759623
835.738066,-459.657299,-2220.617826,11325.150913
835.738382,-459.657299,-1036.288319,10436.903782
835.738698,-383.047749,592.164754,9696.697840
835.739013,-689.485948,370.102971,9770.718434
835.739329,-153.219100,-1036.288319,10510.924376
835.739645,0.000000,-444.123565,9252.574275
835.739961,76.609550,-74.020594,8660.409521
835.740277,-229.828649,-296.082377,9844.739029
835.740592,-306.438199,-370.102971,9252.574275
835.740908,689.485948,-814.226536,9178.553681
835.741224,995.924147,-148.041188,9104.533087
835.741540,-76.609550,518.144159,8882.471304
835.741856,0.000000,518.144159,8660.409521
835.742171,229.828649,-592.164754,8216.285956
835.742487,0.000000,-1554.432478,9178.553681
835.742803,229.828649,-1036.288319,9844.739029
835.743119,-153.219100,-740.205942,8808.450710
835.743434,-766.095498,-1332.370696,9104.533087
835.743750,0.000000,-1776.494261,10140.821405
835.744066,0.000000,-296.082377,8734.430116
835.744382,76.609550,444.123565,8808.450710
835.744698,-919.314598,370.102971,8882.471304
835.745013,689.485948,-222.061783,8734.430116
835.745329,995.924147,-74.020594,8068.244768
835.745645,612.876398,-296.082377,8290.306550
835.745961,306.438199,-0.000000,9030.512492
835.746277,995.924147,-962.267725,9252.574275
835.746592,612.876398,-1110.308913,9474.636058
835.746908,612.876398,740.205942,9030.512492
835.747224,1302.362347,1480.411884,9178.553681
835.747540,689.485948,1110.308913,7624.121203
835.747856,153.219100,-1110.308913,9770.718434
835.748171,1532.190996,-1036.288319,10510.924376
835.748487,766.095498,-0.000000,9326.594869
835.748803,0.000000,518.144159,10214.842000
835.749119,306.438199,-148.041188,9770.718434
835.749434,1455.581446,-148.041188,9770.718434
835.749750,1378.971896,1702.473667,8142.265362
835.750066,689.485948,1554.432478,9696.697840
835.750382,459.657299,592.164754,10140.821405
835.750698,1762.019645,-740.205942,9178.553681
835.751013,2145.067394,370.102971,9474.636058
835.751329,1455.581446,814.226536,9178.553681
835.751645,1532.190996,-0.000000,9696.697840
835.751961,689.485948,-666.185348,11251.130318
835.752277,995.924147,-444.123565,10807.006753
835.752592,1072.533697,814.226536,9400.615463
835.752908,383.047749,2294.638420,9622.677246
835.753224,76.609550,1110.308913,9696.697840
835.753540,1149.143247,-1184.329507,10362.883188
835.753856,1302.362347,-222.061783,10066.800811
835.754171,459.657299,370.102971,9474.636058
835.754487,76.609550,-222.061783,9992.780217
835.754803,612.876398,-962.267725,10510.924376
835.755119,536.266849,-592.164754,9104.533087
835.755435,689.485948,370.102971,9474.636058
835.755750,306.438199,666.185348,9696.697840
835.756066,0.000000,-0.000000,9178.553681
835.756382,612.876398,-1184.329507,9770.718434
835.756698,995.924147,-888.247130,8734.430116
835.757014,612.876398,518.144159,8808.450710
835.757329,-229.828649,296.082377,9622.677246
835.757645,153.219100,-1110.308913,9622.677246
835.757961,459.657299,-1554.432478,9548.656652
835.758277,306.438199,-74.020594,9030.512492
835.758593,0.000000,148.041188,9622.677246
835.758908,-306.438199,-222.061783,9474.636058
835.759224,76.609550,-740.205942,8660.409521
835.759540,612.876398,-370.102971,8512.368333
835.759856,612.876398,-296.082377,9252.574275
835.760172,-306.438199,-592.164754,9104.533087
835.760487,0.000000,-1184.329507,9696.697840
835.760803,-153.219100,-1924.535449,9474.636058
835.761119,-536.266849,-592.164754,9474.636058
835.761435,-536.266849,148.041188,9918.759623
835.761750,-153.219100,-296.082377,9104.533087
835.762066,0.000000,-814.226536,9548.656652
835.762382,153.219100,-1184.329507,9252.574275
835.762698,995.924147,-0.000000,9252.574275
835.763014,689.485948,296.082377,9326.594869
835.763329,689.485948,-962.267725,8068.244768
835.763645,1225.752797,-666.185348,9474.636058
835.763961,1532.190996,-0.000000,9326.594869
835.764277,1302.362347,740.205942,8734.430116
835.764593,459.657299,370.102971,8068.244768
835.764908,689.485948,-1258.350101,10288.862594
835.765224,1685.410096,-888.247130,9030.512492
835.765540,612.876398,296.082377,8364.327145
835.765856,0.000000,814.226536,9622.677246
835.766172,536.266849,-1332.370696,10436.903782
835.766487,842.705048,-518.144159,8734.430116
835.766803,536.266849,740.205942,9252.574275
835.767119,-153.219100,-222.061783,10584.944971
835.767435,-229.828649,-592.164754,9326.594869
835.767751,536.266849,-1258.350101,9252.574275
835.768066,306.438199,-666.185348,9918.759623
835.768382,383.047749,-148.041188,10214.842000
835.768698,0.000000,-296.082377,9474.636058
835.769014,76.609550,-1036.288319,9992.780217
835.769330,536.266849,-666.185348,9992.780217
835.769645,1072.533697,1110.308913,9400.615463
835.769961,153.219100,1850.514855,8512.368333
835.770277,459.657299,-148.041188,8734.430116
835.770593,1608.800546,-1110.308913,10658.965565
835.770909,842.705048,-814.226536,9622.677246
835.771224,842.705048,444.123565,9548.656652
835.771540,153.219100,-74.020594,10140.821405
835.771856,229.828649,-666.185348,10436.903782
835.772172,1149.143247,-296.082377,10140.821405
835.772488,1149.143247,814.226536,9918.759623
835.772803,0.000000,1628.453072,9548.656652
835.773119,-76.609550,-222.061783,9918.759623
835.773435,766.095498,-888.247130,10214.842000
835.773751,689.485948,222.061783,9400.615463
835.774067,153.219100,1036.288319,10288.862594
835.774382,76.609550,-148.041188,9252.574275
835.774698,76.609550,-1554.432478,10288.862594
835.775014,536.266849,-592.164754,10436.903782
835.775330,689.485948,740.205942,9992.780217
835.775645,459.657299,1480.411884,8734.430116
835.775961,383.047749,1258.350101,8882.471304
835.776277,1455.581446,-962.267725,10214.842000
835.776593,1685.410096,370.102971,8438.347739
835.776909,1302.362347,740.205942,9252.574275
835.777224,153.219100,-444.123565,9326.594869
835.777540,612.876398,-1110.308913,9992.780217
835.777856,1072.533697,-666.185348,9474.636058
835.778172,153.219100,1110.308913,9252.574275
835.778488,0.000000,1480.411884,9622.677246
835.778803,0.000000,-296.082377,8068.244768
835.779119,0.000000,-814.226536,9400.615463
835.779435,612.876398,-444.123565,9474.636058
835.779751,0.000000,148.041188,8882.471304
835.780067,-766.095498,-0.000000,9918.759623
835.780382,-842.705048,-1406.391290,9918.759623
835.780698,0.000000,-592.164754,9104.533087
835.781014,-612.876398,-222.061783,9548.656652
835.781330,-1225.752797,592.164754,9252.574275
835.781646,-383.047749,-1332.370696,10288.862594
835.781961,-76.609550,-1406.391290,8808.450710
835.782277,306.438199,-1036.288319,9770.718434
835.782593,0.000000,-444.123565,9992.780217
835.782909,76.609550,-444.123565,8512.368333
835.783225,153.219100,-1110.308913,9474.636058
835.783540,689.485948,-518.144159,9104.533087
835.783856,842.705048,370.102971,8882.471304
835.784172,0.000000,592.164754,8142.265362
835.784488,383.047749,-592.164754,9548.656652
835.784804,995.924147,-2294.638420,9992.780217
835.785119,1149.143247,-518.144159,8956.491898
835.785435,919.314598,222.061783,8808.450710
835.785751,229.828649,-518.144159,9252.574275
835.786067,1225.752797,-814.226536,9918.759623
835.786383,842.705048,-444.123565,9030.512492
835.786698,459.657299,814.226536,9400.615463
835.787014,459.657299,444.123565,9400.615463
835.787330,-153.219100,-370.102971,9178.553681
835.787646,1149.143247,-1184.329507,10140.821405
835.787962,1072.533697,-888.247130,9696.697840
835.788277,153.219100,-222.061783,9844.739029
835.788593,-153.219100,-370.102971,9326.594869
835.788909,229.828649,-1480.411884,10807.006753
835.789225,1072.533697,-370.102971,9474.636058
835.789540,306.438199,592.164754,9030.512492
835.789856,306.438199,666.185348,10066.800811
835.790172,383.047749,-592.164754,10066.800811
835.790488,1455.581446,-666.185348,9178.553681
835.790804,1225.752797,296.082377,8956.491898
835.791119,536.266849,296.082377,9474.636058
835.791435,0.000000,296.082377,9474.636058
835.791751,842.705048,-370.102971,9474.636058
835.792067,612.876398,-148.041188,8734.430116
835.792383,153.219100,74.020594,10066.800811
835.792698,0.000000,222.061783,9474.636058
835.793014,-306.438199,-1036.288319,9622.677246
835.793330,459.657299,-1998.556043,10436.903782
835.793646,383.047749,-1480.411884,9992.780217
835.793962,-306.438199,-814.226536,10066.800811
835.794277,-842.705048,-1776.494261,10807.006753
835.794593,229.828649,-2072.576638,10881.027347
835.794909,536.266849,-1480.411884,9696.697840
835.795225,536.266849,-296.082377,9326.594869
835.795541,536.266849,-0.000000,9992.780217
835.795856,1378.971896,-1110.308913,9326.594869
835.796172,2528.115143,-1258.350101,8290.306550
835.796488,2374.896044,-0.000000,7994.224174
835.796804,1915.238745,-444.123565,9622.677246
835.797120,1302.362347,-740.205942,7772.162391
835.797435,1225.752797,-1480.411884,8882.471304
835.797751,1685.410096,-1628.453072,10288.862594
835.798067,766.095498,-888.247130,8882.471304
835.798383,-1072.533697,-74.020594,8734.430116
835.798699,-1608.800546,-2072.576638,9252.574275
835.799014,-1762.019645,-3997.112087,10807.006753
835.799330,-689.485948,-2664.741391,10510.924376
835.799646,-1608.800546,-1776.494261,10140.821405
835.799962,-1991.848295,-1924.535449,9770.718434
835.800278,-1532.190996,-3182.885551,10584.944971
835.800593,-229.828649,-2590.720797,9104.533087
835.800909,-306.438199,-0.000000,8660.409521
835.801225,-459.657299,888.247130,9030.512492
835.801541,-536.266849,222.061783,7476.080014
835.801856,0.000000,-592.164754,7920.203579
835.802172,76.609550,-962.267725,7550.100608
835.802488,0.000000,-74.020594,8660.409521
835.802804,-1532.190996,-1036.288319,7846.182985
835.803120,-2145.067394,-2368.659014,10066.800811
835.803435,-1762.019645,-3034.844362,10288.862594
835.803751,-2068.457845,-1332.370696,9474.636058
835.804067,-3447.429741,-1628.453072,11251.130318
835.804383,-3830.477490,-2590.720797,10732.986159
835.804699,-3753.867940,-2368.659014,9770.718434
835.805014,-2834.553343,-2664.741391,9844.739029
835.805330,-2374.896044,-1776.494261,10732.986159
835.805646,-2528.115143,-2072.576638,10288.862594
835.805962,-2911.162892,-1628.453072,9400.615463
835.806278,-1762.019645,-1850.514855,9030.512492
835.806593,-536.266849,-1554.432478,9326.594869
835.806909,0.000000,-888.247130,8882.471304
835.807225,-842.705048,-1110.308913,8660.409521
835.807541,-306.438199,-1998.556043,8808.450710
835.807857,689.485948,-1850.514855,8142.265362
835.808172,306.438199,-1406.391290,8438.347739
835.808488,76.609550,-1406.391290,9696.697840
835.808804,-1149.143247,-2442.679609,9622.677246
835.809120,-1608.800546,-2590.720797,9474.636058
835.809436,-1455.581446,-2516.700203,10362.883188
835.809751,-2145.067394,-2368.659014,10288.862594
835.810067,-2451.505594,-1850.514855,9918.759623
835.810383,-2834.553343,-2146.597232,9844.739029
835.810699,-3294.210641,-2812.782580,9474.636058
835.811015,-2451.505594,-2516.700203,9844.739029
835.811330,-2145.067394,-1776.494261,9474.636058
835.811646,-3140.991542,-1924.535449,8882.471304
835.811962,-3064.381992,-2960.823768,9400.615463
835.812278,-2757.943793,-3849.070898,10140.821405
835.812594,-2757.943793,-2812.782580,10362.883188
835.812909,-2528.115143,-3108.864956,10362.883188
835.813225,-2145.067394,-2738.761985,9844.739029
835.813541,-1838.629195,-2442.679609,9030.512492
835.813857,-1149.143247,-2738.761985,9770.718434
835.814173,-689.485948,-1258.350101,9548.656652
835.814488,0.000000,-0.000000,8142.265362
835.814804,-459.657299,-592.164754,7846.182985
835.815120,153.219100,-1258.350101,8290.306550
835.815436,-536.266849,-1850.514855,8882.471304
835.815751,-689.485948,-1480.411884,9252.574275
835.816067,-1225.752797,-1776.494261,9178.553681
835.816383,-1225.752797,-2220.617826,9326.594869
835.816699,-919.314598,-2072.576638,9252.574275
835.817015,-1302.362347,-2220.617826,9326.594869
835.817330,-2068.457845,-2664.741391,9918.759623
835.817646,-1915.238745,-2368.659014,10510.924376
835.817962,-2911.162892,-2220.617826,8808.450710
835.818278,-2068.457845,-1332.370696,9622.677246
835.818594,-1532.190996,-2812.782580,10066.800811
835.818909,-2298.286494,-2812.782580,9548.656652
835.819225,-2834.553343,-2516.700203,9474.636058
835.819541,-1455.581446,-3923.091493,10881.027347
835.819857,-612.876398,-1628.453072,9326.594869
835.820173,-1149.143247,-1036.288319,8808.450710
835.820488,-689.485948,-1776.494261,9252.574275
835.820804,0.000000,-2220.617826,9104.533087
835.821120,-536.266849,-2368.659014,9474.636058
835.821436,-689.485948,-1850.514855,8586.388927
835.821752,-995.924147,-1628.453072,8438.347739
835.822067,-306.438199,-1184.329507,9474.636058
835.822383,-689.485948,-1628.453072,8512.368333
835.822699,-842.705048,-2664.741391,9178.553681
835.823015,-1838.629195,-3034.844362,10214.842000
835.823331,-2604.724693,-2812.782580,9252.574275
835.823646,-2145.067394,-2960.823768,10140.821405
835.823962,-2298.286494,-2220.617826,10214.842000
835.824278,-2528.115143,-1258.350101,9030.512492
835.824594,-2298.286494,-2368.659014,10362.883188
835.824910,-2221.676944,-3256.906145,10658.965565
835.825225,-3064.381992,-3034.844362,9400.615463
835.825541,-2298.286494,-2960.823768,9770.718434
835.825857,-2145.067394,-2812.782580,9474.636058
835.826173,-2757.943793,-1702.473667,9178.553681
835.826489,-2068.457845,-1332.370696,9548.656652
835.826804,-1685.410096,-1702.473667,8660.409521
835.827120,-2604.724693,-2220.617826,8364.327145
835.827436,-2834.553343,-3034.844362,10436.903782
835.827752,-1991.848295,-3701.029710,10288.862594
835.828068,-1608.800546,-3552.988522,10658.965565
835.828383,-1991.848295,-2738.761985,10584.944971
835.828699,-2145.067394,-2368.659014,9548.656652
835.829015,-1302.362347,-1628.453072,9474.636058
835.829331,-995.924147,-1924.535449,8956.491898
835.829646,-766.095498,-1998.556043,9400.615463
835.829962,-536.266849,-1850.514855,8660.409521
835.830278,-306.438199,-1850.514855,7994.224174
835.830594,-612.876398,-1776.494261,8216.285956
835.830910,-689.485948,-1924.535449,8512.368333
835.831225,-1532.190996,-2442.679609,8142.265362
835.831541,-1915.238745,-2368.659014,9030.512492
835.831857,-2221.676944,-3330.926739,9844.739029
835.832173,-2451.505594,-3701.029710,9548.656652
835.832489,-3140.991542,-3997.112087,10214.842000
835.832804,-3370.820191,-4293.194464,11547.212695
835.833120,-3064.381992,-4811.338623,11473.192101
835.833436,-3064.381992,-3701.029710,11177.109724
835.833752,-2911.162892,-1702.473667,10214.842000
835.834068,-1532.190996,-444.123565,9326.594869
835.834383,-766.095498,-1036.288319,8364.327145
835.834699,76.609550,-740.205942,7698.141797
835.835015,76.609550,-888.247130,7402.059420
835.835331,0.000000,-1554.432478,7624.121203
835.835647,306.438199,-1924.535449,8364.327145
835.835962,306.438199,-2146.597232,8956.491898
835.836278,0.000000,-1628.453072,9178.553681
835.836594,-1302.362347,-1036.288319,9548.656652
835.836910,-2298.286494,-1850.514855,9770.718434
835.837226,-1762.019645,-2368.659014,10140.821405
835.837541,-1991.848295,-2590.720797,9992.780217
835.837857,-2374.896044,-2516.700203,10658.965565
835.838173,-2298.286494,-2886.803174,10807.006753
835.838489,-1915.238745,-2960.823768,10807.006753
835.838805,-1915.238745,-2442.679609,10436.903782
835.839120,-1608.800546,-1776.494261,9844.739029
835.839436,-1302.362347,-888.247130,9252.574275
835.839752,-1532.190996,-222.061783,8364.327145
835.840068,-153.219100,-666.185348,7698.141797
835.840384,229.828649,-666.185348,7698.141797
835.840699,689.485948,-1184.329507,7698.141797
835.841015,153.219100,-2368.659014,8586.388927
835.841331,-919.314598,-3478.967927,9548.656652
835.841647,-1838.629195,-3997.112087,10140.821405
835.841963,-2221.676944,-3108.864956,11029.068536
835.842278,-2757.943793,-2442.679609,11547.212695
835.842594,-2834.553343,-1850.514855,11251.130318
835.842910,-2911.162892,-1702.473667,10955.047942
835.843226,-2451.505594,-1480.411884,9622.677246
835.843541,-1762.019645,-1036.288319,8882.471304
835.843857,-1149.143247,-1110.308913,8290.306550
835.844173,-766.095498,-1776.494261,8142.265362
835.844489,-306.438199,-1998.556043,8364.327145
835.844805,-842.705048,-2812.782580,8438.347739
835.845120,-1378.971896,-3108.864956,9326.594869
835.845436,-1915.238745,-3182.885551,9918.759623
835.845752,-2145.067394,-3330.926739,10288.862594
835.846068,-1838.629195,-3108.864956,10807.006753
835.846384,-2068.457845,-2516.700203,10732.986159
835.846699,-1915.238745,-2072.576638,10066.800811
835.847015,-2221.676944,-1776.494261,9844.739029
835.847331,-2145.067394,-1480.411884,9326.594869
835.847647,-1532.190996,-666.185348,9030.512492
835.847963,-1302.362347,-1332.370696,8586.388927
835.848279,-1532.190996,-1480.411884,8364.327145
835.848594,-1455.581446,-2590.720797,8512.368333
835.848910,-1072.533697,-3404.947333,8882.471304
835.849226,-1532.190996,-4367.215058,9030.512492
835.849542,-1838.629195,-3849.070898,9474.636058
835.849858,-2221.676944,-3923.091493,9918.759623
835.850174,-2528.115143,-3404.947333,10362.883188
835.850489,-2604.724693,-3108.864956,10732.986159
835.850805,-2911.162892,-2516.700203,10362.883188
835.851121,-2451.505594,-1998.556043,9992.780217
835.851437,-2145.067394,-1406.391290,9326.594869
835.851753,-1378.971896,-1184.329507,9104.533087
835.852069,-842.705048,-740.205942,8290.306550
835.852385,76.609550,-740.205942,7550.100608
835.852700,459.657299,-1036.288319,7254.018232
835.853016,153.219100,-1776.494261,7402.059420
835.853332,-459.657299,-1998.556043,7624.121203
835.853648,-536.266849,-2442.679609,8364.327145
835.853964,-1532.190996,-3256.906145,9326.594869
835.854280,-2681.334243,-3997.112087,10362.883188
835.854596,-3600.648841,-4589.276840,11325.150913
835.854911,-4060.306139,-4959.379811,11843.295072
835.855227,-3983.696590,-4441.235652,12435.459826
835.855543,-3983.696590,-3997.112087,11991.336260
835.855859,-3447.429741,-2886.803174,11621.233289
835.856175,-2145.067394,-1258.350101,10362.883188
835.856491,-842.705048,-222.061783,9104.533087
835.856806,612.876398,148.041188,7994.224174
835.857122,1991.848295,148.041188,7105.977043
835.857438,2834.553343,-222.061783,6365.771101
835.857754,3600.648841,-518.144159,5995.668130
835.858070,3370.820191,-1184.329507,6587.832884
835.858386,2298.286494,-1480.411884,7328.038826
835.858702,1378.971896,-2590.720797,9104.533087
835.859017,229.828649,-3256.906145,10140.821405
835.859333,-1685.410096,-3552.988522,11103.089130
835.859649,-2987.772442,-3108.864956,11991.336260
835.859965,-3907.087040,-3182.885551,11991.336260
835.860281,-4290.134789,-2590.720797,12065.356855
835.860597,-4519.963438,-2220.617826,11473.192101
835.860912,-4366.744339,-1924.535449,10807.006753
835.861228,-3600.648841,-2368.659014,10066.800811
835.861544,-3370.820191,-2590.720797,9548.656652
835.861860,-2681.334243,-2442.679609,9400.615463
835.862176,-1838.629195,-2220.617826,8734.430116
835.862492,-1532.190996,-1776.494261,7920.203579
835.862808,-1149.143247,-1258.350101,8142.265362
835.863123,-842.705048,-1628.453072,8512.368333
835.863439,-766.095498,-2146.597232,8956.491898
835.863755,-1378.971896,-2294.638420,9548.656652
835.864071,-1302.362347,-2294.638420,9992.780217
835.864387,-2145.067394,-1998.556043,9918.759623
835.864703,-2145.067394,-1406.391290,10584.944971
835.865018,-2221.676944,-1480.411884,10214.842000
835.865334,-2298.286494,-1332.370696,10214.842000
835.865650,-2068.457845,-1776.494261,9992.780217
835.865966,-2298.286494,-2072.576638,9696.697840
835.866282,-1838.629195,-2590.720797,9326.594869
835.866598,-1532.190996,-2960.823768,9400.615463
835.866914,-995.924147,-3182.885551,9178.553681
835.867229,-919.314598,-2738.761985,9030.512492
835.867545,-842.705048,-2664.741391,9178.553681
835.867861,-689.485948,-3256.906145,9474.636058
835.868177,-1072.533697,-2886.803174,9918.759623
835.868493,-842.705048,-2294.638420,9252.574275
835.868809,-766.095498,-1776.494261,9622.677246
835.869124,-306.438199,-1406.391290,9622.677246
835.869440,-383.047749,-814.226536,9178.553681
835.869756,229.828649,-740.205942,8808.450710
835.870072,612.876398,-814.226536,8956.491898
835.870388,536.266849,-962.267725,8660.409521
835.870704,766.095498,-1258.350101,8364.327145
835.871020,459.657299,-1480.411884,7846.182985
835.871335,0.000000,-1850.514855,8290.306550
835.871651,-383.047749,-2146.597232,8882.471304
835.871967,-766.095498,-2516.700203,9326.594869
835.872283,-1532.190996,-2738.761985,9992.780217
835.872599,-2757.943793,-2368.659014,10288.862594
835.872915,-3064.381992,-1924.535449,10362.883188
835.873231,-3370.820191,-1406.391290,10584.944971
835.873546,-3140.991542,-888.247130,10362.883188
835.873862,-2987.772442,-222.061783,9918.759623
835.874178,-2221.676944,-518.144159,9622.677246
835.874494,-1838.629195,-1036.288319,9474.636058
835.874810,-1072.533697,-1480.411884,8956.491898
835.875126,-306.438199,-1110.308913,8734.430116
835.875441,-689.485948,-1332.370696,8734.430116
835.875757,-766.095498,-1332.370696,8660.409521
835.876073,-689.485948,-1850.514855,9104.533087
835.876389,-1455.581446,-1702.473667,9400.615463
835.876705,-1838.629195,-2072.576638,9622.677246
835.877021,-2221.676944,-2220.617826,9770.718434
835.877337,-3064.381992,-2368.659014,10140.821405
835.877652,-3217.601092,-2516.700203,10584.944971
835.877968,-3907.087040,-2738.761985,10584.944971
835.878284,-4290.134789,-2516.700203,11029.068536
835.878600,-4060.306139,-2738.761985,10732.986159
835.878916,-4136.915689,-3330.926739,10807.006753
835.879232,-3677.258390,-4219.173869,10510.924376
835.879547,-3217.601092,-3997.112087,10362.883188
835.879863,-2834.553343,-3997.112087,9918.759623
835.880179,-2298.286494,-4145.153275,9400.615463
835.880495,-1762.019645,-3849.070898,8956.491898
835.880811,-1532.190996,-3701.029710,9030.512492
835.881127,-1225.752797,-3701.029710,9030.512492
835.881443,-1532.190996,-3923.091493,9104.533087
835.881758,-1915.238745,-3552.988522,9400.615463
835.882074,-2221.676944,-3627.009116,9622.677246
835.882390,-1838.629195,-3775.050304,10066.800811
835.882706,-2145.067394,-3627.009116,10140.821405
835.883022,-1991.848295,-3552.988522,9770.718434
835.883338,-1838.629195,-3627.009116,9622.677246
835.883653,-1378.971896,-3404.947333,9622.677246
835.883969,-612.876398,-2812.782580,9548.656652
835.884285,-766.095498,-2442.679609,8734.430116
835.884601,-383.047749,-2220.617826,7920.203579
835.884917,-229.828649,-2072.576638,7624.121203
835.885233,0.000000,-2368.659014,7846.182985
835.885549,-153.219100,-2220.617826,7550.100608
835.885864,-689.485948,-2368.659014,7624.121203
835.886180,-1532.190996,-2886.803174,8364.327145
835.886496,-2068.457845,-3330.926739,9104.533087
835.886812,-2911.162892,-3404.947333,9548.656652
835.887128,-3140.991542,-3330.926739,10140.821405
835.887444,-3677.258390,-3256.906145,10584.944971
835.887759,-3677.258390,-3701.029710,10658.965565
835.888075,-3370.820191,-3701.029710,10732.986159
835.888391,-2987.772442,-3775.050304,10732.986159
835.888707,-2068.457845,-2442.679609,9696.697840
835.889023,-1149.143247,-1776.494261,9178.553681
835.889339,0.000000,-740.205942,8216.285956
835.889655,536.266849,222.061783,7476.080014
835.889970,995.924147,740.205942,7105.977043
835.890286,1762.019645,1184.329507,6661.853478
835.890602,1762.019645,962.267725,6439.791695
835.890918,1225.752797,-0.000000,7105.977043
835.891234,459.657299,-962.267725,7920.203579
835.891550,-689.485948,-2220.617826,9252.574275
835.891865,-1685.410096,-3330.926739,10732.986159
835.892181,-2834.553343,-4145.153275,12139.377449
835.892497,-3600.648841,-4737.318029,13027.624579
835.892813,-4366.744339,-4145.153275,13915.871710
835.893129,-4136.915689,-4071.132681,12879.583391
835.893445,-3447.429741,-2294.638420,12065.356855
835.893761,-2451.505594,-888.247130,10881.027347
835.894076,-842.705048,444.123565,9252.574275
835.894392,153.219100,444.123565,7550.100608
835.894708,1149.143247,1554.432478,7031.956449
835.895024,1532.190996,1258.350101,5921.647536
835.895340,1532.190996,740.205942,6069.688724
835.895656,1225.752797,-444.123565,7254.018232
835.895972,612.876398,-1702.473667,8882.471304
835.896287,-919.314598,-2738.761985,10140.821405
835.896603,-2451.505594,-3997.112087,11695.253884
835.896919,-3677.258390,-3997.112087,12953.603985
835.897235,-4443.353888,-3775.050304,13249.686362
835.897551,-4519.963438,-2516.700203,12953.603985
835.897867,-4443.353888,-1480.411884,12065.356855
835.898182,-3907.087040,-740.205942,11103.089130
835.898498,-3830.477490,-222.061783,9622.677246
835.898814,-2451.505594,-518.144159,8512.368333
835.899130,-1762.019645,-1184.329507,8586.388927
835.899446,-766.095498,-1628.453072,8290.306550
835.899762,-1149.143247,-2294.638420,8216.285956
835.900078,-1225.752797,-2146.597232,7994.224174
835.900393,0.000000,-1702.473667,7920.203579
835.900709,-842.705048,-1628.453072,8956.491898
835.901025,-1608.800546,-1702.473667,9252.574275
835.901341,-2068.457845,-2294.638420,9548.656652
835.901657,-2528.115143,-2516.700203,9696.697840
835.901973,-2604.724693,-3108.864956,10362.883188
835.902288,-2681.334243,-3627.009116,11325.150913
835.902604,-3064.381992,-3330.926739,11103.089130
835.902920,-3753.867940,-2886.803174,9992.780217
835.903236,-2911.162892,-2738.761985,10362.883188
835.903552,-2298.286494,-3182.885551,9770.718434
835.903868,-1378.971896,-2516.700203,8660.409521
835.904184,-766.095498,-2294.638420,7550.100608
835.904499,-383.047749,-2812.782580,6957.935855
835.904815,459.657299,-3997.112087,7402.059420
835.905131,459.657299,-4145.153275,7550.100608
835.905447,-612.876398,-3775.050304,8660.409521
835.905763,-1225.752797,-4515.256246,9622.677246
835.906079,-1378.971896,-4515.256246,9696.697840
835.906394,-2451.505594,-3701.029710,9696.697840
835.906710,-2221.676944,-2220.617826,10288.862594
835.907026,-1149.143247,-1924.535449,9474.636058
835.907342,-383.047749,-2220.617826,8956.491898
835.907658,306.438199,-2368.659014,8882.471304
835.907974,383.047749,-2590.720797,8290.306550
835.908290,306.438199,-2516.700203,8068.244768
835.908605,306.438199,-2738.761985,8068.244768
835.908921,0.000000,-2960.823768,8142.265362
835.909237,-459.657299,-2812.782580,8216.285956
835.909553,-842.705048,-3701.029710,8882.471304
835.909869,-1608.800546,-3849.070898,10140.821405
835.910185,-2451.505594,-4071.132681,9844.739029
835.910500,-2757.943793,-3849.070898,9844.739029
835.910816,-2451.505594,-3182.885551,10584.944971
835.911132,-2681.334243,-1628.453072,10732.986159
835.911448,-2374.896044,-592.164754,9770.718434
835.911764,-2145.067394,-962.267725,9400.615463
835.912080,-1685.410096,-1258.350101,9252.574275
835.912396,-919.314598,-1110.308913,8882.471304
835.912711,-612.876398,-814.226536,7920.203579
835.913027,-689.485948,-1554.432478,7994.224174
835.913343,-689.485948,-1924.535449,8142.265362
835.913659,-383.047749,-2516.700203,9178.553681
835.913975,-766.095498,-2664.741391,9696.697840
835.914291,-2451.505594,-2442.679609,9992.780217
835.914607,-3907.087040,-3034.844362,10510.924376
835.914922,-3524.039291,-2738.761985,11325.150913
835.915238,-3983.696590,-2294.638420,11325.150913
835.915554,-4136.915689,-1480.411884,12287.418637
835.915870,-3447.429741,-962.267725,11843.295072
835.916186,-3064.381992,-666.185348,9918.759623
835.916502,-2987.772442,-148.041188,9104.533087
835.916817,-1455.581446,-0.000000,8734.430116
835.917133,-459.657299,444.123565,7846.182985
835.917449,0.000000,-222.061783,7920.203579
835.917765,383.047749,-1332.370696,8364.327145
835.918081,536.266849,-1998.556043,8068.244768
835.918397,-919.314598,-2220.617826,8882.471304
835.918713,-1378.971896,-3182.885551,9992.780217
835.919028,-1608.800546,-3478.967927,10288.862594
835.919344,-2374.896044,-3108.864956,11177.109724
835.919660,-3600.648841,-3034.844362,11325.150913
835.919976,-3600.648841,-2590.720797,11843.295072
835.920292,-4366.744339,-2072.576638,11399.171507
835.920608,-3907.087040,-1628.453072,10510.924376
835.920923,-2911.162892,-888.247130,10288.862594
835.921239,-1532.190996,-1258.350101,9770.718434
835.921555,-919.314598,-1998.556043,8882.471304
835.921871,-612.876398,-2220.617826,8068.244768
835.922187,229.828649,-1850.514855,7550.100608
835.922503,995.924147,-1036.288319,7179.997637
835.922819,995.924147,-1184.329507,7550.100608
835.923134,1072.533697,-2220.617826,8438.347739
835.923450,-153.219100,-1850.514855,8808.450710
835.923766,-1608.800546,-2368.659014,9178.553681
835.924082,-1991.848295,-2738.761985,9918.759623
835.924398,-2374.896044,-2146.597232,10066.800811
835.924714,-1838.629195,-3330.926739,11843.295072
835.925029,-2681.334243,-2590.720797,11547.212695
835.925345,-3370.820191,-2146.597232,10214.842000
835.925661,-2374.896044,-3849.070898,10584.944971
835.925977,-1302.362347,-2886.803174,10955.047942
835.926293,-995.924147,-1702.473667,8660.409521
835.926609,0.000000,-2368.659014,9178.553681
835.926925,0.000000,-1110.308913,7698.141797
835.927240,229.828649,-666.185348,6809.894666
835.927556,1149.143247,-666.185348,7031.956449
835.927872,1149.143247,-0.000000,5403.503377
835.928188,-306.438199,-1998.556043,7402.059420
835.928504,-536.266849,-2738.761985,9104.533087
835.928820,-2604.724693,-2960.823768,9770.718434
835.929135,-3524.039291,-2516.700203,10584.944971
835.929451,-2987.772442,-3034.844362,11547.212695
835.929767,-3830.477490,-3627.009116,10807.006753
835.930083,-4366.744339,-2812.782580,11695.253884
835.930399,-4290.134789,-2812.782580,11399.171507
835.930715,-3140.991542,-2664.741391,9474.636058
835.931031,-1532.190996,-1628.453072,9474.636058
835.931346,-1455.581446,-1850.514855,8660.409521
835.931662,-1685.410096,-962.267725,7476.080014
835.931978,-766.095498,-814.226536,8142.265362
835.932294,-689.485948,-962.267725,7698.141797
835.932610,76.609550,-296.082377,8586.388927
835.932926,0.000000,-148.041188,8882.471304
835.933241,-1225.752797,444.123565,8068.244768
835.933557,-919.314598,-1110.308913,9252.574275
835.933873,-229.828649,-1480.411884,10955.047942
835.934189,536.266849,-1554.432478,10140.821405
835.934505,-612.876398,-592.164754,9474.636058
835.934821,-459.657299,-888.247130,10658.965565
835.935137,0.000000,-1258.350101,9548.656652
835.935452,383.047749,-592.164754,9844.739029
835.935768,536.266849,-888.247130,9770.718434
835.936084,0.000000,-444.123565,9696.697840
835.936400,-689.485948,-1406.391290,9178.553681
835.936716,-229.828649,-2072.576638,9770.718434
835.937032,0.000000,-740.205942,9844.739029
835.937348,0.000000,-1702.473667,10362.883188
835.937663,-536.266849,-444.123565,9474.636058
835.937979,-919.314598,-1036.288319,9918.759623
835.938295,-459.657299,-1702.473667,10066.800811
835.938611,689.485948,-740.205942,9992.780217
835.938927,459.657299,296.082377,9992.780217
835.939243,306.438199,-296.082377,10214.842000
835.939558,1302.362347,-0.000000,9178.553681
835.939874,2374.896044,296.082377,8882.471304
835.940190,2374.896044,296.082377,9178.553681
835.940506,1762.019645,518.144159,8512.368333
835.940822,1915.238745,-0.000000,8956.491898
835.941138,1378.971896,-1184.329507,9992.780217
835.941454,995.924147,-1628.453072,11473.192101
835.941769,612.876398,-444.123565,10362.883188
835.942085,-536.266849,-0.000000,9326.594869
835.942401,-1072.533697,-0.000000,10436.903782
835.942717,229.828649,-370.102971,10436.903782
835.943033,383.047749,518.144159,10066.800811
835.943349,0.000000,1184.329507,9326.594869
835.943664,76.609550,-0.000000,9178.553681
835.943980,1532.190996,-740.205942,9474.636058
835.944296,2068.457845,-666.185348,9030.512492
835.944612,1838.629195,-0.000000,8956.491898
835.944928,1762.019645,1258.350101,8512.368333
835.945244,1608.800546,296.082377,8068.244768
835.945560,1991.848295,222.061783,7994.224174
835.945875,1762.019645,-370.102971,9104.533087
835.946191,766.095498,-222.061783,8586.388927
835.946507,229.828649,-74.020594,9992.780217
835.946823,0.000000,-1480.411884,9548.656652
835.947139,0.000000,-592.164754,9622.677246
835.947455,-153.219100,-0.000000,10658.965565
835.947770,-1838.629195,148.041188,9326.594869
835.948086,-1378.971896,-0.000000,9548.656652
835.948402,-153.219100,-1332.370696,9104.533087
835.948718,459.657299,-1554.432478,9548.656652
835.949034,153.219100,296.082377,9030.512492
835.949349,0.000000,-0.000000,8882.471304
835.949665,1302.362347,-962.267725,7846.182985
835.949981,1838.629195,-1110.308913,8512.368333
835.950297,1608.800546,-0.000000,9178.553681
835.950612,919.314598,518.144159,8068.244768
835.950928,306.438199,-740.205942,9252.574275
835.951244,536.266849,-2146.597232,9992.780217
835.951559,229.828649,-1332.370696,10140.821405
835.951875,-383.047749,-592.164754,9104.533087
835.952191,-1302.362347,-0.000000,10214.842000
835.952507,-1532.190996,-1480.411884,10066.800811
835.952822,-919.314598,-1998.556043,10214.842000
835.953138,-1225.752797,-740.205942,9918.759623
835.953454,-1072.533697,-0.000000,9474.636058
835.953770,-842.705048,-222.061783,9548.656652
835.954085,0.000000,-1998.556043,9104.533087
835.954401,1149.143247,-1110.308913,9326.594869
835.954717,1072.533697,444.123565,9030.512492
835.955032,766.095498,666.185348,9474.636058
835.955348,919.314598,-888.247130,9326.594869
835.955664,1225.752797,-1406.391290,10584.944971
835.955980,1532.190996,-148.041188,10881.027347
835.956295,1149.143247,1036.288319,9104.533087
835.956611,306.438199,814.226536,10584.944971
835.956927,1072.533697,-222.061783,10658.965565
835.957243,2145.067394,-444.123565,10288.862594
835.957558,536.266849,1554.432478,9474.636058
835.957874,0.000000,962.267725,10584.944971
835.958190,689.485948,-0.000000,9178.553681
835.958505,1225.752797,-0.000000,9622.677246
835.958821,919.314598,296.082377,9326.594869
835.959137,306.438199,1554.432478,9992.780217
835.959453,229.828649,-370.102971,9918.759623
835.959768,229.828649,-444.123565,9474.636058
835.960084,766.095498,-0.000000,9622.677246
835.960400,536.266849,-0.000000,8956.491898
835.960716,0.000000,-0.000000,9918.759623
835.961031,0.000000,-888.247130,10362.883188
835.961347,612.876398,-1406.391290,10362.883188
835.961663,383.047749,-74.020594,9474.636058
835.961978,-229.828649,148.041188,9992.780217
835.962294,153.219100,-0.000000,10214.842000
835.962610,842.705048,518.144159,8364.327145
835.962926,1608.800546,814.226536,8734.430116
835.963241,1149.143247,888.247130,8660.409521
835.963557,689.485948,-222.061783,9104.533087
835.963873,612.876398,-0.000000,8290.306550
835.964189,1532.190996,-370.102971,9030.512492
835.964504,612.876398,296.082377,8290.306550
835.964820,0.000000,148.041188,9844.739029
835.965136,-383.047749,370.102971,8808.450710
835.965451,76.609550,-444.123565,9030.512492
835.965767,0.000000,-962.267725,10214.842000
835.966083,0.000000,-888.247130,9178.553681
835.966399,-306.438199,-518.144159,10288.862594
835.966714,-536.266849,-1332.370696,11177.109724
835.967030,842.705048,-1184.329507,9770.718434
835.967346,1072.533697,296.082377,9178.553681
835.967662,536.266849,888.247130,8142.265362
835.967977,1072.533697,-0.000000,9030.512492
835.968293,2145.067394,740.205942,8290.306550
835.968609,2068.457845,296.082377,8216.285956
835.968924,1762.019645,740.205942,8512.368333
835.969240,842.705048,296.082377,9326.594869
835.969556,995.924147,-592.164754,8364.327145
835.969872,536.266849,-1036.288319,10288.862594
835.970187,0.000000,-518.144159,10140.821405
835.970503,-306.438199,-0.000000,10362.883188
835.970819,-766.095498,370.102971,10066.800811
835.971135,-383.047749,-666.185348,10362.883188
835.971450,76.609550,-888.247130,10066.800811
835.971766,0.000000,-0.000000,9474.636058
835.972082,-229.828649,-0.000000,10214.842000
835.972397,459.657299,-370.102971,10066.800811
835.972713,842.705048,-814.226536,9622.677246
835.973029,459.657299,74.020594,9030.512492
835.973345,306.438199,1036.288319,9474.636058
835.973660,766.095498,444.123565,9992.780217
835.973976,842.705048,-0.000000,8956.491898
835.974292,1225.752797,518.144159,9178.553681
835.974608,76.609550,740.205942,9178.553681
835.974923,-229.828649,888.247130,9696.697840
835.975239,0.000000,-888.247130,9770.718434
835.975555,153.219100,-1258.350101,10658.965565
835.975870,-612.876398,370.102971,10510.924376
835.976186,-536.266849,814.226536,9400.615463
835.976502,-306.438199,-0.000000,9178.553681
835.976818,153.219100,-1554.432478,10732.986159
835.977133,76.609550,-1258.350101,9992.780217
835.977449,536.266849,-148.041188,9326.594869
835.977765,0.000000,-0.000000,9252.574275
835.978080,536.266849,-1258.350101,9474.636058
835.978396,1072.533697,-1406.391290,9548.656652
835.978712,689.485948,518.144159,9030.512492
835.979028,153.219100,-0.000000,8808.450710
835.979343,0.000000,-1480.411884,9770.718434
835.979659,612.876398,-1628.453072,9696.697840
835.979975,1149.143247,-444.123565,9252.574275
835.980291,842.705048,-0.000000,8956.491898
835.980606,459.657299,-518.144159,9622.677246
835.980922,536.266849,-444.123565,8512.368333
835.981238,995.924147,-666.185348,9326.594869
835.981553,536.266849,370.102971,9104.533087
835.981869,612.876398,296.082377,8660.409521
835.982185,153.219100,-814.226536,9622.677246
835.982501,383.047749,-1036.288319,9252.574275
835.982816,842.705048,-592.164754,9030.512492
835.983132,612.876398,-74.020594,9104.533087
835.983448,0.000000,-666.185348,9474.636058
835.983764,229.828649,-1258.350101,9474.636058
835.984079,612.876398,-1258.350101,9844.739029
835.984395,0.000000,-0.000000,9400.615463
835.984711,-76.609550,-222.061783,10658.965565
835.985026,0.000000,-0.000000,9400.615463
835.985342,612.876398,-0.000000,9178.553681
835.985658,919.314598,444.123565,8882.471304
835.985974,459.657299,1332.370696,8142.265362
835.986289,766.095498,518.144159,8882.471304
835.986605,1225.752797,-518.144159,8586.388927
835.986921,1225.752797,-666.185348,9844.739029
835.987237,306.438199,-74.020594,9030.512492
835.987552,0.000000,296.082377,9326.594869
835.987868,0.000000,-518.144159,9622.677246
835.988184,0.000000,-666.185348,9474.636058
835.988499,153.219100,-74.020594,9622.677246
835.988815,-995.924147,148.041188,9622.677246
835.989131,-1225.752797,-592.164754,10214.842000
835.989447,-766.095498,-1702.473667,10510.924376
835.989762,-229.828649,-1332.370696,10955.047942
835.990078,-459.657299,296.082377,9844.739029
835.990394,-383.047749,1184.329507,10510.924376
835.990710,153.219100,1110.308913,8660.409521
835.991025,842.705048,666.185348,8512.368333
835.991341,1072.533697,296.082377,9474.636058
835.991657,842.705048,-0.000000,9548.656652
835.991972,612.876398,222.061783,9178.553681
835.992288,612.876398,-888.247130,9844.739029
835.992604,1455.581446,-740.205942,9844.739029
835.992920,612.876398,962.267725,8290.306550
835.993235,383.047749,1184.329507,10436.903782
835.993551,0.000000,-148.041188,9474.636058
835.993867,536.266849,-740.205942,10362.883188
835.994183,153.219100,444.123565,9918.759623
835.994498,-612.876398,-0.000000,9474.636058
835.994814,0.000000,-1184.329507,10955.047942
835.995130,383.047749,-1406.391290,10214.842000
835.995445,766.095498,-222.061783,9770.718434
835.995761,229.828649,296.082377,9770.718434
835.996077,229.828649,-0.000000,9770.718434
835.996393,689.485948,-148.041188,9252.574275
835.996708,1302.362347,148.041188,8586.388927
835.997024,1762.019645,740.205942,8808.450710
835.997340,919.314598,-370.102971,9400.615463
835.997656,995.924147,-444.123565,9844.739029
835.997971,995.924147,-1036.288319,9474.636058
835.998287,995.924147,-1110.308913,9918.759623
835.998603,842.705048,148.041188,9178.553681
835.998918,0.000000,222.061783,9918.759623
835.999234,612.876398,370.102971,9474.636058
835.999550,1608.800546,-518.144159,8660.409521
835.999866,689.485948,-518.144159,8882.471304
836.000181,306.438199,-1110.308913,9770.718434
836.000497,153.219100,-1332.370696,9770.718434
836.000813,229.828649,-1110.308913,8808.450710
836.001129,306.438199,-592.164754,9474.636058
836.001444,153.219100,444.123565,9030.512492
836.001760,-306.438199,592.164754,9104.533087
836.002076,-229.828649,-222.061783,8660.409521
836.002391,383.047749,-962.267725,9178.553681
836.002707,153.219100,-1258.350101,9400.615463
836.003023,-383.047749,-666.185348,9104.533087
836.003339,-459.657299,-740.205942,9844.739029
836.003654,0.000000,-1998.556043,9474.636058
836.003970,459.657299,-444.123565,10214.842000
836.004286,-383.047749,740.205942,8808.450710
836.004602,0.000000,370.102971,9326.594869
836.004917,0.000000,-296.082377,9548.656652
836.005233,1072.533697,-592.164754,9474.636058
836.005549,1149.143247,-0.000000,8956.491898
836.005864,842.705048,518.144159,9104.533087
836.006180,842.705048,-0.000000,8808.450710
836.006496,1149.143247,-1036.288319,8660.409521
836.006812,1072.533697,-148.041188,9474.636058
836.007127,306.438199,-0.000000,10140.821405
836.007443,1072.533697,-0.000000,9548.656652
836.007759,76.609550,-74.020594,8808.450710
836.008075,612.876398,-518.144159,9918.759623
836.008390,459.657299,-148.041188,9474.636058
836.008706,459.657299,-148.041188,9104.533087
836.009022,0.000000,-1258.350101,10362.883188
836.009337,0.000000,-1332.370696,10214.842000
836.009653,306.438199,-592.164754,9622.677246
836.009969,0.000000,222.061783,9104.533087
836.010285,0.000000,148.041188,10510.924376
836.010600,0.000000,-814.226536,9918.759623
836.010916,1225.752797,-74.020594,9030.512492
836.011232,306.438199,-0.000000,9178.553681
836.011548,76.609550,-0.000000,9992.780217
836.011863,919.314598,-592.164754,9844.739029
836.012179,919.314598,-888.247130,9474.636058
836.012495,842.705048,740.205942,9622.677246
836.012810,0.000000,740.205942,9474.636058
836.013126,76.609550,444.123565,9696.697840
836.013442,612.876398,-74.020594,9844.739029
836.013758,1455.581446,-1110.308913,9918.759623
836.014073,306.438199,1184.329507,8956.491898
836.014389,229.828649,-0.000000,9326.594869
836.014705,842.705048,-1110.308913,9918.759623
836.015021,1532.190996,444.123565,10066.800811
836.015336,1225.752797,1110.308913,8512.368333
836.015652,612.876398,1184.329507,8956.491898
836.015968,153.219100,296.082377,9918.759623
836.016283,76.609550,-814.226536,8882.471304
836.016599,919.314598,-148.041188,9178.553681
836.016915,536.266849,148.041188,9326.594869
836.017231,-153.219100,-0.000000,9622.677246
836.017546,0.000000,-962.267725,9548.656652
836.017862,766.095498,-962.267725,9474.636058
836.018178,536.266849,-0.000000,9622.677246
836.018494,-383.047749,296.082377,9622.677246
836.018809,76.609550,222.061783,9178.553681
836.019125,995.924147,-0.000000,9178.553681
836.019441,1378.971896,-222.061783,9030.512492
836.019756,1149.143247,444.123565,8586.388927
836.020072,766.095498,444.123565,8882.471304
836.020388,1149.143247,-370.102971,8734.430116
836.020704,1302.362347,-666.185348,8808.450710
836.021019,1455.581446,-222.061783,9622.677246
836.021335,383.047749,444.123565,9104.533087
836.021651,0.000000,592.164754,9548.656652
836.021967,536.266849,-740.205942,9474.636058
836.022282,842.705048,-1036.288319,10510.924376
836.022598,0.000000,-0.000000,9992.780217
836.022914,-459.657299,148.041188,9992.780217
836.023229,-229.828649,-222.061783,9918.759623
836.023545,229.828649,-1628.453072,10807.006753
836.023861,-153.219100,-0.000000,9400.615463
836.024177,-229.828649,1110.308913,9252.574275
836.024492,0.000000,-222.061783,10436.903782
836.024808,459.657299,-592.164754,9622.677246
836.025124,919.314598,-222.061783,9400.615463
836.025440,229.828649,296.082377,9400.615463
836.025755,153.219100,222.061783,9696.697840
836.026071,766.095498,-444.123565,9252.574275
836.026387,689.485948,-1110.308913,10510.924376
836.026702,459.657299,-0.000000,10140.821405
836.027018,76.609550,962.267725,9400.615463
836.027334,0.000000,296.082377,10214.842000
836.027650,76.609550,-370.102971,9326.594869
836.027965,612.876398,-370.102971,9992.780217
836.028281,76.609550,296.082377,8956.491898
836.028597,0.000000,-370.102971,10066.800811
836.028913,-229.828649,-1184.329507,9622.677246
836.029228,459.657299,-666.185348,9178.553681
836.029544,612.876398,-0.000000,9178.553681
836.029860,-153.219100,370.102971,9400.615463
836.030175,0.000000,444.123565,9178.553681
836.030491,-306.438199,-888.247130,9252.574275
836.030807,842.705048,-444.123565,9622.677246
836.031123,0.000000,-74.020594,8512.368333
836.031438,-306.438199,-296.082377,9992.780217
836.031754,-383.047749,-1480.411884,9696.697840
836.032070,76.609550,-1702.473667,9992.780217
836.032386,306.438199,370.102971,9918.759623
836.032701,-76.609550,666.185348,8660.409521
836.033017,459.657299,74.020594,9474.636058
836.033333,1225.752797,-296.082377,8290.306550
836.033648,1455.581446,-0.000000,9104.533087
836.033964,1378.971896,-0.000000,9030.512492
836.034280,842.705048,-666.185348,9030.512492
836.034596,995.924147,-296.082377,9104.533087
836.034911,1685.410096,-1258.350101,9622.677246
836.035227,919.314598,-148.041188,8438.347739
836.035543,229.828649,-74.020594,9918.759623
836.035859,0.000000,-444.123565,9992.780217
836.036174,1378.971896,-444.123565,8660.409521
836.036490,383.047749,-74.020594,9696.697840
836.036806,0.000000,-444.123565,9992.780217
836.037121,536.266849,-148.041188,9844.739029
836.037437,612.876398,-518.144159,8216.285956
836.037753,1225.752797,-296.082377,9548.656652
836.038069,1149.143247,-0.000000,9548.656652
836.038384,459.657299,-444.123565,9104.533087
836.038700,612.876398,-0.000000,10288.862594
836.039016,1302.362347,-1036.288319,9770.718434
836.039332,2145.067394,296.082377,9178.553681
836.039647,1302.362347,740.205942,8808.450710
836.039963,459.657299,-148.041188,10066.800811
836.040279,1225.752797,-444.123565,10658.965565
836.040594,1608.800546,370.102971,9030.512492
836.040910,842.705048,1776.494261,8734.430116
836.041226,306.438199,592.164754,10140.821405
836.041542,459.657299,-74.020594,10066.800811
836.041857,1608.800546,-148.041188,9622.677246
836.042173,995.924147,-370.102971,8956.491898
836.042489,536.266849,1036.288319,8734.430116
836.042805,-153.219100,-0.000000,10362.883188
836.043120,229.828649,-1110.308913,9474.636058
836.043436,0.000000,-592.164754,9178.553681
836.043752,306.438199,-0.000000,10362.883188
836.044067,-612.876398,518.144159,9770.718434
836.044383,-689.485948,-0.000000,9326.594869
836.044699,0.000000,-888.247130,9326.594869
836.045015,76.609550,-296.082377,9918.759623
836.045330,-689.485948,370.102971,9326.594869
836.045646,-383.047749,370.102971,9622.677246
836.045962,-459.657299,-1258.350101,10140.821405
836.046278,76.609550,-1776.494261,11103.089130
836.046593,153.219100,888.247130,8808.450710
836.046909,-229.828649,1332.370696,8586.388927
836.047225,0.000000,518.144159,9252.574275
836.047540,995.924147,-740.205942,9474.636058
836.047856,919.314598,-0.000000,8882.471304
836.048172,153.219100,444.123565,9178.553681
836.048488,0.000000,-370.102971,9770.718434
836.048803,612.876398,-296.082377,9104.533087
836.049119,766.095498,-592.164754,9992.780217
836.049435,153.219100,-0.000000,9548.656652
836.049751,-229.828649,814.226536,8956.491898
836.050066,-229.828649,-296.082377,9474.636058
836.050382,76.609550,-1110.308913,10510.924376
836.050698,612.876398,-1184.329507,9622.677246
836.051014,229.828649,-222.061783,8882.471304
836.051329,306.438199,-1258.350101,10807.006753
836.051645,229.828649,-1628.453072,9474.636058
836.051961,1302.362347,-888.247130,9104.533087
836.052277,1072.533697,-296.082377,8290.306550
836.052593,0.000000,-148.041188,9400.615463
836.052908,459.657299,-444.123565,9400.615463
836.053224,1532.190996,-592.164754,8882.471304
836.053540,1378.971896,-74.020594,8882.471304
836.053856,995.924147,-74.020594,9474.636058
836.054171,689.485948,-740.205942,9622.677246
836.054487,842.705048,-1036.288319,9548.656652
836.054803,919.314598,-814.226536,9992.780217
836.055119,995.924147,148.041188,8586.388927
836.055434,-229.828649,148.041188,9622.677246
836.055750,536.266849,-518.144159,10140.821405
836.056066,1225.752797,-740.205942,9622.677246
836.056382,1149.143247,-222.061783,9178.553681
836.056698,0.000000,-0.000000,8216.285956
836.057013,229.828649,-74.020594,9474.636058
836.057329,1149.143247,-740.205942,9474.636058
836.057645,842.705048,-814.226536,9178.553681
836.057961,76.609550,-0.000000,9918.759623
836.058276,536.266849,444.123565,9770.718434
836.058592,0.000000,-296.082377,8142.265362
836.058908,536.266849,-222.061783,9030.512492
836.059224,766.095498,-888.247130,9770.718434
836.059539,-153.219100,-0.000000,9252.574275
836.059855,0.000000,296.082377,10658.965565
836.060171,306.438199,-888.247130,9178.553681
836.060487,1072.533697,-0.000000,9918.759623
836.060803,229.828649,888.247130,7846.182985
836.061118,153.219100,962.267725,10732.986159
836.061434,383.047749,-0.000000,9622.677246
836.061750,1149.143247,-518.144159,8808.450710
836.062066,919.314598,518.144159,9104.533087
836.062381,229.828649,-222.061783,9622.677246
836.062697,306.438199,-592.164754,9104.533087
836.063013,459.657299,-444.123565,9696.697840
836.063329,459.657299,-370.102971,10140.821405
836.063644,76.609550,888.247130,9178.553681
836.063960,-229.828649,1110.308913,9844.739029
836.064276,153.219100,-74.020594,9104.533087
836.064592,383.047749,-592.164754,9474.636058
836.064908,-153.219100,-666.185348,9252.574275
836.065223,0.000000,-74.020594,10584.944971
836.065539,-229.828649,-814.226536,10436.903782
836.065855,0.000000,-1776.494261,9992.780217
836.066171,0.000000,-0.000000,10140.821405
836.066486,0.000000,370.102971,9178.553681
836.066802,-383.047749,666.185348,9844.739029
836.067118,-229.828649,-0.000000,9326.594869
836.067434,536.266849,-0.000000,9474.636058
836.067749,1378.971896,-148.041188,8956.491898
836.068065,0.000000,222.061783,8882.471304
836.068381,612.876398,-518.144159,10584.944971
836.068697,1072.533697,-1258.350101,9030.512492
836.069013,612.876398,-740.205942,9474.636058
836.069328,0.000000,962.267725,9770.718434
836.069644,0.000000,370.102971,9770.718434
836.069960,306.438199,-370.102971,8956.491898
836.070276,689.485948,-814.226536,9474.636058
836.070591,919.314598,-296.082377,9548.656652
836.070907,1378.971896,444.123565,9474.636058
836.071223,153.219100,-444.123565,9104.533087
836.071539,536.266849,-1036.288319,10362.883188
836.071855,1149.143247,-222.061783,9918.759623
836.072170,0.000000,1110.308913,7179.997637
836.072486,229.828649,518.144159,10510.924376
836.072802,153.219100,-1036.288319,9696.697840
836.073118,919.314598,-222.061783,8734.430116
836.073433,842.705048,-222.061783,8660.409521
836.073749,-153.219100,-370.102971,9992.780217
836.074065,689.485948,-1036.288319,9474.636058
836.074381,229.828649,-666.185348,9400.615463
836.074696,689.485948,-0.000000,9844.739029
836.075012,76.609550,444.123565,9548.656652
836.075328,0.000000,814.226536,9474.636058
836.075644,306.438199,296.082377,9400.615463
836.075960,1225.752797,-888.247130,9844.739029
836.076275,919.314598,-0.000000,8808.450710
836.076591,0.000000,740.205942,9918.759623
836.076907,536.266849,-666.185348,9696.697840
836.077223,1455.581446,-518.144159,9178.553681
836.077538,1149.143247,444.123565,8734.430116
836.077854,153.219100,518.144159,8660.409521
836.078170,306.438199,-370.102971,9992.780217
836.078486,612.876398,-1332.370696,10140.821405
836.078801,536.266849,-518.144159,9104.533087
836.079117,383.047749,-888.247130,8586.388927
836.079433,76.609550,-814.226536,9992.780217
836.079749,0.000000,-1332.370696,10288.862594
836.080065,766.095498,-1924.535449,9844.739029
836.080380,459.657299,-740.205942,9548.656652
836.080696,-612.876398,814.226536,9104.533087
836.081012,-229.828649,-962.267725,10140.821405
836.081328,229.828649,-1924.535449,9474.636058
836.081643,766.095498,-740.205942,9844.739029
836.081959,383.047749,-0.000000,8586.388927
836.082275,306.438199,-444.123565,9992.780217
836.082591,689.485948,-1480.411884,10362.883188
836.082906,1149.143247,-666.185348,9326.594869
836.083222,1225.752797,296.082377,9252.574275
836.083538,306.438199,666.185348,8290.306550
836.083854,383.047749,444.123565,10362.883188
836.084170,1225.752797,-518.144159,9474.636058
836.084485,1225.752797,296.082377,8660.409521
836.084801,306.438199,296.082377,9326.594869
836.085117,0.000000,296.082377,9400.615463
836.085433,459.657299,-296.082377,9474.636058
836.085748,306.438199,-518.144159,8882.471304
836.086064,0.000000,222.061783,9918.759623
836.086380,-459.657299,444.123565,9178.553681
836.086696,-919.314598,-148.041188,9030.512492
836.087011,-306.438199,-0.000000,9030.512492
836.087327,383.047749,-592.164754,9474.636058
836.087643,0.000000,-0.000000,8586.388927
836.087959,-842.705048,-74.020594,9548.656652
836.088275,-383.047749,-740.205942,9844.739029
836.088590,306.438199,-740.205942,9548.656652
836.088906,-383.047749,-148.041188,9548.656652
836.089222,-689.485948,1036.288319,9696.697840
836.089538,-383.047749,-222.061783,9252.574275
836.089853,229.828649,-222.061783,8808.450710
836.090169,689.485948,148.041188,9252.574275
836.090485,76.609550,-0.000000,8882.471304
836.090801,459.657299,444.123565,10362.883188
836.091117,383.047749,222.061783,8882.471304
836.091432,1149.143247,-222.061783,9178.553681
836.091748,689.485948,222.061783,9474.636058
836.092064,0.000000,-666.185348,9252.574275
836.092380,153.219100,-222.061783,10362.883188
836.092695,76.609550,-814.226536,9622.677246
836.093011,842.705048,-518.144159,9844.739029
836.093327,459.657299,296.082377,9252.574275
836.093643,76.609550,-148.041188,9844.739029
836.093958,536.266849,-0.000000,10214.842000
836.094274,1149.143247,-666.185348,9844.739029
836.094590,919.314598,-296.082377,9252.574275
836.094906,536.266849,888.247130,9696.697840
836.095222,766.095498,-0.000000,9548.656652
836.095537,1762.019645,-518.144159,9696.697840
836.095853,1762.019645,-74.020594,9548.656652
836.096169,1378.971896,444.123565,9622.677246
836.096485,766.095498,296.082377,9474.636058
836.096800,995.924147,-888.247130,9326.594869
836.097116,1762.019645,-1036.288319,10066.800811
836.097432,1149.143247,296.082377,9104.533087
836.097748,536.266849,1110.308913,9326.594869
836.098063,383.047749,740.205942,9696.697840
836.098379,459.657299,-296.082377,9918.759623
836.098695,1762.019645,-296.082377,9696.697840
836.099011,842.705048,370.102971,7772.162391
836.099327,0.000000,-444.123565,9844.739029
836.099642,536.266849,-1332.370696,10584.944971
836.099958,919.314598,-1036.288319,9252.574275
836.100274,383.047749,518.144159,9104.533087
836.100590,0.000000,518.144159,10214.842000
836.100905,0.000000,296.082377,8586.388927
836.101221,612.876398,-592.164754,8586.388927
836.101537,612.876398,-148.041188,9326.594869
836.101853,76.609550,-444.123565,9178.553681
836.102168,0.000000,-444.123565,9474.636058
836.102484,-306.438199,-1406.391290,9696.697840
836.102800,459.657299,-1332.370696,9770.718434
836.103116,229.828649,148.041188,9622.677246
836.103432,-153.219100,666.185348,8512.368333
836.103747,0.000000,296.082377,9992.780217
