#time,accel_x,accel_y,accel_z
736.387373,383.047749,-148.041188,9474.636058
736.387689,383.047749,-148.041188,9474.636058
736.388005,459.657299,-370.102971,9400.615463
736.388320,459.657299,-222.061783,9474.636058
736.388636,536.266849,-0.000000,9474.636058
736.388952,612.876398,-222.061783,9400.615463
736.389267,459.657299,-296.082377,9400.615463
736.389583,842.705048,-74.020594,9548.656652
736.389899,536.266849,-74.020594,9696.697840
736.390214,306.438199,-0.000000,9474.636058
736.390530,612.876398,-370.102971,9622.677246
736.390846,229.828649,-222.061783,9696.697840
736.391161,229.828649,-222.061783,9474.636058
736.391477,306.438199,-0.000000,9474.636058
736.391793,383.047749,-0.000000,9326.594869
736.392108,383.047749,-0.000000,9252.574275
736.392424,536.266849,370.102971,9326.594869
736.392740,459.657299,-0.000000,9474.636058
736.393055,459.657299,296.082377,9326.594869
736.393371,153.219100,-0.000000,9474.636058
736.393687,76.609550,-148.041188,9548.656652
736.394002,229.828649,-296.082377,9696.697840
736.394318,76.609550,-296.082377,9918.759623
736.394634,153.219100,-370.102971,9770.718434
736.394950,459.657299,-222.061783,9548.656652
736.395265,536.266849,-0.000000,9474.636058
736.395581,536.266849,740.205942,9474.636058
736.395897,76.609550,370.102971,9104.533087
736.396212,536.266849,814.226536,9326.594869
736.396528,995.924147,740.205942,9326.594869
736.396844,689.485948,740.205942,9030.512492
736.397159,689.485948,666.185348,9326.594869
736.397475,766.095498,370.102971,9548.656652
736.397791,459.657299,-0.000000,9548.656652
736.398106,612.876398,-0.000000,9696.697840
736.398422,842.705048,592.164754,9622.677246
736.398738,689.485948,740.205942,9622.677246
736.399053,919.314598,740.205942,9474.636058
736.399369,1225.752797,1036.288319,9622.677246
736.399685,1532.190996,1332.370696,9326.594869
736.400000,1608.800546,1554.432478,9326.594869
736.400316,2298.286494,1628.453072,9178.553681
736.400632,2221.676944,1554.432478,9030.512492
736.400947,2451.505594,1850.514855,9030.512492
736.401263,2451.505594,1702.473667,9252.574275
736.401579,2451.505594,1628.453072,9400.615463
736.401894,2681.334243,1480.411884,9400.615463
736.402210,2681.334243,1924.535449,9474.636058
736.402526,2757.943793,1850.514855,9474.636058
736.402841,2528.115143,1998.556043,9696.697840
736.403157,2987.772442,2220.617826,9548.656652
736.403473,2604.724693,2294.638420,9844.739029
736.403788,3140.991542,2294.638420,9548.656652
736.404104,2987.772442,2516.700203,9474.636058
736.404420,3217.601092,2516.700203,9400.615463
736.404735,3217.601092,2368.659014,9474.636058
736.405051,3217.601092,2442.679609,9474.636058
736.405367,3524.039291,2368.659014,9474.636058
736.405682,3140.991542,2442.679609,9548.656652
736.405998,2987.772442,2812.782580,9622.677246
736.406314,3294.210641,2590.720797,9548.656652
736.406629,2911.162892,2516.700203,9844.739029
736.406945,2834.553343,2516.700203,9844.739029
736.407261,2911.162892,2442.679609,9770.718434
736.407576,2757.943793,2220.617826,9770.718434
736.407892,2681.334243,1998.556043,9992.780217
736.408208,2604.724693,2146.597232,10066.800811
736.408523,2604.724693,2072.576638,10214.842000
736.408839,2604.724693,2294.638420,9992.780217
736.409155,2451.505594,2294.638420,9918.759623
736.409470,2451.505594,2368.659014,9918.759623
736.409786,2604.724693,2368.659014,9844.739029
736.410102,2911.162892,2294.638420,9696.697840
736.410417,2681.334243,2146.597232,9474.636058
736.410733,2604.724693,1850.514855,9400.615463
736.411049,2757.943793,1998.556043,9696.697840
736.411364,2451.505594,2072.576638,9474.636058
736.411680,2374.896044,1850.514855,9400.615463
736.411996,1762.019645,1554.432478,9548.656652
736.412311,1302.362347,1036.288319,9770.718434
736.412627,995.924147,296.082377,9992.780217
736.412943,612.876398,-0.000000,10288.862594
736.413258,459.657299,-296.082377,10732.986159
736.413574,842.705048,-518.144159,10807.006753
736.413890,919.314598,-444.123565,10955.047942
736.414205,1149.143247,222.061783,10510.924376
736.414521,1838.629195,1184.329507,9548.656652
736.414837,2681.334243,1702.473667,8882.471304
736.415152,3370.820191,2442.679609,8364.327145
736.415468,4136.915689,3108.864956,7624.121203
736.415784,4213.525239,3182.885551,7179.997637
736.416099,4519.963438,2812.782580,7105.977043
736.416415,4443.353888,2072.576638,7254.018232
736.416731,3677.258390,1406.391290,7698.141797
736.417046,2757.943793,1184.329507,8660.409521
736.417362,1455.581446,740.205942,8956.491898
736.417678,842.705048,296.082377,9474.636058
736.417993,76.609550,296.082377,10214.842000
736.418309,-1149.143247,-222.061783,10362.883188
736.418625,-766.095498,-296.082377,10807.006753
736.418940,-536.266849,-814.226536,11103.089130
736.419256,-536.266849,-888.247130,11029.068536
736.419572,-229.828649,-666.185348,11029.068536
736.419887,1072.533697,-0.000000,10288.862594
736.420203,1838.629195,1036.288319,9548.656652
736.420519,3217.601092,1998.556043,9178.553681
736.420834,4290.134789,3108.864956,8142.265362
736.421150,5439.278036,3701.029710,7550.100608
736.421466,5975.544884,4145.153275,7254.018232
736.421781,6588.421283,4293.194464,6661.853478
736.422097,6511.811733,4293.194464,6587.832884
736.422413,6358.592633,4145.153275,7031.956449
736.422728,5515.887586,3478.967927,7550.100608
736.423044,4136.915689,2368.659014,8882.471304
736.423360,2757.943793,1258.350101,9918.759623
736.423675,1149.143247,-0.000000,11325.150913
736.423991,0.000000,-666.185348,12657.521608
736.424307,-919.314598,-962.267725,13323.706956
736.424622,-1149.143247,-592.164754,13471.748144
736.424938,-842.705048,296.082377,12879.583391
736.425254,153.219100,1036.288319,11843.295072
736.425569,995.924147,2294.638420,11103.089130
736.425885,2145.067394,3256.906145,9030.512492
736.426201,3677.258390,4367.215058,7920.203579
736.426516,5209.449386,4441.235652,7105.977043
736.426832,6281.983084,4071.132681,6957.935855
736.427148,6818.249932,3775.050304,7254.018232
736.427463,6588.421283,3108.864956,7772.162391
736.427779,5975.544884,2368.659014,8586.388927
736.428095,4903.011187,2368.659014,9474.636058
736.428410,4060.306139,2442.679609,10732.986159
736.428726,2834.553343,2072.576638,11621.233289
736.429042,1455.581446,2294.638420,11917.315666
736.429357,995.924147,2812.782580,11177.109724
736.429673,612.876398,2886.803174,10732.986159
736.429989,1072.533697,2812.782580,10658.965565
736.430304,1532.190996,2368.659014,10214.842000
736.430620,1608.800546,2072.576638,9622.677246
736.430936,1378.971896,2146.597232,9326.594869
736.431251,1455.581446,1554.432478,9400.615463
736.431567,1991.848295,2146.597232,9326.594869
736.431883,2068.457845,2590.720797,9104.533087
736.432198,1608.800546,2664.741391,9252.574275
736.432514,1225.752797,2072.576638,9548.656652
736.432830,1149.143247,1406.391290,9770.718434
736.433145,1762.019645,1110.308913,9844.739029
736.433461,2068.457845,888.247130,10214.842000
736.433777,2298.286494,1184.329507,10362.883188
736.434092,1455.581446,1554.432478,10955.047942
736.434408,2221.676944,2072.576638,10436.903782
736.434724,2757.943793,2738.761985,9770.718434
736.435039,2834.553343,4219.173869,8438.347739
736.435355,3217.601092,3849.070898,7031.956449
736.435671,4366.744339,3182.885551,7105.977043
736.435987,4443.353888,2516.700203,6883.915261
736.436302,3830.477490,2516.700203,7179.997637
736.436618,2451.505594,888.247130,8216.285956
736.436934,1762.019645,-444.123565,9474.636058
736.437249,1072.533697,-592.164754,10288.862594
736.437565,-306.438199,-296.082377,11325.150913
736.437881,-1532.190996,296.082377,11843.295072
736.438196,-1072.533697,-0.000000,11917.315666
736.438512,0.000000,-0.000000,10658.965565
736.438828,536.266849,814.226536,10436.903782
736.439143,1072.533697,1110.308913,10066.800811
736.439459,1915.238745,296.082377,10214.842000
736.439775,3140.991542,-0.000000,9474.636058
736.440090,4290.134789,1110.308913,8956.491898
736.440406,4903.011187,2960.823768,6883.915261
736.440722,5439.278036,2368.659014,7698.141797
736.441037,6128.763984,2368.659014,7772.162391
736.441353,5209.449386,2220.617826,7179.997637
736.441669,5439.278036,2368.659014,7698.141797
736.441984,4903.011187,1702.473667,9030.512492
736.442300,3524.039291,1332.370696,9548.656652
736.442616,2298.286494,1702.473667,9622.677246
736.442931,1225.752797,592.164754,10510.924376
736.443247,459.657299,-0.000000,10955.047942
736.443563,0.000000,-0.000000,11473.192101
736.443878,-612.876398,-1258.350101,10955.047942
736.444194,-383.047749,-2146.597232,11917.315666
736.444510,-229.828649,-1480.411884,11547.212695
736.444825,306.438199,-222.061783,10214.842000
736.445141,1838.629195,592.164754,9844.739029
736.445457,2834.553343,888.247130,9030.512492
736.445772,2451.505594,1332.370696,7846.182985
736.446088,2911.162892,1480.411884,7920.203579
736.446404,3064.381992,370.102971,9030.512492
736.446719,2528.115143,1036.288319,8512.368333
736.447035,2298.286494,1702.473667,8290.306550
736.447351,2451.505594,888.247130,9104.533087
736.447666,1915.238745,518.144159,9844.739029
736.447982,919.314598,592.164754,9548.656652
736.448298,0.000000,-296.082377,10214.842000
736.448614,76.609550,-1036.288319,10955.047942
736.448930,-383.047749,-0.000000,10510.924376
736.449246,-306.438199,370.102971,9844.739029
736.449561,229.828649,-148.041188,10066.800811
736.449877,229.828649,-222.061783,9770.718434
736.450193,-459.657299,-296.082377,9252.574275
736.450509,0.000000,-1036.288319,8882.471304
736.450825,-383.047749,-962.267725,9696.697840
736.451141,-536.266849,-0.000000,9178.553681
736.451457,0.000000,666.185348,8586.388927
736.451772,459.657299,-0.000000,9252.574275
736.452088,-612.876398,-0.000000,9474.636058
736.452404,-383.047749,-0.000000,9400.615463
736.452720,153.219100,-740.205942,9548.656652
736.453036,0.000000,-740.205942,9696.697840
736.453352,-76.609550,-0.000000,9474.636058
736.453668,842.705048,-74.020594,9252.574275
736.453983,1072.533697,222.061783,8438.347739
736.454299,383.047749,1406.391290,8438.347739
736.454615,1072.533697,1036.288319,8290.306550
736.454931,919.314598,444.123565,7328.038826
736.455247,-153.219100,1776.494261,8438.347739
736.455563,0.000000,962.267725,8364.327145
736.455879,76.609550,-370.102971,8290.306550
736.456194,-1149.143247,-518.144159,9474.636058
736.456510,-2221.676944,-1554.432478,10510.924376
736.456826,-2221.676944,-2368.659014,11473.192101
736.457142,-2911.162892,-1332.370696,11325.150913
736.457458,-3217.601092,222.061783,10881.027347
736.457774,-2221.676944,-444.123565,10510.924376
736.458090,-842.705048,-222.061783,10436.903782
736.458405,-383.047749,1628.453072,9696.697840
736.458721,689.485948,1332.370696,8364.327145
736.459037,2068.457845,1332.370696,8142.265362
736.459353,2528.115143,2516.700203,7994.224174
736.459669,3677.258390,2368.659014,7105.977043
736.459985,4290.134789,1554.432478,7105.977043
736.460301,3447.429741,2294.638420,7846.182985
736.460616,2298.286494,1258.350101,8364.327145
736.460932,1685.410096,-74.020594,9918.759623
736.461248,76.609550,444.123565,10510.924376
736.461564,-1072.533697,666.185348,10732.986159
736.461880,-995.924147,-444.123565,11917.315666
736.462196,-1149.143247,-1406.391290,12139.377449
736.462512,-1225.752797,-1036.288319,12139.377449
736.462827,-1225.752797,-592.164754,11177.109724
736.463143,-153.219100,-1110.308913,11177.109724
736.463459,383.047749,518.144159,10214.842000
736.463775,1302.362347,814.226536,8808.450710
736.464091,2911.162892,592.164754,9104.533087
736.464407,2604.724693,518.144159,9104.533087
736.464722,2221.676944,666.185348,8586.388927
736.465038,3140.991542,-0.000000,8290.306550
736.465354,2757.943793,518.144159,8882.471304
736.465670,2374.896044,962.267725,9104.533087
736.465986,2451.505594,-0.000000,9474.636058
736.466302,1455.581446,-592.164754,9918.759623
736.466618,0.000000,-592.164754,10436.903782
736.466933,153.219100,-1332.370696,9918.759623
736.467249,0.000000,-962.267725,10510.924376
736.467565,-1072.533697,-0.000000,10362.883188
736.467881,-459.657299,-962.267725,10288.862594
736.468197,306.438199,-1628.453072,10214.842000
736.468513,-383.047749,-740.205942,9252.574275
736.468829,-306.438199,-1036.288319,9030.512492
736.469144,842.705048,-1332.370696,9104.533087
736.469460,459.657299,-592.164754,9178.553681
736.469776,229.828649,-74.020594,8808.450710
736.470092,612.876398,-814.226536,9178.553681
736.470408,459.657299,-1184.329507,9400.615463
736.470724,-459.657299,-740.205942,9474.636058
736.471040,0.000000,-814.226536,9326.594869
736.471355,-383.047749,148.041188,9104.533087
736.471671,-306.438199,740.205942,8808.450710
736.471987,536.266849,-74.020594,8586.388927
736.472303,689.485948,-1036.288319,8512.368333
736.472619,76.609550,-1184.329507,9178.553681
736.472935,0.000000,-1776.494261,8734.430116
736.473251,0.000000,-1776.494261,9252.574275
736.473566,-306.438199,-1036.288319,9474.636058
736.473882,-153.219100,-814.226536,9326.594869
736.474198,-229.828649,-592.164754,9104.533087
736.474514,-689.485948,-1110.308913,9104.533087
736.474830,-1378.971896,-1628.453072,9622.677246
736.475146,-612.876398,-1480.411884,9918.759623
736.475462,-229.828649,-222.061783,9030.512492
736.475777,-383.047749,518.144159,8956.491898
736.476093,306.438199,-814.226536,8956.491898
736.476409,612.876398,-518.144159,9178.553681
736.476725,306.438199,-296.082377,8660.409521
736.477041,459.657299,-740.205942,9474.636058
736.477357,766.095498,-592.164754,9844.739029
736.477673,306.438199,888.247130,9400.615463
736.477988,1378.971896,740.205942,9104.533087
736.478304,1685.410096,222.061783,8956.491898
736.478620,1225.752797,518.144159,9696.697840
736.478936,1072.533697,592.164754,9548.656652
736.479252,1455.581446,-0.000000,9992.780217
736.479568,383.047749,1184.329507,9474.636058
736.479884,383.047749,1258.350101,9326.594869
736.480199,766.095498,666.185348,10066.800811
736.480515,153.219100,592.164754,10140.821405
736.480831,-229.828649,-0.000000,9918.759623
736.481147,-229.828649,-222.061783,10510.924376
736.481463,-306.438199,-370.102971,11325.150913
736.481779,-536.266849,666.185348,10807.006753
736.482095,766.095498,518.144159,9770.718434
736.482410,1378.971896,296.082377,9474.636058
736.482726,1225.752797,888.247130,9992.780217
736.483042,1532.190996,666.185348,9474.636058
736.483358,1762.019645,1036.288319,9252.574275
736.483674,1685.410096,1702.473667,9178.553681
736.483990,1149.143247,1036.288319,9104.533087
736.484306,1685.410096,888.247130,9104.533087
736.484621,689.485948,962.267725,9326.594869
736.484937,76.609550,-222.061783,9844.739029
736.485253,842.705048,-740.205942,10807.006753
736.485569,0.000000,-444.123565,10732.986159
736.485885,-459.657299,740.205942,10881.027347
736.486201,306.438199,148.041188,10362.883188
736.486517,229.828649,370.102971,10066.800811
736.486832,-229.828649,296.082377,9918.759623
736.487148,459.657299,222.061783,9622.677246
736.487464,995.924147,-0.000000,9770.718434
736.487780,459.657299,296.082377,9400.615463
736.488096,1378.971896,-0.000000,8512.368333
736.488412,2221.676944,-74.020594,8586.388927
736.488728,1302.362347,-148.041188,8660.409521
736.489043,612.876398,-666.185348,9178.553681
736.489359,229.828649,-1332.370696,10362.883188
736.489675,229.828649,-518.144159,9844.739029
736.489991,0.000000,-0.000000,9030.512492
736.490307,0.000000,-518.144159,9992.780217
736.490623,0.000000,-296.082377,10140.821405
736.490939,-306.438199,-0.000000,9474.636058
736.491254,459.657299,-148.041188,8956.491898
736.491570,229.828649,-0.000000,9178.553681
736.491886,0.000000,518.144159,8216.285956
736.492202,689.485948,-148.041188,8142.265362
736.492518,995.924147,-888.247130,8660.409521
736.492834,153.219100,-740.205942,9252.574275
736.493150,-153.219100,-1332.370696,9252.574275
736.493465,-306.438199,-1702.473667,9326.594869
736.493781,-1072.533697,-740.205942,9696.697840
736.494097,-766.095498,-592.164754,9844.739029
736.494413,153.219100,-1554.432478,9770.718434
736.494729,-229.828649,-962.267725,9474.636058
736.495045,-766.095498,-814.226536,9400.615463
736.495361,-229.828649,-1850.514855,9474.636058
736.495676,76.609550,-962.267725,8734.430116
736.495992,383.047749,370.102971,8586.388927
736.496308,1378.971896,-148.041188,7624.121203
736.496624,1225.752797,-0.000000,7846.182985
736.496940,766.095498,-888.247130,8734.430116
736.497256,536.266849,-1702.473667,9326.594869
736.497572,383.047749,-1554.432478,9474.636058
736.497887,-306.438199,-592.164754,9770.718434
736.498203,383.047749,-1110.308913,9844.739029
736.498519,995.924147,-1036.288319,10140.821405
736.498835,153.219100,-518.144159,10584.944971
736.499151,0.000000,-296.082377,9992.780217
736.499467,229.828649,-296.082377,9844.739029
736.499783,383.047749,814.226536,9326.594869
736.500098,689.485948,888.247130,9104.533087
736.500414,995.924147,296.082377,8586.388927
736.500730,1838.629195,444.123565,8734.430116
736.501046,766.095498,-370.102971,9770.718434
736.501362,1225.752797,-814.226536,9474.636058
736.501678,1149.143247,-222.061783,9844.739029
736.501994,459.657299,370.102971,9844.739029
736.502309,1302.362347,-74.020594,10510.924376
736.502625,1302.362347,-296.082377,10436.903782
736.502941,766.095498,296.082377,9770.718434
736.503257,383.047749,-0.000000,10362.883188
736.503573,995.924147,-148.041188,10214.842000
736.503889,536.266849,1702.473667,9548.656652
736.504205,536.266849,1258.350101,8660.409521
736.504520,1532.190996,-148.041188,8882.471304
736.504836,306.438199,-0.000000,9178.553681
736.505152,995.924147,-1184.329507,10658.965565
736.505468,383.047749,-2146.597232,10807.006753
736.505784,-919.314598,-0.000000,9918.759623
736.506100,-459.657299,-592.164754,9474.636058
736.506416,1072.533697,-814.226536,10881.027347
736.506731,76.609550,-74.020594,9844.739029
736.507047,-459.657299,666.185348,10288.862594
736.507363,612.876398,-370.102971,9326.594869
736.507679,-229.828649,-444.123565,9474.636058
736.507995,0.000000,666.185348,9770.718434
736.508311,842.705048,518.144159,8290.306550
736.508627,919.314598,-148.041188,8364.327145
736.508942,383.047749,-0.000000,9474.636058
736.509258,-153.219100,-814.226536,9400.615463
736.509574,306.438199,-666.185348,9918.759623
736.509890,-153.219100,-74.020594,9918.759623
736.510206,0.000000,222.061783,9326.594869
736.510522,1072.533697,-74.020594,9252.574275
736.510837,383.047749,-444.123565,10288.862594
736.511153,153.219100,-222.061783,9474.636058
736.511469,383.047749,-370.102971,8956.491898
736.511785,76.609550,518.144159,8586.388927
736.512101,-153.219100,1406.391290,8438.347739
736.512417,612.876398,740.205942,8660.409521
736.512733,995.924147,-0.000000,8660.409521
736.513048,-306.438199,-74.020594,9326.594869
736.513364,-76.609550,-1480.411884,9622.677246
736.513680,0.000000,-1924.535449,9104.533087
736.513996,-766.095498,-888.247130,9474.636058
736.514312,153.219100,-518.144159,10214.842000
736.514628,612.876398,-1332.370696,9696.697840
736.514944,0.000000,-444.123565,9992.780217
736.515259,-689.485948,-518.144159,8956.491898
736.515575,229.828649,-592.164754,9548.656652
736.515891,-306.438199,296.082377,9104.533087
736.516207,0.000000,592.164754,8438.347739
736.516523,1302.362347,222.061783,8290.306550
736.516839,919.314598,-592.164754,8808.450710
736.517155,0.000000,-444.123565,8808.450710
736.517470,306.438199,-1406.391290,9548.656652
736.517786,0.000000,-1702.473667,9770.718434
736.518102,-306.438199,-0.000000,10510.924376
736.518418,229.828649,-222.061783,10288.862594
736.518734,383.047749,-962.267725,9992.780217
736.519050,0.000000,-148.041188,10510.924376
736.519366,229.828649,-148.041188,9770.718434
736.519681,842.705048,370.102971,9474.636058
736.519997,229.828649,1480.411884,9178.553681
736.520313,995.924147,1258.350101,8586.388927
736.520629,2298.286494,296.082377,8142.265362
736.520945,1225.752797,814.226536,8882.471304
736.521261,766.095498,148.041188,9326.594869
736.521577,1072.533697,-1110.308913,10362.883188
736.521892,612.876398,-296.082377,10362.883188
736.522208,0.000000,666.185348,9918.759623
736.522524,1072.533697,814.226536,9400.615463
736.522840,1302.362347,222.061783,10584.944971
736.523156,536.266849,518.144159,10140.821405
736.523472,766.095498,444.123565,9474.636058
736.523788,766.095498,-74.020594,9696.697840
736.524103,383.047749,962.267725,9622.677246
736.524419,1149.143247,222.061783,8956.491898
736.524735,1608.800546,-370.102971,9326.594869
736.525051,995.924147,-518.144159,10066.800811
736.525367,459.657299,-222.061783,9326.594869
736.525683,995.924147,-666.185348,9844.739029
736.525999,536.266849,-0.000000,9918.759623
736.526314,612.876398,592.164754,9474.636058
736.526630,1685.410096,-740.205942,10140.821405
736.526946,1149.143247,-1184.329507,10362.883188
736.527262,76.609550,-370.102971,10140.821405
736.527578,995.924147,-518.144159,9622.677246
736.527894,919.314598,-74.020594,9326.594869
736.528210,842.705048,1258.350101,9474.636058
736.528525,1378.971896,222.061783,8290.306550
736.528841,1532.190996,-148.041188,8660.409521
736.529157,995.924147,222.061783,9178.553681
736.529473,766.095498,-592.164754,8142.265362
736.529789,919.314598,-1406.391290,9696.697840
736.530105,0.000000,-148.041188,10140.821405
736.530421,0.000000,370.102971,9326.594869
736.530736,842.705048,-74.020594,9696.697840
736.531052,-306.438199,-0.000000,9622.677246
736.531368,-919.314598,-222.061783,9400.615463
736.531684,-229.828649,-740.205942,9400.615463
736.532000,-612.876398,-0.000000,9548.656652
736.532316,-919.314598,592.164754,8808.450710
736.532632,306.438199,296.082377,8586.388927
736.532947,0.000000,-0.000000,7994.224174
736.533263,-919.314598,-0.000000,9030.512492
736.533579,-459.657299,-1036.288319,9474.636058
736.533895,-459.657299,-1036.288319,9252.574275
736.534211,-459.657299,-518.144159,9252.574275
736.534527,-383.047749,-444.123565,9622.677246
736.534843,459.657299,-1036.288319,9400.615463
736.535158,0.000000,-444.123565,9696.697840
736.535474,-383.047749,-370.102971,9474.636058
736.535790,-153.219100,-740.205942,9622.677246
736.536106,-383.047749,222.061783,9178.553681
736.536422,0.000000,666.185348,8512.368333
736.536738,842.705048,-370.102971,8734.430116
736.537054,766.095498,-888.247130,9252.574275
736.537369,0.000000,-1110.308913,9696.697840
736.537685,153.219100,-2072.576638,9696.697840
736.538001,306.438199,-1480.411884,9992.780217
736.538317,0.000000,-0.000000,9696.697840
736.538633,153.219100,222.061783,9474.636058
736.538949,1072.533697,-666.185348,9844.739029
736.539265,0.000000,-518.144159,9770.718434
736.539580,229.828649,-518.144159,10658.965565
736.539896,766.095498,-666.185348,10140.821405
736.540212,612.876398,888.247130,9622.677246
736.540528,1532.190996,1036.288319,8956.491898
736.540844,2298.286494,370.102971,8882.471304
736.541160,1378.971896,444.123565,9030.512492
736.541476,536.266849,666.185348,8882.471304
736.541791,1302.362347,-0.000000,9918.759623
736.542107,919.314598,-0.000000,9992.780217
736.542423,229.828649,814.226536,10140.821405
736.542739,995.924147,148.041188,10140.821405
736.543055,1225.752797,-1110.308913,10510.924376
736.543371,536.266849,148.041188,9992.780217
736.543687,612.876398,-0.000000,9400.615463
736.544002,919.314598,-370.102971,10066.800811
736.544318,536.266849,592.164754,9918.759623
736.544634,919.314598,666.185348,9474.636058
736.544950,1685.410096,-0.000000,8956.491898
736.545266,536.266849,-148.041188,9548.656652
736.545582,383.047749,-370.102971,9178.553681
736.545897,689.485948,-1184.329507,9548.656652
736.546213,689.485948,-222.061783,10140.821405
736.546529,459.657299,-0.000000,10066.800811
736.546844,766.095498,-666.185348,9326.594869
736.547160,1149.143247,-0.000000,9400.615463
736.547476,689.485948,-296.082377,9770.718434
736.547791,766.095498,-1110.308913,9474.636058
736.548107,766.095498,-148.041188,9622.677246
736.548423,153.219100,74.020594,9326.594869
736.548738,919.314598,-518.144159,8438.347739
736.549054,1302.362347,-666.185348,8808.450710
736.549370,459.657299,-444.123565,8882.471304
736.549685,76.609550,-518.144159,8586.388927
736.550001,459.657299,-1406.391290,9474.636058
736.550317,-306.438199,-592.164754,10066.800811
736.550633,-153.219100,-370.102971,9622.677246
736.550948,842.705048,-1554.432478,9696.697840
736.551264,0.000000,-962.267725,8882.471304
736.551580,-76.609550,-444.123565,9252.574275
736.551895,153.219100,-666.185348,9030.512492
736.552211,153.219100,148.041188,9030.512492
736.552527,-153.219100,740.205942,8734.430116
736.552842,536.266849,296.082377,8438.347739
736.553158,383.047749,-370.102971,8364.327145
736.553474,-383.047749,-444.123565,9030.512492
736.553789,-383.047749,-1554.432478,9696.697840
736.554105,0.000000,-1850.514855,9474.636058
736.554421,-1225.752797,-296.082377,10140.821405
736.554736,-919.314598,-444.123565,9770.718434
736.555052,-153.219100,-814.226536,9326.594869
736.555368,-995.924147,-222.061783,9844.739029
736.555683,-842.705048,-666.185348,9844.739029
736.555999,-306.438199,-444.123565,9770.718434
736.556315,-306.438199,444.123565,9622.677246
736.556630,0.000000,592.164754,8956.491898
736.556946,919.314598,-74.020594,8808.450710
736.557262,536.266849,-888.247130,9326.594869
736.557577,76.609550,-666.185348,9104.533087
736.557893,229.828649,-888.247130,10140.821405
736.558209,536.266849,-592.164754,9474.636058
736.558524,229.828649,740.205942,10066.800811
736.558840,459.657299,518.144159,9918.759623
736.559156,1225.752797,-0.000000,9844.739029
736.559471,459.657299,444.123565,9696.697840
736.559787,383.047749,-0.000000,9992.780217
736.560103,1149.143247,-444.123565,9474.636058
736.560419,842.705048,962.267725,9622.677246
736.560734,1685.410096,1628.453072,9030.512492
736.561050,1838.629195,518.144159,8068.244768
736.561366,1838.629195,592.164754,9474.636058
736.561681,1072.533697,-296.082377,9918.759623
736.561997,842.705048,-0.000000,9770.718434
736.562313,459.657299,-0.000000,9918.759623
736.562628,689.485948,518.144159,10140.821405
736.562944,1225.752797,518.144159,9548.656652
736.563260,1072.533697,444.123565,9844.739029
736.563575,1149.143247,814.226536,10214.842000
736.563891,919.314598,-148.041188,9770.718434
736.564207,1149.143247,592.164754,9548.656652
736.564522,766.095498,1332.370696,9252.574275
736.564838,1072.533697,962.267725,9030.512492
736.565154,1608.800546,-296.082377,9400.615463
736.565469,612.876398,-0.000000,9178.553681
736.565785,306.438199,-444.123565,9918.759623
736.566101,689.485948,-1258.350101,10214.842000
736.566416,0.000000,-74.020594,9992.780217
736.566732,383.047749,814.226536,9548.656652
736.567048,1149.143247,-0.000000,9252.574275
736.567363,766.095498,-296.082377,9474.636058
736.567679,383.047749,-0.000000,9770.718434
736.567995,153.219100,-666.185348,9696.697840
736.568310,0.000000,-592.164754,9178.553681
736.568626,76.609550,444.123565,8956.491898
736.568942,1149.143247,-0.000000,8364.327145
736.569257,766.095498,-666.185348,8956.491898
736.569573,0.000000,-444.123565,9326.594869
736.569889,-306.438199,-1110.308913,9030.512492
736.570204,-153.219100,-1998.556043,10066.800811
736.570520,-536.266849,-592.164754,10362.883188
736.570836,-383.047749,-518.144159,9400.615463
736.571152,0.000000,-1184.329507,9918.759623
736.571467,-153.219100,-666.185348,10066.800811
736.571783,-306.438199,-296.082377,9400.615463
736.572099,76.609550,-74.020594,9326.594869
736.572414,76.609550,-0.000000,9400.615463
736.572730,153.219100,962.267725,8142.265362
736.573046,842.705048,-0.000000,8364.327145
736.573361,536.266849,-1110.308913,8660.409521
736.573677,-459.657299,-814.226536,9178.553681
736.573993,-229.828649,-1702.473667,9696.697840
736.574308,0.000000,-2368.659014,9474.636058
736.574624,-689.485948,-296.082377,9696.697840
736.574940,-612.876398,-740.205942,10066.800811
736.575255,76.609550,-1480.411884,9918.759623
736.575571,-459.657299,-1110.308913,9918.759623
736.575887,76.609550,-1258.350101,9474.636058
736.576202,153.219100,-1480.411884,9548.656652
736.576518,-306.438199,-0.000000,9326.594869
736.576834,0.000000,666.185348,8956.491898
736.577149,919.314598,-148.041188,8734.430116
736.577465,995.924147,-888.247130,8216.285956
736.577781,153.219100,-370.102971,9400.615463
736.578096,229.828649,-1850.514855,9844.739029
736.578412,689.485948,-1036.288319,9696.697840
736.578728,383.047749,74.020594,9918.759623
736.579043,1149.143247,-666.185348,9548.656652
736.579359,1225.752797,-296.082377,10362.883188
736.579675,536.266849,296.082377,9770.718434
736.579990,689.485948,-0.000000,9326.594869
736.580306,1455.581446,-0.000000,9474.636058
736.580622,766.095498,740.205942,9696.697840
736.580938,1225.752797,740.205942,8290.306550
736.581253,1608.800546,370.102971,8808.450710
736.581569,1455.581446,-74.020594,9400.615463
736.581885,842.705048,-296.082377,9104.533087
736.582200,919.314598,-148.041188,9918.759623
736.582516,995.924147,-444.123565,10584.944971
736.582832,459.657299,666.185348,9548.656652
736.583147,1225.752797,592.164754,8956.491898
736.583463,1225.752797,-518.144159,10066.800811
736.583779,689.485948,592.164754,10066.800811
736.584094,1072.533697,222.061783,9104.533087
736.584410,1149.143247,888.247130,8364.327145
736.584726,612.876398,1776.494261,9030.512492
736.585041,383.047749,592.164754,8882.471304
736.585357,1455.581446,-0.000000,9622.677246
736.585673,153.219100,-148.041188,9400.615463
736.585988,76.609550,-296.082377,9918.759623
736.586304,689.485948,-444.123565,9844.739029
736.586620,-306.438199,222.061783,9474.636058
736.586935,-153.219100,1036.288319,10436.903782
736.587251,689.485948,-0.000000,9622.677246
736.587567,306.438199,-0.000000,10066.800811
736.587882,-536.266849,888.247130,9992.780217
736.588198,229.828649,-148.041188,10066.800811
736.588514,612.876398,370.102971,9622.677246
736.588829,459.657299,1406.391290,9474.636058
736.589145,919.314598,740.205942,9178.553681
736.589461,1378.971896,222.061783,9104.533087
736.589776,689.485948,444.123565,9326.594869
736.590092,153.219100,-592.164754,9400.615463
736.590408,536.266849,-1258.350101,10140.821405
736.590724,153.219100,-296.082377,10140.821405
736.591039,229.828649,-296.082377,10584.944971
736.591355,459.657299,-1184.329507,10140.821405
736.591671,76.609550,-444.123565,10362.883188
736.591986,0.000000,-0.000000,9770.718434
736.592302,383.047749,-444.123565,9548.656652
736.592618,153.219100,370.102971,9326.594869
736.592933,0.000000,1036.288319,8216.285956
736.593249,919.314598,-296.082377,8512.368333
736.593565,689.485948,-1258.350101,8882.471304
736.593880,0.000000,-1332.370696,9622.677246
736.594196,-383.047749,-1924.535449,9400.615463
736.594512,-229.828649,-1628.453072,9844.739029
736.594827,-689.485948,-296.082377,9178.553681
736.595143,-153.219100,-518.144159,9696.697840
736.595459,0.000000,-1332.370696,9918.759623
736.595774,-536.266849,-666.185348,9474.636058
736.596090,-919.314598,-444.123565,9474.636058
736.596406,0.000000,-1258.350101,9252.574275
736.596721,-383.047749,-74.020594,9104.533087
736.597037,0.000000,-74.020594,8142.265362
736.597353,766.095498,-814.226536,8290.306550
736.597668,0.000000,-1554.432478,9252.574275
736.597984,-383.047749,-1258.350101,9474.636058
736.598300,0.000000,-1554.432478,9474.636058
736.598615,76.609550,-814.226536,9178.553681
736.598931,-383.047749,370.102971,9770.718434
736.599247,459.657299,-444.123565,9622.677246
736.599562,612.876398,-962.267725,9770.718434
736.599878,306.438199,-666.185348,9104.533087
736.600194,459.657299,-148.041188,8882.471304
736.600510,1378.971896,-666.185348,9400.615463
736.600825,1225.752797,592.164754,8660.409521
736.601141,1532.190996,1110.308913,8142.265362
736.601457,2451.505594,296.082377,8512.368333
736.601772,1302.362347,-0.000000,9030.512492
736.602088,536.266849,-148.041188,9474.636058
736.602404,1072.533697,-740.205942,9474.636058
736.602719,842.705048,-592.164754,9844.739029
736.603035,995.924147,-370.102971,9918.759623
736.603351,995.924147,-296.082377,10288.862594
736.603666,1072.533697,-592.164754,10658.965565
736.603982,153.219100,222.061783,9474.636058
736.604298,459.657299,518.144159,9252.574275
736.604613,612.876398,-0.000000,9844.739029
736.604929,612.876398,1332.370696,10066.800811
736.605245,919.314598,1184.329507,8290.306550
736.605560,1302.362347,-0.000000,8660.409521
736.605876,1072.533697,-296.082377,9992.780217
736.606192,153.219100,-444.123565,10214.842000
736.606507,1225.752797,-962.267725,10140.821405
736.606823,383.047749,-0.000000,10140.821405
736.607139,153.219100,1036.288319,10436.903782
736.607454,1072.533697,296.082377,9844.739029
736.607770,76.609550,-148.041188,9770.718434
736.608086,-229.828649,444.123565,10807.006753
736.608401,536.266849,-222.061783,10362.883188
736.608717,383.047749,666.185348,9400.615463
736.609033,153.219100,2072.576638,9030.512492
736.609348,995.924147,740.205942,9030.512492
736.609664,1455.581446,-0.000000,8808.450710
736.609980,306.438199,370.102971,8882.471304
736.610296,229.828649,-1036.288319,10066.800811
736.610611,76.609550,-1332.370696,10436.903782
736.610927,-459.657299,-370.102971,10584.944971
736.611243,-306.438199,-148.041188,9696.697840
736.611558,459.657299,-666.185348,10214.842000
736.611874,-229.828649,-148.041188,9770.718434
736.612190,-689.485948,-148.041188,9326.594869
736.612505,76.609550,-962.267725,8882.471304
736.612821,383.047749,-0.000000,9844.739029
736.613137,-153.219100,666.185348,8586.388927
736.613452,612.876398,-0.000000,8512.368333
736.613768,612.876398,-444.123565,9104.533087
736.614084,229.828649,-962.267725,9474.636058
736.614399,-306.438199,-1480.411884,9622.677246
736.614715,0.000000,-1628.453072,9474.636058
736.615031,-612.876398,-814.226536,9622.677246
736.615346,-229.828649,-592.164754,9474.636058
736.615662,383.047749,-1184.329507,9696.697840
736.615978,0.000000,-518.144159,9474.636058
736.616293,-306.438199,-370.102971,9400.615463
736.616609,0.000000,-1036.288319,9178.553681
736.616925,-153.219100,-296.082377,9030.512492
736.617240,383.047749,518.144159,8956.491898
736.617556,919.314598,-592.164754,7994.224174
736.617872,766.095498,-962.267725,8956.491898
736.618187,76.609550,-888.247130,9400.615463
736.618503,1072.533697,-1480.411884,9030.512492
736.618819,229.828649,-888.247130,9474.636058
736.619134,383.047749,-0.000000,9252.574275
736.619450,536.266849,-666.185348,9400.615463
736.619766,612.876398,-814.226536,9474.636058
736.620082,306.438199,-1110.308913,10288.862594
736.620397,306.438199,-888.247130,9474.636058
736.620713,1149.143247,-148.041188,8956.491898
736.621029,536.266849,740.205942,9104.533087
736.621344,919.314598,1036.288319,8438.347739
736.621660,1915.238745,-0.000000,8586.388927
736.621976,919.314598,222.061783,8882.471304
736.622291,306.438199,-148.041188,9548.656652
736.622607,919.314598,-1110.308913,9918.759623
736.622923,919.314598,-444.123565,9770.718434
736.623238,766.095498,222.061783,9992.780217
736.623554,1072.533697,-0.000000,9622.677246
736.623870,1149.143247,-74.020594,9992.780217
736.624185,306.438199,370.102971,9992.780217
736.624501,536.266849,-0.000000,9992.780217
736.624817,1685.410096,296.082377,9770.718434
736.625132,153.219100,1554.432478,9178.553681
736.625448,1072.533697,888.247130,9178.553681
736.625764,1762.019645,-222.061783,9622.677246
736.626079,459.657299,-296.082377,9474.636058
736.626395,76.609550,-518.144159,9770.718434
736.626711,612.876398,-888.247130,9918.759623
736.627026,306.438199,518.144159,9548.656652
736.627342,0.000000,1110.308913,10140.821405
736.627658,383.047749,-666.185348,10288.862594
736.627973,153.219100,-222.061783,10510.924376
736.628289,-689.485948,148.041188,10066.800811
736.628605,153.219100,-740.205942,10066.800811
736.628920,459.657299,-0.000000,9622.677246
736.629236,536.266849,1110.308913,9178.553681
736.629552,1149.143247,518.144159,9770.718434
736.629867,1072.533697,-370.102971,9474.636058
736.630183,229.828649,296.082377,8808.450710
736.630499,459.657299,-296.082377,9400.615463
736.630815,612.876398,-1332.370696,9770.718434
736.631130,0.000000,-222.061783,10066.800811
736.631446,0.000000,-74.020594,9918.759623
736.631762,766.095498,-1258.350101,10140.821405
736.632077,-383.047749,-666.185348,9474.636058
736.632393,-229.828649,74.020594,9252.574275
736.632709,229.828649,-666.185348,9548.656652
736.633024,459.657299,370.102971,9548.656652
736.633340,76.609550,1036.288319,8216.285956
736.633656,536.266849,-0.000000,8290.306550
736.633971,766.095498,-740.205942,8956.491898
736.634287,-459.657299,-740.205942,8956.491898
736.634603,0.000000,-1258.350101,9104.533087
736.634918,76.609550,-1110.308913,9622.677246
736.635234,-383.047749,-0.000000,8882.471304
736.635550,0.000000,-0.000000,9326.594869
736.635865,842.705048,-1258.350101,9918.759623
736.636181,0.000000,-1184.329507,9252.574275
736.636497,-306.438199,-370.102971,9548.656652
736.636812,383.047749,-666.185348,9030.512492
736.637128,383.047749,222.061783,8734.430116
736.637444,536.266849,888.247130,8882.471304
736.637759,1149.143247,-370.102971,8586.388927
736.638075,229.828649,-518.144159,8734.430116
736.638391,-153.219100,-666.185348,9104.533087
736.638706,153.219100,-1258.350101,8882.471304
736.639022,306.438199,-814.226536,9548.656652
736.639338,306.438199,370.102971,9548.656652
736.639653,919.314598,-370.102971,9474.636058
736.639969,689.485948,-814.226536,9770.718434
736.640285,153.219100,-814.226536,9326.594869
736.640601,76.609550,-370.102971,9474.636058
736.640916,842.705048,-0.000000,9844.739029
736.641232,536.266849,1332.370696,9104.533087
736.641548,1225.752797,1702.473667,8956.491898
736.641863,2451.505594,-0.000000,8882.471304
736.642179,1072.533697,-0.000000,9178.553681
736.642495,459.657299,-0.000000,9622.677246
736.642810,1302.362347,-740.205942,9622.677246
736.643126,842.705048,-0.000000,9770.718434
736.643442,536.266849,1406.391290,9622.677246
736.643757,1378.971896,666.185348,9918.759623
736.644073,919.314598,-0.000000,9770.718434
736.644389,229.828649,296.082377,9992.780217
736.644704,383.047749,148.041188,10140.821405
736.645020,766.095498,296.082377,9696.697840
736.645336,0.000000,1258.350101,9548.656652
736.645651,919.314598,962.267725,9918.759623
736.645967,1225.752797,-0.000000,9622.677246
736.646283,919.314598,-0.000000,9474.636058
736.646598,153.219100,296.082377,9252.574275
736.646914,536.266849,-370.102971,9992.780217
736.647230,229.828649,296.082377,9992.780217
736.647545,-229.828649,740.205942,9992.780217
736.647861,766.095498,-592.164754,9992.780217
736.648177,76.609550,-740.205942,10288.862594
736.648492,-229.828649,-148.041188,10214.842000
736.648808,306.438199,-518.144159,9474.636058
736.649124,766.095498,-222.061783,9474.636058
736.649439,76.609550,1184.329507,9400.615463
736.649755,995.924147,370.102971,9030.512492
736.650071,842.705048,-444.123565,8956.491898
736.650387,0.000000,-296.082377,9252.574275
736.650703,153.219100,-1110.308913,9326.594869
736.651018,459.657299,-1332.370696,9770.718434
736.651334,-383.047749,-444.123565,9474.636058
736.651650,229.828649,-814.226536,9696.697840
736.651966,612.876398,-1184.329507,9696.697840
736.652282,0.000000,-740.205942,9326.594869
736.652597,-229.828649,-962.267725,9548.656652
736.652913,229.828649,-1036.288319,9696.697840
736.653229,229.828649,-222.061783,8882.471304
736.653545,536.266849,222.061783,9400.615463
736.653860,1302.362347,-222.061783,8660.409521
736.654176,919.314598,-888.247130,8660.409521
736.654492,0.000000,-1110.308913,8808.450710
736.654808,-229.828649,-1110.308913,8956.491898
736.655124,153.219100,-1184.329507,9474.636058
736.655439,0.000000,148.041188,9622.677246
736.655755,229.828649,-296.082377,9474.636058
736.656071,612.876398,-814.226536,9770.718434
736.656387,153.219100,-222.061783,8956.491898
736.656703,-306.438199,-1036.288319,9474.636058
736.657018,229.828649,-666.185348,9770.718434
736.657334,0.000000,148.041188,8734.430116
736.657650,76.609550,370.102971,8734.430116
736.657966,1149.143247,-444.123565,9400.615463
736.658282,459.657299,-518.144159,9178.553681
736.658597,306.438199,-296.082377,8734.430116
736.658913,153.219100,-962.267725,8956.491898
736.659229,536.266849,-592.164754,9474.636058
736.659545,536.266849,444.123565,10140.821405
736.659861,919.314598,148.041188,9252.574275
736.660176,919.314598,-814.226536,8956.491898
736.660492,306.438199,-444.123565,9844.739029
736.660808,306.438199,-888.247130,9918.759623
736.661124,842.705048,-666.185348,9326.594869
736.661440,459.657299,814.226536,9104.533087
736.661755,306.438199,814.226536,9474.636058
736.662071,995.924147,-74.020594,9474.636058
736.662387,536.266849,-0.000000,9252.574275
736.662703,-459.657299,-666.185348,9548.656652
736.663019,689.485948,-666.185348,10066.800811
736.663334,612.876398,-74.020594,9918.759623
736.663650,459.657299,1480.411884,9622.677246
736.663966,1225.752797,370.102971,10510.924376
736.664282,1455.581446,-74.020594,9622.677246
736.664597,0.000000,1036.288319,9030.512492
736.664913,689.485948,-0.000000,9992.780217
736.665229,919.314598,-0.000000,10140.821405
736.665545,459.657299,1110.308913,10214.842000
736.665861,919.314598,888.247130,9696.697840
736.666176,1685.410096,-74.020594,9400.615463
736.666492,383.047749,222.061783,9400.615463
736.666808,229.828649,-148.041188,9622.677246
736.667124,689.485948,-518.144159,10436.903782
736.667440,612.876398,-0.000000,10066.800811
736.667755,0.000000,666.185348,9548.656652
736.668071,612.876398,-518.144159,10362.883188
736.668387,689.485948,-444.123565,9770.718434
736.668703,-536.266849,-74.020594,9252.574275
736.669019,153.219100,-296.082377,9696.697840
736.669334,919.314598,-0.000000,9252.574275
736.669650,842.705048,814.226536,8364.327145
736.669966,1149.143247,444.123565,8808.450710
736.670282,995.924147,-592.164754,8882.471304
736.670598,536.266849,-962.267725,9178.553681
736.670913,153.219100,-1184.329507,9326.594869
736.671229,153.219100,-1036.288319,9696.697840
736.671545,153.219100,-370.102971,9622.677246
736.671861,-153.219100,-0.000000,9622.677246
736.672177,459.657299,-148.041188,9474.636058
736.672492,76.609550,-370.102971,9326.594869
736.672808,-153.219100,-222.061783,8808.450710
736.673124,536.266849,-296.082377,9548.656652
736.673440,153.219100,-0.000000,9252.574275
736.673756,306.438199,814.226536,8438.347739
736.674071,689.485948,74.020594,8734.430116
736.674387,842.705048,-370.102971,9178.553681
736.674703,-306.438199,-592.164754,9030.512492
736.675019,0.000000,-814.226536,9474.636058
736.675335,0.000000,-740.205942,9918.759623
736.675650,-229.828649,-0.000000,9844.739029
736.675966,0.000000,-296.082377,9696.697840
736.676282,459.657299,-666.185348,9474.636058
736.676598,-689.485948,-888.247130,9770.718434
736.676913,-459.657299,-666.185348,9844.739029
736.677229,459.657299,-370.102971,9030.512492
736.677545,153.219100,740.205942,9326.594869
736.677861,229.828649,814.226536,8734.430116
736.678177,1302.362347,-740.205942,8586.388927
736.678492,766.095498,-1184.329507,9178.553681
736.678808,0.000000,-1628.453072,9696.697840
736.679124,536.266849,-1702.473667,9918.759623
736.679440,536.266849,-666.185348,9844.739029
736.679756,459.657299,296.082377,9474.636058
736.680071,1149.143247,-148.041188,9696.697840
736.680387,919.314598,-222.061783,9474.636058
736.680703,229.828649,-518.144159,9252.574275
736.681019,76.609550,-1110.308913,9696.697840
736.681335,1072.533697,-740.205942,9918.759623
736.681650,612.876398,666.185348,9400.615463
736.681966,1072.533697,740.205942,8882.471304
736.682282,1532.190996,-296.082377,8808.450710
736.682598,229.828649,-666.185348,9252.574275
736.682914,229.828649,-814.226536,9918.759623
736.683229,229.828649,-1480.411884,10288.862594
736.683545,306.438199,-148.041188,10214.842000
736.683861,383.047749,1036.288319,10140.821405
736.684177,1225.752797,222.061783,9548.656652
736.684493,1225.752797,-0.000000,9326.594869
736.684808,0.000000,666.185348,9400.615463
736.685124,459.657299,-0.000000,9548.656652
736.685440,842.705048,666.185348,9474.636058
736.685756,229.828649,1554.432478,8734.430116
736.686072,689.485948,518.144159,9326.594869
736.686387,1378.971896,-148.041188,9178.553681
736.686703,383.047749,-74.020594,9474.636058
736.687019,0.000000,-148.041188,9622.677246
736.687335,306.438199,-518.144159,10066.800811
736.687650,306.438199,962.267725,9918.759623
736.687966,0.000000,1332.370696,9548.656652
736.688282,995.924147,-0.000000,9770.718434
736.688598,459.657299,-0.000000,9548.656652
736.688914,0.000000,-0.000000,10140.821405
736.689229,612.876398,-74.020594,9918.759623
736.689545,536.266849,444.123565,9400.615463
736.689861,612.876398,1554.432478,8586.388927
736.690177,1225.752797,666.185348,9030.512492
736.690493,1455.581446,-148.041188,9474.636058
736.690808,536.266849,-0.000000,9252.574275
736.691124,459.657299,-592.164754,9474.636058
736.691440,536.266849,-888.247130,10362.883188
736.691756,229.828649,-0.000000,9844.739029
736.692072,229.828649,-0.000000,9400.615463
736.692387,995.924147,-814.226536,9918.759623
736.692703,0.000000,-740.205942,9770.718434
736.693019,-383.047749,-666.185348,9770.718434
736.693335,0.000000,-444.123565,9918.759623
736.693651,306.438199,-0.000000,8808.450710
736.693966,612.876398,1184.329507,8290.306550
736.694282,1685.410096,-592.164754,8734.430116
736.694598,919.314598,-1406.391290,9252.574275
736.694914,-229.828649,-1554.432478,9696.697840
736.695230,-229.828649,-1258.350101,9548.656652
736.695545,153.219100,-888.247130,9400.615463
736.695861,-383.047749,-222.061783,9770.718434
736.696177,0.000000,-814.226536,9844.739029
736.696493,229.828649,-1480.411884,10214.842000
736.696809,-612.876398,-1036.288319,9474.636058
736.697124,-612.876398,-888.247130,9326.594869
736.697440,76.609550,-888.247130,9696.697840
736.697756,153.219100,444.123565,9104.533087
736.698072,459.657299,888.247130,8290.306550
736.698387,1302.362347,-148.041188,8734.430116
736.698703,229.828649,-888.247130,9252.574275
736.699019,-536.266849,-1628.453072,9474.636058
736.699335,0.000000,-1776.494261,10066.800811
736.699651,0.000000,-1184.329507,10288.862594
736.699966,-229.828649,-0.000000,9696.697840
736.700282,459.657299,-0.000000,9252.574275
736.700598,689.485948,-518.144159,9548.656652
736.700914,0.000000,-444.123565,9844.739029
736.701230,76.609550,-444.123565,9770.718434
736.701545,1225.752797,-740.205942,8808.450710
736.701861,766.095498,518.144159,9030.512492
736.702177,766.095498,740.205942,8586.388927
736.702493,1608.800546,-814.226536,8956.491898
736.702809,1072.533697,-444.123565,9400.615463
736.703124,76.609550,-148.041188,9400.615463
736.703440,536.266849,-1184.329507,9918.759623
736.703756,1072.533697,-148.041188,10510.924376
736.704072,306.438199,666.185348,8882.471304
736.704388,995.924147,-222.061783,10140.821405
736.704703,689.485948,-592.164754,10066.800811
736.705019,-536.266849,-296.082377,9992.780217
736.705335,0.000000,-222.061783,9992.780217
736.705651,766.095498,222.061783,9400.615463
736.705967,306.438199,1258.350101,9400.615463
736.706282,1149.143247,814.226536,9252.574275
736.706598,1608.800546,-0.000000,9252.574275
736.706914,842.705048,-148.041188,9474.636058
736.707230,536.266849,-444.123565,9474.636058
736.707546,1225.752797,-296.082377,9178.553681
736.707861,842.705048,518.144159,9474.636058
736.708177,383.047749,-0.000000,9548.656652
736.708493,919.314598,-1110.308913,10214.842000
736.708809,0.000000,-1036.288319,10362.883188
736.709125,-766.095498,-592.164754,10066.800811
736.709440,0.000000,-370.102971,9548.656652
736.709756,536.266849,518.144159,9400.615463
736.710072,536.266849,1776.494261,8734.430116
736.710388,919.314598,148.041188,8882.471304
736.710703,919.314598,-740.205942,9326.594869
736.711019,0.000000,-666.185348,9252.574275
736.711335,306.438199,-1184.329507,9252.574275
736.711651,842.705048,-1184.329507,10066.800811
736.711967,536.266849,148.041188,9474.636058
736.712282,536.266849,888.247130,9474.636058
736.712598,1072.533697,148.041188,9326.594869
736.712914,459.657299,-0.000000,9548.656652
736.713230,459.657299,-0.000000,9474.636058
736.713546,1302.362347,-0.000000,9548.656652
736.713861,842.705048,1036.288319,9104.533087
736.714177,612.876398,1184.329507,9326.594869
736.714493,1455.581446,592.164754,9178.553681
736.714809,1072.533697,1036.288319,8734.430116
736.715125,0.000000,740.205942,9178.553681
736.715440,0.000000,-666.185348,9844.739029
736.715756,536.266849,-518.144159,10510.924376
736.716072,0.000000,962.267725,9622.677246
736.716388,0.000000,-0.000000,9696.697840
736.716704,383.047749,-1036.288319,9918.759623
736.717019,-459.657299,-962.267725,9770.718434
736.717335,-612.876398,-1036.288319,9918.759623
736.717651,-153.219100,-518.144159,9918.759623
736.717967,-842.705048,666.185348,9326.594869
736.718283,-229.828649,962.267725,8438.347739
736.718598,842.705048,-592.164754,8808.450710
736.718914,919.314598,-888.247130,8068.244768
736.719230,-306.438199,-1036.288319,9696.697840
736.719546,459.657299,-1998.556043,9474.636058
736.719862,229.828649,-1332.370696,8956.491898
736.720177,0.000000,296.082377,8956.491898
736.720493,995.924147,-740.205942,9548.656652
736.720809,842.705048,-1258.350101,9918.759623
736.721125,-459.657299,-518.144159,9474.636058
736.721440,-229.828649,-444.123565,9474.636058
736.721756,612.876398,-222.061783,9326.594869
736.722072,0.000000,962.267725,9104.533087
736.722388,229.828649,1628.453072,8586.388927
736.722704,1225.752797,444.123565,9030.512492
736.723019,459.657299,222.061783,8956.491898
736.723335,-383.047749,296.082377,9030.512492
736.723651,0.000000,-888.247130,10288.862594
736.723967,0.000000,-222.061783,10140.821405
736.724283,0.000000,888.247130,10362.883188
736.724598,459.657299,-370.102971,10658.965565
736.724914,995.924147,-222.061783,10658.965565
736.725230,0.000000,666.185348,9918.759623
736.725546,919.314598,1110.308913,9104.533087
736.725862,1532.190996,1702.473667,8956.491898
736.726177,919.314598,2146.597232,8956.491898
736.726493,2068.457845,1036.288319,9474.636058
736.726809,2145.067394,-0.000000,8734.430116
736.727125,689.485948,74.020594,9400.615463
736.727441,1072.533697,-222.061783,9548.656652
736.727756,2068.457845,-518.144159,9326.594869
736.728072,919.314598,666.185348,9622.677246
736.728388,689.485948,592.164754,9844.739029
736.728704,1302.362347,-740.205942,9992.780217
736.729020,306.438199,-1184.329507,10214.842000
736.729335,-306.438199,-1036.288319,9992.780217
736.729651,383.047749,-1184.329507,9992.780217
736.729967,536.266849,-370.102971,9844.739029
736.730283,306.438199,666.185348,8956.491898
736.730599,1072.533697,-0.000000,9030.512492
736.730914,1608.800546,-1036.288319,9622.677246
736.731230,306.438199,-518.144159,8438.347739
736.731546,536.266849,-1184.329507,10066.800811
736.731862,1225.752797,-1258.350101,9548.656652
736.732177,612.876398,666.185348,9104.533087
736.732493,689.485948,592.164754,9400.615463
736.732809,1225.752797,-888.247130,9622.677246
736.733125,229.828649,-666.185348,9770.718434
736.733441,-306.438199,-666.185348,9400.615463
736.733756,536.266849,-814.226536,9844.739029
736.734072,76.609550,518.144159,9622.677246
736.734388,0.000000,1036.288319,9178.553681
736.734704,1225.752797,-0.000000,8882.471304
736.735020,229.828649,-666.185348,9252.574275
736.735335,-383.047749,-444.123565,9474.636058
736.735651,-306.438199,-1406.391290,9622.677246
736.735967,0.000000,-1554.432478,9992.780217
736.736283,-383.047749,-518.144159,9844.739029
736.736599,76.609550,-1110.308913,9844.739029
736.736914,612.876398,-1850.514855,10066.800811
736.737230,-383.047749,-1628.453072,9844.739029
736.737546,-612.876398,-888.247130,9548.656652
736.737862,383.047749,-444.123565,8956.491898
736.738178,76.609550,592.164754,8956.491898
736.738493,153.219100,1036.288319,8660.409521
736.738809,1072.533697,-592.164754,8882.471304
736.739125,612.876398,-592.164754,8216.285956
736.739441,-383.047749,-814.226536,8734.430116
736.739757,229.828649,-1554.432478,10066.800811
736.740072,766.095498,-1776.494261,9696.697840
736.740388,383.047749,-0.000000,9474.636058
736.740704,919.314598,-0.000000,9696.697840
736.741020,995.924147,-888.247130,9400.615463
736.741336,0.000000,-148.041188,8882.471304
736.741651,76.609550,-148.041188,9178.553681
736.741967,689.485948,-148.041188,9696.697840
736.742283,306.438199,888.247130,9844.739029
736.742599,459.657299,888.247130,8660.409521
736.742914,1378.971896,-296.082377,9030.512492
736.743230,995.924147,-0.000000,9030.512492
736.743546,0.000000,-296.082377,8660.409521
736.743862,536.266849,-222.061783,9622.677246
736.744178,459.657299,222.061783,10214.842000
736.744493,0.000000,1110.308913,9770.718434
736.744809,1149.143247,518.144159,9178.553681
736.745125,689.485948,-74.020594,9918.759623
736.745441,0.000000,148.041188,9622.677246
736.745757,383.047749,-148.041188,9918.759623
736.746072,1225.752797,222.061783,9992.780217
736.746388,306.438199,1184.329507,9252.574275
736.746704,766.095498,296.082377,9326.594869
736.747020,1225.752797,-518.144159,9474.636058
736.747336,0.000000,-0.000000,9548.656652
736.747651,0.000000,-148.041188,9696.697840
736.747967,689.485948,-666.185348,10140.821405
736.748283,76.609550,592.164754,10362.883188
736.748598,76.609550,518.144159,10288.862594
736.748914,995.924147,-444.123565,9992.780217
736.749230,536.266849,-740.205942,9918.759623
736.749545,153.219100,-888.247130,10362.883188
736.749861,766.095498,-444.123565,10140.821405
736.750177,1225.752797,-0.000000,9622.677246
736.750493,919.314598,1110.308913,9030.512492
736.750808,995.924147,370.102971,8956.491898
736.751124,1608.800546,-592.164754,9252.574275
736.751440,766.095498,-370.102971,9252.574275
736.751755,229.828649,-518.144159,9992.780217
736.752071,1225.752797,-1406.391290,9844.739029
736.752387,689.485948,-666.185348,9622.677246
736.752702,536.266849,-962.267725,9844.739029
736.753018,995.924147,-1776.494261,10362.883188
736.753334,229.828649,-1480.411884,9992.780217
736.753649,-612.876398,-1036.288319,9326.594869
736.753965,76.609550,-740.205942,9474.636058
736.754281,153.219100,-0.000000,8956.491898
736.754596,306.438199,888.247130,8512.368333
736.754912,536.266849,-518.144159,8660.409521
736.755228,153.219100,-2072.576638,9178.553681
736.755543,-689.485948,-1554.432478,9548.656652
736.755859,0.000000,-2368.659014,9696.697840
736.756175,-76.609550,-1776.494261,9474.636058
736.756490,-689.485948,-0.000000,9474.636058
736.756806,-383.047749,-0.000000,9178.553681
736.757122,229.828649,-962.267725,9326.594869
736.757438,-1302.362347,-814.226536,9252.574275
736.757753,-1149.143247,-1036.288319,9326.594869
736.758069,-229.828649,-1036.288319,8586.388927
736.758385,-766.095498,-296.082377,9252.574275
736.758700,-459.657299,518.144159,8438.347739
736.759016,229.828649,-592.164754,8364.327145
736.759332,-153.219100,-740.205942,8882.471304
736.759647,-1149.143247,-740.205942,9104.533087
736.759963,0.000000,-1258.350101,9622.677246
736.760279,-229.828649,-296.082377,9474.636058
736.760594,0.000000,666.185348,9696.697840
736.760910,459.657299,370.102971,9474.636058
736.761226,919.314598,222.061783,8734.430116
736.761541,0.000000,962.267725,8882.471304
736.761857,459.657299,666.185348,9178.553681
736.762173,995.924147,888.247130,9252.574275
736.762488,842.705048,1998.556043,9030.512492
736.762804,766.095498,1184.329507,8882.471304
736.763120,1991.848295,222.061783,9474.636058
736.763435,1149.143247,740.205942,9474.636058
736.763751,383.047749,1110.308913,9400.615463
736.764067,1072.533697,962.267725,9770.718434
736.764382,995.924147,1924.535449,9770.718434
736.764698,306.438199,2146.597232,9178.553681
736.765014,995.924147,148.041188,9844.739029
736.765330,919.314598,-592.164754,10510.924376
736.765645,76.609550,-0.000000,10584.944971
736.765961,842.705048,370.102971,10732.986159
736.766277,1608.800546,1554.432478,9844.739029
736.766592,1072.533697,3923.091493,8586.388927
736.766908,1608.800546,3330.926739,8660.409521
736.767224,2068.457845,962.267725,9696.697840
736.767539,842.705048,370.102971,9992.780217
736.767855,229.828649,-222.061783,10732.986159
736.768171,842.705048,-962.267725,11103.089130
736.768486,306.438199,296.082377,10658.965565
736.768802,306.438199,1406.391290,10658.965565
736.769118,459.657299,1110.308913,10436.903782
736.769433,0.000000,666.185348,10436.903782
736.769749,-919.314598,1110.308913,10066.800811
736.770065,0.000000,296.082377,10510.924376
736.770380,536.266849,222.061783,10732.986159
736.770696,383.047749,740.205942,9992.780217
736.771012,919.314598,222.061783,9622.677246
736.771327,1225.752797,-592.164754,9992.780217
736.771643,536.266849,-666.185348,9178.553681
736.771959,76.609550,-592.164754,10288.862594
736.772274,1378.971896,-1110.308913,10214.842000
736.772590,536.266849,-148.041188,9474.636058
736.772906,536.266849,444.123565,9252.574275
736.773222,1378.971896,-1776.494261,9918.759623
736.773537,612.876398,-1406.391290,10066.800811
736.773853,153.219100,-740.205942,9178.553681
736.774169,842.705048,-1332.370696,8882.471304
736.774484,919.314598,-148.041188,8660.409521
736.774800,76.609550,-0.000000,8216.285956
736.775116,1762.019645,-1480.411884,8956.491898
736.775431,842.705048,-2294.638420,8808.450710
736.775747,-229.828649,-2368.659014,9326.594869
736.776063,76.609550,-2590.720797,9252.574275
736.776378,0.000000,-2960.823768,9474.636058
736.776694,-536.266849,-1332.370696,9696.697840
736.777010,0.000000,-1036.288319,8808.450710
736.777325,306.438199,-1776.494261,8142.265362
736.777641,-766.095498,-2072.576638,9400.615463
736.777957,-612.876398,-2664.741391,9696.697840
736.778272,383.047749,-2960.823768,9178.553681
736.778588,-229.828649,-666.185348,8142.265362
736.778904,-229.828649,-740.205942,8290.306550
736.779219,919.314598,-1924.535449,7994.224174
736.779535,306.438199,-1776.494261,8364.327145
736.779851,-1225.752797,-1998.556043,8734.430116
736.780166,-306.438199,-2368.659014,9252.574275
736.780482,0.000000,-1850.514855,9400.615463
736.780798,-842.705048,-592.164754,9030.512492
736.781114,459.657299,-1110.308913,9326.594869
736.781429,383.047749,-1776.494261,8882.471304
736.781745,-153.219100,-592.164754,8956.491898
736.782061,-459.657299,-814.226536,9178.553681
736.782376,153.219100,-444.123565,9326.594869
736.782692,229.828649,1480.411884,8364.327145
736.783008,0.000000,814.226536,8882.471304
736.783323,1225.752797,-222.061783,9252.574275
736.783639,229.828649,-222.061783,9474.636058
736.783955,-383.047749,-518.144159,9400.615463
736.784270,306.438199,-962.267725,10658.965565
736.784586,689.485948,-74.020594,10140.821405
736.784902,0.000000,1406.391290,9622.677246
736.785217,612.876398,666.185348,9770.718434
736.785533,995.924147,-0.000000,10584.944971
736.785849,-766.095498,962.267725,10066.800811
736.786164,383.047749,814.226536,9918.759623
736.786480,995.924147,1406.391290,10140.821405
736.786796,536.266849,2368.659014,8808.450710
736.787111,1149.143247,1850.514855,9622.677246
736.787427,2145.067394,148.041188,10140.821405
736.787743,612.876398,444.123565,10584.944971
736.788059,842.705048,592.164754,9992.780217
736.788374,612.876398,-296.082377,10140.821405
736.788690,689.485948,666.185348,11103.089130
736.789006,536.266849,1110.308913,10881.027347
736.789321,1149.143247,370.102971,10436.903782
736.789637,536.266849,666.185348,10436.903782
736.789953,-153.219100,814.226536,10510.924376
736.790268,842.705048,444.123565,9992.780217
736.790584,1685.410096,740.205942,10140.821405
736.790900,766.095498,1702.473667,9474.636058
736.791215,1608.800546,666.185348,9104.533087
736.791531,1915.238745,-0.000000,8808.450710
736.791847,766.095498,-0.000000,9474.636058
736.792162,766.095498,-518.144159,10288.862594
736.792478,1302.362347,-518.144159,9918.759623
736.792794,383.047749,888.247130,9770.718434
736.793109,842.705048,814.226536,10140.821405
736.793425,919.314598,-740.205942,9918.759623
736.793741,842.705048,-740.205942,9770.718434
736.794056,689.485948,-74.020594,9696.697840
736.794372,1225.752797,-148.041188,9400.615463
736.794688,1149.143247,518.144159,8956.491898
736.795003,1225.752797,1258.350101,8216.285956
736.795319,1225.752797,-74.020594,8290.306550
736.795635,919.314598,-814.226536,8438.347739
736.795951,-306.438199,-1184.329507,9252.574275
736.796266,0.000000,-1776.494261,9474.636058
736.796582,-153.219100,-1406.391290,9474.636058
736.796898,-612.876398,-518.144159,9178.553681
736.797213,-383.047749,-962.267725,9178.553681
736.797529,153.219100,-2368.659014,9548.656652
736.797845,-919.314598,-2072.576638,9474.636058
736.798160,-1838.629195,-1924.535449,9178.553681
736.798476,-153.219100,-2294.638420,9104.533087
736.798792,-383.047749,-814.226536,8142.265362
736.799107,-229.828649,-74.020594,8068.244768
736.799423,612.876398,-1480.411884,8142.265362
736.799739,306.438199,-1924.535449,7476.080014
736.800054,-459.657299,-1776.494261,8216.285956
736.800370,0.000000,-2812.782580,8438.347739
736.800686,153.219100,-2146.597232,9178.553681
736.801001,-306.438199,-1036.288319,8882.471304
736.801317,-153.219100,-1036.288319,8882.471304
736.801633,229.828649,-1406.391290,9252.574275
736.801948,-919.314598,-740.205942,8808.450710
736.802264,-612.876398,-1184.329507,9400.615463
736.802580,-612.876398,-962.267725,9696.697840
736.802895,0.000000,444.123565,9178.553681
736.803211,229.828649,666.185348,8734.430116
736.803527,766.095498,-222.061783,9178.553681
736.803843,306.438199,370.102971,9030.512492
736.804158,306.438199,1110.308913,9400.615463
736.804474,612.876398,666.185348,9622.677246
736.804790,612.876398,1258.350101,9918.759623
736.805105,383.047749,1776.494261,10140.821405
736.805421,995.924147,1110.308913,9696.697840
736.805737,919.314598,296.082377,10807.006753
736.806052,229.828649,666.185348,10732.986159
736.806368,689.485948,1480.411884,10436.903782
736.806684,1302.362347,2368.659014,10140.821405
736.806999,1149.143247,3404.947333,9696.697840
736.807315,1532.190996,3034.844362,9770.718434
736.807631,1685.410096,1554.432478,9326.594869
736.807946,842.705048,1184.329507,10140.821405
736.808262,383.047749,740.205942,10140.821405
736.808578,1608.800546,-74.020594,10658.965565
736.808893,0.000000,814.226536,11547.212695
736.809209,153.219100,1332.370696,10807.006753
736.809525,1225.752797,222.061783,10584.944971
736.809840,459.657299,518.144159,10584.944971
736.810156,229.828649,592.164754,10658.965565
736.810472,842.705048,296.082377,10732.986159
736.810788,1225.752797,1036.288319,9844.739029
736.811103,919.314598,1554.432478,9252.574275
736.811419,1455.581446,740.205942,9622.677246
736.811735,1762.019645,-666.185348,9178.553681
736.812050,766.095498,-222.061783,9770.718434
736.812366,612.876398,-148.041188,9918.759623
736.812682,1072.533697,-444.123565,9696.697840
736.812997,612.876398,740.205942,9918.759623
736.813313,689.485948,518.144159,9770.718434
736.813629,1225.752797,-666.185348,9770.718434
736.813944,995.924147,-518.144159,9844.739029
736.814260,-76.609550,-296.082377,9474.636058
736.814576,1072.533697,-222.061783,10066.800811
736.814891,612.876398,444.123565,8882.471304
736.815207,459.657299,1480.411884,8216.285956
736.815523,919.314598,-0.000000,8290.306550
736.815838,1072.533697,-1480.411884,8290.306550
736.816154,0.000000,-1406.391290,9252.574275
736.816470,0.000000,-2220.617826,9622.677246
736.816785,153.219100,-1924.535449,9030.512492
736.817101,0.000000,-148.041188,9030.512492
736.817417,229.828649,-592.164754,8438.347739
736.817732,383.047749,-1924.535449,8734.430116
736.818048,-383.047749,-1924.535449,9474.636058
736.818364,-689.485948,-2220.617826,9622.677246
736.818680,-306.438199,-1850.514855,9178.553681
736.818995,-383.047749,-518.144159,8364.327145
736.819311,-153.219100,-370.102971,8290.306550
736.819627,306.438199,-1776.494261,7920.203579
736.819942,229.828649,-1998.556043,7920.203579
736.820258,-919.314598,-2368.659014,8882.471304
736.820574,0.000000,-2220.617826,8882.471304
736.820889,0.000000,-1332.370696,9104.533087
736.821205,-689.485948,-518.144159,8956.491898
736.821521,689.485948,-1554.432478,9548.656652
736.821836,153.219100,-1998.556043,9252.574275
736.822152,-766.095498,-1332.370696,9326.594869
736.822468,-612.876398,-1998.556043,9474.636058
736.822783,306.438199,-1184.329507,9548.656652
736.823099,-229.828649,740.205942,8660.409521
736.823415,76.609550,370.102971,8808.450710
736.823730,1149.143247,-518.144159,8808.450710
736.824046,229.828649,-666.185348,9104.533087
736.824362,0.000000,-444.123565,9400.615463
736.824677,1072.533697,-962.267725,9474.636058
736.824993,536.266849,148.041188,9548.656652
736.825309,153.219100,888.247130,9770.718434
736.825624,1378.971896,-296.082377,10140.821405
736.825940,842.705048,-814.226536,10140.821405
736.826256,-459.657299,-222.061783,10436.903782
736.826572,459.657299,-370.102971,10362.883188
736.826887,919.314598,518.144159,9844.739029
736.827203,153.219100,1924.535449,9918.759623
736.827519,919.314598,1036.288319,9548.656652
736.827834,1149.143247,222.061783,9622.677246
736.828150,229.828649,74.020594,10362.883188
736.828466,76.609550,-0.000000,9992.780217
736.828781,995.924147,-370.102971,10510.924376
736.829097,689.485948,296.082377,9992.780217
736.829413,536.266849,740.205942,10510.924376
736.829728,1302.362347,-222.061783,10362.883188
736.830044,1225.752797,-370.102971,9770.718434
736.830360,76.609550,370.102971,10214.842000
736.830675,919.314598,592.164754,10066.800811
736.830991,1608.800546,962.267725,9474.636058
736.831307,1072.533697,1702.473667,9326.594869
736.831622,919.314598,666.185348,9474.636058
736.831938,1532.190996,-444.123565,9622.677246
736.832254,612.876398,-0.000000,9474.636058
736.832569,306.438199,-592.164754,10214.842000
736.832885,1225.752797,-592.164754,9696.697840
736.833201,842.705048,666.185348,8956.491898
736.833516,842.705048,222.061783,9844.739029
736.833832,1302.362347,-1184.329507,10140.821405
736.834148,536.266849,-814.226536,9696.697840
736.834464,-153.219100,-296.082377,9400.615463
736.834779,995.924147,-444.123565,9178.553681
736.835095,1149.143247,740.205942,8808.450710
736.835411,612.876398,1406.391290,8216.285956
736.835726,1455.581446,-0.000000,8438.347739
736.836042,842.705048,-1110.308913,8882.471304
736.836358,0.000000,-814.226536,8734.430116
736.836673,0.000000,-1332.370696,9474.636058
736.836989,383.047749,-962.267725,9474.636058
736.837305,76.609550,444.123565,8808.450710
736.837620,306.438199,-370.102971,8956.491898
736.837936,459.657299,-1110.308913,9770.718434
736.838252,-919.314598,-888.247130,9104.533087
736.838567,-1225.752797,-1406.391290,9326.594869
736.838883,-383.047749,-962.267725,8956.491898
736.839199,-229.828649,-0.000000,8956.491898
736.839514,0.000000,444.123565,8142.265362
736.839830,383.047749,-222.061783,8512.368333
736.840146,229.828649,-962.267725,8734.430116
736.840461,-229.828649,-666.185348,8142.265362
736.840777,153.219100,-1184.329507,8882.471304
736.841093,383.047749,-1258.350101,9104.533087
736.841409,536.266849,-0.000000,9326.594869
736.841724,919.314598,-222.061783,9252.574275
736.842040,1149.143247,-518.144159,9474.636058
736.842356,153.219100,-0.000000,9252.574275
736.842671,153.219100,592.164754,9030.512492
736.842987,612.876398,1036.288319,8660.409521
736.843303,536.266849,1702.473667,8882.471304
736.843618,689.485948,1110.308913,9178.553681
736.843934,1149.143247,-518.144159,9622.677246
736.844250,76.609550,-518.144159,10066.800811
736.844565,0.000000,222.061783,9548.656652
736.844881,612.876398,296.082377,9918.759623
736.845197,612.876398,1702.473667,9992.780217
736.845512,153.219100,2590.720797,9844.739029
736.845828,842.705048,1332.370696,9918.759623
736.846144,612.876398,296.082377,10214.842000
736.846459,0.000000,-74.020594,10658.965565
736.846775,459.657299,-296.082377,10732.986159
736.847091,1072.533697,1184.329507,9992.780217
736.847406,459.657299,2294.638420,9474.636058
736.847722,1378.971896,1776.494261,9770.718434
736.848038,1302.362347,740.205942,9918.759623
736.848353,306.438199,666.185348,9918.759623
736.848669,0.000000,148.041188,10066.800811
736.848985,766.095498,-666.185348,10436.903782
736.849301,229.828649,148.041188,10658.965565
736.849616,153.219100,222.061783,10362.883188
736.849932,842.705048,-1110.308913,10955.047942
736.850248,-153.219100,-814.226536,10214.842000
736.850563,-995.924147,-444.123565,10140.821405
736.850879,0.000000,-962.267725,10288.862594
736.851195,76.609550,-0.000000,10288.862594
736.851510,306.438199,-0.000000,9696.697840
736.851826,1378.971896,-666.185348,9474.636058
736.852142,766.095498,-962.267725,9622.677246
736.852457,383.047749,-962.267725,9252.574275
736.852773,995.924147,-740.205942,9030.512492
736.853089,1455.581446,-0.000000,9030.512492
736.853405,919.314598,296.082377,9252.574275
736.853720,1685.410096,-148.041188,9474.636058
736.854036,1455.581446,-1110.308913,9400.615463
736.854352,536.266849,-1480.411884,9548.656652
736.854667,306.438199,-1184.329507,9622.677246
736.854983,842.705048,-1184.329507,9178.553681
736.855299,536.266849,444.123565,9104.533087
736.855614,459.657299,1036.288319,8882.471304
736.855930,842.705048,-222.061783,8216.285956
736.856246,689.485948,-222.061783,8438.347739
736.856562,-459.657299,-1110.308913,8364.327145
736.856877,153.219100,-1628.453072,9548.656652
736.857193,383.047749,-1480.411884,9178.553681
736.857509,0.000000,-592.164754,9030.512492
736.857824,229.828649,-1258.350101,9252.574275
736.858140,536.266849,-1924.535449,9104.533087
736.858456,-459.657299,-1036.288319,8586.388927
736.858771,0.000000,-1258.350101,8660.409521
736.859087,383.047749,-1184.329507,8882.471304
736.859403,76.609550,296.082377,8438.347739
736.859718,153.219100,222.061783,8290.306550
736.860034,919.314598,-1332.370696,8364.327145
736.860350,0.000000,-2072.576638,8956.491898
736.860666,-1072.533697,-1554.432478,9252.574275
736.860981,153.219100,-2146.597232,9326.594869
736.861297,0.000000,-1332.370696,9474.636058
736.861613,-383.047749,-74.020594,9548.656652
736.861928,995.924147,-1110.308913,9104.533087
736.862244,306.438199,-1036.288319,8956.491898
736.862560,-459.657299,-666.185348,9622.677246
736.862875,0.000000,-814.226536,9844.739029
736.863191,766.095498,-148.041188,9178.553681
736.863507,0.000000,1184.329507,8734.430116
736.863823,689.485948,296.082377,9696.697840
736.864138,1072.533697,-740.205942,9474.636058
736.864454,229.828649,-222.061783,9252.574275
736.864770,-229.828649,148.041188,9474.636058
736.865085,842.705048,-148.041188,10955.047942
736.865401,536.266849,1258.350101,9992.780217
736.865717,76.609550,1924.535449,9696.697840
736.866032,1149.143247,592.164754,10362.883188
736.866348,0.000000,-0.000000,9770.718434
736.866664,-306.438199,148.041188,10362.883188
736.866979,229.828649,592.164754,10436.903782
736.867295,919.314598,666.185348,9844.739029
736.867611,842.705048,2368.659014,9622.677246
736.867927,1072.533697,1924.535449,9622.677246
736.868242,1072.533697,444.123565,9474.636058
736.868558,76.609550,370.102971,9918.759623
736.868874,0.000000,-0.000000,10732.986159
736.869189,766.095498,222.061783,10510.924376
736.869505,612.876398,1110.308913,9918.759623
736.869821,766.095498,814.226536,10510.924376
736.870136,1072.533697,-296.082377,10807.006753
736.870452,995.924147,-148.041188,9770.718434
736.870768,-383.047749,518.144159,9474.636058
736.871083,1072.533697,148.041188,10584.944971
736.871399,1225.752797,592.164754,9474.636058
736.871715,306.438199,1332.370696,9770.718434
736.872031,1149.143247,-74.020594,9844.739029
736.872346,1302.362347,-888.247130,8882.471304
736.872662,459.657299,-666.185348,9030.512492
736.872978,536.266849,-888.247130,9548.656652
736.873293,766.095498,-1110.308913,9696.697840
736.873609,536.266849,222.061783,9622.677246
736.873925,383.047749,-370.102971,9696.697840
736.874240,1149.143247,-888.247130,9548.656652
736.874556,0.000000,-1258.350101,9252.574275
736.874872,-383.047749,-1406.391290,10140.821405
736.875188,536.266849,-1184.329507,9918.759623
736.875503,383.047749,-0.000000,8512.368333
736.875819,612.876398,962.267725,8290.306550
736.876135,1532.190996,-740.205942,8142.265362
736.876450,842.705048,-1332.370696,8216.285956
736.876766,0.000000,-666.185348,8734.430116
736.877082,306.438199,-1036.288319,8956.491898
736.877397,459.657299,-1184.329507,9696.697840
736.877713,0.000000,-0.000000,9104.533087
736.878029,229.828649,-370.102971,8512.368333
736.878344,76.609550,-1998.556043,9030.512492
736.878660,-919.314598,-1554.432478,9326.594869
736.878976,-459.657299,-1036.288319,9770.718434
736.879292,229.828649,-1924.535449,9326.594869
736.879607,0.000000,444.123565,8364.327145
736.879923,-229.828649,814.226536,8142.265362
736.880239,1225.752797,-2072.576638,8586.388927
736.880554,153.219100,-1184.329507,9326.594869
736.880870,-612.876398,-888.247130,8956.491898
736.881186,689.485948,-1554.432478,8882.471304
736.881501,1072.533697,-962.267725,9178.553681
736.881817,306.438199,666.185348,9252.574275
736.882133,995.924147,-370.102971,9178.553681
736.882449,612.876398,-592.164754,8734.430116
736.882764,229.828649,148.041188,9770.718434
736.883080,689.485948,-0.000000,9474.636058
736.883396,1225.752797,592.164754,9030.512492
736.883711,612.876398,1554.432478,9252.574275
736.884027,919.314598,1258.350101,9104.533087
736.884343,1302.362347,222.061783,9030.512492
736.884658,459.657299,74.020594,9992.780217
736.884974,-306.438199,-148.041188,10288.862594
736.885290,612.876398,-0.000000,10807.006753
736.885605,0.000000,1110.308913,10288.862594
736.885921,-306.438199,1332.370696,10140.821405
736.886237,536.266849,296.082377,10732.986159
736.886553,842.705048,74.020594,10732.986159
736.886868,-919.314598,222.061783,10584.944971
736.887184,76.609550,-0.000000,10881.027347
736.887500,995.924147,1332.370696,10362.883188
736.887815,383.047749,2664.741391,9030.512492
736.888131,612.876398,1776.494261,8660.409521
736.888447,1455.581446,-0.000000,9844.739029
736.888762,153.219100,370.102971,10140.821405
736.889078,306.438199,-222.061783,10214.842000
736.889394,689.485948,-962.267725,10510.924376
736.889709,842.705048,444.123565,10955.047942
736.890025,153.219100,740.205942,10066.800811
736.890341,766.095498,370.102971,10214.842000
736.890657,229.828649,-148.041188,10436.903782
736.890972,-383.047749,444.123565,9918.759623
736.891288,536.266849,740.205942,9918.759623
736.891604,612.876398,666.185348,9400.615463
736.891919,459.657299,1332.370696,9400.615463
736.892235,1225.752797,-0.000000,9474.636058
736.892551,1149.143247,-962.267725,9252.574275
736.892866,0.000000,-370.102971,9474.636058
736.893182,229.828649,-1184.329507,9992.780217
736.893498,1072.533697,-370.102971,9622.677246
736.893814,306.438199,814.226536,9326.594869
736.894129,766.095498,370.102971,9326.594869
736.894445,1608.800546,-296.082377,9696.697840
736.894761,766.095498,-740.205942,9474.636058
736.895076,76.609550,-296.082377,8734.430116
736.895392,842.705048,-74.020594,8660.409521
736.895708,842.705048,296.082377,8734.430116
736.896023,459.657299,1258.350101,7994.224174
736.896339,842.705048,-444.123565,7920.203579
736.896655,536.266849,-1554.432478,8364.327145
736.896970,-766.095498,-1998.556043,9178.553681
736.897286,0.000000,-2590.720797,9918.759623
736.897602,76.609550,-1850.514855,9474.636058
736.897918,0.000000,-370.102971,9178.553681
736.898233,0.000000,-888.247130,9474.636058
736.898549,76.609550,-1702.473667,8734.430116
736.898865,-459.657299,-1628.453072,8956.491898
736.899180,-612.876398,-1258.350101,9178.553681
736.899496,76.609550,-1406.391290,8956.491898
736.899812,0.000000,370.102971,8364.327145
736.900127,459.657299,-0.000000,8660.409521
736.900443,842.705048,-1036.288319,7920.203579
736.900759,76.609550,-1628.453072,8956.491898
736.901075,-306.438199,-1258.350101,9030.512492
736.901390,689.485948,-1332.370696,9474.636058
736.901706,459.657299,-0.000000,9104.533087
736.902022,-153.219100,518.144159,9178.553681
736.902337,459.657299,-518.144159,9844.739029
736.902653,76.609550,-1332.370696,9622.677246
736.902969,-995.924147,-1258.350101,10066.800811
736.903284,-842.705048,-1110.308913,10510.924376
736.903600,-153.219100,-666.185348,9918.759623
736.903916,0.000000,1332.370696,9474.636058
736.904231,536.266849,1184.329507,8956.491898
736.904547,1838.629195,-0.000000,9104.533087
736.904863,689.485948,-74.020594,8956.491898
736.905179,0.000000,-222.061783,9622.677246
736.905494,919.314598,-740.205942,10288.862594
736.905810,919.314598,518.144159,9548.656652
736.906126,689.485948,1110.308913,10140.821405
736.906441,1149.143247,-0.000000,10214.842000
736.906757,1072.533697,-666.185348,9992.780217
736.907073,153.219100,-0.000000,10140.821405
736.907388,536.266849,-148.041188,10362.883188
736.907704,1072.533697,-0.000000,9622.677246
736.908020,1072.533697,1924.535449,9770.718434
736.908335,1455.581446,1332.370696,9326.594869
736.908651,1225.752797,-0.000000,9474.636058
736.908967,76.609550,-296.082377,10066.800811
736.909283,76.609550,-1406.391290,10955.047942
736.909598,842.705048,-740.205942,10362.883188
736.909914,383.047749,592.164754,9770.718434
736.910230,383.047749,370.102971,10214.842000
736.910545,1378.971896,-592.164754,10140.821405
736.910861,689.485948,-888.247130,10510.924376
736.911177,76.609550,-666.185348,10510.924376
736.911492,459.657299,-444.123565,9992.780217
736.911808,842.705048,444.123565,9622.677246
736.912124,919.314598,1554.432478,8586.388927
736.912440,1455.581446,222.061783,8882.471304
736.912755,2068.457845,-444.123565,9104.533087
736.913071,459.657299,-296.082377,9030.512492
736.913387,766.095498,-1110.308913,9474.636058
736.913702,766.095498,-888.247130,9770.718434
736.914018,153.219100,222.061783,9474.636058
736.914334,306.438199,-0.000000,9400.615463
736.914649,766.095498,-518.144159,9696.697840
736.914965,0.000000,-296.082377,9622.677246
736.915281,0.000000,-666.185348,9178.553681
736.915596,0.000000,-592.164754,9252.574275
736.915912,76.609550,518.144159,8734.430116
736.916228,0.000000,962.267725,7920.203579
736.916544,1149.143247,-222.061783,8438.347739
736.916859,459.657299,-740.205942,8438.347739
736.917175,-306.438199,-814.226536,8956.491898
736.917491,-153.219100,-1258.350101,8956.491898
736.917806,306.438199,-370.102971,8660.409521
736.918122,0.000000,888.247130,8956.491898
736.918438,766.095498,296.082377,8956.491898
736.918753,689.485948,-1702.473667,9400.615463
736.919069,-383.047749,-1036.288319,9400.615463
736.919385,-383.047749,-592.164754,9474.636058
736.919701,76.609550,-74.020594,8882.471304
736.920016,229.828649,1184.329507,8734.430116
736.920332,76.609550,1554.432478,8512.368333
736.920648,536.266849,-0.000000,8808.450710
736.920963,0.000000,-1036.288319,9252.574275
736.921279,-689.485948,-1110.308913,9474.636058
736.921595,-536.266849,-1480.411884,9844.739029
736.921910,0.000000,-814.226536,9844.739029
736.922226,-153.219100,518.144159,9844.739029
736.922542,842.705048,296.082377,9844.739029
736.922857,919.314598,-518.144159,9696.697840
736.923173,229.828649,-370.102971,9844.739029
736.923489,153.219100,-370.102971,9326.594869
736.923805,1225.752797,370.102971,10214.842000
736.924120,842.705048,1628.453072,9104.533087
736.924436,1149.143247,1406.391290,8956.491898
736.924752,2221.676944,-0.000000,9696.697840
736.925067,842.705048,222.061783,9696.697840
736.925383,306.438199,-0.000000,9770.718434
736.925699,995.924147,-666.185348,9992.780217
736.926014,383.047749,222.061783,10436.903782
736.926330,76.609550,1184.329507,10955.047942
736.926646,689.485948,-74.020594,10658.965565
736.926961,153.219100,-222.061783,10140.821405
736.927277,-842.705048,-148.041188,10436.903782
736.927593,153.219100,-666.185348,10732.986159
736.927909,306.438199,370.102971,10140.821405
736.928224,306.438199,1628.453072,9918.759623
736.928540,1149.143247,888.247130,9548.656652
736.928856,1685.410096,-74.020594,9252.574275
736.929171,689.485948,-444.123565,9474.636058
736.929487,536.266849,-444.123565,9696.697840
736.929803,1762.019645,-1036.288319,10362.883188
736.930118,1302.362347,888.247130,9400.615463
736.930434,383.047749,1480.411884,9030.512492
736.930750,1838.629195,-1184.329507,9992.780217
736.931066,995.924147,-962.267725,10362.883188
736.931381,0.000000,-296.082377,9030.512492
736.931697,919.314598,-666.185348,9844.739029
736.932013,1072.533697,-148.041188,9844.739029
736.932328,459.657299,888.247130,8512.368333
736.932644,2145.067394,-370.102971,8586.388927
736.932960,1302.362347,-1110.308913,8882.471304
736.933275,-306.438199,-444.123565,9178.553681
736.933591,459.657299,-1036.288319,9178.553681
736.933907,1149.143247,-1036.288319,9548.656652
736.934222,76.609550,-0.000000,8956.491898
736.934538,842.705048,-444.123565,9696.697840
736.934854,1302.362347,-1480.411884,9326.594869
736.935170,76.609550,-1554.432478,9030.512492
736.935485,0.000000,-518.144159,9400.615463
736.935801,995.924147,-0.000000,8808.450710
736.936117,612.876398,1184.329507,8734.430116
736.936432,612.876398,1480.411884,8142.265362
736.936748,1072.533697,-0.000000,8512.368333
736.937064,612.876398,-814.226536,8216.285956
736.937379,-919.314598,-1036.288319,8734.430116
736.937695,-383.047749,-1850.514855,9548.656652
736.938011,229.828649,-1184.329507,9548.656652
736.938327,-383.047749,-0.000000,9104.533087
736.938642,-842.705048,-444.123565,9844.739029
736.938958,-229.828649,-1628.453072,9992.780217
736.939274,-1225.752797,-1110.308913,9622.677246
736.939589,-1455.581446,-888.247130,9622.677246
736.939905,-229.828649,-888.247130,9918.759623
736.940221,-383.047749,592.164754,9178.553681
736.940536,-383.047749,962.267725,8660.409521
736.940852,842.705048,-74.020594,8586.388927
736.941168,76.609550,-814.226536,8364.327145
736.941483,-1302.362347,-1036.288319,9548.656652
736.941799,-229.828649,-1036.288319,10214.842000
736.942115,0.000000,-740.205942,10214.842000
736.942431,-612.876398,148.041188,9844.739029
736.942746,306.438199,-0.000000,10362.883188
736.943062,383.047749,-740.205942,9918.759623
736.943378,-229.828649,296.082377,9252.574275
736.943693,0.000000,-222.061783,9992.780217
736.944009,995.924147,-0.000000,10066.800811
736.944325,459.657299,1258.350101,9918.759623
736.944640,689.485948,1036.288319,9548.656652
736.944956,1455.581446,-0.000000,9548.656652
736.945272,612.876398,-296.082377,8956.491898
736.945587,536.266849,-0.000000,9992.780217
736.945903,1455.581446,370.102971,9844.739029
736.946219,1455.581446,962.267725,9696.697840
736.946535,919.314598,1184.329507,9474.636058
736.946850,1762.019645,-0.000000,10066.800811
736.947166,1378.971896,-370.102971,9400.615463
736.947482,612.876398,-148.041188,9696.697840
736.947797,612.876398,-666.185348,9622.677246
736.948113,1378.971896,-0.000000,10214.842000
736.948429,459.657299,962.267725,9104.533087
736.948744,1072.533697,518.144159,9474.636058
736.949060,1685.410096,-444.123565,9918.759623
736.949376,842.705048,-370.102971,8586.388927
736.949692,229.828649,-444.123565,9326.594869
736.950007,842.705048,-1036.288319,10362.883188
736.950323,1149.143247,-370.102971,10436.903782
736.950639,459.657299,444.123565,9696.697840
736.950954,1149.143247,-296.082377,9474.636058
736.951270,919.314598,-296.082377,9474.636058
736.951586,459.657299,-148.041188,9474.636058
736.951901,995.924147,-592.164754,9770.718434
736.952217,766.095498,-0.000000,9252.574275
736.952533,842.705048,962.267725,8734.430116
736.952848,1225.752797,-74.020594,8882.471304
736.953164,1608.800546,-666.185348,8956.491898
736.953480,0.000000,-592.164754,9474.636058
736.953795,229.828649,-1110.308913,9474.636058
736.954111,689.485948,-740.205942,9548.656652
736.954427,0.000000,740.205942,9030.512492
736.954743,-383.047749,-148.041188,9548.656652
736.955058,766.095498,-1258.350101,9844.739029
736.955374,0.000000,-1110.308913,9622.677246
736.955690,-842.705048,-518.144159,9326.594869
736.956005,0.000000,-518.144159,9696.697840
736.956321,229.828649,222.061783,9178.553681
736.956637,306.438199,1332.370696,8882.471304
736.956952,383.047749,370.102971,8438.347739
736.957268,536.266849,-814.226536,8512.368333
736.957584,-536.266849,-1036.288319,9178.553681
736.957899,-229.828649,-1406.391290,9770.718434
736.958215,229.828649,-592.164754,9696.697840
736.958531,-459.657299,962.267725,9400.615463
736.958846,-229.828649,370.102971,9178.553681
736.959162,459.657299,-740.205942,9548.656652
736.959478,-536.266849,-296.082377,8660.409521
736.959794,-1532.190996,-370.102971,9992.780217
736.960109,0.000000,-740.205942,9992.780217
736.960425,-153.219100,666.185348,9326.594869
736.960741,-459.657299,740.205942,9548.656652
736.961056,459.657299,-518.144159,8882.471304
736.961372,0.000000,-962.267725,8956.491898
736.961688,-1225.752797,-1036.288319,10362.883188
736.962003,-612.876398,-1480.411884,10140.821405
736.962319,306.438199,-74.020594,9992.780217
736.962635,-306.438199,1036.288319,9844.739029
736.962950,306.438199,-148.041188,9696.697840
736.963266,536.266849,-814.226536,9622.677246
736.963582,0.000000,-222.061783,9252.574275
736.963897,229.828649,-518.144159,9696.697840
736.964213,1225.752797,148.041188,10066.800811
736.964529,919.314598,740.205942,9622.677246
736.964845,689.485948,814.226536,8808.450710
736.965160,1762.019645,-444.123565,9992.780217
736.965476,1532.190996,-444.123565,9326.594869
736.965792,536.266849,-148.041188,9548.656652
736.966107,1455.581446,-518.144159,10807.006753
736.966423,1455.581446,962.267725,9696.697840
736.966739,1378.971896,1554.432478,9400.615463
736.967054,1991.848295,-74.020594,9770.718434
736.967370,1838.629195,-370.102971,9474.636058
736.967686,306.438199,-74.020594,9178.553681
736.968001,689.485948,-444.123565,9918.759623
736.968317,1532.190996,-148.041188,10436.903782
736.968633,1149.143247,1184.329507,9178.553681
736.968948,842.705048,444.123565,8586.388927
736.969264,1685.410096,-296.082377,9178.553681
736.969580,766.095498,-592.164754,9400.615463
736.969895,459.657299,-888.247130,9474.636058
736.970211,919.314598,-888.247130,9770.718434
736.970527,995.924147,444.123565,10066.800811
736.970843,536.266849,296.082377,9326.594869
736.971158,1072.533697,-222.061783,9178.553681
736.971474,153.219100,-666.185348,9622.677246
736.971790,-306.438199,-518.144159,9622.677246
736.972105,459.657299,-444.123565,9696.697840
736.972421,306.438199,-0.000000,9918.759623
736.972737,0.000000,592.164754,9104.533087
736.973052,689.485948,-148.041188,8882.471304
736.973368,995.924147,-666.185348,9400.615463
736.973684,153.219100,-370.102971,8882.471304
736.973999,0.000000,-888.247130,9326.594869
736.974315,766.095498,-444.123565,9918.759623
736.974631,153.219100,518.144159,9252.574275
736.974946,0.000000,-0.000000,9548.656652
736.975262,689.485948,-1036.288319,9252.574275
736.975578,-306.438199,-1036.288319,9474.636058
736.975894,-383.047749,-1110.308913,9844.739029
736.976209,612.876398,-370.102971,9178.553681
736.976525,766.095498,1184.329507,8364.327145
736.976841,153.219100,1406.391290,8216.285956
736.977156,459.657299,-296.082377,8290.306550
736.977472,229.828649,-1184.329507,8734.430116
736.977788,-1149.143247,-1184.329507,9400.615463
736.978103,-995.924147,-2368.659014,10066.800811
736.978419,-76.609550,-1702.473667,10658.965565
736.978735,-995.924147,-296.082377,9400.615463
736.979050,-919.314598,-296.082377,9844.739029
736.979366,-383.047749,-1184.329507,9696.697840
736.979682,-842.705048,-814.226536,9474.636058
736.979997,-766.095498,-148.041188,9474.636058
736.980313,-229.828649,-0.000000,9474.636058
736.980629,-229.828649,1036.288319,9474.636058
736.980945,229.828649,666.185348,8882.471304
736.981260,995.924147,-0.000000,9030.512492
736.981576,766.095498,-1110.308913,9400.615463
736.981892,229.828649,-962.267725,9622.677246
736.982207,689.485948,-1184.329507,9844.739029
736.982523,689.485948,-296.082377,9844.739029
736.982839,612.876398,888.247130,9918.759623
736.983154,1378.971896,222.061783,9992.780217
736.983470,612.876398,-370.102971,10140.821405
736.983786,229.828649,-0.000000,9622.677246
736.984101,306.438199,-222.061783,9474.636058
736.984417,1455.581446,-0.000000,9696.697840
736.984733,689.485948,1258.350101,9104.533087
736.985048,1225.752797,1110.308913,8956.491898
736.985364,1991.848295,-444.123565,9474.636058
736.985680,1149.143247,-666.185348,9252.574275
736.985996,536.266849,-666.185348,9696.697840
736.986311,1378.971896,-814.226536,9918.759623
736.986627,1378.971896,370.102971,9622.677246
736.986943,612.876398,592.164754,9844.739029
736.987258,1225.752797,-592.164754,10066.800811
736.987574,1302.362347,-666.185348,9622.677246
736.987890,0.000000,-148.041188,9770.718434
736.988205,766.095498,-296.082377,10140.821405
736.988521,842.705048,222.061783,9844.739029
736.988837,689.485948,1406.391290,9104.533087
736.989152,1532.190996,888.247130,9252.574275
736.989468,1915.238745,-74.020594,9104.533087
736.989784,536.266849,518.144159,8882.471304
736.990099,153.219100,-296.082377,9252.574275
736.990415,1072.533697,-740.205942,9622.677246
736.990731,766.095498,370.102971,9770.718434
736.991047,229.828649,444.123565,9696.697840
736.991362,919.314598,-518.144159,9622.677246
736.991678,383.047749,-296.082377,9326.594869
736.991994,-919.314598,-814.226536,9918.759623
736.992309,229.828649,-0.000000,10140.821405
736.992625,536.266849,888.247130,9326.594869
736.992941,0.000000,1776.494261,8512.368333
736.993256,612.876398,296.082377,9030.512492
736.993572,1149.143247,-814.226536,9030.512492
736.993888,-306.438199,-444.123565,9030.512492
736.994203,-536.266849,-1036.288319,9696.697840
736.994519,306.438199,-962.267725,9918.759623
736.994835,0.000000,-0.000000,8956.491898
736.995150,-229.828649,-148.041188,9548.656652
736.995466,76.609550,-1554.432478,10732.986159
736.995782,-842.705048,-1184.329507,10066.800811
736.996098,-1149.143247,-296.082377,9326.594869
736.996413,-229.828649,-370.102971,9844.739029
736.996729,0.000000,1258.350101,9622.677246
736.997045,76.609550,2072.576638,8290.306550
736.997360,459.657299,-0.000000,8808.450710
736.997676,383.047749,-740.205942,9104.533087
736.997992,-766.095498,-1332.370696,9400.615463
736.998307,306.438199,-1406.391290,9992.780217
736.998623,0.000000,-1110.308913,9992.780217
736.998939,-536.266849,-518.144159,9918.759623
736.999254,0.000000,-444.123565,9992.780217
736.999570,-153.219100,-1036.288319,9844.739029
736.999886,-689.485948,-814.226536,9474.636058
737.000201,-689.485948,-962.267725,9548.656652
737.000517,0.000000,-814.226536,9770.718434
737.000833,0.000000,518.144159,9030.512492
737.001148,76.609550,-0.000000,8438.347739
737.001464,612.876398,-1036.288319,8882.471304
737.001780,0.000000,-1554.432478,9252.574275
737.002096,-919.314598,-1924.535449,9400.615463
737.002411,0.000000,-2442.679609,10436.903782
737.002727,0.000000,-962.267725,10288.862594
737.003043,0.000000,148.041188,9474.636058
737.003358,612.876398,-592.164754,9844.739029
737.003674,612.876398,-1480.411884,9474.636058
737.003990,766.095498,-1184.329507,10140.821405
737.004305,1225.752797,-592.164754,9548.656652
737.004621,1455.581446,222.061783,8808.450710
737.004937,1302.362347,1998.556043,8808.450710
737.005252,2068.457845,1258.350101,8364.327145
737.005568,2374.896044,222.061783,8808.450710
737.005884,1532.190996,296.082377,9030.512492
737.006199,1455.581446,74.020594,8882.471304
737.006515,1915.238745,-444.123565,9548.656652
737.006831,1302.362347,518.144159,9992.780217
737.007147,919.314598,814.226536,9696.697840
737.007462,1685.410096,-0.000000,9548.656652
737.007778,1072.533697,-370.102971,9770.718434
737.008094,0.000000,-222.061783,9474.636058
737.008409,0.000000,296.082377,10288.862594
737.008725,1072.533697,740.205942,9474.636058
737.009041,689.485948,1850.514855,9326.594869
737.009356,1072.533697,666.185348,8808.450710
737.009672,1072.533697,-148.041188,8660.409521
737.009988,-383.047749,-370.102971,9474.636058
737.010303,76.609550,-1332.370696,10066.800811
737.010619,1072.533697,-1406.391290,9844.739029
737.010935,689.485948,370.102971,10066.800811
737.011250,536.266849,444.123565,9548.656652
737.011566,1149.143247,-74.020594,9474.636058
737.011882,0.000000,-222.061783,9844.739029
737.012198,-383.047749,-74.020594,9622.677246
737.012513,766.095498,-370.102971,10066.800811
737.012829,766.095498,1184.329507,9030.512492
737.013145,0.000000,1258.350101,9030.512492
737.013460,612.876398,222.061783,8956.491898
737.013776,919.314598,-592.164754,9474.636058
737.014092,-306.438199,-74.020594,9844.739029
737.014407,0.000000,-0.000000,9474.636058
737.014723,-306.438199,-888.247130,10214.842000
737.015039,-612.876398,-0.000000,10436.903782
737.015354,-383.047749,148.041188,9844.739029
737.015670,0.000000,-888.247130,9992.780217
737.015986,-459.657299,-1036.288319,10362.883188
737.016301,-1225.752797,-814.226536,9992.780217
737.016617,229.828649,148.041188,9770.718434
737.016933,459.657299,1332.370696,9030.512492
737.017249,612.876398,1850.514855,8068.244768
737.017564,1225.752797,888.247130,8512.368333
737.017880,919.314598,-0.000000,8512.368333
737.018196,306.438199,-370.102971,9178.553681
737.018511,229.828649,-1184.329507,9770.718434
737.018827,612.876398,-814.226536,10066.800811
737.019143,-229.828649,148.041188,9770.718434
737.019458,76.609550,-444.123565,10066.800811
737.019774,306.438199,-1184.329507,10140.821405
737.020090,-842.705048,-888.247130,10214.842000
737.020405,-842.705048,-740.205942,9622.677246
737.020721,-229.828649,-666.185348,9770.718434
737.021037,-383.047749,370.102971,9474.636058
737.021352,0.000000,444.123565,8956.491898
737.021668,536.266849,-962.267725,9178.553681
737.021984,306.438199,-962.267725,9030.512492
737.022300,-229.828649,-1406.391290,9770.718434
737.022615,383.047749,-2294.638420,10288.862594
737.022931,1072.533697,-1184.329507,9992.780217
737.023247,919.314598,-0.000000,9252.574275
737.023562,1608.800546,-666.185348,9696.697840
737.023878,1532.190996,-1406.391290,8882.471304
737.024194,919.314598,-1184.329507,9548.656652
737.024509,1072.533697,-1406.391290,9696.697840
737.024825,1455.581446,-370.102971,9030.512492
737.025141,1455.581446,962.267725,8882.471304
737.025456,1302.362347,1110.308913,8216.285956
737.025772,1915.238745,-518.144159,8290.306550
737.026088,919.314598,-518.144159,9030.512492
737.026403,153.219100,-1110.308913,9252.574275
737.026719,612.876398,-1554.432478,10214.842000
737.027035,306.438199,-666.185348,10066.800811
737.027351,229.828649,-148.041188,9548.656652
737.027666,1149.143247,-888.247130,10214.842000
737.027982,842.705048,-666.185348,9474.636058
737.028298,76.609550,518.144159,9252.574275
737.028613,612.876398,-74.020594,9178.553681
737.028929,1225.752797,814.226536,9400.615463
737.029245,995.924147,1702.473667,8586.388927
737.029560,1378.971896,1110.308913,8660.409521
737.029876,1149.143247,-0.000000,8438.347739
737.030192,612.876398,592.164754,8290.306550
737.030507,459.657299,-296.082377,9178.553681
737.030823,689.485948,-592.164754,10214.842000
737.031139,459.657299,666.185348,9474.636058
737.031454,153.219100,666.185348,9622.677246
737.031770,689.485948,-518.144159,9918.759623
737.032086,0.000000,-592.164754,9696.697840
737.032402,-612.876398,-666.185348,10214.842000
737.032717,0.000000,-444.123565,9992.780217
737.033033,76.609550,962.267725,9400.615463
737.033349,76.609550,1702.473667,9252.574275
737.033664,689.485948,962.267725,8882.471304
737.033980,1302.362347,222.061783,9104.533087
737.034296,-842.705048,-0.000000,9178.553681
737.034611,612.876398,-592.164754,10140.821405
737.034927,842.705048,-1110.308913,10881.027347
737.035243,153.219100,1702.473667,9030.512492
737.035558,76.609550,-0.000000,8882.471304
737.035874,919.314598,-1776.494261,11473.192101
737.036190,-229.828649,-444.123565,10066.800811
737.036505,-1149.143247,-518.144159,10288.862594
737.036821,612.876398,370.102971,10214.842000
737.037137,-459.657299,1036.288319,9548.656652
737.037452,766.095498,1702.473667,8586.388927
737.037768,1225.752797,962.267725,8808.450710
737.038084,0.000000,-518.144159,9252.574275
737.038400,0.000000,-740.205942,9548.656652
737.038715,76.609550,-1332.370696,9770.718434
737.039031,153.219100,-814.226536,10362.883188
737.039347,0.000000,1110.308913,10066.800811
737.039662,76.609550,-0.000000,9030.512492
737.039978,689.485948,-740.205942,10214.842000
737.040294,-229.828649,-1184.329507,9918.759623
737.040609,-612.876398,-592.164754,9474.636058
737.040925,229.828649,-222.061783,9474.636058
737.041241,459.657299,962.267725,9030.512492
737.041556,229.828649,814.226536,8808.450710
737.041872,842.705048,-444.123565,8956.491898
737.042188,383.047749,-518.144159,8586.388927
737.042503,-612.876398,-1036.288319,9696.697840
737.042819,536.266849,-1554.432478,9696.697840
737.043135,459.657299,-0.000000,8808.450710
737.043451,612.876398,148.041188,9400.615463
737.043766,1225.752797,-962.267725,9548.656652
737.044082,842.705048,-888.247130,9178.553681
737.044398,0.000000,-370.102971,8882.471304
737.044713,689.485948,-888.247130,9548.656652
737.045029,689.485948,-0.000000,9474.636058
737.045345,766.095498,814.226536,9178.553681
737.045660,1072.533697,370.102971,8734.430116
737.045976,1685.410096,-592.164754,9474.636058
737.046292,1072.533697,-666.185348,8808.450710
737.046607,153.219100,-814.226536,9104.533087
737.046923,1225.752797,-1184.329507,9918.759623
737.047239,1532.190996,444.123565,9770.718434
737.047554,842.705048,1258.350101,9030.512492
737.047870,1302.362347,-0.000000,9474.636058
737.048186,995.924147,-1184.329507,9770.718434
737.048502,153.219100,-888.247130,9548.656652
737.048817,153.219100,-888.247130,10140.821405
737.049133,536.266849,-296.082377,10436.903782
737.049449,612.876398,1554.432478,8216.285956
737.049764,1149.143247,666.185348,9622.677246
737.050080,459.657299,-222.061783,9030.512492
737.050396,0.000000,-888.247130,9326.594869
737.050711,-153.219100,-1480.411884,10362.883188
737.051027,766.095498,-962.267725,9844.739029
737.051343,306.438199,-0.000000,9918.759623
737.051658,306.438199,148.041188,9770.718434
737.051974,766.095498,-444.123565,9400.615463
737.052290,76.609550,-1110.308913,9844.739029
737.052606,-459.657299,-148.041188,9918.759623
737.052921,612.876398,-444.123565,9104.533087
737.053237,766.095498,-0.000000,9474.636058
737.053553,383.047749,1036.288319,9474.636058
737.053868,766.095498,-148.041188,9474.636058
737.054184,1685.410096,-0.000000,9400.615463
737.054500,229.828649,444.123565,8808.450710
737.054815,0.000000,-518.144159,9918.759623
737.055131,766.095498,-0.000000,9918.759623
737.055447,0.000000,814.226536,8586.388927
737.055762,0.000000,-592.164754,10510.924376
737.056078,689.485948,-1480.411884,11177.109724
737.056394,-612.876398,-1554.432478,9474.636058
737.056710,-459.657299,-0.000000,9474.636058
737.057025,229.828649,-148.041188,9696.697840
737.057341,842.705048,1480.411884,9178.553681
737.057657,766.095498,2072.576638,8068.244768
737.057972,1225.752797,-74.020594,8808.450710
737.058288,919.314598,-888.247130,9252.574275
737.058604,-383.047749,-1332.370696,9400.615463
737.058919,153.219100,-2072.576638,9622.677246
737.059235,0.000000,-740.205942,10140.821405
737.059551,-76.609550,444.123565,9474.636058
737.059867,-229.828649,-0.000000,9326.594869
737.060182,-153.219100,-666.185348,9622.677246
737.060498,-1225.752797,-740.205942,9696.697840
737.060814,-1225.752797,-962.267725,9474.636058
737.061129,-306.438199,-666.185348,9770.718434
737.061445,0.000000,-444.123565,9696.697840
737.061761,-766.095498,-296.082377,9030.512492
737.062076,612.876398,-814.226536,8512.368333
737.062392,-229.828649,-1036.288319,9252.574275
737.062708,-536.266849,-1110.308913,9474.636058
737.063024,76.609550,-962.267725,9252.574275
737.063339,1072.533697,370.102971,9252.574275
737.063655,459.657299,962.267725,9178.553681
737.063971,1378.971896,-222.061783,9104.533087
737.064286,1072.533697,-666.185348,9400.615463
737.064602,536.266849,-444.123565,9104.533087
737.064918,612.876398,-518.144159,9474.636058
737.065233,1302.362347,518.144159,9696.697840
737.065549,842.705048,1406.391290,8956.491898
737.065865,1072.533697,740.205942,9104.533087
737.066180,1532.190996,-296.082377,9400.615463
737.066496,995.924147,-888.247130,9548.656652
737.066812,0.000000,-740.205942,10288.862594
737.067128,919.314598,-592.164754,9548.656652
737.067443,995.924147,888.247130,9696.697840
737.067759,919.314598,1184.329507,9770.718434
737.068075,919.314598,148.041188,9622.677246
737.068390,919.314598,-666.185348,9992.780217
737.068706,-383.047749,-888.247130,9992.780217
737.069022,766.095498,-1184.329507,10066.800811
737.069337,1455.581446,370.102971,10066.800811
737.069653,1302.362347,2072.576638,9178.553681
737.069969,1838.629195,888.247130,9030.512492
737.070285,1915.238745,-0.000000,9178.553681
737.070600,689.485948,-296.082377,9252.574275
737.070916,612.876398,-592.164754,9696.697840
737.071232,689.485948,-1036.288319,9770.718434
737.071547,612.876398,-0.000000,9844.739029
737.071863,536.266849,222.061783,10066.800811
737.072179,842.705048,-1036.288319,9696.697840
737.072494,0.000000,-962.267725,9622.677246
737.072810,-612.876398,-1036.288319,10066.800811
737.073126,0.000000,-888.247130,9548.656652
737.073441,306.438199,1110.308913,9178.553681
737.073757,0.000000,888.247130,9400.615463
737.074073,612.876398,-148.041188,9474.636058
737.074389,306.438199,-1184.329507,9548.656652
737.074704,-842.705048,-962.267725,9474.636058
737.075020,0.000000,-888.247130,10436.903782
737.075336,536.266849,-296.082377,9474.636058
737.075651,153.219100,1554.432478,9770.718434
737.075967,612.876398,444.123565,10362.883188
737.076283,919.314598,-666.185348,9696.697840
737.076598,153.219100,-74.020594,9548.656652
737.076914,-459.657299,-740.205942,9622.677246
737.077230,612.876398,-0.000000,8808.450710
737.077546,766.095498,1406.391290,8808.450710
737.077861,459.657299,1184.329507,8956.491898
737.078177,1302.362347,-0.000000,9030.512492
737.078493,306.438199,-1184.329507,8882.471304
737.078808,-383.047749,-1702.473667,9622.677246
737.079124,0.000000,-1554.432478,9844.739029
737.079440,536.266849,-1110.308913,9992.780217
737.079755,-153.219100,148.041188,9326.594869
737.080071,-229.828649,-0.000000,9474.636058
737.080387,229.828649,-888.247130,9622.677246
737.080703,-995.924147,-666.185348,8586.388927
737.081018,-919.314598,-962.267725,9326.594869
737.081334,306.438199,-518.144159,9548.656652
737.081650,536.266849,370.102971,8956.491898
737.081965,306.438199,-0.000000,8882.471304
737.082281,1072.533697,-1258.350101,9252.574275
737.082597,76.609550,-1258.350101,8586.388927
737.082912,-612.876398,-592.164754,8586.388927
737.083228,76.609550,-1258.350101,9992.780217
737.083544,383.047749,-370.102971,9622.677246
737.083859,0.000000,370.102971,9844.739029
737.084175,612.876398,-222.061783,9844.739029
737.084491,1149.143247,-592.164754,9030.512492
737.084807,0.000000,-222.061783,8882.471304
737.085122,612.876398,-666.185348,9474.636058
737.085438,1302.362347,-0.000000,9326.594869
737.085754,919.314598,1702.473667,8734.430116
737.086069,1072.533697,740.205942,9030.512492
737.086385,1455.581446,-370.102971,8882.471304
737.086701,612.876398,-296.082377,9474.636058
737.087016,229.828649,-296.082377,9474.636058
737.087332,766.095498,-592.164754,9918.759623
737.087648,536.266849,370.102971,9844.739029
737.087964,689.485948,370.102971,9548.656652
737.088279,1072.533697,-222.061783,10658.965565
737.088595,842.705048,-666.185348,10066.800811
737.088911,-153.219100,148.041188,9400.615463
737.089226,153.219100,222.061783,10658.965565
737.089542,1149.143247,814.226536,9548.656652
737.089858,842.705048,2220.617826,8882.471304
737.090173,1378.971896,1480.411884,8882.471304
737.090489,1378.971896,-592.164754,9400.615463
737.090805,383.047749,-1036.288319,9918.759623
737.091120,229.828649,-1110.308913,10362.883188
737.091436,689.485948,-592.164754,10066.800811
737.091752,383.047749,740.205942,9844.739029
737.092068,459.657299,666.185348,9696.697840
737.092383,1072.533697,-296.082377,10288.862594
737.092699,-689.485948,-0.000000,9252.574275
737.093015,153.219100,-592.164754,9474.636058
737.093330,383.047749,-2072.576638,10732.986159
737.093646,229.828649,1258.350101,9326.594869
737.093962,153.219100,1036.288319,8364.327145
737.094277,1378.971896,-296.082377,9622.677246
737.094593,919.314598,-74.020594,9030.512492
737.094909,-153.219100,-888.247130,9104.533087
737.095225,919.314598,-740.205942,9178.553681
737.095540,612.876398,-1258.350101,9844.739029
737.095856,459.657299,222.061783,9992.780217
737.096172,1455.581446,518.144159,9548.656652
737.096487,919.314598,-0.000000,8882.471304
737.096803,306.438199,740.205942,9178.553681
737.097119,-229.828649,-0.000000,8956.491898
737.097434,919.314598,-148.041188,8808.450710
737.097750,229.828649,1406.391290,8882.471304
737.098066,459.657299,888.247130,8660.409521
737.098382,1838.629195,-518.144159,9030.512492
737.098697,536.266849,-1702.473667,9400.615463
737.099013,-1149.143247,-1332.370696,9474.636058
737.099329,-383.047749,-1702.473667,10362.883188
737.099644,76.609550,-1110.308913,10066.800811
737.099960,-612.876398,814.226536,9178.553681
737.100276,0.000000,148.041188,9770.718434
737.100591,842.705048,-962.267725,9474.636058
737.100907,-306.438199,-740.205942,9030.512492
737.101223,-536.266849,-740.205942,9622.677246
737.101538,995.924147,-592.164754,9104.533087
737.101854,0.000000,888.247130,8438.347739
737.102170,842.705048,1110.308913,8512.368333
737.102486,1225.752797,-518.144159,8068.244768
737.102801,0.000000,-666.185348,8290.306550
737.103117,-919.314598,-1628.453072,9696.697840
737.103433,-536.266849,-2294.638420,9622.677246
737.103748,-383.047749,-962.267725,10214.842000
737.104064,-1838.629195,-370.102971,10066.800811
737.104380,-689.485948,-1406.391290,10955.047942
737.104695,-842.705048,-1776.494261,10658.965565
737.105011,-1991.848295,-1110.308913,10140.821405
737.105327,-1685.410096,-1332.370696,10140.821405
737.105643,0.000000,-592.164754,9992.780217
737.105958,459.657299,518.144159,9326.594869
737.106274,0.000000,-74.020594,9400.615463
737.106590,1915.238745,-1110.308913,9326.594869
737.106905,1302.362347,-1036.288319,9104.533087
737.107221,1072.533697,-518.144159,9474.636058
737.107537,2834.553343,-1036.288319,9474.636058
737.107852,3064.381992,-0.000000,9326.594869
737.108168,2068.457845,1184.329507,8882.471304
737.108484,2681.334243,-666.185348,9104.533087
737.108799,2681.334243,-518.144159,9400.615463
737.109115,919.314598,-0.000000,9400.615463
737.109431,383.047749,-888.247130,9844.739029
737.109747,766.095498,-814.226536,9918.759623
737.110062,0.000000,-148.041188,9326.594869
737.110378,0.000000,-666.185348,9400.615463
737.110694,383.047749,-2368.659014,9770.718434
737.111009,-612.876398,-2664.741391,9844.739029
737.111325,-1072.533697,-3404.947333,9992.780217
737.111641,-153.219100,-3330.926739,10881.027347
737.111956,76.609550,-1998.556043,10807.006753
737.112272,-1225.752797,-962.267725,9696.697840
737.112588,0.000000,-1480.411884,9178.553681
737.112904,153.219100,-1702.473667,9622.677246
737.113219,-306.438199,-1406.391290,9104.533087
737.113535,76.609550,-740.205942,9030.512492
737.113851,612.876398,-370.102971,8512.368333
737.114166,76.609550,370.102971,8068.244768
737.114482,153.219100,-0.000000,8512.368333
737.114798,842.705048,-1184.329507,8290.306550
737.115113,-536.266849,-1554.432478,8438.347739
737.115429,-2451.505594,-2368.659014,9104.533087
737.115745,-2221.676944,-3256.906145,10584.944971
737.116061,-2068.457845,-3034.844362,10732.986159
737.116376,-3217.601092,-2072.576638,10881.027347
737.116692,-3064.381992,-1776.494261,10436.903782
737.117008,-2604.724693,-2664.741391,10066.800811
737.117323,-2757.943793,-3108.864956,10140.821405
737.117639,-2681.334243,-2072.576638,10214.842000
737.117955,-2298.286494,-1406.391290,9474.636058
737.118270,-1378.971896,-814.226536,8364.327145
737.118586,-995.924147,-0.000000,8438.347739
737.118902,-612.876398,-0.000000,7550.100608
737.119217,-459.657299,-444.123565,7476.080014
737.119533,-459.657299,-1554.432478,7846.182985
737.119849,-536.266849,-2368.659014,9104.533087
737.120165,-689.485948,-2886.803174,9252.574275
737.120480,-1149.143247,-2960.823768,9474.636058
737.120796,-2068.457845,-3627.009116,10510.924376
737.121112,-2604.724693,-3108.864956,10584.944971
737.121427,-2987.772442,-2442.679609,9844.739029
737.121743,-2757.943793,-2072.576638,10214.842000
737.122059,-2451.505594,-1850.514855,10436.903782
737.122374,-2298.286494,-1332.370696,9326.594869
737.122690,-2681.334243,-1406.391290,8512.368333
737.123006,-2068.457845,-1554.432478,7846.182985
737.123322,-2451.505594,-2146.597232,8512.368333
737.123637,-2528.115143,-2220.617826,8438.347739
737.123953,-2757.943793,-2294.638420,9104.533087
737.124269,-2604.724693,-2664.741391,9326.594869
737.124584,-3140.991542,-3627.009116,9992.780217
737.124900,-3370.820191,-4441.235652,10732.986159
737.125216,-3753.867940,-4663.297435,11029.068536
737.125531,-2987.772442,-4071.132681,11251.130318
737.125847,-2757.943793,-3849.070898,11547.212695
737.126163,-2451.505594,-2072.576638,10955.047942
737.126478,-1915.238745,-0.000000,9474.636058
737.126794,-536.266849,814.226536,8512.368333
737.127110,153.219100,-0.000000,7920.203579
737.127426,995.924147,-222.061783,7254.018232
737.127741,919.314598,-148.041188,6735.874072
737.128057,1302.362347,-666.185348,7105.977043
737.128373,1302.362347,-1332.370696,8438.347739
737.128688,459.657299,-1776.494261,9252.574275
737.129004,-689.485948,-1480.411884,9104.533087
737.129320,-2068.457845,-1998.556043,9474.636058
737.129635,-2987.772442,-2664.741391,10732.986159
737.129951,-2834.553343,-3404.947333,11103.089130
737.130267,-2757.943793,-3256.906145,11843.295072
737.130583,-3064.381992,-3627.009116,11917.315666
737.130898,-2911.162892,-3256.906145,11547.212695
737.131214,-2451.505594,-2812.782580,10881.027347
737.131530,-1532.190996,-2368.659014,10658.965565
737.131845,-919.314598,-1702.473667,9918.759623
737.132161,-306.438199,-74.020594,8956.491898
737.132477,536.266849,-0.000000,7328.038826
737.132792,1762.019645,370.102971,6883.915261
737.133108,2451.505594,-222.061783,6439.791695
737.133424,2681.334243,-962.267725,7105.977043
737.133740,1685.410096,-2368.659014,7920.203579
737.134055,306.438199,-3256.906145,8956.491898
737.134371,-689.485948,-3330.926739,9992.780217
737.134687,-1915.238745,-2590.720797,10732.986159
737.135002,-2681.334243,-2516.700203,11103.089130
737.135318,-3447.429741,-2294.638420,11251.130318
737.135634,-4060.306139,-2442.679609,10881.027347
737.135949,-4443.353888,-2516.700203,10436.903782
737.136265,-3524.039291,-1998.556043,10436.903782
737.136581,-3294.210641,-2590.720797,9104.533087
737.136896,-2757.943793,-3034.844362,8956.491898
737.137212,-2451.505594,-3775.050304,9104.533087
737.137528,-2757.943793,-4515.256246,9252.574275
737.137844,-2681.334243,-4367.215058,10214.842000
737.138159,-2834.553343,-3923.091493,10066.800811
737.138475,-2451.505594,-2960.823768,10362.883188
737.138791,-1838.629195,-2146.597232,9918.759623
737.139106,-995.924147,-1554.432478,9252.574275
737.139422,-459.657299,-888.247130,8808.450710
737.139738,-383.047749,-222.061783,8512.368333
737.140053,-306.438199,-0.000000,7624.121203
737.140369,76.609550,-74.020594,7105.977043
737.140685,995.924147,-518.144159,7402.059420
737.141001,-766.095498,-1702.473667,8216.285956
737.141316,-1685.410096,-2886.803174,8364.327145
737.141632,-2451.505594,-3849.070898,9104.533087
737.141948,-2834.553343,-4515.256246,9918.759623
737.142263,-3294.210641,-4589.276840,10732.986159
737.142579,-4443.353888,-3997.112087,11103.089130
737.142895,-4749.792088,-4219.173869,11695.253884
737.143210,-4903.011187,-3627.009116,11695.253884
737.143526,-4749.792088,-3330.926739,11325.150913
737.143842,-4213.525239,-2294.638420,10658.965565
737.144157,-3064.381992,-1184.329507,9696.697840
737.144473,-1838.629195,-1258.350101,9104.533087
737.144789,-459.657299,-666.185348,8512.368333
737.145105,536.266849,-148.041188,7179.997637
737.145420,1378.971896,-444.123565,6365.771101
737.145736,1915.238745,-444.123565,6143.709319
737.146052,1838.629195,-592.164754,6291.750507
737.146367,1378.971896,-1258.350101,6957.935855
737.146683,153.219100,-2220.617826,8364.327145
737.146999,-1225.752797,-3330.926739,9992.780217
737.147314,-2987.772442,-4663.297435,11177.109724
737.147630,-4443.353888,-5477.523971,12435.459826
737.147946,-5056.230287,-5551.544565,13175.665768
737.148262,-5515.887586,-4959.379811,13619.789333
737.148577,-5286.058936,-4071.132681,12953.603985
737.148893,-4290.134789,-2590.720797,11991.336260
737.149209,-3064.381992,-1258.350101,10362.883188
737.149524,-1378.971896,-740.205942,8882.471304
737.149840,995.924147,-370.102971,7920.203579
737.150156,1991.848295,-296.082377,6735.874072
737.150471,3217.601092,-0.000000,6069.688724
737.150787,3677.258390,-0.000000,5625.565159
737.151103,3600.648841,-370.102971,5995.668130
737.151419,2604.724693,-1480.411884,7328.038826
737.151734,1532.190996,-1998.556043,8734.430116
737.152050,-306.438199,-2590.720797,9918.759623
737.152366,-1838.629195,-2960.823768,11103.089130
737.152681,-3140.991542,-2664.741391,11695.253884
737.152997,-4136.915689,-2516.700203,12213.398043
737.153313,-4443.353888,-2146.597232,12213.398043
737.153628,-4519.963438,-1850.514855,11399.171507
737.153944,-4443.353888,-2368.659014,11029.068536
737.154260,-3753.867940,-2368.659014,10140.821405
737.154575,-3447.429741,-2886.803174,9622.677246
737.154891,-2987.772442,-2738.761985,8956.491898
737.155207,-1838.629195,-2368.659014,8586.388927
737.155523,-1532.190996,-2146.597232,7994.224174
737.155838,-1149.143247,-1998.556043,8142.265362
737.156154,-842.705048,-2442.679609,8364.327145
737.156470,-995.924147,-2516.700203,9252.574275
737.156785,-689.485948,-2442.679609,9622.677246
737.157101,-1072.533697,-1850.514855,9622.677246
737.157417,-1149.143247,-1184.329507,9622.677246
737.157732,-1225.752797,-1036.288319,9548.656652
737.158048,-919.314598,-1184.329507,9696.697840
737.158364,-1225.752797,-1406.391290,9474.636058
737.158680,-1072.533697,-1924.535449,9326.594869
737.158995,-842.705048,-2368.659014,9326.594869
737.159311,-842.705048,-2664.741391,8882.471304
737.159627,-612.876398,-2960.823768,9178.553681
737.159942,-1072.533697,-3552.988522,9030.512492
737.160258,-1991.848295,-2738.761985,9178.553681
737.160574,-1762.019645,-3627.009116,9622.677246
737.160889,-1532.190996,-3775.050304,9992.780217
737.161205,-1991.848295,-2664.741391,9844.739029
737.161521,-1762.019645,-2442.679609,10140.821405
737.161837,-1302.362347,-1628.453072,10140.821405
737.162152,-995.924147,-1110.308913,9696.697840
737.162468,-383.047749,-740.205942,8956.491898
737.162784,612.876398,-370.102971,8808.450710
737.163099,995.924147,-1036.288319,8290.306550
737.163415,1225.752797,-1110.308913,8068.244768
737.163731,1378.971896,-962.267725,7550.100608
737.164046,766.095498,-1406.391290,7772.162391
737.164362,76.609550,-1554.432478,8364.327145
737.164678,-536.266849,-2368.659014,8956.491898
737.164994,-1455.581446,-2590.720797,9918.759623
737.165309,-2604.724693,-2442.679609,10362.883188
737.165625,-3524.039291,-2072.576638,10584.944971
737.165941,-3830.477490,-1480.411884,10881.027347
737.166256,-4136.915689,-1110.308913,10584.944971
737.166572,-3753.867940,-296.082377,10436.903782
737.166888,-2834.553343,-148.041188,10214.842000
737.167203,-2374.896044,-888.247130,9474.636058
737.167519,-1532.190996,-1406.391290,9326.594869
737.167835,-995.924147,-1332.370696,9252.574275
737.168150,-689.485948,-1480.411884,8734.430116
737.168466,-459.657299,-1258.350101,8438.347739
737.168782,-459.657299,-1258.350101,8956.491898
737.169098,-766.095498,-1554.432478,9104.533087
737.169413,-766.095498,-2072.576638,9326.594869
737.169729,-1915.238745,-2442.679609,9622.677246
737.170045,-1915.238745,-2368.659014,9992.780217
737.170360,-2834.553343,-2516.700203,10658.965565
737.170676,-3524.039291,-2590.720797,10807.006753
737.170992,-3830.477490,-2738.761985,11251.130318
737.171307,-3907.087040,-2664.741391,10807.006753
737.171623,-4213.525239,-3404.947333,10510.924376
737.171939,-3753.867940,-3701.029710,10510.924376
737.172255,-3447.429741,-4293.194464,9992.780217
737.172570,-3064.381992,-4219.173869,9918.759623
737.172886,-2221.676944,-3923.091493,9326.594869
737.173202,-1915.238745,-3849.070898,8882.471304
737.173517,-1532.190996,-3775.050304,8882.471304
737.173833,-1685.410096,-4145.153275,9252.574275
737.174149,-1378.971896,-3849.070898,9252.574275
737.174464,-1762.019645,-4071.132681,9474.636058
737.174780,-1838.629195,-3775.050304,9474.636058
737.175096,-1762.019645,-3627.009116,9622.677246
737.175412,-1532.190996,-3552.988522,10066.800811
737.175727,-1302.362347,-3627.009116,9400.615463
737.176043,-1378.971896,-3404.947333,9252.574275
737.176359,-1762.019645,-2886.803174,9252.574275
737.176674,-766.095498,-2738.761985,8808.450710
737.176990,-536.266849,-2738.761985,8142.265362
737.177306,-459.657299,-2368.659014,7846.182985
737.177621,-536.266849,-2220.617826,7476.080014
737.177937,-383.047749,-2368.659014,7698.141797
737.178253,-536.266849,-2516.700203,7550.100608
737.178568,-1072.533697,-2590.720797,7920.203579
737.178884,-1991.848295,-3404.947333,8438.347739
737.179200,-2604.724693,-3849.070898,9400.615463
737.179516,-2911.162892,-3552.988522,9844.739029
737.179831,-3064.381992,-3404.947333,10288.862594
737.180147,-3217.601092,-3627.009116,10732.986159
737.180463,-3140.991542,-3182.885551,10066.800811
737.180778,-2757.943793,-3330.926739,10881.027347
737.181094,-1915.238745,-3108.864956,10214.842000
737.181410,-1225.752797,-2442.679609,9326.594869
737.181725,0.000000,-1406.391290,9030.512492
737.182041,842.705048,-444.123565,7624.121203
737.182357,1378.971896,-0.000000,7402.059420
737.182673,1838.629195,1258.350101,6587.832884
737.182988,2145.067394,740.205942,6365.771101
737.183304,1532.190996,444.123565,6957.935855
737.183620,995.924147,-592.164754,7254.018232
737.183935,0.000000,-1406.391290,8216.285956
737.184251,-1378.971896,-2368.659014,9696.697840
737.184567,-2451.505594,-3701.029710,11325.150913
737.184882,-3217.601092,-4959.379811,12805.562797
737.185198,-4290.134789,-4515.256246,13249.686362
737.185514,-4519.963438,-4219.173869,13619.789333
737.185830,-4443.353888,-3478.967927,13323.706956
737.186145,-3753.867940,-2072.576638,12287.418637
737.186461,-2374.896044,-814.226536,10288.862594
737.186777,-689.485948,444.123565,9252.574275
737.187092,229.828649,962.267725,7328.038826
737.187408,1149.143247,1332.370696,6735.874072
737.187724,1378.971896,1036.288319,5995.668130
737.188039,995.924147,592.164754,6291.750507
737.188355,842.705048,-370.102971,7402.059420
737.188671,0.000000,-1850.514855,8808.450710
737.188987,-1608.800546,-2886.803174,10436.903782
737.189302,-3294.210641,-3775.050304,12287.418637
737.189618,-4519.963438,-4219.173869,13323.706956
737.189934,-4979.620737,-3849.070898,13619.789333
737.190249,-5132.839837,-2442.679609,13175.665768
737.190565,-4903.011187,-2146.597232,11769.274478
737.190881,-4290.134789,-592.164754,11769.274478
737.191196,-4136.915689,-518.144159,9548.656652
737.191512,-3064.381992,-370.102971,8586.388927
737.191828,-1608.800546,-962.267725,8290.306550
737.192143,-536.266849,-1554.432478,8512.368333
737.192459,-1072.533697,-1776.494261,8216.285956
737.192775,-612.876398,-1480.411884,7994.224174
737.193091,-842.705048,-1850.514855,7994.224174
737.193406,-689.485948,-1628.453072,8882.471304
737.193722,-1302.362347,-1924.535449,9104.533087
737.194038,-2068.457845,-2072.576638,9622.677246
737.194353,-1915.238745,-2368.659014,10214.842000
737.194669,-2298.286494,-3182.885551,10362.883188
737.194985,-2681.334243,-3552.988522,11325.150913
737.195300,-3140.991542,-3478.967927,11177.109724
737.195616,-3140.991542,-2886.803174,10362.883188
737.195932,-2451.505594,-3182.885551,10140.821405
737.196248,-1455.581446,-2886.803174,9770.718434
737.196563,-1302.362347,-2368.659014,7698.141797
737.196879,-766.095498,-2442.679609,7476.080014
737.197195,229.828649,-3108.864956,7105.977043
737.197510,612.876398,-4071.132681,7476.080014
737.197826,536.266849,-4071.132681,8142.265362
737.198142,-612.876398,-4219.173869,8734.430116
737.198457,-1378.971896,-4367.215058,9474.636058
737.198773,-1302.362347,-4071.132681,9992.780217
737.199089,-1838.629195,-3108.864956,9474.636058
737.199405,-1838.629195,-1406.391290,9326.594869
737.199720,-995.924147,-1036.288319,9252.574275
737.200036,-306.438199,-1776.494261,8956.491898
737.200352,229.828649,-1850.514855,8512.368333
737.200667,0.000000,-1702.473667,7328.038826
737.200983,-153.219100,-1776.494261,7772.162391
737.201299,-76.609550,-2368.659014,7772.162391
737.201614,-919.314598,-2664.741391,8512.368333
737.201930,-1685.410096,-2516.700203,8734.430116
737.202246,-2145.067394,-3256.906145,9696.697840
737.202561,-2681.334243,-3849.070898,10510.924376
737.202877,-3370.820191,-3775.050304,10362.883188
737.203193,-3370.820191,-2812.782580,10807.006753
737.203509,-3294.210641,-1702.473667,10658.965565
737.203824,-2451.505594,-0.000000,10288.862594
737.204140,-2528.115143,592.164754,10140.821405
