#time,accel_x,accel_y,accel_z
943.534408,-995.924147,296.082377,9992.780217
943.534724,-612.876398,1036.288319,9992.780217
943.535040,-229.828649,888.247130,9918.759623
943.535356,0.000000,1184.329507,9696.697840
943.535672,0.000000,1924.535449,9474.636058
943.535988,383.047749,1628.453072,9326.594869
943.536304,995.924147,1554.432478,9178.553681
943.536620,1072.533697,1850.514855,8956.491898
943.536935,1149.143247,1258.350101,9326.594869
943.537251,1378.971896,666.185348,9548.656652
943.537567,919.314598,444.123565,9770.718434
943.537883,1072.533697,1110.308913,9770.718434
943.538199,919.314598,1184.329507,9696.697840
943.538515,689.485948,1406.391290,9696.697840
943.538831,995.924147,1036.288319,9918.759623
943.539147,612.876398,1258.350101,9548.656652
943.539462,229.828649,1554.432478,9252.574275
943.539778,-229.828649,1628.453072,9474.636058
943.540094,-612.876398,1480.411884,8956.491898
943.540410,-995.924147,1258.350101,9326.594869
943.540726,-1302.362347,1332.370696,9178.553681
943.541042,-2068.457845,1332.370696,9400.615463
943.541358,-2374.896044,814.226536,9474.636058
943.541674,-2834.553343,592.164754,9474.636058
943.541989,-3140.991542,666.185348,9696.697840
943.542305,-3140.991542,444.123565,9696.697840
943.542621,-3447.429741,370.102971,9622.677246
943.542937,-3677.258390,1110.308913,9696.697840
943.543253,-3600.648841,888.247130,9548.656652
943.543569,-3677.258390,1258.350101,9104.533087
943.543885,-3830.477490,1332.370696,9326.594869
943.544200,-3677.258390,1258.350101,9104.533087
943.544516,-3447.429741,1110.308913,9030.512492
943.544832,-3370.820191,962.267725,8956.491898
943.545148,-3294.210641,592.164754,9252.574275
943.545464,-2911.162892,592.164754,9252.574275
943.545780,-2911.162892,518.144159,9326.594869
943.546096,-2834.553343,888.247130,9252.574275
943.546412,-2298.286494,1036.288319,9178.553681
943.546727,-2298.286494,1628.453072,9030.512492
943.547043,-2298.286494,1776.494261,8882.471304
943.547359,-2068.457845,1924.535449,8808.450710
943.547675,-1838.629195,2146.597232,8956.491898
943.547991,-1991.848295,2072.576638,9474.636058
943.548307,-1762.019645,1998.556043,9178.553681
943.548623,-1915.238745,1480.411884,9474.636058
943.548939,-1608.800546,1258.350101,9770.718434
943.549254,-1225.752797,1184.329507,9622.677246
943.549570,-995.924147,1110.308913,9622.677246
943.549886,-383.047749,1110.308913,9770.718434
943.550202,76.609550,1110.308913,9622.677246
943.550518,306.438199,1258.350101,9622.677246
943.550834,842.705048,1480.411884,9770.718434
943.551150,995.924147,1628.453072,9548.656652
943.551466,1225.752797,1850.514855,9548.656652
943.551781,1762.019645,1850.514855,9252.574275
943.552097,1838.629195,2072.576638,9326.594869
943.552413,1685.410096,1628.453072,9474.636058
943.552729,1762.019645,1332.370696,9104.533087
943.553045,1762.019645,1036.288319,9326.594869
943.553361,2068.457845,1184.329507,9770.718434
943.553677,1225.752797,592.164754,10140.821405
943.553992,1225.752797,-74.020594,10436.903782
943.554308,919.314598,-148.041188,10881.027347
943.554624,766.095498,-666.185348,10881.027347
943.554940,1072.533697,-962.267725,10955.047942
943.555256,1302.362347,-1332.370696,10881.027347
943.555572,1455.581446,-1184.329507,10732.986159
943.555888,1762.019645,-1036.288319,10658.965565
943.556204,2145.067394,-962.267725,10288.862594
943.556519,2221.676944,-370.102971,9844.739029
943.556835,2604.724693,-222.061783,9326.594869
943.557151,2451.505594,-0.000000,9030.512492
943.557467,2451.505594,296.082377,8956.491898
943.557783,2374.896044,296.082377,8808.450710
943.558099,2068.457845,-0.000000,8512.368333
943.558415,1685.410096,-74.020594,8808.450710
943.558731,842.705048,-814.226536,8956.491898
943.559046,766.095498,-1406.391290,9474.636058
943.559362,76.609550,-2368.659014,9992.780217
943.559678,153.219100,-2590.720797,10066.800811
943.559992,-153.219100,-3182.885551,10140.821405
943.560308,76.609550,-2960.823768,10362.883188
943.560624,153.219100,-2368.659014,10214.842000
943.560940,612.876398,-1924.535449,9770.718434
943.561256,1225.752797,-1184.329507,8956.491898
943.561572,1685.410096,-222.061783,8290.306550
943.561888,1838.629195,148.041188,7772.162391
943.562204,2221.676944,370.102971,7476.080014
943.562520,2221.676944,666.185348,7105.977043
943.562835,1762.019645,296.082377,7179.997637
943.563151,1685.410096,-0.000000,7550.100608
943.563467,229.828649,-222.061783,8290.306550
943.563783,-229.828649,-1110.308913,8734.430116
943.564099,-1072.533697,-1702.473667,9252.574275
943.564415,-1838.629195,-2146.597232,9844.739029
943.564731,-2681.334243,-1924.535449,10436.903782
943.565047,-2451.505594,-2294.638420,10510.924376
943.565363,-2451.505594,-2146.597232,10510.924376
943.565678,-2221.676944,-1702.473667,10140.821405
943.565994,-1838.629195,-888.247130,9548.656652
943.566310,-1302.362347,-518.144159,9030.512492
943.566626,-1072.533697,222.061783,8512.368333
943.566942,-919.314598,518.144159,8216.285956
943.567258,-612.876398,888.247130,8142.265362
943.567574,-612.876398,1036.288319,8512.368333
943.567890,-766.095498,518.144159,8808.450710
943.568205,-842.705048,-74.020594,9474.636058
943.568521,-1149.143247,-592.164754,9992.780217
943.568837,-1225.752797,-962.267725,10214.842000
943.569153,-1072.533697,-888.247130,10658.965565
943.569469,-689.485948,-1110.308913,11251.130318
943.569785,-459.657299,-666.185348,11029.068536
943.570101,0.000000,-222.061783,10658.965565
943.570417,306.438199,222.061783,10288.862594
943.570733,842.705048,518.144159,9696.697840
943.571048,1838.629195,666.185348,9474.636058
943.571364,2068.457845,1776.494261,9030.512492
943.571680,2757.943793,2220.617826,8882.471304
943.571996,2604.724693,2146.597232,8882.471304
943.572312,1915.238745,1998.556043,9178.553681
943.572628,2451.505594,1628.453072,9918.759623
943.572944,2298.286494,1258.350101,10140.821405
943.573260,1991.848295,814.226536,10436.903782
943.573576,1378.971896,666.185348,10584.944971
943.573891,1455.581446,148.041188,10807.006753
943.574207,1685.410096,740.205942,10881.027347
943.574523,1838.629195,962.267725,10214.842000
943.574839,1915.238745,1406.391290,9918.759623
943.575155,2068.457845,1924.535449,9548.656652
943.575471,2681.334243,1776.494261,9400.615463
943.575787,2451.505594,2368.659014,8882.471304
943.576103,2145.067394,2516.700203,8660.409521
943.576418,1838.629195,2146.597232,8882.471304
943.576734,1685.410096,1332.370696,9326.594869
943.577050,1225.752797,370.102971,9770.718434
943.577366,1072.533697,-0.000000,10362.883188
943.577682,612.876398,-518.144159,10436.903782
943.577998,0.000000,-814.226536,10732.986159
943.578314,76.609550,-1110.308913,11029.068536
943.578630,153.219100,-1036.288319,10881.027347
943.578946,536.266849,-888.247130,10140.821405
943.579261,612.876398,-814.226536,9474.636058
943.579577,995.924147,-592.164754,9252.574275
943.579893,1685.410096,-518.144159,8364.327145
943.580209,1838.629195,-0.000000,8512.368333
943.580525,1455.581446,444.123565,8364.327145
943.580841,1455.581446,444.123565,8068.244768
943.581157,842.705048,-222.061783,8512.368333
943.581473,612.876398,-888.247130,9400.615463
943.581789,0.000000,-1702.473667,9326.594869
943.582104,-536.266849,-2220.617826,9770.718434
943.582420,-1302.362347,-2516.700203,10140.821405
943.582736,-1378.971896,-2812.782580,10362.883188
943.583052,-1762.019645,-2664.741391,10362.883188
943.583368,-1685.410096,-2368.659014,9844.739029
943.583684,-1455.581446,-1850.514855,9400.615463
943.584000,-1302.362347,-1554.432478,8808.450710
943.584316,-612.876398,-962.267725,8586.388927
943.584631,0.000000,-518.144159,7994.224174
943.584947,-153.219100,-0.000000,7772.162391
943.585263,0.000000,-0.000000,7550.100608
943.585579,-383.047749,-0.000000,8142.265362
943.585895,-306.438199,-1036.288319,8660.409521
943.586211,-536.266849,-1110.308913,8808.450710
943.586527,-995.924147,-1258.350101,9178.553681
943.586843,-995.924147,-1628.453072,9548.656652
943.587159,-689.485948,-1850.514855,9992.780217
943.587474,-689.485948,-1628.453072,9992.780217
943.587790,-383.047749,-1332.370696,9770.718434
943.588106,0.000000,-1036.288319,9548.656652
943.588422,383.047749,-814.226536,9326.594869
943.588738,1072.533697,-222.061783,8808.450710
943.589054,1532.190996,148.041188,8882.471304
943.589370,1838.629195,592.164754,8586.388927
943.589686,1991.848295,814.226536,8364.327145
943.590002,1608.800546,444.123565,8586.388927
943.590317,1838.629195,-222.061783,9326.594869
943.590633,919.314598,-222.061783,9696.697840
943.590949,689.485948,-296.082377,9918.759623
943.591265,306.438199,-888.247130,10288.862594
943.591581,0.000000,-962.267725,10584.944971
943.591897,76.609550,-1110.308913,10807.006753
943.592213,0.000000,-740.205942,10658.965565
943.592529,0.000000,-444.123565,10510.924376
943.592844,76.609550,-222.061783,9918.759623
943.593160,459.657299,148.041188,10066.800811
943.593476,1302.362347,518.144159,9474.636058
943.593792,995.924147,962.267725,9326.594869
943.594108,1149.143247,1480.411884,9400.615463
943.594424,995.924147,1184.329507,9326.594869
943.594740,1149.143247,962.267725,9622.677246
943.595056,1072.533697,518.144159,9548.656652
943.595372,766.095498,592.164754,9992.780217
943.595687,766.095498,444.123565,10288.862594
943.596003,689.485948,148.041188,10658.965565
943.596319,766.095498,444.123565,10658.965565
943.596635,919.314598,518.144159,10510.924376
943.596951,1072.533697,592.164754,10066.800811
943.597267,1149.143247,962.267725,9622.677246
943.597583,1378.971896,1110.308913,9474.636058
943.597899,1838.629195,1332.370696,9178.553681
943.598215,2068.457845,1850.514855,8956.491898
943.598530,1762.019645,1850.514855,8660.409521
943.598846,1455.581446,1998.556043,8882.471304
943.599162,1455.581446,962.267725,9326.594869
943.599478,766.095498,666.185348,9178.553681
943.599794,306.438199,-0.000000,9918.759623
943.600110,-306.438199,-444.123565,9770.718434
943.600426,-612.876398,-518.144159,10510.924376
943.600742,-612.876398,-592.164754,10436.903782
943.601057,-919.314598,-814.226536,9844.739029
943.601373,-919.314598,-0.000000,9548.656652
943.601689,-612.876398,-0.000000,9252.574275
943.602005,-459.657299,222.061783,9030.512492
943.602321,-229.828649,296.082377,8660.409521
943.602637,-229.828649,148.041188,8364.327145
943.602953,-229.828649,444.123565,8438.347739
943.603269,-383.047749,296.082377,8734.430116
943.603585,-612.876398,-518.144159,9030.512492
943.603900,-919.314598,-1184.329507,9400.615463
943.604216,-1072.533697,-1480.411884,9770.718434
943.604532,-1608.800546,-1702.473667,9918.759623
943.604848,-1762.019645,-2072.576638,10214.842000
943.605164,-1302.362347,-1776.494261,10288.862594
943.605480,-1072.533697,-1776.494261,9918.759623
943.605796,-919.314598,-1554.432478,9548.656652
943.606112,-153.219100,-1036.288319,9104.533087
943.606428,0.000000,-1258.350101,8956.491898
943.606743,689.485948,-740.205942,8586.388927
943.607059,1225.752797,-370.102971,8290.306550
943.607375,1072.533697,-0.000000,8142.265362
943.607691,1455.581446,-148.041188,8290.306550
943.608007,1149.143247,-666.185348,8734.430116
943.608323,995.924147,-740.205942,8956.491898
943.608639,842.705048,-962.267725,9030.512492
943.608955,153.219100,-962.267725,9622.677246
943.609270,76.609550,-1184.329507,9622.677246
943.609586,0.000000,-1110.308913,9918.759623
943.609902,0.000000,-962.267725,10066.800811
943.610218,0.000000,-888.247130,9770.718434
943.610534,0.000000,-814.226536,9770.718434
943.610850,536.266849,-518.144159,9548.656652
943.611166,766.095498,-296.082377,9326.594869
943.611482,1149.143247,370.102971,9104.533087
943.611798,1378.971896,518.144159,9178.553681
943.612113,1302.362347,296.082377,9400.615463
943.612429,1608.800546,-0.000000,9178.553681
943.612745,1532.190996,-148.041188,9548.656652
943.613061,1378.971896,-148.041188,9548.656652
943.613377,1608.800546,-592.164754,10066.800811
943.613693,1455.581446,-740.205942,10362.883188
943.614009,1608.800546,-888.247130,10288.862594
943.614325,1685.410096,-666.185348,10214.842000
943.614641,1685.410096,-444.123565,9844.739029
943.614956,1762.019645,-444.123565,9622.677246
943.615272,2298.286494,-222.061783,9326.594869
943.615588,2451.505594,-74.020594,9252.574275
943.615904,2068.457845,370.102971,9252.574275
943.616220,1991.848295,518.144159,8956.491898
943.616536,1532.190996,222.061783,9104.533087
943.616852,1455.581446,-296.082377,9326.594869
943.617168,1072.533697,-444.123565,9622.677246
943.617483,383.047749,-814.226536,9992.780217
943.617799,0.000000,-740.205942,10288.862594
943.618115,-229.828649,-962.267725,10584.944971
943.618431,0.000000,-1110.308913,10362.883188
943.618747,-383.047749,-740.205942,10214.842000
943.619063,-459.657299,-222.061783,9770.718434
943.619379,0.000000,148.041188,9400.615463
943.619695,0.000000,-0.000000,9104.533087
943.620011,153.219100,666.185348,8734.430116
943.620326,306.438199,888.247130,8734.430116
943.620642,153.219100,1110.308913,8512.368333
943.620958,0.000000,814.226536,8586.388927
943.621274,0.000000,518.144159,9030.512492
943.621590,0.000000,-0.000000,9252.574275
943.621906,-536.266849,-0.000000,9696.697840
943.622222,-842.705048,-222.061783,9918.759623
943.622538,-689.485948,-740.205942,10140.821405
943.622854,-689.485948,-518.144159,10140.821405
943.623169,-383.047749,-222.061783,9918.759623
943.623485,0.000000,-74.020594,9622.677246
943.623801,0.000000,222.061783,9400.615463
943.624117,459.657299,222.061783,9252.574275
943.624433,919.314598,666.185348,8882.471304
943.624749,919.314598,666.185348,8660.409521
943.625065,1225.752797,814.226536,8438.347739
943.625381,1149.143247,666.185348,8808.450710
943.625696,1302.362347,370.102971,9030.512492
943.626012,766.095498,-0.000000,9252.574275
943.626328,536.266849,-0.000000,9400.615463
943.626644,0.000000,-296.082377,9696.697840
943.626960,-229.828649,-296.082377,10066.800811
943.627276,-689.485948,-518.144159,10140.821405
943.627592,-459.657299,-444.123565,9992.780217
943.627908,-383.047749,-444.123565,9770.718434
943.628224,-383.047749,-370.102971,9770.718434
943.628539,-459.657299,-148.041188,9548.656652
943.628855,0.000000,-0.000000,9474.636058
943.629171,0.000000,370.102971,9326.594869
943.629487,229.828649,666.185348,9252.574275
943.629803,229.828649,296.082377,9400.615463
943.630119,612.876398,-148.041188,9696.697840
943.630435,459.657299,-518.144159,9548.656652
943.630751,306.438199,-444.123565,9844.739029
943.631067,153.219100,-444.123565,10140.821405
943.631382,612.876398,-296.082377,9992.780217
943.631698,766.095498,-814.226536,10436.903782
943.632014,919.314598,-740.205942,9844.739029
943.632330,1072.533697,-296.082377,9844.739029
943.632646,1685.410096,-0.000000,9400.615463
943.632962,1455.581446,-0.000000,9252.574275
943.633278,2068.457845,222.061783,8882.471304
943.633594,2221.676944,370.102971,8808.450710
943.633909,1838.629195,518.144159,8734.430116
943.634225,1838.629195,-0.000000,8660.409521
943.634541,1762.019645,-296.082377,9326.594869
943.634857,919.314598,-592.164754,9844.739029
943.635173,459.657299,-962.267725,9696.697840
943.635489,76.609550,-1036.288319,10214.842000
943.635805,0.000000,-1406.391290,10436.903782
943.636121,76.609550,-1332.370696,10584.944971
943.636437,383.047749,-888.247130,10288.862594
943.636752,76.609550,-814.226536,9622.677246
943.637068,229.828649,-592.164754,9400.615463
943.637384,536.266849,-296.082377,9104.533087
943.637700,919.314598,-0.000000,9030.512492
943.638016,919.314598,592.164754,8438.347739
943.638332,612.876398,518.144159,8512.368333
943.638648,766.095498,148.041188,8660.409521
943.638964,459.657299,-148.041188,8882.471304
943.639280,383.047749,-518.144159,9178.553681
943.639595,0.000000,-814.226536,9548.656652
943.639911,-536.266849,-1036.288319,9696.697840
943.640227,-459.657299,-1406.391290,9918.759623
943.640543,-459.657299,-1036.288319,10436.903782
943.640859,-306.438199,-1258.350101,10214.842000
943.641175,0.000000,-666.185348,9770.718434
943.641491,-229.828649,-296.082377,9326.594869
943.641807,229.828649,-296.082377,9104.533087
943.642122,459.657299,-0.000000,8660.409521
943.642438,766.095498,296.082377,8512.368333
943.642754,689.485948,592.164754,8586.388927
943.643070,689.485948,370.102971,8364.327145
943.643386,536.266849,-0.000000,8808.450710
943.643702,306.438199,-74.020594,9030.512492
943.644018,153.219100,-370.102971,9474.636058
943.644334,-383.047749,-222.061783,9474.636058
943.644650,-536.266849,-222.061783,9770.718434
943.644965,-842.705048,-296.082377,10066.800811
943.645281,-842.705048,-148.041188,9918.759623
943.645597,-919.314598,-74.020594,9844.739029
943.645913,-766.095498,148.041188,9622.677246
943.646229,-612.876398,222.061783,9474.636058
943.646545,-229.828649,592.164754,9326.594869
943.646861,-229.828649,518.144159,9326.594869
943.647177,-153.219100,1110.308913,9326.594869
943.647493,153.219100,1036.288319,9474.636058
943.647808,0.000000,592.164754,9696.697840
943.648124,76.609550,222.061783,9696.697840
943.648440,459.657299,74.020594,9918.759623
943.648756,229.828649,-0.000000,10140.821405
943.649072,229.828649,-148.041188,10436.903782
943.649388,689.485948,-74.020594,10510.924376
943.649704,995.924147,-0.000000,9992.780217
943.650020,1532.190996,-0.000000,9844.739029
943.650335,1225.752797,296.082377,9474.636058
943.650651,1685.410096,444.123565,9252.574275
943.650967,1915.238745,666.185348,9030.512492
943.651283,2068.457845,814.226536,8734.430116
943.651599,1762.019645,740.205942,8734.430116
943.651915,1608.800546,518.144159,9252.574275
943.652231,1455.581446,-0.000000,9474.636058
943.652547,612.876398,-518.144159,9770.718434
943.652863,229.828649,-740.205942,10214.842000
943.653178,0.000000,-1110.308913,10288.862594
943.653494,-229.828649,-1258.350101,10510.924376
943.653810,-229.828649,-1184.329507,10436.903782
943.654126,-229.828649,-592.164754,10066.800811
943.654442,76.609550,-296.082377,9770.718434
943.654758,153.219100,-444.123565,9548.656652
943.655074,689.485948,-0.000000,9178.553681
943.655390,919.314598,444.123565,8734.430116
943.655706,1072.533697,296.082377,8512.368333
943.656021,1149.143247,222.061783,8660.409521
943.656337,536.266849,444.123565,8512.368333
943.656653,842.705048,222.061783,9178.553681
943.656969,229.828649,-296.082377,9326.594869
943.657285,0.000000,-592.164754,9696.697840
943.657601,-306.438199,-1110.308913,9918.759623
943.657917,-306.438199,-1258.350101,10140.821405
943.658233,-306.438199,-1554.432478,10140.821405
943.658548,-229.828649,-1406.391290,9992.780217
943.658864,76.609550,-1184.329507,9770.718434
943.659180,766.095498,-1110.308913,9252.574275
943.659496,842.705048,-814.226536,8808.450710
943.659812,995.924147,-444.123565,8808.450710
943.660128,1608.800546,-0.000000,8438.347739
943.660444,1762.019645,-0.000000,8216.285956
943.660760,1072.533697,-370.102971,8438.347739
943.661075,1302.362347,-444.123565,8734.430116
943.661391,1149.143247,-592.164754,8882.471304
943.661707,919.314598,-962.267725,9178.553681
943.662022,229.828649,-1184.329507,9326.594869
943.662338,383.047749,-1258.350101,9918.759623
943.662654,-306.438199,-1480.411884,9918.759623
943.662969,0.000000,-1036.288319,9770.718434
943.663285,-459.657299,-962.267725,9622.677246
943.663601,-306.438199,-740.205942,9326.594869
943.663916,-153.219100,-740.205942,9400.615463
943.664232,0.000000,-370.102971,9104.533087
943.664548,229.828649,296.082377,8956.491898
943.664863,76.609550,222.061783,9030.512492
943.665179,459.657299,-222.061783,9104.533087
943.665495,306.438199,-518.144159,9178.553681
943.665810,76.609550,-518.144159,9548.656652
943.666126,0.000000,-592.164754,9770.718434
943.666442,0.000000,-666.185348,10066.800811
943.666757,766.095498,-592.164754,10214.842000
943.667073,153.219100,-666.185348,10288.862594
943.667389,689.485948,-370.102971,10140.821405
943.667704,842.705048,-0.000000,9844.739029
943.668020,1149.143247,148.041188,9474.636058
943.668336,1378.971896,222.061783,9326.594869
943.668651,1762.019645,740.205942,8882.471304
943.668967,1685.410096,1184.329507,8882.471304
943.669283,1762.019645,1036.288319,8882.471304
943.669598,1378.971896,740.205942,9030.512492
943.669914,1378.971896,666.185348,9548.656652
943.670230,766.095498,-148.041188,9918.759623
943.670545,536.266849,-444.123565,10066.800811
943.670861,229.828649,-592.164754,10510.924376
943.671177,0.000000,-888.247130,10881.027347
943.671492,0.000000,-888.247130,10732.986159
943.671808,-153.219100,-518.144159,10288.862594
943.672124,0.000000,-0.000000,9696.697840
943.672439,229.828649,444.123565,9474.636058
943.672755,766.095498,444.123565,9030.512492
943.673071,995.924147,814.226536,8734.430116
943.673386,1072.533697,1258.350101,8660.409521
943.673702,1225.752797,1258.350101,8734.430116
943.674018,919.314598,1036.288319,8660.409521
943.674333,766.095498,518.144159,9326.594869
943.674649,689.485948,-0.000000,9474.636058
943.674965,229.828649,-0.000000,9770.718434
943.675280,-229.828649,-592.164754,9992.780217
943.675596,-306.438199,-666.185348,10658.965565
943.675912,0.000000,-592.164754,10510.924376
943.676227,0.000000,-518.144159,10214.842000
943.676543,153.219100,-296.082377,9770.718434
943.676858,459.657299,-222.061783,9326.594869
943.677174,919.314598,-148.041188,9030.512492
943.677490,1149.143247,296.082377,8586.388927
943.677805,1225.752797,592.164754,8586.388927
943.678121,1302.362347,666.185348,8512.368333
943.678437,1072.533697,296.082377,8290.306550
943.678752,1072.533697,-444.123565,9030.512492
943.679068,689.485948,-296.082377,9030.512492
943.679384,153.219100,-518.144159,9474.636058
943.679699,0.000000,-592.164754,9548.656652
943.680015,-612.876398,-888.247130,9696.697840
943.680331,-919.314598,-962.267725,10584.944971
943.680646,-536.266849,-666.185348,9992.780217
943.680962,-689.485948,-518.144159,9844.739029
943.681278,-766.095498,-444.123565,9400.615463
943.681593,-229.828649,-740.205942,9104.533087
943.681909,-153.219100,-222.061783,9326.594869
943.682225,229.828649,740.205942,8956.491898
943.682540,0.000000,592.164754,8808.450710
943.682856,76.609550,370.102971,9178.553681
943.683172,229.828649,-148.041188,9400.615463
943.683487,383.047749,-296.082377,9474.636058
943.683803,0.000000,-444.123565,9770.718434
943.684119,-229.828649,-592.164754,10066.800811
943.684434,0.000000,-740.205942,10140.821405
943.684750,383.047749,-814.226536,10214.842000
943.685066,766.095498,-518.144159,10066.800811
943.685381,766.095498,-592.164754,9474.636058
943.685697,1378.971896,-0.000000,9178.553681
943.686013,1378.971896,-0.000000,9178.553681
943.686328,1915.238745,-0.000000,8660.409521
943.686644,2068.457845,666.185348,8734.430116
943.686960,1685.410096,666.185348,8808.450710
943.687275,1225.752797,-0.000000,9030.512492
943.687591,995.924147,-296.082377,9474.636058
943.687907,766.095498,-740.205942,9548.656652
943.688222,306.438199,-740.205942,10066.800811
943.688538,-153.219100,-1406.391290,10362.883188
943.688854,-383.047749,-1480.411884,10510.924376
943.689169,-383.047749,-1258.350101,10584.944971
943.689485,-229.828649,-666.185348,10362.883188
943.689801,0.000000,-814.226536,9770.718434
943.690116,306.438199,-222.061783,9400.615463
943.690432,459.657299,-0.000000,9326.594869
943.690748,766.095498,296.082377,8882.471304
943.691063,612.876398,740.205942,8586.388927
943.691379,919.314598,592.164754,8586.388927
943.691695,919.314598,592.164754,8882.471304
943.692010,612.876398,-0.000000,9474.636058
943.692326,229.828649,-444.123565,9548.656652
943.692642,153.219100,-666.185348,9918.759623
943.692957,-536.266849,-666.185348,9992.780217
943.693273,0.000000,-888.247130,10288.862594
943.693589,-153.219100,-740.205942,10362.883188
943.693904,0.000000,-592.164754,9992.780217
943.694220,229.828649,-370.102971,9622.677246
943.694536,306.438199,-0.000000,9696.697840
943.694851,995.924147,-0.000000,9178.553681
943.695167,1455.581446,148.041188,8660.409521
943.695483,1455.581446,592.164754,8586.388927
943.695798,842.705048,370.102971,8734.430116
943.696114,1532.190996,518.144159,8586.388927
943.696430,1149.143247,-0.000000,8734.430116
943.696745,842.705048,-296.082377,8956.491898
943.697061,383.047749,-444.123565,9474.636058
943.697377,153.219100,-888.247130,9844.739029
943.697692,0.000000,-814.226536,9918.759623
943.698008,-459.657299,-888.247130,9844.739029
943.698324,-536.266849,-740.205942,9844.739029
943.698639,-536.266849,-370.102971,9548.656652
943.698955,-766.095498,-370.102971,9622.677246
943.699271,-383.047749,-222.061783,9178.553681
943.699586,-306.438199,222.061783,9030.512492
943.699902,0.000000,296.082377,8882.471304
943.700218,0.000000,444.123565,8882.471304
943.700533,306.438199,-0.000000,8956.491898
943.700849,-383.047749,-148.041188,9474.636058
943.701165,-229.828649,-296.082377,9548.656652
943.701480,-153.219100,-444.123565,9622.677246
943.701796,-153.219100,-666.185348,9696.697840
943.702112,459.657299,-592.164754,9844.739029
943.702427,0.000000,-296.082377,10140.821405
943.702743,229.828649,-74.020594,9918.759623
943.703059,459.657299,-0.000000,9696.697840
943.703374,1378.971896,296.082377,9326.594869
943.703690,1302.362347,-0.000000,8882.471304
943.704006,1455.581446,370.102971,8882.471304
943.704321,1302.362347,814.226536,8882.471304
943.704637,1302.362347,814.226536,8882.471304
943.704953,1149.143247,222.061783,9252.574275
943.705268,689.485948,-222.061783,9770.718434
943.705584,689.485948,-444.123565,9844.739029
943.705900,306.438199,-592.164754,10066.800811
943.706215,0.000000,-888.247130,10362.883188
943.706531,-306.438199,-1036.288319,10510.924376
943.706847,0.000000,-1110.308913,10658.965565
943.707162,76.609550,-518.144159,10288.862594
943.707478,612.876398,-74.020594,9696.697840
943.707793,383.047749,-222.061783,9400.615463
943.708109,459.657299,-0.000000,9326.594869
943.708425,1072.533697,296.082377,9178.553681
943.708740,1378.971896,518.144159,8956.491898
943.709056,1302.362347,666.185348,8808.450710
943.709372,1072.533697,222.061783,8882.471304
943.709687,1149.143247,-222.061783,9474.636058
943.710003,766.095498,-592.164754,9474.636058
943.710319,689.485948,-740.205942,9696.697840
943.710634,153.219100,-1036.288319,10140.821405
943.710950,0.000000,-1332.370696,10436.903782
943.711266,0.000000,-962.267725,10510.924376
943.711581,306.438199,-1036.288319,10214.842000
943.711897,536.266849,-888.247130,9696.697840
943.712213,689.485948,-518.144159,9474.636058
943.712528,1225.752797,-222.061783,9104.533087
943.712844,1762.019645,-296.082377,8808.450710
943.713160,1608.800546,-0.000000,8512.368333
943.713475,1915.238745,296.082377,8290.306550
943.713791,1378.971896,-0.000000,8290.306550
943.714107,1072.533697,-444.123565,8882.471304
943.714422,919.314598,-740.205942,9326.594869
943.714738,306.438199,-888.247130,9326.594869
943.715054,-306.438199,-962.267725,9696.697840
943.715369,-229.828649,-1110.308913,9622.677246
943.715685,-689.485948,-1332.370696,10214.842000
943.716001,-689.485948,-888.247130,9770.718434
943.716316,-612.876398,-814.226536,9326.594869
943.716632,-383.047749,-444.123565,9030.512492
943.716948,-153.219100,-148.041188,9104.533087
943.717263,0.000000,-0.000000,9030.512492
943.717579,0.000000,444.123565,8956.491898
943.717895,0.000000,222.061783,8808.450710
943.718210,0.000000,148.041188,9030.512492
943.718526,229.828649,-0.000000,9326.594869
943.718842,0.000000,-0.000000,9326.594869
943.719157,0.000000,-74.020594,9622.677246
943.719473,0.000000,-74.020594,9918.759623
943.719789,0.000000,-370.102971,9844.739029
943.720104,76.609550,-296.082377,9918.759623
943.720420,766.095498,-148.041188,9622.677246
943.720736,612.876398,-0.000000,9474.636058
943.721051,995.924147,222.061783,9178.553681
943.721367,1378.971896,518.144159,9474.636058
943.721683,1915.238745,444.123565,8882.471304
943.721998,1532.190996,888.247130,8956.491898
943.722314,1762.019645,1036.288319,8734.430116
943.722630,995.924147,518.144159,9400.615463
943.722945,1072.533697,370.102971,9474.636058
943.723261,842.705048,-0.000000,9696.697840
943.723577,536.266849,-148.041188,9918.759623
943.723892,-153.219100,-370.102971,10214.842000
943.724208,0.000000,-666.185348,10436.903782
943.724524,153.219100,-592.164754,10510.924376
943.724839,0.000000,-444.123565,10584.944971
943.725155,76.609550,-0.000000,10362.883188
943.725471,0.000000,148.041188,9844.739029
943.725786,536.266849,740.205942,9548.656652
943.726102,766.095498,962.267725,9400.615463
943.726418,766.095498,1332.370696,9104.533087
943.726733,766.095498,1332.370696,9178.553681
943.727049,689.485948,1110.308913,8956.491898
943.727365,842.705048,518.144159,9400.615463
943.727680,383.047749,-74.020594,9622.677246
943.727996,76.609550,-370.102971,9918.759623
943.728312,0.000000,-518.144159,10214.842000
943.728627,-229.828649,-666.185348,10658.965565
943.728943,612.876398,-814.226536,10584.944971
943.729259,0.000000,-296.082377,10362.883188
943.729574,229.828649,-444.123565,10140.821405
943.729890,536.266849,-296.082377,9548.656652
943.730206,995.924147,-0.000000,9178.553681
943.730521,1378.971896,222.061783,9030.512492
943.730837,1838.629195,370.102971,8882.471304
943.731153,1608.800546,666.185348,8512.368333
943.731468,1608.800546,518.144159,8512.368333
943.731784,1302.362347,-74.020594,8882.471304
943.732100,766.095498,-444.123565,9178.553681
943.732415,459.657299,-0.000000,9326.594869
943.732731,0.000000,-962.267725,9918.759623
943.733047,0.000000,-1110.308913,9548.656652
943.733362,-306.438199,-888.247130,9844.739029
943.733678,-536.266849,-962.267725,9696.697840
943.733994,0.000000,-1110.308913,9622.677246
943.734309,-459.657299,-666.185348,9104.533087
943.734625,-229.828649,-592.164754,9252.574275
943.734941,0.000000,-518.144159,8956.491898
943.735256,76.609550,-0.000000,8808.450710
943.735572,306.438199,-148.041188,8512.368333
943.735888,0.000000,-148.041188,8660.409521
943.736203,0.000000,-222.061783,9252.574275
943.736519,306.438199,-592.164754,9326.594869
943.736835,0.000000,-740.205942,9326.594869
943.737150,-229.828649,-962.267725,9770.718434
943.737466,0.000000,-1110.308913,9844.739029
943.737782,76.609550,-1110.308913,9992.780217
943.738097,306.438199,-888.247130,9696.697840
943.738413,383.047749,-888.247130,9548.656652
943.738728,612.876398,-444.123565,8956.491898
943.739044,1072.533697,-148.041188,9030.512492
943.739360,1072.533697,-0.000000,8956.491898
943.739675,1378.971896,518.144159,8734.430116
943.739991,1302.362347,444.123565,8660.409521
943.740307,1072.533697,666.185348,9104.533087
943.740622,766.095498,-0.000000,9400.615463
943.740938,612.876398,-666.185348,9622.677246
943.741254,0.000000,-666.185348,9992.780217
943.741569,-536.266849,-888.247130,10436.903782
943.741885,-306.438199,-1258.350101,10362.883188
943.742201,-459.657299,-1110.308913,10955.047942
943.742516,-459.657299,-814.226536,10584.944971
943.742832,0.000000,-444.123565,9992.780217
943.743148,306.438199,-74.020594,9548.656652
943.743463,459.657299,222.061783,9326.594869
943.743779,1149.143247,666.185348,9104.533087
943.744095,919.314598,962.267725,8956.491898
943.744410,1149.143247,1036.288319,8734.430116
943.744726,995.924147,814.226536,8882.471304
943.745042,1455.581446,222.061783,9400.615463
943.745357,306.438199,-222.061783,9622.677246
943.745673,383.047749,-222.061783,9992.780217
943.745989,0.000000,-518.144159,10140.821405
943.746304,0.000000,-592.164754,10658.965565
943.746620,0.000000,-444.123565,10510.924376
943.746936,0.000000,-518.144159,10362.883188
943.747251,306.438199,-222.061783,10066.800811
943.747567,612.876398,-74.020594,9548.656652
943.747883,1149.143247,-0.000000,9474.636058
943.748198,1149.143247,222.061783,8956.491898
943.748514,1532.190996,814.226536,8734.430116
943.748830,1378.971896,814.226536,8734.430116
943.749145,1378.971896,592.164754,8586.388927
943.749461,1302.362347,-0.000000,9104.533087
943.749777,919.314598,-74.020594,9252.574275
943.750092,459.657299,-222.061783,9326.594869
943.750408,0.000000,-666.185348,9696.697840
943.750724,0.000000,-592.164754,9992.780217
943.751039,0.000000,-296.082377,9992.780217
943.751355,0.000000,-444.123565,9622.677246
943.751671,-459.657299,-296.082377,9474.636058
943.751986,-383.047749,-222.061783,9548.656652
943.752302,-383.047749,-0.000000,9474.636058
943.752618,306.438199,-74.020594,9030.512492
943.752933,0.000000,296.082377,8956.491898
943.753249,153.219100,518.144159,9030.512492
943.753565,76.609550,296.082377,9030.512492
943.753880,153.219100,-0.000000,9326.594869
943.754196,306.438199,-370.102971,9400.615463
943.754512,76.609550,-370.102971,9474.636058
943.754827,0.000000,-666.185348,9696.697840
943.755143,0.000000,-592.164754,9992.780217
943.755459,229.828649,-814.226536,9992.780217
943.755774,306.438199,-814.226536,9770.718434
943.756090,536.266849,-444.123565,9622.677246
943.756406,612.876398,-296.082377,9178.553681
943.756721,1149.143247,-0.000000,8956.491898
943.757037,1455.581446,444.123565,8734.430116
943.757353,1608.800546,444.123565,8586.388927
943.757668,1072.533697,444.123565,8660.409521
943.757984,919.314598,-0.000000,9030.512492
943.758300,919.314598,-296.082377,9400.615463
943.758615,536.266849,-666.185348,9696.697840
943.758931,229.828649,-1036.288319,9696.697840
943.759247,-229.828649,-962.267725,9844.739029
943.759562,-153.219100,-1184.329507,10288.862594
943.759878,-306.438199,-1184.329507,10658.965565
943.760194,0.000000,-962.267725,10066.800811
943.760509,0.000000,-740.205942,9696.697840
943.760825,76.609550,-444.123565,9252.574275
943.761141,612.876398,296.082377,9326.594869
943.761456,766.095498,296.082377,9030.512492
943.761772,1072.533697,666.185348,8808.450710
943.762088,919.314598,814.226536,8734.430116
943.762403,689.485948,592.164754,9030.512492
943.762719,536.266849,-148.041188,9474.636058
943.763035,383.047749,-592.164754,9696.697840
943.763351,-306.438199,-296.082377,10066.800811
943.763666,229.828649,-888.247130,10214.842000
943.763982,-306.438199,-1036.288319,10807.006753
943.764298,-229.828649,-962.267725,10510.924376
943.764613,76.609550,-814.226536,10214.842000
943.764929,536.266849,-296.082377,9992.780217
943.765245,919.314598,-148.041188,9474.636058
943.765561,1225.752797,-0.000000,9326.594869
943.765876,1532.190996,444.123565,8734.430116
943.766192,1991.848295,962.267725,8438.347739
943.766508,1762.019645,888.247130,8364.327145
943.766824,1685.410096,518.144159,8438.347739
943.767139,1455.581446,-0.000000,9178.553681
943.767455,1149.143247,-0.000000,9400.615463
943.767771,383.047749,-296.082377,9844.739029
943.768087,229.828649,-814.226536,9918.759623
943.768402,0.000000,-888.247130,10140.821405
943.768718,-536.266849,-666.185348,10288.862594
943.769034,-536.266849,-518.144159,9992.780217
943.769349,-383.047749,-370.102971,9770.718434
943.769665,-153.219100,-148.041188,9622.677246
943.769981,0.000000,-0.000000,9326.594869
943.770297,383.047749,-0.000000,8882.471304
943.770612,76.609550,518.144159,8882.471304
943.770928,306.438199,592.164754,8586.388927
943.771244,459.657299,148.041188,8586.388927
943.771560,306.438199,148.041188,9326.594869
943.771875,229.828649,-74.020594,9252.574275
943.772191,229.828649,-370.102971,9548.656652
943.772507,0.000000,-518.144159,9770.718434
943.772822,76.609550,-814.226536,9770.718434
943.773138,76.609550,-370.102971,9844.739029
943.773454,153.219100,-296.082377,9992.780217
943.773770,383.047749,-296.082377,9474.636058
943.774085,612.876398,-518.144159,9400.615463
943.774401,1149.143247,-0.000000,9030.512492
943.774717,1149.143247,296.082377,9030.512492
943.775033,1225.752797,518.144159,8734.430116
943.775348,1149.143247,666.185348,8660.409521
943.775664,1149.143247,222.061783,8586.388927
943.775980,612.876398,-296.082377,9474.636058
943.776296,459.657299,-444.123565,9548.656652
943.776611,76.609550,-666.185348,9696.697840
943.776927,0.000000,-666.185348,10140.821405
943.777243,0.000000,-814.226536,10807.006753
943.777558,-153.219100,-740.205942,10436.903782
943.777874,0.000000,-518.144159,10066.800811
943.778190,76.609550,-148.041188,9844.739029
943.778506,383.047749,-0.000000,9474.636058
943.778821,383.047749,-0.000000,9178.553681
943.779137,689.485948,370.102971,9104.533087
943.779453,1072.533697,1036.288319,8956.491898
943.779769,689.485948,740.205942,8808.450710
943.780084,842.705048,592.164754,9030.512492
943.780400,459.657299,-222.061783,9474.636058
943.780716,153.219100,-518.144159,9696.697840
943.781031,76.609550,-814.226536,9992.780217
943.781347,-306.438199,-962.267725,10288.862594
943.781663,-229.828649,-1628.453072,10510.924376
943.781979,0.000000,-1332.370696,10436.903782
943.782294,-306.438199,-962.267725,10362.883188
943.782610,229.828649,-592.164754,9844.739029
943.782926,689.485948,-370.102971,9252.574275
943.783242,1225.752797,-148.041188,9104.533087
943.783557,1608.800546,222.061783,8586.388927
943.783873,1838.629195,370.102971,8586.388927
943.784189,1915.238745,444.123565,8438.347739
943.784504,1225.752797,-222.061783,8586.388927
943.784820,1455.581446,-0.000000,8956.491898
943.785136,1072.533697,-370.102971,9252.574275
943.785452,306.438199,-666.185348,9548.656652
943.785767,0.000000,-740.205942,9844.739029
943.786083,-459.657299,-1332.370696,9548.656652
943.786399,-842.705048,-1184.329507,10510.924376
943.786715,-459.657299,-592.164754,9992.780217
943.787030,-459.657299,-666.185348,9696.697840
943.787346,-383.047749,-444.123565,9474.636058
943.787662,0.000000,-222.061783,9400.615463
943.787978,76.609550,-0.000000,9104.533087
943.788293,76.609550,518.144159,8882.471304
943.788609,383.047749,592.164754,8808.450710
943.788925,-153.219100,518.144159,9030.512492
943.789240,612.876398,-74.020594,9326.594869
943.789556,153.219100,-148.041188,9474.636058
943.789872,76.609550,-222.061783,9622.677246
943.790188,0.000000,-740.205942,9622.677246
943.790503,76.609550,-888.247130,9992.780217
943.790819,536.266849,-666.185348,9918.759623
943.791135,459.657299,-518.144159,9918.759623
943.791451,689.485948,-74.020594,9474.636058
943.791766,995.924147,-74.020594,9400.615463
943.792082,1149.143247,148.041188,8956.491898
943.792398,1455.581446,370.102971,9030.512492
943.792713,1685.410096,888.247130,8734.430116
943.793029,1302.362347,444.123565,8512.368333
943.793345,1225.752797,370.102971,8882.471304
943.793661,995.924147,-296.082377,9326.594869
943.793976,536.266849,-592.164754,9770.718434
943.794292,153.219100,-814.226536,9696.697840
943.794608,0.000000,-962.267725,10140.821405
943.794924,-383.047749,-1110.308913,10584.944971
943.795239,0.000000,-1258.350101,10436.903782
943.795555,-536.266849,-740.205942,10288.862594
943.795871,-153.219100,-222.061783,9918.759623
943.796187,229.828649,-0.000000,9474.636058
943.796502,383.047749,222.061783,9030.512492
943.796818,612.876398,518.144159,8956.491898
943.797134,766.095498,740.205942,8808.450710
943.797449,536.266849,814.226536,8660.409521
943.797765,766.095498,444.123565,8882.471304
943.798081,459.657299,-0.000000,9474.636058
943.798397,153.219100,-74.020594,9622.677246
943.798712,-919.314598,-222.061783,10214.842000
943.799028,-306.438199,-592.164754,10140.821405
943.799344,-612.876398,-888.247130,10436.903782
943.799660,-612.876398,-740.205942,10584.944971
943.799975,-229.828649,-962.267725,10066.800811
943.800291,229.828649,-296.082377,9992.780217
943.800607,612.876398,-74.020594,9622.677246
943.800922,995.924147,-0.000000,9178.553681
943.801238,1302.362347,370.102971,8808.450710
943.801554,1991.848295,666.185348,8734.430116
943.801870,1532.190996,444.123565,8438.347739
943.802185,1762.019645,370.102971,8438.347739
943.802501,1378.971896,-0.000000,9030.512492
943.802817,1072.533697,-148.041188,9252.574275
943.803133,536.266849,-740.205942,9622.677246
943.803448,153.219100,-592.164754,9770.718434
943.803764,0.000000,-888.247130,10214.842000
943.804080,-229.828649,-814.226536,10362.883188
943.804396,-229.828649,-814.226536,9992.780217
943.804711,0.000000,-0.000000,10066.800811
943.805027,0.000000,-148.041188,9474.636058
943.805343,0.000000,-148.041188,9178.553681
943.805658,0.000000,148.041188,9104.533087
943.805974,306.438199,370.102971,9030.512492
943.806290,536.266849,222.061783,8882.471304
943.806606,383.047749,222.061783,8956.491898
943.806921,536.266849,-148.041188,9104.533087
943.807237,0.000000,-370.102971,9474.636058
943.807553,306.438199,-518.144159,9770.718434
943.807869,306.438199,-518.144159,10066.800811
943.808184,0.000000,-962.267725,9918.759623
943.808500,153.219100,-962.267725,9992.780217
943.808816,229.828649,-518.144159,9622.677246
943.809131,383.047749,-222.061783,9474.636058
943.809447,766.095498,-0.000000,9252.574275
943.809763,1225.752797,-0.000000,8808.450710
943.810079,1455.581446,296.082377,8734.430116
943.810394,1608.800546,592.164754,8586.388927
943.810710,1225.752797,444.123565,8586.388927
943.811026,995.924147,296.082377,9178.553681
943.811342,842.705048,-370.102971,9400.615463
943.811657,536.266849,-666.185348,9548.656652
943.811973,153.219100,-666.185348,9622.677246
943.812289,-153.219100,-518.144159,9992.780217
943.812604,-229.828649,-740.205942,10214.842000
943.812920,-306.438199,-740.205942,10214.842000
943.813236,0.000000,-518.144159,9918.759623
943.813552,0.000000,-222.061783,9770.718434
943.813867,766.095498,-0.000000,9474.636058
943.814183,766.095498,-0.000000,9030.512492
943.814499,459.657299,444.123565,9030.512492
943.814815,766.095498,666.185348,8882.471304
943.815130,689.485948,814.226536,8808.450710
943.815446,383.047749,296.082377,9178.553681
943.815762,536.266849,-0.000000,9770.718434
943.816078,306.438199,-370.102971,9770.718434
943.816393,0.000000,-666.185348,9992.780217
943.816709,0.000000,-814.226536,10214.842000
943.817025,0.000000,-1036.288319,10658.965565
943.817340,0.000000,-1036.288319,10584.944971
943.817656,229.828649,-592.164754,10288.862594
943.817972,536.266849,-444.123565,9770.718434
943.818288,766.095498,-74.020594,9400.615463
943.818603,919.314598,-0.000000,9030.512492
943.818919,1532.190996,592.164754,8808.450710
943.819235,1991.848295,962.267725,8586.388927
943.819551,1762.019645,888.247130,8808.450710
943.819866,1378.971896,370.102971,8734.430116
943.820182,1302.362347,-0.000000,9400.615463
943.820498,919.314598,-222.061783,9252.574275
943.820813,383.047749,-518.144159,9622.677246
943.821129,0.000000,-740.205942,9918.759623
943.821445,-229.828649,-1406.391290,10140.821405
943.821761,-536.266849,-740.205942,10066.800811
943.822076,-612.876398,-518.144159,10214.842000
943.822392,-612.876398,-148.041188,9696.697840
943.822708,-306.438199,-0.000000,9474.636058
943.823024,-306.438199,-0.000000,9474.636058
943.823339,0.000000,148.041188,9252.574275
943.823655,229.828649,222.061783,8808.450710
943.823971,153.219100,666.185348,8956.491898
943.824287,0.000000,296.082377,9030.512492
943.824602,229.828649,148.041188,9474.636058
943.824918,76.609550,-74.020594,9474.636058
943.825234,0.000000,-296.082377,9474.636058
943.825549,0.000000,-592.164754,9622.677246
943.825865,-153.219100,-740.205942,9918.759623
943.826181,229.828649,-666.185348,10066.800811
943.826497,459.657299,-444.123565,9770.718434
943.826812,612.876398,-444.123565,9622.677246
943.827128,995.924147,-74.020594,9400.615463
943.827444,1762.019645,-0.000000,9178.553681
943.827760,1608.800546,296.082377,8660.409521
943.828075,1532.190996,666.185348,8660.409521
943.828391,1532.190996,592.164754,8734.430116
943.828707,1302.362347,296.082377,9178.553681
943.829022,1149.143247,-74.020594,9474.636058
943.829338,1072.533697,-592.164754,9548.656652
943.829654,689.485948,-666.185348,9696.697840
943.829970,76.609550,-666.185348,10288.862594
943.830285,383.047749,-962.267725,10436.903782
943.830601,-153.219100,-962.267725,10436.903782
943.830917,76.609550,-518.144159,9992.780217
943.831233,153.219100,-296.082377,9770.718434
943.831548,383.047749,-74.020594,9474.636058
943.831864,459.657299,-74.020594,9030.512492
943.832180,995.924147,518.144159,8956.491898
943.832496,842.705048,666.185348,8734.430116
943.832811,766.095498,814.226536,8512.368333
943.833127,536.266849,222.061783,8882.471304
943.833443,153.219100,-444.123565,9178.553681
943.833758,76.609550,-666.185348,9474.636058
943.834074,-229.828649,-814.226536,9844.739029
943.834390,-306.438199,-740.205942,10362.883188
943.834706,0.000000,-814.226536,10436.903782
943.835021,-459.657299,-814.226536,10584.944971
943.835337,0.000000,-740.205942,10214.842000
943.835653,229.828649,-518.144159,9918.759623
943.835969,459.657299,-296.082377,9548.656652
943.836284,919.314598,-74.020594,9326.594869
943.836600,1991.848295,-0.000000,8956.491898
943.836916,1685.410096,740.205942,8882.471304
943.837231,1455.581446,444.123565,8586.388927
943.837547,1225.752797,370.102971,8808.450710
943.837863,1532.190996,148.041188,9178.553681
943.838179,1149.143247,-222.061783,9178.553681
943.838494,383.047749,-222.061783,9474.636058
943.838810,153.219100,-518.144159,9548.656652
943.839126,-229.828649,-740.205942,10066.800811
943.839442,-459.657299,-740.205942,10214.842000
943.839757,-612.876398,-888.247130,9992.780217
943.840073,-842.705048,-740.205942,9770.718434
943.840389,-536.266849,-222.061783,9548.656652
943.840704,0.000000,-370.102971,9400.615463
943.841020,-306.438199,-444.123565,9474.636058
943.841336,76.609550,296.082377,8808.450710
943.841652,0.000000,444.123565,8882.471304
943.841967,153.219100,296.082377,8808.450710
943.842283,306.438199,-0.000000,9104.533087
943.842599,459.657299,-518.144159,9104.533087
943.842915,76.609550,-370.102971,9844.739029
943.843230,-153.219100,-592.164754,9548.656652
943.843546,229.828649,-814.226536,9844.739029
943.843862,153.219100,-740.205942,9992.780217
943.844178,689.485948,-518.144159,9622.677246
943.844493,766.095498,-74.020594,9400.615463
943.844809,919.314598,-74.020594,9104.533087
943.845125,1149.143247,-0.000000,8808.450710
943.845440,1532.190996,444.123565,8734.430116
943.845756,1149.143247,518.144159,8512.368333
943.846072,1302.362347,296.082377,8734.430116
943.846388,1149.143247,296.082377,8882.471304
943.846703,689.485948,-148.041188,9474.636058
943.847019,459.657299,-666.185348,9548.656652
943.847335,76.609550,-1110.308913,9918.759623
943.847651,-306.438199,-888.247130,10066.800811
943.847966,-383.047749,-1110.308913,10288.862594
943.848282,-306.438199,-962.267725,10436.903782
943.848598,153.219100,-444.123565,10288.862594
943.848913,0.000000,-518.144159,9844.739029
943.849229,459.657299,296.082377,9104.533087
943.849545,306.438199,-0.000000,8956.491898
943.849861,459.657299,444.123565,8882.471304
943.850176,842.705048,592.164754,8808.450710
943.850492,536.266849,666.185348,8882.471304
943.850808,536.266849,518.144159,9030.512492
943.851124,383.047749,-74.020594,9622.677246
943.851439,306.438199,-444.123565,9622.677246
943.851755,76.609550,-222.061783,10288.862594
943.852071,306.438199,-740.205942,10436.903782
943.852387,0.000000,-666.185348,10288.862594
943.852702,76.609550,-814.226536,10510.924376
943.853018,229.828649,-740.205942,10066.800811
943.853334,919.314598,-814.226536,9474.636058
943.853649,612.876398,-370.102971,9474.636058
943.853965,1149.143247,-74.020594,9178.553681
943.854281,1455.581446,222.061783,8808.450710
943.854597,1685.410096,740.205942,8586.388927
943.854912,1762.019645,740.205942,8586.388927
943.855228,1685.410096,666.185348,8660.409521
943.855544,1455.581446,-0.000000,8808.450710
943.855860,919.314598,-148.041188,9178.553681
943.856175,383.047749,-370.102971,9770.718434
943.856491,0.000000,-1258.350101,10066.800811
943.856807,-383.047749,-1110.308913,10288.862594
943.857122,-689.485948,-1110.308913,10214.842000
943.857438,-842.705048,-1036.288319,10140.821405
943.857754,-766.095498,-814.226536,9918.759623
943.858070,-383.047749,-444.123565,9104.533087
943.858385,-229.828649,-222.061783,9474.636058
943.858701,0.000000,-74.020594,9178.553681
943.859017,76.609550,444.123565,8882.471304
943.859333,0.000000,444.123565,8882.471304
943.859648,153.219100,296.082377,8956.491898
943.859964,306.438199,-74.020594,9030.512492
943.860280,76.609550,-296.082377,9474.636058
943.860596,229.828649,-592.164754,9326.594869
943.860911,0.000000,-740.205942,9844.739029
943.861227,383.047749,-814.226536,9992.780217
943.861543,0.000000,-888.247130,9992.780217
943.861858,383.047749,-444.123565,9696.697840
943.862174,612.876398,-296.082377,9474.636058
943.862490,1378.971896,-296.082377,9326.594869
943.862806,1302.362347,-0.000000,8956.491898
943.863121,1532.190996,518.144159,8734.430116
943.863437,1532.190996,518.144159,8660.409521
943.863753,1455.581446,666.185348,8734.430116
943.864069,995.924147,148.041188,8882.471304
943.864384,919.314598,-222.061783,9326.594869
943.864700,459.657299,-370.102971,9844.739029
943.865016,306.438199,-740.205942,9918.759623
943.865331,76.609550,-592.164754,9992.780217
943.865647,-306.438199,-1258.350101,10140.821405
943.865963,0.000000,-592.164754,10288.862594
943.866279,0.000000,-296.082377,10066.800811
943.866594,0.000000,-74.020594,9770.718434
943.866910,306.438199,-222.061783,9548.656652
943.867226,306.438199,-0.000000,9252.574275
943.867542,766.095498,518.144159,9178.553681
943.867857,689.485948,1110.308913,9030.512492
943.868173,919.314598,962.267725,8956.491898
943.868489,536.266849,222.061783,9104.533087
943.868804,689.485948,-0.000000,9326.594869
943.869120,306.438199,-444.123565,9622.677246
943.869436,153.219100,-592.164754,9992.780217
943.869752,0.000000,-814.226536,10214.842000
943.870067,0.000000,-1110.308913,10510.924376
943.870383,-229.828649,-814.226536,10362.883188
943.870699,0.000000,-740.205942,10214.842000
943.871015,536.266849,-296.082377,9770.718434
943.871330,383.047749,-148.041188,9622.677246
943.871646,1149.143247,-0.000000,9178.553681
943.871962,1685.410096,444.123565,8734.430116
943.872277,1608.800546,666.185348,8734.430116
943.872593,1532.190996,814.226536,8512.368333
943.872909,1532.190996,444.123565,8586.388927
943.873225,1149.143247,-74.020594,9030.512492
943.873540,766.095498,-296.082377,9178.553681
943.873856,153.219100,-592.164754,9548.656652
943.874172,0.000000,-814.226536,10140.821405
943.874488,-229.828649,-1258.350101,10214.842000
943.874803,-459.657299,-814.226536,10288.862594
943.875119,-383.047749,-666.185348,10066.800811
943.875435,-383.047749,-296.082377,9918.759623
943.875750,-383.047749,-444.123565,9474.636058
943.876066,-306.438199,-148.041188,9104.533087
943.876382,76.609550,-0.000000,9104.533087
943.876698,306.438199,592.164754,8882.471304
943.877013,536.266849,592.164754,8808.450710
943.877329,459.657299,222.061783,8882.471304
943.877645,306.438199,-0.000000,9400.615463
943.877961,153.219100,-370.102971,9400.615463
943.878276,0.000000,-666.185348,9844.739029
943.878592,0.000000,-962.267725,9844.739029
943.878908,229.828649,-1332.370696,9918.759623
943.879223,383.047749,-814.226536,9992.780217
943.879539,536.266849,-518.144159,9770.718434
943.879855,842.705048,-370.102971,9548.656652
943.880171,1072.533697,-296.082377,9104.533087
943.880486,1685.410096,-296.082377,9178.553681
943.880802,1762.019645,-74.020594,8660.409521
943.881118,1762.019645,592.164754,8808.450710
943.881434,1608.800546,592.164754,8734.430116
943.881749,1149.143247,-0.000000,8882.471304
943.882065,919.314598,-666.185348,9030.512492
943.882381,689.485948,-666.185348,9474.636058
943.882696,76.609550,-888.247130,9770.718434
943.883012,0.000000,-888.247130,10066.800811
943.883328,0.000000,-1258.350101,10140.821405
943.883644,0.000000,-962.267725,10362.883188
943.883959,0.000000,-592.164754,10288.862594
943.884275,-229.828649,-444.123565,9548.656652
943.884591,0.000000,-74.020594,9474.636058
943.884907,306.438199,-74.020594,9178.553681
943.885222,995.924147,222.061783,8660.409521
943.885538,689.485948,888.247130,8956.491898
943.885854,842.705048,1036.288319,8734.430116
943.886169,536.266849,518.144159,8956.491898
943.886485,995.924147,-0.000000,9400.615463
943.886801,383.047749,-222.061783,9474.636058
943.887117,153.219100,-370.102971,9844.739029
943.887432,0.000000,-518.144159,10140.821405
943.887748,0.000000,-888.247130,10436.903782
943.888064,76.609550,-740.205942,10510.924376
943.888380,0.000000,-518.144159,10362.883188
943.888695,229.828649,-296.082377,9844.739029
943.889011,766.095498,-222.061783,9474.636058
943.889327,1225.752797,-0.000000,9104.533087
943.889642,1455.581446,148.041188,8882.471304
943.889958,1685.410096,370.102971,9030.512492
943.890274,1378.971896,444.123565,8660.409521
943.890590,995.924147,296.082377,8956.491898
943.890905,1225.752797,-0.000000,9178.553681
943.891221,1302.362347,-518.144159,9474.636058
943.891537,383.047749,-740.205942,9622.677246
943.891852,0.000000,-888.247130,9844.739029
943.892168,-229.828649,-1110.308913,10066.800811
943.892484,-459.657299,-962.267725,10214.842000
943.892800,-383.047749,-592.164754,10066.800811
943.893115,-536.266849,-592.164754,9696.697840
943.893431,-536.266849,-444.123565,9326.594869
943.893747,0.000000,-0.000000,9178.553681
943.894063,0.000000,296.082377,8956.491898
943.894378,612.876398,592.164754,9178.553681
943.894694,153.219100,666.185348,8734.430116
943.895010,76.609550,222.061783,8956.491898
943.895325,76.609550,148.041188,9326.594869
943.895641,229.828649,-222.061783,9548.656652
943.895957,-229.828649,-666.185348,9992.780217
943.896273,-229.828649,-740.205942,10214.842000
943.896588,153.219100,-592.164754,10066.800811
943.896904,306.438199,-888.247130,9992.780217
943.897220,383.047749,-296.082377,9918.759623
943.897536,306.438199,-74.020594,9326.594869
943.897851,1072.533697,148.041188,9326.594869
943.898167,1225.752797,296.082377,8882.471304
943.898483,1532.190996,740.205942,8586.388927
943.898798,1378.971896,888.247130,8438.347739
943.899114,1378.971896,962.267725,8660.409521
943.899430,1302.362347,518.144159,8882.471304
943.899746,1072.533697,-74.020594,9178.553681
943.900061,536.266849,-444.123565,9622.677246
943.900377,306.438199,-888.247130,10288.862594
943.900693,-306.438199,-814.226536,10140.821405
943.901009,-536.266849,-1184.329507,10510.924376
943.901324,-459.657299,-888.247130,10584.944971
943.901640,-383.047749,-666.185348,10436.903782
943.901956,-153.219100,-296.082377,9918.759623
943.902271,0.000000,-222.061783,9548.656652
943.902587,306.438199,222.061783,9400.615463
943.902903,766.095498,518.144159,8956.491898
943.903219,919.314598,518.144159,8586.388927
943.903534,1072.533697,518.144159,8660.409521
943.903850,612.876398,518.144159,9030.512492
943.904166,919.314598,-0.000000,9474.636058
943.904482,612.876398,-222.061783,9622.677246
943.904797,0.000000,-148.041188,9918.759623
943.905113,0.000000,-666.185348,9770.718434
943.905429,0.000000,-814.226536,10510.924376
943.905744,-76.609550,-444.123565,10214.842000
943.906060,76.609550,-444.123565,9918.759623
943.906376,459.657299,-148.041188,9770.718434
943.906692,689.485948,-444.123565,9400.615463
943.907007,1225.752797,-0.000000,9178.553681
943.907323,1302.362347,222.061783,9030.512492
943.907639,1378.971896,444.123565,8808.450710
943.907955,1302.362347,222.061783,8808.450710
943.908270,1378.971896,74.020594,8882.471304
943.908586,919.314598,-296.082377,9326.594869
943.908902,842.705048,-444.123565,9474.636058
943.909217,76.609550,-222.061783,9770.718434
943.909533,0.000000,-814.226536,9622.677246
943.909849,0.000000,-888.247130,9992.780217
943.910165,0.000000,-814.226536,10214.842000
943.910480,0.000000,-518.144159,9992.780217
943.910796,0.000000,-296.082377,9548.656652
943.911112,-153.219100,-296.082377,9474.636058
943.911428,0.000000,-222.061783,9178.553681
943.911743,383.047749,222.061783,8956.491898
943.912059,459.657299,296.082377,8734.430116
943.912375,383.047749,-0.000000,9030.512492
943.912690,306.438199,296.082377,9326.594869
943.913006,459.657299,-74.020594,9326.594869
943.913322,0.000000,-592.164754,9548.656652
943.913638,0.000000,-666.185348,9622.677246
943.913953,0.000000,-962.267725,9622.677246
943.914269,153.219100,-1036.288319,9918.759623
943.914585,153.219100,-814.226536,9918.759623
943.914901,383.047749,-592.164754,9696.697840
943.915216,919.314598,-444.123565,9252.574275
943.915532,1225.752797,-0.000000,9178.553681
943.915848,1532.190996,370.102971,9104.533087
943.916163,1685.410096,148.041188,8438.347739
943.916479,1608.800546,666.185348,8660.409521
943.916795,1455.581446,666.185348,8660.409521
943.917111,1225.752797,148.041188,8734.430116
943.917426,919.314598,-296.082377,9252.574275
943.917742,536.266849,-370.102971,9548.656652
943.918058,76.609550,-666.185348,9844.739029
943.918374,-306.438199,-814.226536,10362.883188
943.918689,0.000000,-1332.370696,10510.924376
943.919005,0.000000,-740.205942,10436.903782
943.919321,-383.047749,-592.164754,10140.821405
943.919636,-383.047749,-296.082377,9696.697840
943.919952,76.609550,296.082377,9474.636058
943.920268,383.047749,222.061783,9326.594869
943.920584,612.876398,740.205942,8956.491898
943.920899,536.266849,1036.288319,8882.471304
943.921215,536.266849,814.226536,8808.450710
943.921531,383.047749,518.144159,9030.512492
943.921847,612.876398,-74.020594,9548.656652
943.922162,383.047749,-296.082377,9548.656652
943.922478,76.609550,-444.123565,9992.780217
943.922794,0.000000,-444.123565,10140.821405
943.923109,-229.828649,-1184.329507,10066.800811
943.923425,0.000000,-370.102971,10362.883188
943.923741,229.828649,-296.082377,10066.800811
943.924057,306.438199,-222.061783,9696.697840
943.924372,919.314598,-74.020594,9326.594869
943.924688,766.095498,-0.000000,9326.594869
943.925004,1378.971896,296.082377,8882.471304
943.925320,1455.581446,666.185348,8734.430116
943.925635,1838.629195,592.164754,8660.409521
943.925951,1455.581446,222.061783,8882.471304
943.926267,1762.019645,-296.082377,9548.656652
943.926582,689.485948,-222.061783,9548.656652
943.926898,612.876398,-444.123565,9622.677246
943.927214,0.000000,-592.164754,9992.780217
943.927530,0.000000,-666.185348,10288.862594
943.927845,-153.219100,-740.205942,10288.862594
943.928161,0.000000,-518.144159,10066.800811
943.928477,-383.047749,-592.164754,9696.697840
943.928793,-153.219100,-370.102971,9548.656652
943.929108,0.000000,-148.041188,9252.574275
943.929424,229.828649,-0.000000,9030.512492
943.929740,229.828649,296.082377,8734.430116
943.930055,229.828649,444.123565,8882.471304
943.930371,76.609550,222.061783,8882.471304
943.930687,0.000000,-0.000000,9474.636058
943.931003,0.000000,-0.000000,9400.615463
943.931318,0.000000,-296.082377,9548.656652
943.931634,76.609550,-592.164754,9918.759623
943.931950,0.000000,-888.247130,10066.800811
943.932266,153.219100,-888.247130,10214.842000
943.932581,306.438199,-740.205942,9918.759623
943.932897,459.657299,-296.082377,9474.636058
943.933213,689.485948,-0.000000,9474.636058
943.933528,1072.533697,222.061783,8956.491898
943.933844,1149.143247,222.061783,8660.409521
943.934160,1915.238745,1110.308913,9400.615463
943.934476,1072.533697,444.123565,8734.430116
943.934791,919.314598,-0.000000,9252.574275
943.935107,1149.143247,-518.144159,9400.615463
943.935423,383.047749,-814.226536,9548.656652
943.935739,0.000000,-740.205942,9992.780217
943.936054,0.000000,-962.267725,9992.780217
943.936370,-306.438199,-1184.329507,10362.883188
943.936686,-459.657299,-962.267725,10362.883188
943.937001,-229.828649,-518.144159,9992.780217
943.937317,0.000000,-444.123565,9770.718434
943.937633,-306.438199,-518.144159,9178.553681
943.937949,153.219100,-0.000000,8956.491898
943.938264,612.876398,370.102971,8808.450710
943.938580,1302.362347,592.164754,8512.368333
943.938896,842.705048,370.102971,8512.368333
943.939212,459.657299,518.144159,8882.471304
943.939527,689.485948,-148.041188,9178.553681
943.939843,383.047749,-148.041188,9548.656652
943.940159,0.000000,-518.144159,9696.697840
943.940474,0.000000,-740.205942,9992.780217
943.940790,0.000000,-592.164754,10362.883188
943.941106,0.000000,-814.226536,10214.842000
943.941422,0.000000,-370.102971,9992.780217
943.941737,0.000000,-370.102971,9622.677246
943.942053,689.485948,-148.041188,9400.615463
943.942369,995.924147,-0.000000,9178.553681
943.942685,1302.362347,370.102971,8956.491898
943.943000,1378.971896,666.185348,9030.512492
943.943316,1149.143247,888.247130,8512.368333
943.943632,995.924147,592.164754,8956.491898
943.943947,919.314598,-148.041188,9400.615463
943.944263,306.438199,-0.000000,9252.574275
943.944579,459.657299,-296.082377,9696.697840
943.944895,-383.047749,-666.185348,9992.780217
943.945210,-229.828649,-814.226536,10288.862594
943.945526,-383.047749,-666.185348,10288.862594
943.945842,-383.047749,-518.144159,9844.739029
943.946158,-459.657299,-592.164754,9992.780217
943.946473,-306.438199,-222.061783,9474.636058
943.946789,0.000000,-74.020594,9326.594869
943.947105,229.828649,222.061783,9104.533087
943.947420,383.047749,444.123565,8882.471304
943.947736,842.705048,666.185348,8956.491898
943.948052,229.828649,444.123565,9104.533087
943.948368,536.266849,-0.000000,9474.636058
943.948683,306.438199,-148.041188,9474.636058
943.948999,153.219100,-370.102971,9696.697840
943.949315,0.000000,-666.185348,9844.739029
943.949631,229.828649,-740.205942,9992.780217
943.949946,306.438199,-444.123565,10140.821405
943.950262,306.438199,-592.164754,9918.759623
943.950578,689.485948,-370.102971,9622.677246
943.950893,919.314598,-148.041188,9474.636058
943.951209,1378.971896,-0.000000,8956.491898
943.951525,1608.800546,518.144159,8808.450710
943.951841,1532.190996,666.185348,8660.409521
943.952156,1225.752797,444.123565,8734.430116
943.952472,1302.362347,370.102971,9030.512492
943.952788,1302.362347,-148.041188,9326.594869
943.953104,612.876398,-814.226536,9326.594869
943.953419,306.438199,-740.205942,9696.697840
943.953735,-153.219100,-1036.288319,9770.718434
943.954051,0.000000,-1110.308913,10066.800811
943.954366,0.000000,-962.267725,10362.883188
943.954682,-229.828649,-666.185348,9918.759623
943.954998,0.000000,-888.247130,9548.656652
943.955314,153.219100,-0.000000,9400.615463
943.955629,306.438199,-0.000000,8956.491898
943.955945,689.485948,296.082377,8956.491898
943.956261,919.314598,444.123565,8660.409521
943.956577,383.047749,222.061783,8512.368333
943.956892,612.876398,-0.000000,8808.450710
943.957208,306.438199,-370.102971,9474.636058
943.957524,229.828649,-518.144159,9474.636058
943.957839,153.219100,-518.144159,9696.697840
943.958155,0.000000,-962.267725,10288.862594
943.958471,76.609550,-888.247130,10288.862594
943.958787,306.438199,-888.247130,10288.862594
943.959102,459.657299,-518.144159,9918.759623
943.959418,612.876398,-592.164754,9696.697840
943.959734,689.485948,-592.164754,9622.677246
943.960050,995.924147,-148.041188,9400.615463
943.960365,1378.971896,-0.000000,8956.491898
943.960681,1455.581446,444.123565,8734.430116
943.960997,1455.581446,592.164754,8734.430116
943.961312,1685.410096,-0.000000,9178.553681
943.961628,1149.143247,-222.061783,9178.553681
943.961944,766.095498,-296.082377,9548.656652
943.962260,229.828649,-592.164754,9770.718434
943.962575,-229.828649,-666.185348,9844.739029
943.962891,0.000000,-1258.350101,10510.924376
943.963207,-383.047749,-888.247130,10288.862594
943.963523,0.000000,-592.164754,10066.800811
943.963838,-306.438199,-370.102971,9474.636058
943.964154,0.000000,-0.000000,9474.636058
943.964470,76.609550,74.020594,9474.636058
943.964786,383.047749,592.164754,9104.533087
943.965102,306.438199,814.226536,8956.491898
943.965417,536.266849,888.247130,9030.512492
943.965733,689.485948,740.205942,9104.533087
943.966049,0.000000,148.041188,9474.636058
943.966365,459.657299,-148.041188,9622.677246
943.966681,0.000000,-148.041188,10066.800811
943.966997,-383.047749,-592.164754,10214.842000
943.967312,-229.828649,-740.205942,10436.903782
943.967628,0.000000,-1036.288319,10510.924376
943.967944,536.266849,-740.205942,10066.800811
943.968260,612.876398,-296.082377,9548.656652
943.968576,842.705048,-74.020594,9326.594869
943.968891,1225.752797,-0.000000,9104.533087
943.969207,1915.238745,740.205942,8882.471304
943.969523,1991.848295,888.247130,8364.327145
943.969839,1378.971896,592.164754,8512.368333
943.970155,1378.971896,148.041188,8734.430116
943.970471,1225.752797,-148.041188,9178.553681
943.970786,766.095498,-666.185348,9474.636058
943.971102,153.219100,-592.164754,9696.697840
943.971418,0.000000,-740.205942,9918.759623
943.971734,-229.828649,-1036.288319,10362.883188
943.972050,-229.828649,-1110.308913,10140.821405
943.972366,-459.657299,-814.226536,10214.842000
943.972681,0.000000,-518.144159,9992.780217
943.972997,0.000000,-296.082377,9474.636058
943.973313,383.047749,-0.000000,9104.533087
943.973629,536.266849,296.082377,9030.512492
943.973945,459.657299,370.102971,8808.450710
943.974260,766.095498,666.185348,8586.388927
943.974576,459.657299,296.082377,8956.491898
943.974892,612.876398,-0.000000,9178.553681
943.975208,306.438199,-296.082377,9326.594869
943.975524,383.047749,-148.041188,9622.677246
943.975840,-306.438199,-962.267725,9548.656652
943.976155,-153.219100,-740.205942,10140.821405
943.976471,76.609550,-666.185348,10214.842000
943.976787,153.219100,-740.205942,9770.718434
943.977103,306.438199,-444.123565,9696.697840
943.977419,842.705048,-0.000000,9474.636058
943.977735,1149.143247,-0.000000,9178.553681
943.978050,1225.752797,296.082377,8734.430116
943.978366,1302.362347,666.185348,8882.471304
943.978682,1225.752797,518.144159,8660.409521
943.978998,1302.362347,296.082377,9030.512492
943.979314,1149.143247,-0.000000,9178.553681
943.979630,766.095498,-222.061783,9622.677246
943.979945,536.266849,-814.226536,9622.677246
943.980261,-229.828649,-888.247130,9844.739029
943.980577,0.000000,-962.267725,10288.862594
943.980893,-306.438199,-740.205942,10140.821405
943.981209,0.000000,-444.123565,9992.780217
943.981524,229.828649,-592.164754,9548.656652
943.981840,-153.219100,-148.041188,9400.615463
943.982156,153.219100,-0.000000,9252.574275
943.982472,229.828649,222.061783,9178.553681
943.982788,459.657299,592.164754,9030.512492
943.983104,0.000000,296.082377,9252.574275
943.983419,76.609550,296.082377,9178.553681
943.983735,229.828649,-222.061783,9474.636058
943.984051,-153.219100,-518.144159,9622.677246
943.984367,153.219100,-962.267725,9844.739029
943.984683,-153.219100,-962.267725,10288.862594
943.984999,76.609550,-888.247130,10140.821405
943.985314,76.609550,-888.247130,10288.862594
943.985630,306.438199,-444.123565,10066.800811
943.985946,766.095498,-148.041188,9548.656652
943.986262,995.924147,-74.020594,9104.533087
943.986578,1532.190996,-0.000000,8956.491898
943.986894,1762.019645,296.082377,8808.450710
943.987209,1608.800546,888.247130,8438.347739
943.987525,1455.581446,888.247130,8660.409521
943.987841,1225.752797,370.102971,8808.450710
943.988157,1072.533697,-148.041188,9104.533087
943.988473,766.095498,-444.123565,9622.677246
943.988788,229.828649,-592.164754,9696.697840
943.989104,-306.438199,-962.267725,10066.800811
943.989420,-383.047749,-962.267725,10584.944971
943.989736,-459.657299,-888.247130,10288.862594
943.990052,-306.438199,-518.144159,10140.821405
943.990368,-229.828649,-370.102971,9622.677246
943.990683,0.000000,-148.041188,9400.615463
943.990999,306.438199,-74.020594,9104.533087
943.991315,383.047749,370.102971,9178.553681
943.991631,919.314598,740.205942,8586.388927
943.991947,919.314598,814.226536,8734.430116
943.992263,919.314598,-0.000000,8956.491898
943.992578,689.485948,-74.020594,9104.533087
943.992894,459.657299,-222.061783,9474.636058
943.993210,306.438199,-518.144159,9696.697840
943.993526,-459.657299,-888.247130,10140.821405
943.993842,0.000000,-1036.288319,9992.780217
943.994157,-153.219100,-962.267725,10214.842000
943.994473,0.000000,-518.144159,9918.759623
943.994789,153.219100,-148.041188,9696.697840
943.995105,766.095498,-222.061783,9474.636058
943.995421,919.314598,-0.000000,9326.594869
943.995737,1378.971896,-0.000000,8882.471304
943.996052,1378.971896,444.123565,8586.388927
943.996368,1532.190996,296.082377,8734.430116
943.996684,842.705048,296.082377,9104.533087
943.997000,842.705048,-370.102971,9474.636058
943.997316,459.657299,-444.123565,9696.697840
943.997632,229.828649,-518.144159,9844.739029
943.997947,76.609550,-740.205942,9770.718434
943.998263,-459.657299,-1110.308913,9992.780217
943.998579,0.000000,-444.123565,10140.821405
943.998895,-153.219100,-296.082377,9770.718434
943.999211,-229.828649,-74.020594,9622.677246
943.999527,0.000000,-0.000000,9400.615463
943.999842,0.000000,222.061783,9252.574275
944.000158,229.828649,518.144159,9104.533087
944.000474,0.000000,518.144159,8956.491898
944.000790,229.828649,296.082377,9252.574275
944.001106,383.047749,148.041188,9178.553681
944.001421,153.219100,-222.061783,9474.636058
944.001737,0.000000,-518.144159,9622.677246
944.002053,0.000000,-444.123565,9844.739029
944.002369,-229.828649,-740.205942,9992.780217
944.002685,229.828649,-888.247130,10362.883188
944.003001,0.000000,-740.205942,10214.842000
944.003316,383.047749,-222.061783,10066.800811
944.003632,1072.533697,-148.041188,9548.656652
944.003948,1302.362347,-0.000000,9400.615463
944.004264,1685.410096,-0.000000,8882.471304
944.004580,1838.629195,444.123565,8734.430116
944.004896,1915.238745,814.226536,8438.347739
944.005211,1838.629195,740.205942,8512.368333
944.005527,1762.019645,-0.000000,9104.533087
944.005843,995.924147,-0.000000,9252.574275
944.006159,612.876398,-518.144159,9400.615463
944.006475,76.609550,-740.205942,9918.759623
944.006791,-306.438199,-1036.288319,9992.780217
944.007106,-766.095498,-1406.391290,10658.965565
944.007422,-536.266849,-1258.350101,10584.944971
944.007738,-766.095498,-666.185348,10510.924376
944.008054,-306.438199,-296.082377,9918.759623
944.008370,-153.219100,-296.082377,9400.615463
944.008685,76.609550,-0.000000,9696.697840
944.009001,536.266849,370.102971,8808.450710
944.009317,689.485948,518.144159,8586.388927
944.009633,689.485948,740.205942,8438.347739
944.009949,1072.533697,518.144159,8734.430116
944.010265,689.485948,-296.082377,8956.491898
944.010580,766.095498,-0.000000,9326.594869
944.010896,153.219100,-296.082377,9622.677246
944.011212,0.000000,-518.144159,9918.759623
944.011528,0.000000,-814.226536,9992.780217
944.011844,0.000000,-888.247130,10288.862594
944.012160,76.609550,-518.144159,9992.780217
944.012475,383.047749,-222.061783,9622.677246
944.012791,842.705048,-0.000000,9400.615463
944.013107,842.705048,-0.000000,9104.533087
944.013423,1455.581446,-0.000000,9178.553681
944.013739,1378.971896,444.123565,8956.491898
944.014055,1378.971896,444.123565,8586.388927
944.014370,1149.143247,-0.000000,9104.533087
944.014686,919.314598,-148.041188,9474.636058
944.015002,536.266849,-518.144159,9474.636058
944.015318,153.219100,-444.123565,9622.677246
944.015634,76.609550,-518.144159,9918.759623
944.015949,0.000000,-370.102971,10214.842000
944.016265,0.000000,-444.123565,9844.739029
944.016581,-153.219100,-370.102971,9844.739029
944.016897,0.000000,-0.000000,9474.636058
944.017213,0.000000,-0.000000,9474.636058
944.017529,153.219100,-0.000000,9326.594869
944.017844,306.438199,296.082377,8956.491898
944.018160,383.047749,518.144159,9030.512492
944.018476,153.219100,444.123565,8956.491898
944.018792,0.000000,148.041188,9400.615463
944.019108,0.000000,-222.061783,9696.697840
944.019424,-76.609550,-296.082377,9918.759623
944.019739,-306.438199,-814.226536,10214.842000
944.020055,-459.657299,-1110.308913,9992.780217
944.020371,-153.219100,-1036.288319,10436.903782
944.020687,0.000000,-888.247130,10140.821405
944.021003,0.000000,-740.205942,10066.800811
944.021318,536.266849,-296.082377,9548.656652
944.021634,1302.362347,-0.000000,9104.533087
944.021950,1608.800546,222.061783,8882.471304
944.022266,1838.629195,666.185348,8734.430116
944.022582,1991.848295,814.226536,8512.368333
944.022898,1991.848295,740.205942,8290.306550
944.023213,1378.971896,296.082377,8660.409521
944.023529,1302.362347,-222.061783,9104.533087
944.023845,689.485948,-592.164754,9622.677246
944.024161,76.609550,-370.102971,10140.821405
944.024477,0.000000,-962.267725,10288.862594
944.024793,-306.438199,-1184.329507,10584.944971
944.025108,-536.266849,-1110.308913,10732.986159
944.025424,-612.876398,-888.247130,10140.821405
944.025740,-459.657299,-518.144159,9770.718434
944.026056,76.609550,-222.061783,9252.574275
944.026372,0.000000,-222.061783,9252.574275
944.026688,689.485948,296.082377,9104.533087
944.027003,689.485948,444.123565,8512.368333
944.027319,459.657299,518.144159,8956.491898
944.027635,842.705048,296.082377,8956.491898
944.027951,766.095498,-296.082377,9400.615463
944.028267,536.266849,-518.144159,9474.636058
944.028582,229.828649,-518.144159,9548.656652
944.028898,229.828649,-666.185348,10288.862594
944.029214,76.609550,-666.185348,10214.842000
944.029530,229.828649,-592.164754,10214.842000
944.029846,306.438199,-444.123565,9770.718434
944.030162,612.876398,-370.102971,9474.636058
944.030477,536.266849,-222.061783,9178.553681
944.030793,995.924147,-0.000000,9252.574275
944.031109,1302.362347,-0.000000,8808.450710
944.031425,1072.533697,-0.000000,8808.450710
944.031741,1072.533697,-0.000000,8734.430116
944.032057,842.705048,-148.041188,9178.553681
944.032372,459.657299,-222.061783,9252.574275
944.032688,76.609550,-296.082377,9474.636058
944.033004,76.609550,-592.164754,9548.656652
944.033320,0.000000,-740.205942,9770.718434
944.033636,-383.047749,-814.226536,9696.697840
944.033952,-306.438199,-592.164754,9918.759623
944.034267,0.000000,-592.164754,9696.697840
944.034583,76.609550,-518.144159,9474.636058
944.034899,306.438199,-0.000000,9400.615463
944.035215,459.657299,-74.020594,8956.491898
944.035531,459.657299,444.123565,9178.553681
944.035846,536.266849,592.164754,8660.409521
944.036162,76.609550,666.185348,9030.512492
944.036478,306.438199,370.102971,9326.594869
944.036794,0.000000,-148.041188,9400.615463
944.037110,0.000000,-296.082377,9696.697840
944.037426,-153.219100,-518.144159,10066.800811
944.037741,-229.828649,-666.185348,10214.842000
944.038057,0.000000,-814.226536,10214.842000
944.038373,0.000000,-592.164754,10214.842000
944.038689,153.219100,-740.205942,9770.718434
944.039005,689.485948,-222.061783,9622.677246
944.039321,1072.533697,148.041188,9252.574275
944.039636,1302.362347,296.082377,9104.533087
944.039952,1991.848295,740.205942,8734.430116
944.040268,1838.629195,962.267725,8364.327145
944.040584,1762.019645,1036.288319,8660.409521
944.040900,1455.581446,592.164754,8956.491898
944.041216,1149.143247,-0.000000,9400.615463
944.041531,766.095498,-444.123565,9400.615463
944.041847,459.657299,-444.123565,9844.739029
944.042163,-153.219100,-814.226536,9992.780217
944.042479,0.000000,-1036.288319,10658.965565
944.042795,-306.438199,-888.247130,10658.965565
944.043110,-229.828649,-518.144159,10140.821405
944.043426,-153.219100,-222.061783,9918.759623
944.043742,76.609550,-0.000000,9474.636058
944.044058,459.657299,148.041188,9474.636058
944.044374,766.095498,148.041188,9030.512492
944.044690,919.314598,666.185348,8734.430116
944.045005,459.657299,370.102971,8512.368333
944.045321,689.485948,222.061783,9030.512492
944.045637,689.485948,-148.041188,9548.656652
944.045953,229.828649,-370.102971,9548.656652
944.046269,0.000000,-592.164754,10066.800811
944.046585,0.000000,-1110.308913,9992.780217
944.046900,76.609550,-1036.288319,10436.903782
944.047216,0.000000,-962.267725,10140.821405
944.047532,306.438199,-814.226536,9770.718434
944.047848,383.047749,-296.082377,9474.636058
944.048164,919.314598,-74.020594,9474.636058
944.048479,1225.752797,-74.020594,8956.491898
944.048795,1225.752797,-0.000000,8882.471304
944.049111,1455.581446,370.102971,8734.430116
944.049427,1378.971896,296.082377,8882.471304
944.049743,995.924147,-74.020594,8882.471304
944.050059,919.314598,-296.082377,9030.512492
944.050374,0.000000,-592.164754,9474.636058
944.050690,76.609550,-370.102971,9844.739029
944.051006,-229.828649,-592.164754,9696.697840
944.051322,0.000000,-666.185348,9918.759623
944.051638,-383.047749,-592.164754,9918.759623
944.051954,-383.047749,-444.123565,9770.718434
944.052269,0.000000,-148.041188,9474.636058
944.052585,0.000000,-0.000000,9252.574275
944.052901,306.438199,-0.000000,9030.512492
944.053217,383.047749,296.082377,8882.471304
944.053533,383.047749,518.144159,8660.409521
944.053849,0.000000,592.164754,8734.430116
944.054164,153.219100,222.061783,9252.574275
944.054480,-153.219100,-296.082377,9400.615463
944.054796,0.000000,-666.185348,9548.656652
944.055112,-459.657299,-740.205942,9918.759623
944.055428,-229.828649,-740.205942,10140.821405
944.055743,0.000000,-1036.288319,9992.780217
944.056059,306.438199,-740.205942,10140.821405
944.056375,536.266849,-666.185348,9992.780217
944.056691,842.705048,-518.144159,9622.677246
944.057007,1302.362347,-0.000000,9252.574275
944.057323,2068.457845,-0.000000,8808.450710
944.057638,2374.896044,666.185348,9030.512492
944.057954,2221.676944,1110.308913,8660.409521
944.058270,1838.629195,740.205942,8438.347739
944.058586,1225.752797,444.123565,8882.471304
944.058902,842.705048,-148.041188,9326.594869
944.059218,536.266849,-518.144159,9770.718434
944.059533,-153.219100,-518.144159,9992.780217
944.059849,-306.438199,-888.247130,10140.821405
944.060165,-459.657299,-1110.308913,10510.924376
944.060481,-1072.533697,-962.267725,10658.965565
944.060797,0.000000,-888.247130,10436.903782
944.061113,-76.609550,-444.123565,9770.718434
944.061428,-229.828649,-148.041188,9474.636058
944.061744,612.876398,222.061783,9400.615463
944.062060,842.705048,592.164754,8956.491898
944.062376,1225.752797,814.226536,8882.471304
944.062692,995.924147,814.226536,8734.430116
944.063007,995.924147,370.102971,8956.491898
944.063323,842.705048,-0.000000,9400.615463
944.063639,459.657299,-222.061783,9918.759623
944.063955,383.047749,-444.123565,9770.718434
944.064271,0.000000,-740.205942,9844.739029
944.064587,0.000000,-814.226536,10214.842000
944.064902,0.000000,-740.205942,10214.842000
944.065218,306.438199,-518.144159,10066.800811
944.065534,383.047749,-592.164754,9696.697840
944.065850,612.876398,-296.082377,9326.594869
944.066166,995.924147,-222.061783,9104.533087
944.066482,1455.581446,-0.000000,9030.512492
944.066797,1302.362347,-0.000000,8734.430116
944.067113,919.314598,-0.000000,8956.491898
944.067429,1225.752797,-0.000000,8734.430116
944.067745,919.314598,-370.102971,9252.574275
944.068061,536.266849,-740.205942,9400.615463
944.068377,383.047749,-592.164754,9474.636058
944.068692,76.609550,-740.205942,9696.697840
944.069008,-229.828649,-592.164754,9844.739029
944.069324,-153.219100,-592.164754,9770.718434
944.069640,0.000000,-222.061783,9622.677246
944.069956,-383.047749,-74.020594,9326.594869
944.070272,-536.266849,-148.041188,9326.594869
944.070588,0.000000,-0.000000,9030.512492
944.070903,229.828649,222.061783,9030.512492
944.071219,229.828649,222.061783,8956.491898
944.071535,0.000000,444.123565,9178.553681
944.071851,76.609550,222.061783,9178.553681
944.072167,0.000000,-74.020594,9474.636058
944.072483,-229.828649,-222.061783,9696.697840
944.072798,-229.828649,-518.144159,9696.697840
944.073114,-612.876398,-888.247130,9992.780217
944.073430,-153.219100,-666.185348,10510.924376
944.073746,0.000000,-814.226536,10362.883188
944.074062,536.266849,-370.102971,9918.759623
944.074378,766.095498,-148.041188,9622.677246
944.074693,1762.019645,-0.000000,8956.491898
944.075009,1685.410096,370.102971,8808.450710
944.075325,1608.800546,888.247130,8808.450710
944.075641,1915.238745,962.267725,8438.347739
944.075957,1762.019645,962.267725,8364.327145
944.076273,1532.190996,296.082377,8882.471304
944.076588,995.924147,-74.020594,9178.553681
944.076904,689.485948,-296.082377,9696.697840
944.077220,76.609550,-518.144159,10066.800811
944.077536,-383.047749,-888.247130,10214.842000
944.077852,-306.438199,-1332.370696,10288.862594
944.078168,-306.438199,-962.267725,10658.965565
944.078484,-536.266849,-740.205942,10140.821405
944.078799,-229.828649,-296.082377,9918.759623
944.079115,153.219100,-148.041188,9696.697840
944.079431,766.095498,-0.000000,9474.636058
944.079747,842.705048,518.144159,9178.553681
944.080063,995.924147,888.247130,8808.450710
944.080379,919.314598,888.247130,8882.471304
944.080694,919.314598,666.185348,9030.512492
944.081010,919.314598,296.082377,9400.615463
944.081326,536.266849,-74.020594,9474.636058
944.081642,76.609550,-296.082377,9844.739029
944.081958,0.000000,-592.164754,10066.800811
944.082274,383.047749,-962.267725,10584.944971
944.082589,0.000000,-814.226536,10362.883188
944.082905,0.000000,-444.123565,10288.862594
944.083221,536.266849,-370.102971,9622.677246
944.083537,612.876398,-74.020594,9474.636058
944.083853,1302.362347,-296.082377,9252.574275
944.084169,1149.143247,-0.000000,9030.512492
944.084484,1225.752797,222.061783,8660.409521
944.084800,1225.752797,148.041188,8586.388927
944.085116,1072.533697,-0.000000,8808.450710
944.085432,919.314598,-592.164754,9178.553681
944.085748,459.657299,-888.247130,9474.636058
944.086064,0.000000,-666.185348,9696.697840
944.086379,0.000000,-888.247130,9696.697840
944.086695,0.000000,-962.267725,9770.718434
944.087011,-459.657299,-888.247130,9918.759623
944.087327,-153.219100,-444.123565,9474.636058
944.087643,-153.219100,-296.082377,9326.594869
944.087959,-229.828649,-0.000000,9252.574275
944.088275,76.609550,-0.000000,9104.533087
944.088590,0.000000,444.123565,8882.471304
944.088906,383.047749,666.185348,8882.471304
944.089222,383.047749,666.185348,9030.512492
944.089538,0.000000,222.061783,9104.533087
944.089854,153.219100,-296.082377,9548.656652
944.090170,0.000000,-444.123565,9844.739029
944.090485,0.000000,-592.164754,9992.780217
944.090801,-306.438199,-888.247130,9918.759623
944.091117,0.000000,-740.205942,10214.842000
944.091433,76.609550,-592.164754,10066.800811
944.091749,536.266849,-518.144159,9696.697840
944.092065,995.924147,-222.061783,9326.594869
944.092380,1225.752797,-0.000000,8956.491898
944.092696,1685.410096,222.061783,8808.450710
944.093012,1838.629195,592.164754,8512.368333
944.093328,1532.190996,962.267725,8808.450710
944.093644,1532.190996,814.226536,8586.388927
944.093960,995.924147,296.082377,9030.512492
944.094275,842.705048,-370.102971,9178.553681
944.094591,229.828649,-740.205942,9844.739029
944.094907,-459.657299,-1110.308913,10214.842000
944.095223,-536.266849,-1258.350101,10584.944971
944.095539,-612.876398,-1480.411884,10584.944971
944.095855,-766.095498,-1036.288319,10658.965565
944.096171,-612.876398,-1110.308913,10362.883188
944.096486,-229.828649,-444.123565,9770.718434
944.096802,0.000000,-74.020594,9252.574275
944.097118,459.657299,-0.000000,8882.471304
944.097434,766.095498,666.185348,8808.450710
944.097750,1072.533697,740.205942,8438.347739
944.098066,995.924147,1036.288319,8438.347739
944.098381,842.705048,444.123565,8660.409521
944.098697,766.095498,-0.000000,9252.574275
944.099013,306.438199,-222.061783,9474.636058
944.099329,0.000000,-444.123565,10066.800811
944.099645,-153.219100,-444.123565,10066.800811
944.099961,0.000000,-592.164754,10436.903782
944.100276,-153.219100,-888.247130,10362.883188
944.100592,306.438199,-518.144159,10214.842000
944.100908,76.609550,-296.082377,9918.759623
944.101224,612.876398,-0.000000,9474.636058
944.101540,842.705048,-148.041188,9252.574275
944.101856,1149.143247,222.061783,9178.553681
944.102171,1302.362347,444.123565,8882.471304
944.102487,1378.971896,592.164754,8660.409521
944.102803,1302.362347,222.061783,9030.512492
944.103119,1225.752797,-148.041188,9178.553681
944.103435,1149.143247,-370.102971,9474.636058
944.103751,536.266849,-592.164754,9400.615463
944.104066,306.438199,-740.205942,9548.656652
944.104382,229.828649,-740.205942,9918.759623
944.104698,0.000000,-518.144159,9992.780217
944.105014,-153.219100,-518.144159,9844.739029
944.105330,229.828649,-444.123565,9474.636058
944.105646,0.000000,-0.000000,9474.636058
944.105962,76.609550,-74.020594,9252.574275
944.106277,229.828649,148.041188,9030.512492
944.106593,459.657299,148.041188,8660.409521
944.106909,76.609550,296.082377,9030.512492
944.107225,229.828649,-0.000000,9178.553681
944.107541,229.828649,-222.061783,9400.615463
944.107857,842.705048,-814.226536,9622.677246
944.108172,-383.047749,-222.061783,10066.800811
944.108488,-229.828649,-1036.288319,10214.842000
944.108804,383.047749,-888.247130,10140.821405
944.109120,536.266849,-666.185348,9992.780217
944.109436,536.266849,-222.061783,9918.759623
944.109752,383.047749,-0.000000,9178.553681
944.110067,1149.143247,-0.000000,9178.553681
944.110383,1608.800546,148.041188,8734.430116
944.110699,1838.629195,592.164754,8586.388927
944.111015,1685.410096,740.205942,8586.388927
944.111331,995.924147,444.123565,8660.409521
944.111647,1225.752797,370.102971,8808.450710
944.111962,842.705048,-370.102971,9326.594869
944.112278,153.219100,-740.205942,9696.697840
944.112594,0.000000,-1036.288319,9770.718434
944.112910,-153.219100,-1406.391290,10140.821405
944.113226,-612.876398,-1184.329507,10584.944971
944.113542,-459.657299,-962.267725,10510.924376
944.113858,-536.266849,-666.185348,10140.821405
944.114173,0.000000,-222.061783,9844.739029
944.114489,229.828649,-370.102971,9400.615463
944.114805,459.657299,148.041188,9104.533087
944.115121,612.876398,592.164754,9104.533087
944.115437,842.705048,962.267725,8586.388927
944.115753,919.314598,888.247130,8734.430116
944.116068,995.924147,296.082377,8808.450710
944.116384,689.485948,-0.000000,9178.553681
944.116700,459.657299,-296.082377,9622.677246
944.117016,0.000000,-444.123565,9844.739029
944.117332,-76.609550,-962.267725,9992.780217
944.117648,0.000000,-888.247130,10214.842000
944.117963,-229.828649,-814.226536,10362.883188
944.118279,0.000000,-740.205942,10140.821405
944.118595,229.828649,-518.144159,9770.718434
944.118911,459.657299,-296.082377,9622.677246
944.119227,1225.752797,222.061783,9104.533087
944.119543,1225.752797,296.082377,8882.471304
944.119858,1302.362347,370.102971,8586.388927
944.120174,1455.581446,296.082377,8660.409521
944.120490,1378.971896,74.020594,9030.512492
944.120806,995.924147,222.061783,9326.594869
944.121122,919.314598,-370.102971,9474.636058
944.121438,383.047749,-592.164754,9696.697840
944.121754,0.000000,-592.164754,9770.718434
944.122069,0.000000,-814.226536,9918.759623
944.122385,-229.828649,-962.267725,10288.862594
944.122701,-153.219100,-148.041188,9696.697840
944.123017,-229.828649,-0.000000,9474.636058
944.123333,0.000000,148.041188,9474.636058
944.123649,0.000000,-0.000000,9326.594869
944.123964,0.000000,-0.000000,9104.533087
944.124280,76.609550,444.123565,8956.491898
944.124596,229.828649,666.185348,8882.471304
944.124912,76.609550,370.102971,9326.594869
944.125228,76.609550,-296.082377,9326.594869
944.125544,153.219100,-444.123565,9474.636058
944.125859,-153.219100,-592.164754,9992.780217
944.126175,0.000000,-740.205942,10140.821405
944.126491,76.609550,-888.247130,10214.842000
944.126807,229.828649,-518.144159,10288.862594
944.127123,995.924147,-222.061783,9844.739029
944.127439,919.314598,-0.000000,9548.656652
944.127754,1455.581446,222.061783,9030.512492
944.128070,1685.410096,370.102971,8734.430116
944.128386,1838.629195,592.164754,8660.409521
944.128702,1838.629195,814.226536,8512.368333
944.129018,1685.410096,666.185348,8512.368333
944.129334,1225.752797,-0.000000,8956.491898
944.129649,1149.143247,-444.123565,9400.615463
944.129965,536.266849,-740.205942,9696.697840
944.130281,0.000000,-1258.350101,10066.800811
944.130597,-766.095498,-1332.370696,10288.862594
944.130913,-842.705048,-1332.370696,10510.924376
944.131229,-689.485948,-1110.308913,10436.903782
944.131545,-689.485948,-1036.288319,10140.821405
944.131860,-229.828649,-592.164754,9770.718434
944.132176,-306.438199,-222.061783,9474.636058
944.132492,0.000000,-0.000000,9178.553681
944.132808,689.485948,518.144159,9104.533087
944.133124,612.876398,740.205942,8808.450710
944.133440,459.657299,666.185348,8882.471304
944.133755,842.705048,444.123565,8882.471304
944.134071,689.485948,-74.020594,9474.636058
944.134387,383.047749,-148.041188,9696.697840
944.134703,229.828649,-370.102971,9696.697840
944.135019,0.000000,-592.164754,9844.739029
944.135335,76.609550,-592.164754,10214.842000
944.135650,0.000000,-518.144159,10140.821405
944.135966,229.828649,-666.185348,9918.759623
944.136282,383.047749,-370.102971,9770.718434
944.136598,536.266849,222.061783,9474.636058
944.136914,919.314598,-222.061783,9178.553681
944.137230,1072.533697,148.041188,8808.450710
944.137545,1149.143247,296.082377,8956.491898
944.137861,1455.581446,148.041188,9104.533087
944.138177,1149.143247,-0.000000,9030.512492
944.138493,919.314598,-370.102971,9252.574275
944.138809,689.485948,-666.185348,9400.615463
944.139125,459.657299,-518.144159,9548.656652
944.139441,383.047749,-666.185348,9548.656652
944.139756,0.000000,-888.247130,9696.697840
944.140072,-153.219100,-814.226536,9918.759623
944.140388,0.000000,-222.061783,9696.697840
944.140704,153.219100,-148.041188,9400.615463
944.141020,0.000000,-148.041188,9474.636058
944.141336,306.438199,222.061783,9178.553681
944.141651,306.438199,444.123565,8956.491898
944.141967,383.047749,518.144159,8956.491898
944.142283,229.828649,222.061783,9178.553681
944.142599,153.219100,-592.164754,9474.636058
944.142915,229.828649,-74.020594,9474.636058
944.143231,0.000000,-444.123565,9622.677246
944.143546,0.000000,-592.164754,9992.780217
944.143862,-153.219100,-814.226536,10066.800811
944.144178,229.828649,-740.205942,10140.821405
944.144494,383.047749,-666.185348,10214.842000
944.144810,536.266849,-296.082377,9844.739029
944.145126,842.705048,-0.000000,9474.636058
944.145441,1455.581446,148.041188,9104.533087
944.145757,1915.238745,-0.000000,8660.409521
944.146073,1838.629195,518.144159,8734.430116
944.146389,1685.410096,814.226536,8512.368333
944.146705,1685.410096,666.185348,8734.430116
944.147021,1302.362347,370.102971,9104.533087
944.147336,766.095498,-0.000000,9474.636058
944.147652,689.485948,-518.144159,9770.718434
944.147968,76.609550,-592.164754,10066.800811
944.148284,-383.047749,-814.226536,10066.800811
944.148600,-459.657299,-888.247130,10362.883188
944.148916,-459.657299,-1184.329507,10510.924376
944.149232,-536.266849,-592.164754,10362.883188
944.149547,-306.438199,-296.082377,9844.739029
944.149863,-229.828649,-296.082377,9548.656652
944.150179,76.609550,-148.041188,9400.615463
944.150495,459.657299,370.102971,8956.491898
944.150811,842.705048,814.226536,8808.450710
944.151127,612.876398,666.185348,8734.430116
944.151442,842.705048,962.267725,9030.512492
944.151758,383.047749,-222.061783,9252.574275
944.152074,76.609550,-296.082377,9844.739029
944.152390,76.609550,-592.164754,9770.718434
944.152706,76.609550,-814.226536,9770.718434
944.153022,153.219100,-740.205942,10436.903782
944.153337,0.000000,-740.205942,10066.800811
944.153653,383.047749,-518.144159,9622.677246
944.153969,459.657299,-444.123565,9548.656652
944.154285,995.924147,-74.020594,9178.553681
944.154601,1149.143247,-0.000000,9252.574275
944.154917,1608.800546,-0.000000,8808.450710
944.155232,1225.752797,-0.000000,8586.388927
944.155548,1149.143247,-0.000000,8808.450710
944.155864,1225.752797,-0.000000,9030.512492
944.156180,229.828649,-518.144159,9326.594869
944.156496,612.876398,-666.185348,9400.615463
944.156812,76.609550,-370.102971,9770.718434
944.157128,0.000000,-592.164754,9770.718434
944.157443,0.000000,-666.185348,10066.800811
944.157759,-459.657299,-370.102971,9918.759623
944.158075,-459.657299,-518.144159,9548.656652
944.158391,-383.047749,-74.020594,9548.656652
944.158707,-383.047749,-74.020594,9178.553681
944.159023,0.000000,-0.000000,9252.574275
944.159338,153.219100,296.082377,9178.553681
944.159654,0.000000,444.123565,9030.512492
944.159970,0.000000,592.164754,9104.533087
944.160286,76.609550,148.041188,9178.553681
944.160602,459.657299,-296.082377,9696.697840
944.160918,229.828649,-148.041188,9918.759623
944.161233,0.000000,-222.061783,9770.718434
944.161549,0.000000,-814.226536,9918.759623
944.161865,153.219100,-592.164754,10140.821405
944.162181,612.876398,-444.123565,10362.883188
944.162497,689.485948,-370.102971,9918.759623
944.162813,1149.143247,-222.061783,9326.594869
944.163128,1608.800546,-0.000000,8956.491898
944.163444,1762.019645,296.082377,8882.471304
944.163760,1915.238745,444.123565,8586.388927
944.164076,1532.190996,740.205942,8734.430116
944.164392,1302.362347,740.205942,8734.430116
944.164708,995.924147,222.061783,9030.512492
944.165023,919.314598,-148.041188,9252.574275
944.165339,306.438199,-592.164754,9696.697840
944.165655,0.000000,-888.247130,10140.821405
944.165971,-459.657299,-1036.288319,10288.862594
944.166287,-536.266849,-1406.391290,10436.903782
944.166603,-459.657299,-1110.308913,10732.986159
944.166918,-383.047749,-666.185348,10214.842000
944.167234,0.000000,-518.144159,9696.697840
944.167550,0.000000,-0.000000,9178.553681
944.167866,459.657299,370.102971,8956.491898
944.168181,1072.533697,592.164754,8364.327145
944.168497,995.924147,1036.288319,8512.368333
944.168813,766.095498,888.247130,8512.368333
944.169129,536.266849,592.164754,9030.512492
944.169445,689.485948,-74.020594,9178.553681
944.169760,229.828649,-592.164754,9770.718434
944.170076,0.000000,-444.123565,10140.821405
944.170392,-229.828649,-666.185348,10362.883188
944.170708,-459.657299,-740.205942,10436.903782
944.171023,-306.438199,-370.102971,10288.862594
944.171339,306.438199,-518.144159,10066.800811
944.171655,229.828649,-296.082377,9622.677246
944.171971,306.438199,-444.123565,9474.636058
944.172287,1072.533697,-0.000000,9104.533087
944.172602,1455.581446,-0.000000,8808.450710
944.172918,1608.800546,444.123565,8956.491898
944.173234,1455.581446,370.102971,8660.409521
944.173550,1532.190996,222.061783,8512.368333
944.173865,1378.971896,-0.000000,9178.553681
944.174181,1225.752797,-370.102971,8956.491898
944.174497,689.485948,-518.144159,9474.636058
944.174813,383.047749,-444.123565,9696.697840
944.175129,-229.828649,-740.205942,10066.800811
944.175444,-612.876398,-592.164754,9992.780217
944.175760,-383.047749,-370.102971,9844.739029
944.176076,-459.657299,-370.102971,9474.636058
944.176392,-383.047749,-370.102971,9548.656652
944.176707,-459.657299,-148.041188,9474.636058
944.177023,0.000000,-74.020594,9400.615463
944.177339,-229.828649,-0.000000,8734.430116
944.177655,-153.219100,-0.000000,9400.615463
944.177970,0.000000,-222.061783,9548.656652
944.178286,0.000000,-592.164754,9474.636058
944.178602,306.438199,-444.123565,9918.759623
944.178918,153.219100,-666.185348,9622.677246
944.179234,306.438199,-814.226536,9844.739029
944.179549,612.876398,-740.205942,10066.800811
944.179865,766.095498,-518.144159,9770.718434
944.180181,1149.143247,-296.082377,9252.574275
944.180497,1149.143247,-0.000000,9030.512492
944.180812,1149.143247,74.020594,8808.450710
944.181128,1762.019645,592.164754,8660.409521
944.181444,1915.238745,518.144159,8586.388927
944.181760,1608.800546,666.185348,8660.409521
944.182076,1072.533697,370.102971,8956.491898
944.182391,689.485948,-0.000000,9326.594869
944.182707,306.438199,-518.144159,9696.697840
944.183023,-306.438199,-1110.308913,9992.780217
944.183339,-459.657299,-1110.308913,10140.821405
944.183654,-766.095498,-1480.411884,10436.903782
944.183970,-766.095498,-1184.329507,10807.006753
944.184286,-459.657299,-814.226536,10510.924376
944.184602,-153.219100,-444.123565,10140.821405
944.184918,306.438199,-74.020594,9474.636058
944.185233,995.924147,-0.000000,9326.594869
944.185549,842.705048,296.082377,8808.450710
944.185865,1072.533697,888.247130,8438.347739
944.186181,1608.800546,1036.288319,8512.368333
944.186496,1225.752797,1184.329507,8364.327145
944.186812,1302.362347,370.102971,9030.512492
944.187128,612.876398,-0.000000,9474.636058
944.187444,0.000000,-148.041188,9844.739029
944.187760,-153.219100,-518.144159,9992.780217
944.188075,-536.266849,-740.205942,10288.862594
944.188391,-383.047749,-814.226536,10807.006753
944.188707,-766.095498,-814.226536,10658.965565
944.189023,-383.047749,-740.205942,10362.883188
944.189338,-229.828649,-740.205942,9918.759623
944.189654,612.876398,-222.061783,9548.656652
944.189970,919.314598,-296.082377,9252.574275
944.190286,1149.143247,74.020594,8956.491898
944.190602,1685.410096,592.164754,9030.512492
944.190917,1762.019645,740.205942,8512.368333
944.191233,1608.800546,518.144159,8660.409521
944.191549,1455.581446,-0.000000,8734.430116
944.191865,1378.971896,-148.041188,8956.491898
944.192180,842.705048,-296.082377,9474.636058
944.192496,536.266849,-444.123565,9622.677246
944.192812,153.219100,-592.164754,9770.718434
944.193128,-229.828649,-518.144159,9992.780217
944.193443,-536.266849,-518.144159,9918.759623
944.193759,-306.438199,-148.041188,9548.656652
944.194075,-536.266849,-148.041188,9474.636058
944.194391,76.609550,-0.000000,9326.594869
944.194707,0.000000,148.041188,9474.636058
944.195022,0.000000,296.082377,9326.594869
944.195338,0.000000,296.082377,9252.574275
944.195654,0.000000,-0.000000,9252.574275
944.195970,459.657299,-370.102971,9622.677246
944.196285,-76.609550,-370.102971,9770.718434
944.196601,76.609550,-518.144159,9770.718434
944.196917,76.609550,-740.205942,9770.718434
944.197233,689.485948,-666.185348,9992.780217
944.197549,689.485948,-296.082377,9844.739029
944.197864,842.705048,-370.102971,9400.615463
944.198180,1302.362347,-0.000000,9104.533087
944.198496,1608.800546,-0.000000,8882.471304
944.198812,1915.238745,-0.000000,8956.491898
944.199127,1762.019645,814.226536,8808.450710
944.199443,1838.629195,962.267725,8882.471304
944.199759,1072.533697,370.102971,8734.430116
944.200075,995.924147,-0.000000,9030.512492
944.200391,766.095498,-444.123565,9696.697840
944.200706,76.609550,-740.205942,9918.759623
944.201022,-536.266849,-962.267725,10288.862594
944.201338,-536.266849,-1184.329507,10214.842000
944.201654,-459.657299,-1332.370696,10510.924376
944.201969,-383.047749,-1110.308913,10362.883188
944.202285,153.219100,-592.164754,10066.800811
944.202601,306.438199,-0.000000,9474.636058
944.202917,536.266849,-0.000000,8956.491898
944.203233,919.314598,370.102971,8956.491898
944.203548,1302.362347,444.123565,8882.471304
944.203864,1302.362347,1036.288319,8438.347739
944.204180,995.924147,814.226536,8364.327145
944.204496,1072.533697,370.102971,8808.450710
944.204811,536.266849,-0.000000,9326.594869
944.205127,459.657299,-222.061783,9918.759623
944.205443,-306.438199,-814.226536,9844.739029
944.205759,-612.876398,-1110.308913,10288.862594
944.206075,-689.485948,-1110.308913,10362.883188
944.206390,-766.095498,-1258.350101,10510.924376
944.206706,-459.657299,-814.226536,10214.842000
944.207022,0.000000,-666.185348,9770.718434
944.207338,306.438199,-592.164754,9474.636058
944.207653,995.924147,-74.020594,8956.491898
944.207969,1455.581446,-0.000000,8586.388927
944.208285,1455.581446,518.144159,8808.450710
944.208601,1608.800546,740.205942,8438.347739
944.208916,1225.752797,-0.000000,8660.409521
944.209232,1608.800546,-222.061783,9104.533087
944.209548,1072.533697,-74.020594,9252.574275
944.209864,306.438199,-444.123565,9474.636058
944.210180,229.828649,-518.144159,9696.697840
944.210495,-153.219100,-740.205942,9992.780217
944.210811,-306.438199,-592.164754,10288.862594
944.211127,-459.657299,-296.082377,9844.739029
944.211443,-459.657299,-296.082377,9548.656652
944.211758,-306.438199,-0.000000,9474.636058
944.212074,-306.438199,-0.000000,9474.636058
944.212390,76.609550,-148.041188,9252.574275
944.212706,306.438199,370.102971,9030.512492
944.213022,-229.828649,370.102971,9030.512492
944.213337,0.000000,-0.000000,9326.594869
944.213653,153.219100,-296.082377,9400.615463
944.213969,0.000000,-444.123565,9696.697840
944.214285,229.828649,-222.061783,9844.739029
944.214600,76.609550,-518.144159,9844.739029
944.214916,229.828649,-444.123565,9992.780217
944.215232,689.485948,-814.226536,9770.718434
944.215548,919.314598,-444.123565,9696.697840
944.215864,842.705048,-0.000000,9400.615463
944.216179,1532.190996,296.082377,8956.491898
944.216495,1762.019645,370.102971,8882.471304
944.216811,1685.410096,740.205942,8808.450710
944.217127,1455.581446,666.185348,8734.430116
944.217442,1302.362347,370.102971,8956.491898
944.217758,459.657299,-0.000000,9474.636058
944.218074,612.876398,-666.185348,9770.718434
944.218390,306.438199,-1184.329507,9918.759623
944.218706,76.609550,-1036.288319,9918.759623
944.219021,-766.095498,-1332.370696,10436.903782
944.219337,-229.828649,-1036.288319,10436.903782
944.219653,-229.828649,-962.267725,10436.903782
944.219969,-612.876398,-444.123565,10140.821405
944.220284,383.047749,-0.000000,9474.636058
944.220600,766.095498,-0.000000,9252.574275
944.220916,995.924147,296.082377,8882.471304
944.221232,1225.752797,592.164754,8438.347739
944.221548,1378.971896,814.226536,8364.327145
944.221863,1225.752797,592.164754,8956.491898
944.222179,766.095498,148.041188,8956.491898
944.222495,536.266849,-296.082377,9326.594869
944.222811,306.438199,-592.164754,9696.697840
944.223126,76.609550,-1036.288319,10140.821405
944.223442,-383.047749,-888.247130,10288.862594
944.223758,-536.266849,-1036.288319,10510.924376
944.224074,-536.266849,-962.267725,10214.842000
944.224390,-153.219100,-740.205942,9992.780217
944.224705,153.219100,-666.185348,9770.718434
944.225021,536.266849,-370.102971,9474.636058
944.225337,1072.533697,-370.102971,9104.533087
944.225653,1455.581446,148.041188,8660.409521
944.225968,1762.019645,518.144159,8512.368333
944.226284,1072.533697,148.041188,8734.430116
944.226600,1378.971896,222.061783,8734.430116
944.226916,1072.533697,-74.020594,8956.491898
944.227231,1072.533697,-222.061783,9326.594869
944.227547,383.047749,-592.164754,9400.615463
944.227863,76.609550,-814.226536,9622.677246
944.228179,0.000000,-814.226536,9992.780217
944.228495,-306.438199,-444.123565,10214.842000
944.228810,-229.828649,-222.061783,9918.759623
944.229126,-383.047749,-74.020594,9622.677246
944.229442,-153.219100,-222.061783,9474.636058
944.229758,0.000000,-0.000000,9252.574275
944.230073,0.000000,444.123565,9326.594869
944.230389,76.609550,518.144159,9252.574275
944.230705,306.438199,518.144159,9104.533087
944.231021,0.000000,296.082377,9252.574275
944.231337,229.828649,-518.144159,9474.636058
944.231652,229.828649,-370.102971,9918.759623
944.231968,0.000000,-444.123565,9918.759623
944.232284,383.047749,-666.185348,9844.739029
944.232600,536.266849,-592.164754,10066.800811
944.232915,536.266849,-296.082377,9992.780217
944.233231,689.485948,-444.123565,9548.656652
944.233547,1072.533697,-0.000000,9400.615463
944.233863,1149.143247,370.102971,9030.512492
944.234179,1762.019645,296.082377,8586.388927
944.234494,1608.800546,740.205942,8734.430116
944.234810,1302.362347,814.226536,8734.430116
944.235126,1072.533697,370.102971,9030.512492
944.235442,1149.143247,-222.061783,9474.636058
944.235757,383.047749,-444.123565,9844.739029
944.236073,76.609550,-888.247130,9992.780217
944.236389,-459.657299,-962.267725,10214.842000
944.236705,-459.657299,-1258.350101,10362.883188
944.237021,-536.266849,-1258.350101,10510.924376
944.237336,-306.438199,-962.267725,10214.842000
944.237652,-459.657299,-592.164754,10214.842000
944.237968,0.000000,-74.020594,9548.656652
944.238284,459.657299,222.061783,8956.491898
944.238599,842.705048,222.061783,8586.388927
944.238915,1302.362347,962.267725,8586.388927
944.239231,1378.971896,962.267725,8438.347739
944.239547,1072.533697,814.226536,8512.368333
944.239863,1302.362347,518.144159,8956.491898
944.240178,689.485948,-444.123565,9400.615463
944.240494,383.047749,-370.102971,9770.718434
944.240810,-229.828649,-740.205942,9918.759623
944.241126,-536.266849,-888.247130,10288.862594
944.241441,-306.438199,-1184.329507,10362.883188
944.241757,-306.438199,-962.267725,10362.883188
944.242073,76.609550,-592.164754,10066.800811
944.242389,536.266849,-370.102971,9474.636058
944.242704,1072.533697,-148.041188,9326.594869
944.243020,1149.143247,-148.041188,9104.533087
944.243336,1762.019645,-0.000000,8586.388927
944.243652,1838.629195,444.123565,8586.388927
944.243968,1762.019645,518.144159,8438.347739
944.244283,1762.019645,296.082377,8660.409521
944.244599,1685.410096,-0.000000,9178.553681
944.244915,1302.362347,-148.041188,9326.594869
944.245231,612.876398,-444.123565,9474.636058
944.245546,306.438199,-518.144159,9696.697840
944.245862,0.000000,-518.144159,9992.780217
944.246178,-306.438199,-740.205942,10140.821405
944.246494,-689.485948,-740.205942,9770.718434
944.246810,-459.657299,-370.102971,9622.677246
944.247125,-612.876398,-370.102971,9548.656652
944.247441,-306.438199,-444.123565,9400.615463
944.247757,-153.219100,-0.000000,9400.615463
944.248073,0.000000,296.082377,8956.491898
944.248388,-229.828649,296.082377,9030.512492
944.248704,0.000000,-0.000000,9326.594869
944.249020,0.000000,-296.082377,9474.636058
944.249336,229.828649,-296.082377,9474.636058
944.249652,153.219100,-148.041188,9844.739029
944.249967,0.000000,-814.226536,9770.718434
944.250283,612.876398,-962.267725,9992.780217
944.250599,689.485948,-370.102971,9770.718434
944.250915,1149.143247,-74.020594,9474.636058
944.251230,1149.143247,-0.000000,9104.533087
944.251546,1302.362347,-0.000000,8882.471304
944.251862,1532.190996,296.082377,8808.450710
944.252178,1915.238745,444.123565,8660.409521
944.252494,1685.410096,370.102971,8882.471304
944.252809,1072.533697,370.102971,8882.471304
944.253125,689.485948,-296.082377,9252.574275
944.253441,612.876398,-814.226536,9992.780217
944.253757,76.609550,-814.226536,9770.718434
944.254072,0.000000,-740.205942,10066.800811
944.254388,-536.266849,-962.267725,10362.883188
944.254704,-536.266849,-814.226536,10584.944971
944.255020,-153.219100,-814.226536,10140.821405
944.255336,0.000000,-592.164754,9992.780217
944.255651,0.000000,-0.000000,9474.636058
944.255967,306.438199,296.082377,9252.574275
944.256283,766.095498,518.144159,9030.512492
944.256599,383.047749,1110.308913,9030.512492
944.256914,1149.143247,1258.350101,8660.409521
944.257230,919.314598,1110.308913,8512.368333
944.257546,766.095498,666.185348,8808.450710
944.257862,459.657299,-74.020594,9400.615463
944.258177,153.219100,-222.061783,9696.697840
944.258493,-153.219100,-296.082377,9918.759623
944.258809,-612.876398,-592.164754,10214.842000
944.259125,-306.438199,-666.185348,10584.944971
944.259441,-229.828649,-666.185348,10288.862594
944.259756,153.219100,-666.185348,10140.821405
944.260072,153.219100,-222.061783,9696.697840
944.260388,383.047749,-222.061783,9400.615463
944.260704,995.924147,-74.020594,9252.574275
944.261019,1302.362347,148.041188,8882.471304
944.261335,1685.410096,370.102971,8808.450710
944.261651,1455.581446,740.205942,8734.430116
944.261967,1225.752797,296.082377,8734.430116
944.262283,1302.362347,-370.102971,9030.512492
944.262598,1149.143247,-518.144159,9474.636058
944.262914,76.609550,-518.144159,9622.677246
944.263230,0.000000,-518.144159,10066.800811
944.263546,-229.828649,-666.185348,9918.759623
944.263861,-153.219100,-518.144159,10066.800811
944.264177,-153.219100,-518.144159,10140.821405
944.264493,-306.438199,-370.102971,9326.594869
944.264809,-153.219100,-148.041188,9474.636058
944.265125,0.000000,-0.000000,9400.615463
944.265440,0.000000,148.041188,9030.512492
944.265756,306.438199,444.123565,9104.533087
944.266072,306.438199,222.061783,9178.553681
944.266388,153.219100,-148.041188,9400.615463
944.266703,0.000000,-518.144159,9474.636058
944.267019,306.438199,-518.144159,9622.677246
944.267335,153.219100,-666.185348,9622.677246
944.267651,383.047749,-888.247130,9696.697840
944.267966,306.438199,-666.185348,9918.759623
944.268282,689.485948,-518.144159,9770.718434
944.268598,995.924147,-296.082377,9474.636058
944.268913,1072.533697,-222.061783,9104.533087
944.269229,1225.752797,-0.000000,8882.471304
944.269545,1532.190996,-0.000000,8808.450710
944.269860,1762.019645,592.164754,8956.491898
944.270176,1455.581446,444.123565,8660.409521
944.270492,383.047749,-0.000000,8956.491898
944.270807,612.876398,-148.041188,9252.574275
944.271123,536.266849,-666.185348,9548.656652
944.271439,0.000000,-814.226536,9918.759623
944.271755,-306.438199,-1110.308913,10066.800811
944.272070,-306.438199,-1184.329507,10214.842000
944.272386,-766.095498,-1036.288319,10732.986159
944.272702,-76.609550,-814.226536,10362.883188
944.273017,-153.219100,-370.102971,9918.759623
944.273333,0.000000,-0.000000,9474.636058
944.273649,536.266849,-0.000000,9030.512492
944.273964,689.485948,444.123565,8956.491898
944.274280,1149.143247,888.247130,8734.430116
944.274596,995.924147,1184.329507,8660.409521
944.274911,459.657299,1406.391290,8808.450710
944.275227,1532.190996,666.185348,9252.574275
944.275543,459.657299,-148.041188,9622.677246
944.275858,0.000000,-370.102971,9548.656652
944.276174,-229.828649,-370.102971,10140.821405
944.276490,-536.266849,-814.226536,10140.821405
944.276806,-612.876398,-1110.308913,10584.944971
944.277121,-383.047749,-740.205942,10584.944971
944.277437,-229.828649,-592.164754,10288.862594
944.277753,153.219100,-444.123565,9770.718434
944.278068,459.657299,-296.082377,9696.697840
944.278384,1149.143247,-222.061783,9326.594869
944.278700,1762.019645,444.123565,8734.430116
944.279015,1838.629195,814.226536,8512.368333
944.279331,1608.800546,740.205942,8438.347739
944.279647,1762.019645,370.102971,8438.347739
944.279962,1378.971896,-0.000000,8882.471304
944.280278,1225.752797,-74.020594,9326.594869
944.280594,459.657299,-74.020594,9548.656652
944.280909,0.000000,-518.144159,9770.718434
944.281225,-153.219100,-592.164754,10066.800811
944.281541,-612.876398,-444.123565,10288.862594
944.281857,-766.095498,-296.082377,10066.800811
944.282172,-536.266849,-222.061783,9770.718434
944.282488,-383.047749,-296.082377,9622.677246
944.282804,-306.438199,-222.061783,9696.697840
944.283119,-229.828649,222.061783,9400.615463
944.283435,76.609550,444.123565,9178.553681
944.283751,229.828649,444.123565,9104.533087
944.284066,306.438199,148.041188,9178.553681
944.284382,306.438199,-0.000000,9474.636058
944.284698,689.485948,-296.082377,9474.636058
944.285013,383.047749,-222.061783,9696.697840
944.285329,306.438199,-592.164754,9696.697840
944.285645,536.266849,-444.123565,9844.739029
944.285960,689.485948,-370.102971,9622.677246
944.286276,766.095498,-296.082377,9548.656652
944.286592,919.314598,-222.061783,9104.533087
944.286908,1149.143247,-74.020594,9178.553681
944.287223,1225.752797,148.041188,8734.430116
944.287539,1378.971896,370.102971,8808.450710
944.287855,1072.533697,222.061783,8808.450710
944.288170,995.924147,-0.000000,8882.471304
944.288486,766.095498,-296.082377,9252.574275
944.288802,153.219100,-666.185348,9770.718434
944.289117,0.000000,-962.267725,9770.718434
944.289433,-459.657299,-1258.350101,10066.800811
944.289749,-459.657299,-1258.350101,10140.821405
944.290064,-306.438199,-1332.370696,10362.883188
944.290380,0.000000,-1110.308913,10214.842000
944.290696,0.000000,-592.164754,9622.677246
944.291011,383.047749,-222.061783,9252.574275
944.291327,919.314598,296.082377,9030.512492
944.291643,1072.533697,518.144159,8808.450710
944.291959,1072.533697,592.164754,8142.265362
944.292274,1302.362347,1036.288319,8438.347739
944.292590,842.705048,814.226536,8660.409521
944.292906,612.876398,370.102971,9030.512492
944.293221,459.657299,-370.102971,9474.636058
944.293537,-383.047749,-222.061783,9696.697840
944.293853,-766.095498,-666.185348,10140.821405
944.294168,-459.657299,-1110.308913,10066.800811
944.294484,-689.485948,-1110.308913,10584.944971
944.294800,-1072.533697,-1480.411884,10881.027347
944.295115,-153.219100,-962.267725,10066.800811
944.295431,153.219100,-518.144159,9622.677246
944.295747,689.485948,-296.082377,8956.491898
944.296062,1532.190996,-148.041188,8882.471304
944.296378,1685.410096,518.144159,8734.430116
944.296694,2068.457845,814.226536,8142.265362
944.297010,1762.019645,888.247130,8364.327145
944.297325,1838.629195,296.082377,8660.409521
944.297641,1608.800546,-296.082377,9104.533087
944.297957,995.924147,-148.041188,9400.615463
944.298272,612.876398,-592.164754,9474.636058
944.298588,0.000000,-370.102971,9918.759623
944.298904,-536.266849,-666.185348,10140.821405
944.299219,-536.266849,-592.164754,10510.924376
944.299535,-842.705048,-222.061783,10288.862594
944.299851,-995.924147,-222.061783,9918.759623
944.300166,-766.095498,-148.041188,9918.759623
944.300482,-459.657299,-74.020594,9474.636058
944.300798,-229.828649,518.144159,9696.697840
944.301113,306.438199,592.164754,9326.594869
944.301429,153.219100,444.123565,8956.491898
944.301745,153.219100,296.082377,9252.574275
944.302061,612.876398,-74.020594,9400.615463
944.302376,766.095498,-222.061783,9696.697840
944.302692,383.047749,-296.082377,9992.780217
944.303008,459.657299,-518.144159,9770.718434
944.303323,842.705048,-444.123565,9992.780217
944.303639,919.314598,-74.020594,9992.780217
944.303955,919.314598,-296.082377,9474.636058
944.304270,1149.143247,-0.000000,9326.594869
944.304586,1225.752797,296.082377,8882.471304
944.304902,1532.190996,222.061783,8808.450710
944.305217,1225.752797,370.102971,9104.533087
944.305533,1149.143247,444.123565,8734.430116
944.305849,842.705048,148.041188,9104.533087
944.306164,842.705048,-444.123565,9400.615463
944.306480,459.657299,-592.164754,9696.697840
944.306796,229.828649,-962.267725,9918.759623
944.307112,-383.047749,-1036.288319,10214.842000
944.307427,-229.828649,-888.247130,10066.800811
944.307743,-306.438199,-1184.329507,10288.862594
944.308059,-153.219100,-814.226536,10140.821405
944.308374,-459.657299,-148.041188,9548.656652
944.308690,229.828649,-0.000000,9326.594869
944.309006,383.047749,-0.000000,8882.471304
944.309321,995.924147,296.082377,8586.388927
944.309637,995.924147,592.164754,8586.388927
944.309953,842.705048,740.205942,8660.409521
944.310268,383.047749,444.123565,8882.471304
944.310584,536.266849,222.061783,9030.512492
944.310900,306.438199,-444.123565,9548.656652
944.311215,0.000000,-666.185348,9844.739029
944.311531,-995.924147,-1258.350101,10140.821405
944.311847,-842.705048,-1332.370696,10362.883188
944.312163,-689.485948,-1184.329507,10658.965565
944.312478,-612.876398,-962.267725,10510.924376
944.312794,0.000000,-814.226536,10066.800811
944.313110,536.266849,-740.205942,9844.739029
944.313425,766.095498,-296.082377,9178.553681
944.313741,1455.581446,148.041188,8734.430116
944.314057,1608.800546,518.144159,8586.388927
944.314372,1762.019645,740.205942,8512.368333
944.314688,1838.629195,592.164754,8290.306550
944.315004,1762.019645,-0.000000,8882.471304
944.315319,1455.581446,-148.041188,8882.471304
944.315635,612.876398,-296.082377,9474.636058
944.315951,766.095498,-444.123565,9622.677246
944.316266,383.047749,-814.226536,10140.821405
944.316582,-76.609550,-666.185348,10066.800811
944.316898,-383.047749,-518.144159,10214.842000
944.317214,-766.095498,-444.123565,9918.759623
944.317529,-459.657299,-444.123565,9844.739029
944.317845,-536.266849,-222.061783,9622.677246
944.318161,-229.828649,-0.000000,9474.636058
944.318476,153.219100,222.061783,9178.553681
944.318792,229.828649,740.205942,9030.512492
944.319108,76.609550,444.123565,8956.491898
944.319423,306.438199,-0.000000,9474.636058
944.319739,612.876398,-74.020594,9474.636058
944.320055,612.876398,-296.082377,9622.677246
944.320370,229.828649,-222.061783,9918.759623
944.320686,-153.219100,-518.144159,10140.821405
944.321002,306.438199,-518.144159,10066.800811
944.321317,612.876398,-444.123565,9918.759623
944.321633,995.924147,-296.082377,9696.697840
944.321949,1149.143247,-148.041188,9474.636058
944.322265,1455.581446,-0.000000,9178.553681
944.322580,1455.581446,-0.000000,9104.533087
944.322896,1762.019645,592.164754,8882.471304
944.323212,1455.581446,666.185348,8956.491898
944.323527,995.924147,518.144159,8882.471304
944.323843,1225.752797,-370.102971,9548.656652
944.324159,536.266849,-592.164754,9770.718434
944.324474,153.219100,-888.247130,9992.780217
944.324790,-383.047749,-1036.288319,10066.800811
944.325106,-306.438199,-1036.288319,10584.944971
944.325421,-536.266849,-1332.370696,10362.883188
944.325737,-229.828649,-666.185348,10288.862594
944.326053,-153.219100,-370.102971,9844.739029
944.326368,229.828649,-0.000000,9252.574275
944.326684,306.438199,222.061783,8808.450710
944.327000,842.705048,444.123565,8808.450710
944.327316,842.705048,592.164754,8586.388927
944.327631,919.314598,888.247130,8586.388927
944.327947,919.314598,518.144159,8660.409521
944.328263,536.266849,148.041188,9030.512492
944.328578,459.657299,-518.144159,9474.636058
944.328894,-306.438199,-814.226536,9770.718434
944.329210,-459.657299,-740.205942,9844.739029
944.329525,-612.876398,-962.267725,10214.842000
944.329841,-306.438199,-1332.370696,10436.903782
944.330157,0.000000,-740.205942,10288.862594
944.330472,0.000000,-888.247130,9992.780217
944.330788,153.219100,-518.144159,9622.677246
944.331104,689.485948,-370.102971,9400.615463
944.331419,1608.800546,-296.082377,9030.512492
944.331735,1225.752797,-0.000000,8438.347739
944.332051,1685.410096,444.123565,8438.347739
944.332367,1762.019645,444.123565,8290.306550
944.332682,1685.410096,148.041188,8586.388927
944.332998,1149.143247,-370.102971,8956.491898
944.333314,766.095498,-370.102971,9178.553681
944.333629,76.609550,-296.082377,9548.656652
944.333945,-153.219100,-814.226536,9696.697840
944.334261,-459.657299,-888.247130,10288.862594
944.334576,-459.657299,-1036.288319,9844.739029
944.334892,-766.095498,-666.185348,9696.697840
944.335208,-689.485948,-592.164754,9548.656652
944.335523,0.000000,-296.082377,9548.656652
944.335839,-383.047749,-0.000000,9252.574275
944.336155,0.000000,370.102971,9326.594869
944.336470,0.000000,444.123565,9104.533087
944.336786,0.000000,370.102971,8956.491898
944.337102,0.000000,74.020594,9696.697840
944.337418,229.828649,-222.061783,9696.697840
944.337733,229.828649,-370.102971,9696.697840
944.338049,76.609550,-296.082377,9844.739029
944.338365,919.314598,-518.144159,10140.821405
944.338680,459.657299,-666.185348,10066.800811
944.338996,766.095498,-518.144159,9992.780217
944.339312,919.314598,-0.000000,9918.759623
944.339627,1149.143247,-0.000000,9400.615463
944.339943,1532.190996,222.061783,9030.512492
944.340259,1608.800546,296.082377,8808.450710
944.340574,1762.019645,666.185348,8808.450710
944.340890,1685.410096,592.164754,8734.430116
944.341206,1225.752797,296.082377,8808.450710
944.341521,995.924147,-0.000000,9400.615463
944.341837,306.438199,-740.205942,9844.739029
944.342153,153.219100,-740.205942,9918.759623
944.342469,-383.047749,-814.226536,10362.883188
944.342784,-459.657299,-1110.308913,10362.883188
944.343100,-459.657299,-962.267725,10436.903782
944.343416,-383.047749,-518.144159,10140.821405
944.343731,0.000000,-518.144159,9844.739029
944.344047,229.828649,-0.000000,9474.636058
944.344363,459.657299,222.061783,9030.512492
944.344678,1149.143247,814.226536,8808.450710
944.344994,1072.533697,888.247130,8438.347739
944.345310,1149.143247,1184.329507,8364.327145
944.345625,842.705048,814.226536,8512.368333
944.345941,383.047749,592.164754,8956.491898
944.346257,153.219100,-222.061783,9474.636058
944.346572,76.609550,-222.061783,9770.718434
944.346888,-612.876398,-444.123565,9992.780217
944.347204,-459.657299,-888.247130,10362.883188
944.347520,-536.266849,-888.247130,10510.924376
944.347835,-459.657299,-518.144159,10288.862594
944.348151,229.828649,-592.164754,10140.821405
944.348467,153.219100,-222.061783,9992.780217
944.348782,612.876398,-148.041188,9326.594869
944.349098,1149.143247,-0.000000,9030.512492
944.349414,1608.800546,518.144159,8586.388927
944.349729,1915.238745,592.164754,8364.327145
944.350045,1915.238745,740.205942,8364.327145
944.350361,1762.019645,296.082377,8808.450710
944.350676,1302.362347,-148.041188,9030.512492
944.350992,1072.533697,-370.102971,9178.553681
944.351308,306.438199,-740.205942,9844.739029
944.351623,76.609550,-740.205942,9696.697840
944.351939,-229.828649,-888.247130,9918.759623
944.352255,-459.657299,-740.205942,10214.842000
944.352571,-612.876398,-666.185348,9992.780217
944.352886,-536.266849,-518.144159,9622.677246
944.353202,-536.266849,-222.061783,9622.677246
944.353518,-153.219100,-296.082377,9400.615463
944.353833,-306.438199,-0.000000,9252.574275
944.354149,0.000000,296.082377,9178.553681
944.354465,229.828649,74.020594,9104.533087
944.354780,229.828649,148.041188,9178.553681
944.355096,229.828649,-222.061783,9474.636058
944.355412,76.609550,-296.082377,9622.677246
944.355727,229.828649,-666.185348,9548.656652
944.356043,0.000000,-592.164754,9770.718434
944.356359,536.266849,-666.185348,9992.780217
944.356674,612.876398,-370.102971,9918.759623
944.356990,842.705048,-74.020594,9474.636058
944.357306,1302.362347,-0.000000,9326.594869
944.357622,919.314598,148.041188,8882.471304
944.357937,1455.581446,-0.000000,8808.450710
944.358253,1455.581446,444.123565,8660.409521
944.358569,1378.971896,592.164754,8882.471304
944.358884,995.924147,444.123565,8882.471304
944.359200,612.876398,-222.061783,9252.574275
