#time,accel_x,accel_y,accel_z
566.826330,612.876398,296.082377,10436.903782
566.826646,842.705048,-0.000000,9844.739029
566.826961,1149.143247,962.267725,9474.636058
566.827277,919.314598,888.247130,9400.615463
566.827593,1762.019645,1258.350101,9030.512492
566.827909,1608.800546,1628.453072,8734.430116
566.828225,1685.410096,1036.288319,8882.471304
566.828540,1532.190996,1184.329507,9178.553681
566.828856,1225.752797,1110.308913,9400.615463
566.829172,1378.971896,1036.288319,9474.636058
566.829488,1072.533697,814.226536,9770.718434
566.829803,842.705048,1036.288319,9770.718434
566.830119,1149.143247,962.267725,10214.842000
566.830435,612.876398,592.164754,9918.759623
566.830751,536.266849,888.247130,10140.821405
566.831066,995.924147,370.102971,9770.718434
566.831382,919.314598,222.061783,9918.759623
566.831698,1302.362347,444.123565,10066.800811
566.832014,1455.581446,518.144159,9992.780217
566.832329,1532.190996,444.123565,9474.636058
566.832645,1991.848295,518.144159,9622.677246
566.832961,1991.848295,814.226536,9252.574275
566.833277,2757.943793,1258.350101,9178.553681
566.833592,3064.381992,1702.473667,8882.471304
566.833908,3370.820191,1628.453072,8808.450710
566.834224,3294.210641,1554.432478,8734.430116
566.834540,3677.258390,1258.350101,8956.491898
566.834855,3677.258390,1036.288319,9104.533087
566.835171,3677.258390,740.205942,9252.574275
566.835487,3524.039291,740.205942,9474.636058
566.835803,3294.210641,814.226536,9400.615463
566.836118,3447.429741,666.185348,9548.656652
566.836434,3064.381992,814.226536,9400.615463
566.836750,2528.115143,1184.329507,9400.615463
566.837066,2834.553343,1184.329507,9474.636058
566.837381,2681.334243,1184.329507,9252.574275
566.837697,2757.943793,1850.514855,9178.553681
566.838013,2451.505594,1628.453072,9400.615463
566.838329,2374.896044,2072.576638,9326.594869
566.838644,2451.505594,1998.556043,9474.636058
566.838960,2604.724693,1702.473667,9326.594869
566.839276,2374.896044,1924.535449,9474.636058
566.839592,2374.896044,2146.597232,9474.636058
566.839907,2374.896044,2294.638420,9400.615463
566.840223,2451.505594,2146.597232,9400.615463
566.840539,2221.676944,2294.638420,9252.574275
566.840855,2068.457845,1850.514855,9178.553681
566.841170,1838.629195,1850.514855,9104.533087
566.841486,1149.143247,1850.514855,9548.656652
566.841802,766.095498,1406.391290,9474.636058
566.842118,306.438199,1406.391290,9400.615463
566.842433,-383.047749,962.267725,10066.800811
566.842749,-919.314598,518.144159,10214.842000
566.843065,-1608.800546,148.041188,10658.965565
566.843381,-1378.971896,-0.000000,10732.986159
566.843696,-2068.457845,-592.164754,11029.068536
566.844012,-1685.410096,-296.082377,10881.027347
566.844328,-1149.143247,-444.123565,10881.027347
566.844644,-689.485948,-222.061783,10140.821405
566.844959,76.609550,222.061783,10066.800811
566.845275,1149.143247,-222.061783,9548.656652
566.845591,1762.019645,592.164754,8956.491898
566.845907,1838.629195,1110.308913,8734.430116
566.846222,2068.457845,962.267725,8364.327145
566.846538,2451.505594,1110.308913,8068.244768
566.846854,1838.629195,1110.308913,8290.306550
566.847170,1838.629195,1184.329507,8438.347739
566.847485,1072.533697,740.205942,8808.450710
566.847801,459.657299,-0.000000,9104.533087
566.848117,-306.438199,-740.205942,9474.636058
566.848433,-919.314598,-1406.391290,9918.759623
566.848748,-1532.190996,-1628.453072,10214.842000
566.849064,-2145.067394,-2072.576638,10732.986159
566.849380,-2221.676944,-2072.576638,10807.006753
566.849696,-2451.505594,-2072.576638,10732.986159
566.850011,-2298.286494,-1406.391290,10214.842000
566.850327,-1378.971896,-962.267725,10214.842000
566.850643,-995.924147,-814.226536,9474.636058
566.850959,-536.266849,-592.164754,8956.491898
566.851274,76.609550,-296.082377,8364.327145
566.851590,766.095498,-222.061783,8068.244768
566.851906,1302.362347,-0.000000,7846.182985
566.852221,1149.143247,296.082377,7624.121203
566.852537,995.924147,-0.000000,7994.224174
566.852853,229.828649,-296.082377,8512.368333
566.853168,-76.609550,-814.226536,9400.615463
566.853484,-306.438199,-1406.391290,9770.718434
566.853800,-1072.533697,-2146.597232,10362.883188
566.854116,-1532.190996,-2664.741391,10732.986159
566.854431,-995.924147,-2812.782580,11473.192101
566.854747,-1302.362347,-2516.700203,11177.109724
566.855063,-612.876398,-2294.638420,10584.944971
566.855378,229.828649,-1628.453072,10362.883188
566.855694,766.095498,-740.205942,9474.636058
566.856010,1532.190996,222.061783,8956.491898
566.856325,2911.162892,592.164754,7920.203579
566.856641,3907.087040,1110.308913,7402.059420
566.856957,3907.087040,1184.329507,7179.997637
566.857272,4136.915689,1036.288319,7179.997637
566.857588,4366.744339,666.185348,7550.100608
566.857904,3524.039291,518.144159,7772.162391
566.858219,2987.772442,-0.000000,8438.347739
566.858535,2374.896044,-740.205942,9474.636058
566.858851,1302.362347,-1332.370696,9992.780217
566.859166,0.000000,-1258.350101,10732.986159
566.859482,-689.485948,-1036.288319,10955.047942
566.859798,-919.314598,-1258.350101,11177.109724
566.860113,-1532.190996,-740.205942,10881.027347
566.860429,-1149.143247,-296.082377,10140.821405
566.860745,-995.924147,-74.020594,9770.718434
566.861060,-536.266849,-0.000000,9326.594869
566.861376,0.000000,740.205942,9030.512492
566.861692,76.609550,1036.288319,8808.450710
566.862007,153.219100,962.267725,8438.347739
566.862323,306.438199,962.267725,8586.388927
566.862639,459.657299,518.144159,9104.533087
566.862954,0.000000,518.144159,9548.656652
566.863270,0.000000,296.082377,10066.800811
566.863586,-383.047749,-222.061783,10732.986159
566.863901,-689.485948,148.041188,10881.027347
566.864217,-689.485948,222.061783,10955.047942
566.864533,-842.705048,370.102971,10807.006753
566.864848,-536.266849,148.041188,10214.842000
566.865164,-689.485948,740.205942,10584.944971
566.865480,0.000000,814.226536,9918.759623
566.865795,153.219100,814.226536,9252.574275
566.866111,612.876398,1258.350101,8956.491898
566.866427,1532.190996,1406.391290,8512.368333
566.866742,1302.362347,1480.411884,8364.327145
566.867058,1455.581446,1258.350101,8438.347739
566.867374,1302.362347,962.267725,8660.409521
566.867689,842.705048,740.205942,8882.471304
566.868005,459.657299,370.102971,9474.636058
566.868321,76.609550,222.061783,9770.718434
566.868636,76.609550,-0.000000,10214.842000
566.868952,-229.828649,-296.082377,10510.924376
566.869268,-153.219100,-296.082377,10510.924376
566.869583,-536.266849,-74.020594,10584.944971
566.869899,-536.266849,-0.000000,10066.800811
566.870215,-229.828649,222.061783,9622.677246
566.870530,153.219100,444.123565,9252.574275
566.870846,383.047749,296.082377,9030.512492
566.871162,459.657299,592.164754,8512.368333
566.871478,689.485948,444.123565,8216.285956
566.871793,306.438199,-0.000000,8586.388927
566.872109,0.000000,-370.102971,9104.533087
566.872425,0.000000,-1184.329507,9622.677246
566.872740,-306.438199,-1258.350101,9918.759623
566.873056,-766.095498,-1406.391290,10288.862594
566.873372,-689.485948,-1554.432478,10658.965565
566.873687,-842.705048,-1554.432478,11103.089130
566.874003,-459.657299,-1554.432478,11029.068536
566.874319,0.000000,-1110.308913,10584.944971
566.874634,689.485948,-1036.288319,9696.697840
566.874950,1225.752797,-518.144159,9400.615463
566.875266,2068.457845,-148.041188,8512.368333
566.875581,2528.115143,-0.000000,8068.244768
566.875897,3370.820191,518.144159,7476.080014
566.876213,2911.162892,518.144159,7105.977043
566.876528,3064.381992,296.082377,7179.997637
566.876844,2681.334243,-0.000000,7920.203579
566.877160,1991.848295,-592.164754,8734.430116
566.877475,1225.752797,-1036.288319,9104.533087
566.877791,459.657299,-1480.411884,9548.656652
566.878107,-229.828649,-1776.494261,10288.862594
566.878422,-766.095498,-1850.514855,10955.047942
566.878738,-1455.581446,-2146.597232,11177.109724
566.879054,-1378.971896,-1924.535449,11103.089130
566.879369,-995.924147,-1480.411884,10214.842000
566.879685,-536.266849,-962.267725,9992.780217
566.880001,-229.828649,-592.164754,9252.574275
566.880316,766.095498,-592.164754,8660.409521
566.880632,1225.752797,-0.000000,7994.224174
566.880948,1378.971896,-0.000000,7624.121203
566.881263,1378.971896,-148.041188,7994.224174
566.881579,1302.362347,-592.164754,8512.368333
566.881895,536.266849,-1036.288319,9030.512492
566.882210,76.609550,-1258.350101,9770.718434
566.882526,-459.657299,-1406.391290,10288.862594
566.882842,-842.705048,-1258.350101,10881.027347
566.883157,-1072.533697,-1776.494261,11473.192101
566.883473,-766.095498,-1110.308913,11103.089130
566.883789,-612.876398,-666.185348,10881.027347
566.884104,0.000000,-296.082377,10214.842000
566.884420,383.047749,-148.041188,9622.677246
566.884736,689.485948,-0.000000,9178.553681
566.885051,1762.019645,222.061783,8808.450710
566.885367,2221.676944,740.205942,8216.285956
566.885683,2374.896044,1110.308913,7698.141797
566.885998,2298.286494,1110.308913,7846.182985
566.886314,2068.457845,592.164754,8068.244768
566.886630,1608.800546,518.144159,8512.368333
566.886945,1149.143247,-0.000000,9252.574275
566.887261,306.438199,-74.020594,9770.718434
566.887577,-229.828649,-370.102971,10214.842000
566.887892,-612.876398,-444.123565,11325.150913
566.888208,-1149.143247,-222.061783,11029.068536
566.888524,-1225.752797,-74.020594,11029.068536
566.888839,-995.924147,666.185348,10510.924376
566.889155,-306.438199,888.247130,9992.780217
566.889471,0.000000,814.226536,9326.594869
566.889787,459.657299,1258.350101,8808.450710
566.890102,766.095498,1332.370696,8364.327145
566.890418,1302.362347,1332.370696,8216.285956
566.890734,1225.752797,1036.288319,8586.388927
566.891049,919.314598,666.185348,8660.409521
566.891365,306.438199,-0.000000,9400.615463
566.891681,0.000000,-148.041188,9770.718434
566.891996,-383.047749,-222.061783,10510.924376
566.892312,-536.266849,-444.123565,10658.965565
566.892628,-766.095498,-370.102971,11325.150913
566.892943,-536.266849,-222.061783,10955.047942
566.893259,-306.438199,-0.000000,10732.986159
566.893575,459.657299,296.082377,10214.842000
566.893890,842.705048,222.061783,9770.718434
566.894206,1378.971896,518.144159,9030.512492
566.894522,2068.457845,814.226536,8586.388927
566.894837,2757.943793,1184.329507,8068.244768
566.895153,3064.381992,1258.350101,7772.162391
566.895469,3140.991542,1258.350101,7476.080014
566.895784,2451.505594,592.164754,8142.265362
566.896100,1915.238745,-0.000000,8734.430116
566.896416,1149.143247,-370.102971,9326.594869
566.896731,689.485948,-592.164754,9992.780217
566.897047,-459.657299,-1110.308913,10732.986159
566.897363,-766.095498,-1406.391290,11103.089130
566.897678,-995.924147,-1184.329507,11325.150913
566.897994,-919.314598,-1110.308913,11029.068536
566.898310,-919.314598,-740.205942,10362.883188
566.898625,-306.438199,-518.144159,9992.780217
566.898941,0.000000,-148.041188,9252.574275
566.899257,612.876398,-0.000000,8512.368333
566.899572,1149.143247,370.102971,7920.203579
566.899888,1302.362347,148.041188,7920.203579
566.900204,1149.143247,-222.061783,7994.224174
566.900519,919.314598,-814.226536,8364.327145
566.900835,306.438199,-1406.391290,9178.553681
566.901151,0.000000,-1776.494261,9696.697840
566.901466,-842.705048,-1924.535449,10510.924376
566.901782,-1225.752797,-1702.473667,11029.068536
566.902098,-1532.190996,-1776.494261,11103.089130
566.902413,-1225.752797,-1702.473667,10807.006753
566.902729,-612.876398,-1184.329507,10658.965565
566.903045,-689.485948,-962.267725,10066.800811
566.903360,459.657299,-740.205942,9474.636058
566.903676,1455.581446,-296.082377,8882.471304
566.903992,2221.676944,-0.000000,8216.285956
566.904307,2604.724693,222.061783,7476.080014
566.904623,2834.553343,222.061783,7328.038826
566.904939,2681.334243,296.082377,7550.100608
566.905254,2298.286494,-0.000000,7846.182985
566.905570,1685.410096,-148.041188,8364.327145
566.905886,612.876398,-962.267725,9252.574275
566.906201,76.609550,-1036.288319,9770.718434
566.906517,-612.876398,-1332.370696,10584.944971
566.906833,-919.314598,-1184.329507,10955.047942
566.907149,-1225.752797,-1184.329507,11029.068536
566.907464,-1685.410096,-666.185348,10881.027347
566.907780,-995.924147,-518.144159,10140.821405
566.908096,-612.876398,-148.041188,9622.677246
566.908411,0.000000,296.082377,8956.491898
566.908727,153.219100,370.102971,8512.368333
566.909043,689.485948,740.205942,7846.182985
566.909358,919.314598,740.205942,7772.162391
566.909674,1072.533697,592.164754,8512.368333
566.909990,689.485948,-148.041188,8734.430116
566.910305,153.219100,-296.082377,9400.615463
566.910621,-383.047749,-296.082377,10066.800811
566.910937,-919.314598,-370.102971,10584.944971
566.911252,-1072.533697,-518.144159,11177.109724
566.911568,-1608.800546,-592.164754,11473.192101
566.911884,-1302.362347,-0.000000,11103.089130
566.912199,-689.485948,148.041188,10807.006753
566.912515,0.000000,222.061783,10214.842000
566.912831,689.485948,518.144159,9696.697840
566.913146,1378.971896,1258.350101,9474.636058
566.913462,2451.505594,1406.391290,8512.368333
566.913778,2604.724693,1628.453072,7772.162391
566.914093,2604.724693,1628.453072,7772.162391
566.914409,2528.115143,1110.308913,7994.224174
566.914725,2298.286494,740.205942,8364.327145
566.915040,1378.971896,444.123565,9252.574275
566.915356,459.657299,-148.041188,9622.677246
566.915672,-76.609550,-444.123565,10436.903782
566.915987,-536.266849,-666.185348,11177.109724
566.916303,-842.705048,-740.205942,11325.150913
566.916619,-1455.581446,-592.164754,11325.150913
566.916934,-1608.800546,-296.082377,11177.109724
566.917250,-919.314598,-148.041188,10436.903782
566.917566,-229.828649,148.041188,9844.739029
566.917881,229.828649,-0.000000,8882.471304
566.918197,842.705048,592.164754,8438.347739
566.918513,1225.752797,666.185348,7920.203579
566.918828,1225.752797,592.164754,7846.182985
566.919144,919.314598,370.102971,8290.306550
566.919460,766.095498,-666.185348,9104.533087
566.919775,306.438199,-740.205942,9400.615463
566.920091,0.000000,-962.267725,9992.780217
566.920407,-689.485948,-1036.288319,10658.965565
566.920722,-995.924147,-1406.391290,11251.130318
566.921038,-1302.362347,-1036.288319,11399.171507
566.921354,-1072.533697,-888.247130,11029.068536
566.921669,-306.438199,-592.164754,10510.924376
566.921985,76.609550,-370.102971,9992.780217
566.922301,1072.533697,-296.082377,9178.553681
566.922616,1532.190996,-74.020594,8882.471304
566.922932,2451.505594,148.041188,7994.224174
566.923248,3140.991542,740.205942,7402.059420
566.923563,3140.991542,592.164754,7105.977043
566.923879,2911.162892,222.061783,7476.080014
566.924195,2451.505594,-0.000000,7772.162391
566.924510,1838.629195,-148.041188,8512.368333
566.924826,1225.752797,-666.185348,9474.636058
566.925142,536.266849,-1406.391290,9770.718434
566.925458,-612.876398,-1480.411884,10658.965565
566.925773,-1072.533697,-1480.411884,11103.089130
566.926089,-1149.143247,-1480.411884,10955.047942
566.926405,-1225.752797,-1332.370696,10510.924376
566.926720,-1072.533697,-814.226536,9844.739029
566.927036,-383.047749,-814.226536,9326.594869
566.927352,153.219100,-296.082377,8808.450710
566.927667,536.266849,-148.041188,8216.285956
566.927983,1225.752797,148.041188,7698.141797
566.928299,919.314598,-0.000000,7920.203579
566.928614,1225.752797,-666.185348,8142.265362
566.928930,536.266849,-592.164754,8882.471304
566.929246,153.219100,-962.267725,9326.594869
566.929561,-153.219100,-1110.308913,9992.780217
566.929877,-1072.533697,-888.247130,10732.986159
566.930193,-842.705048,-888.247130,11103.089130
566.930508,-1072.533697,-888.247130,11177.109724
566.930824,-536.266849,-666.185348,10807.006753
566.931140,-306.438199,-370.102971,10436.903782
566.931455,383.047749,-148.041188,9770.718434
566.931771,1072.533697,370.102971,9622.677246
566.932087,1838.629195,518.144159,8808.450710
566.932402,2221.676944,1036.288319,8290.306550
566.932718,2604.724693,1258.350101,7698.141797
566.933034,2681.334243,1332.370696,7624.121203
566.933349,2221.676944,814.226536,7994.224174
566.933665,1838.629195,222.061783,8364.327145
566.933981,1532.190996,-148.041188,9252.574275
566.934296,76.609550,-222.061783,9844.739029
566.934612,-383.047749,-666.185348,10362.883188
566.934928,-766.095498,-592.164754,11029.068536
566.935243,-1378.971896,-740.205942,11251.130318
566.935559,-995.924147,-222.061783,11251.130318
566.935875,-766.095498,-444.123565,10881.027347
566.936190,-459.657299,-74.020594,10066.800811
566.936506,0.000000,444.123565,9696.697840
566.936822,689.485948,592.164754,9030.512492
566.937137,1072.533697,814.226536,8142.265362
566.937453,1608.800546,592.164754,8142.265362
566.937769,1455.581446,888.247130,7994.224174
566.938084,1072.533697,592.164754,8512.368333
566.938400,612.876398,-74.020594,9178.553681
566.938716,0.000000,-370.102971,9696.697840
566.939031,-536.266849,-666.185348,10288.862594
566.939347,-995.924147,-814.226536,10881.027347
566.939663,-1225.752797,-888.247130,11325.150913
566.939978,-1072.533697,-666.185348,11251.130318
566.940294,-842.705048,-370.102971,11177.109724
566.940610,-229.828649,-74.020594,10510.924376
566.940925,536.266849,-0.000000,9992.780217
566.941241,1455.581446,222.061783,9400.615463
566.941557,2451.505594,370.102971,8808.450710
566.941872,2528.115143,814.226536,8142.265362
566.942188,3294.210641,1332.370696,7328.038826
566.942504,2911.162892,1258.350101,7402.059420
566.942820,2834.553343,1036.288319,7698.141797
566.943135,2451.505594,222.061783,7920.203579
566.943451,1991.848295,-74.020594,8956.491898
566.943767,1072.533697,-296.082377,9474.636058
566.944082,0.000000,-666.185348,10140.821405
566.944398,-459.657299,-888.247130,10955.047942
566.944714,-919.314598,-1110.308913,11325.150913
566.945029,-1072.533697,-1036.288319,11473.192101
566.945345,-995.924147,-592.164754,10584.944971
566.945661,-383.047749,-370.102971,9844.739029
566.945976,0.000000,-222.061783,9474.636058
566.946292,306.438199,148.041188,8882.471304
566.946608,919.314598,222.061783,8364.327145
566.946923,1378.971896,370.102971,7920.203579
566.947239,1225.752797,-0.000000,7994.224174
566.947555,766.095498,-296.082377,8290.306550
566.947870,536.266849,-592.164754,9104.533087
566.948186,229.828649,-888.247130,9622.677246
566.948502,-153.219100,-814.226536,10066.800811
566.948817,-766.095498,-1258.350101,10658.965565
566.949133,-995.924147,-1110.308913,11029.068536
566.949449,-383.047749,-1258.350101,11103.089130
566.949764,-689.485948,-740.205942,10881.027347
566.950080,-153.219100,-518.144159,10288.862594
566.950396,229.828649,-296.082377,9770.718434
566.950711,995.924147,-296.082377,9474.636058
566.951027,1302.362347,-296.082377,8660.409521
566.951343,1915.238745,296.082377,8216.285956
566.951658,2221.676944,888.247130,7846.182985
566.951974,2298.286494,444.123565,7624.121203
566.952290,2068.457845,148.041188,7920.203579
566.952605,1302.362347,-148.041188,8290.306550
566.952921,689.485948,-666.185348,9178.553681
566.953237,0.000000,-962.267725,9918.759623
566.953553,-919.314598,-1332.370696,10436.903782
566.953868,-1302.362347,-1258.350101,11103.089130
566.954184,-1149.143247,-1480.411884,11103.089130
566.954500,-1685.410096,-1110.308913,11177.109724
566.954816,-1302.362347,-888.247130,10584.944971
566.955131,-1072.533697,-666.185348,9992.780217
566.955447,-536.266849,-222.061783,9178.553681
566.955763,459.657299,-74.020594,8956.491898
566.956079,842.705048,296.082377,8142.265362
566.956394,995.924147,518.144159,8142.265362
566.956710,919.314598,222.061783,7994.224174
566.957026,689.485948,-814.226536,8660.409521
566.957342,306.438199,-888.247130,9178.553681
566.957657,0.000000,-1110.308913,9696.697840
566.957973,-842.705048,-1406.391290,10510.924376
566.958289,-1149.143247,-1184.329507,10807.006753
566.958605,-1455.581446,-1258.350101,11177.109724
566.958921,-1225.752797,-592.164754,11399.171507
566.959236,-383.047749,-296.082377,10881.027347
566.959552,0.000000,-0.000000,9844.739029
566.959868,612.876398,-0.000000,9474.636058
566.960184,1302.362347,296.082377,8956.491898
566.960499,2451.505594,814.226536,8290.306550
566.960815,2987.772442,814.226536,7624.121203
566.961131,2987.772442,1258.350101,7254.018232
566.961447,2757.943793,1258.350101,7402.059420
566.961762,2987.772442,1110.308913,8216.285956
566.962078,2068.457845,518.144159,8142.265362
566.962394,1378.971896,148.041188,9030.512492
566.962710,229.828649,-222.061783,9548.656652
566.963025,0.000000,-370.102971,10584.944971
566.963341,-1302.362347,-444.123565,10732.986159
566.963657,-1149.143247,-592.164754,11103.089130
566.963973,-1225.752797,-518.144159,11029.068536
566.964288,-1149.143247,-222.061783,10584.944971
566.964604,-842.705048,-0.000000,9992.780217
566.964920,0.000000,-74.020594,9474.636058
566.965236,459.657299,740.205942,8956.491898
566.965551,919.314598,814.226536,8364.327145
566.965867,1302.362347,888.247130,7994.224174
566.966183,1072.533697,222.061783,8438.347739
566.966499,919.314598,518.144159,8808.450710
566.966814,612.876398,-148.041188,9104.533087
566.967130,-153.219100,-296.082377,9844.739029
566.967446,-383.047749,-444.123565,10584.944971
566.967762,-919.314598,-888.247130,11103.089130
566.968077,-1302.362347,-814.226536,11473.192101
566.968393,-842.705048,-592.164754,11103.089130
566.968709,-842.705048,-296.082377,10955.047942
566.969025,-229.828649,-74.020594,10584.944971
566.969340,536.266849,-148.041188,10362.883188
566.969656,1149.143247,-0.000000,9474.636058
566.969972,1608.800546,444.123565,8734.430116
566.970288,1991.848295,814.226536,8068.244768
566.970603,2528.115143,740.205942,7624.121203
566.970919,2374.896044,740.205942,8142.265362
566.971235,2221.676944,222.061783,8068.244768
566.971551,1302.362347,-74.020594,8660.409521
566.971866,842.705048,-296.082377,9400.615463
566.972182,383.047749,-1332.370696,10066.800811
566.972498,-842.705048,-888.247130,10658.965565
566.972814,-1455.581446,-1036.288319,10807.006753
566.973129,-1532.190996,-1258.350101,11029.068536
566.973445,-1455.581446,-962.267725,10807.006753
566.973761,-1149.143247,-814.226536,10510.924376
566.974077,-612.876398,-740.205942,9548.656652
566.974392,0.000000,-296.082377,9030.512492
566.974708,689.485948,-0.000000,8438.347739
566.975024,1225.752797,444.123565,7994.224174
566.975340,1225.752797,-0.000000,7994.224174
566.975655,842.705048,-0.000000,7994.224174
566.975971,1072.533697,-444.123565,8290.306550
566.976287,229.828649,-962.267725,8956.491898
566.976603,-383.047749,-1036.288319,9622.677246
566.976918,-536.266849,-1554.432478,10214.842000
566.977234,-995.924147,-1628.453072,10658.965565
566.977550,-1225.752797,-1332.370696,11029.068536
566.977866,-995.924147,-1406.391290,10955.047942
566.978181,-229.828649,-1110.308913,10584.944971
566.978497,0.000000,-962.267725,10066.800811
566.978813,842.705048,-518.144159,9622.677246
566.979129,1455.581446,-74.020594,8956.491898
566.979444,2757.943793,222.061783,8364.327145
566.979760,2911.162892,814.226536,7698.141797
566.980076,3064.381992,814.226536,7624.121203
566.980392,2987.772442,740.205942,7105.977043
566.980707,2834.553343,592.164754,7698.141797
566.981023,2221.676944,-0.000000,8290.306550
566.981339,1608.800546,-148.041188,9104.533087
566.981655,459.657299,-444.123565,9696.697840
566.981970,-153.219100,-814.226536,10732.986159
566.982286,-766.095498,-740.205942,11251.130318
566.982602,-842.705048,-740.205942,11029.068536
566.982918,-1149.143247,-296.082377,11029.068536
566.983234,-689.485948,222.061783,10584.944971
566.983549,-306.438199,-0.000000,9844.739029
566.983865,306.438199,370.102971,9326.594869
566.984181,612.876398,518.144159,8660.409521
566.984497,1225.752797,888.247130,8142.265362
566.984812,1225.752797,888.247130,8068.244768
566.985128,1149.143247,592.164754,8216.285956
566.985444,842.705048,296.082377,8660.409521
566.985760,306.438199,-148.041188,9400.615463
566.986075,0.000000,-296.082377,9844.739029
566.986391,-459.657299,-518.144159,10510.924376
566.986707,-919.314598,-518.144159,11325.150913
566.987023,-842.705048,-444.123565,11399.171507
566.987338,-536.266849,-148.041188,11399.171507
566.987654,-612.876398,-74.020594,10881.027347
566.987970,153.219100,-0.000000,10288.862594
566.988286,766.095498,148.041188,9992.780217
566.988601,1455.581446,592.164754,9252.574275
566.988917,2298.286494,740.205942,8660.409521
566.989233,2681.334243,1406.391290,8216.285956
566.989549,2604.724693,1332.370696,7550.100608
566.989864,2451.505594,888.247130,7772.162391
566.990180,1991.848295,518.144159,8364.327145
566.990496,1072.533697,222.061783,8882.471304
566.990812,536.266849,-370.102971,9326.594869
566.991127,-306.438199,-814.226536,10140.821405
566.991443,-842.705048,-888.247130,10807.006753
566.991759,-1378.971896,-1036.288319,11251.130318
566.992075,-1072.533697,-1036.288319,11473.192101
566.992390,-1378.971896,-1036.288319,11103.089130
566.992706,-842.705048,-666.185348,10362.883188
566.993022,-689.485948,-370.102971,9622.677246
566.993338,153.219100,-0.000000,9030.512492
566.993653,1378.971896,-0.000000,8142.265362
566.993969,1302.362347,592.164754,7698.141797
566.994285,1532.190996,444.123565,7772.162391
566.994601,1072.533697,-0.000000,8142.265362
566.994916,1149.143247,-592.164754,8586.388927
566.995232,-229.828649,-1258.350101,9400.615463
566.995548,0.000000,-1110.308913,9622.677246
566.995864,-612.876398,-1184.329507,10658.965565
566.996179,-1149.143247,-1406.391290,10881.027347
566.996495,-1072.533697,-1406.391290,10955.047942
566.996811,-383.047749,-1184.329507,11029.068536
566.997127,0.000000,-740.205942,10584.944971
566.997442,536.266849,-518.144159,9992.780217
566.997758,1225.752797,-296.082377,9474.636058
566.998074,2451.505594,-0.000000,8512.368333
566.998390,2451.505594,296.082377,8290.306550
566.998705,3064.381992,666.185348,7624.121203
566.999021,3370.820191,814.226536,7179.997637
566.999337,3064.381992,592.164754,7402.059420
566.999653,2604.724693,222.061783,7846.182985
566.999968,1915.238745,-74.020594,8586.388927
567.000284,1149.143247,-296.082377,9030.512492
567.000600,153.219100,-888.247130,9844.739029
567.000916,-459.657299,-1110.308913,10807.006753
567.001231,-1072.533697,-1184.329507,11029.068536
567.001547,-1378.971896,-1110.308913,11251.130318
567.001863,-1455.581446,-1110.308913,10955.047942
567.002179,-919.314598,-518.144159,10436.903782
567.002494,-306.438199,-148.041188,9622.677246
567.002810,-459.657299,-0.000000,9474.636058
567.003126,612.876398,370.102971,8512.368333
567.003442,1149.143247,592.164754,7994.224174
567.003757,1225.752797,592.164754,7846.182985
567.004073,842.705048,296.082377,8438.347739
567.004389,1302.362347,-444.123565,9030.512492
567.004705,76.609550,-370.102971,9400.615463
567.005020,-306.438199,-814.226536,9918.759623
567.005336,-919.314598,-1036.288319,10955.047942
567.005652,-1608.800546,-1036.288319,11103.089130
567.005968,-1455.581446,-1036.288319,11547.212695
567.006284,-1072.533697,-592.164754,11325.150913
567.006599,-459.657299,-370.102971,10732.986159
567.006915,0.000000,-148.041188,10140.821405
567.007231,689.485948,222.061783,9400.615463
567.007547,1532.190996,814.226536,8882.471304
567.007862,1991.848295,814.226536,7994.224174
567.008178,2451.505594,1480.411884,7550.100608
567.008494,2528.115143,1110.308913,7328.038826
567.008810,2451.505594,814.226536,7772.162391
567.009125,1608.800546,592.164754,8142.265362
567.009441,995.924147,-0.000000,9104.533087
567.009757,76.609550,-370.102971,9548.656652
567.010073,-919.314598,-666.185348,10510.924376
567.010388,-1378.971896,-740.205942,11177.109724
567.010704,-1838.629195,-962.267725,11473.192101
567.011020,-1915.238745,-666.185348,11177.109724
567.011336,-1302.362347,-296.082377,10881.027347
567.011651,-842.705048,-222.061783,9992.780217
567.011967,-383.047749,296.082377,9474.636058
567.012283,383.047749,666.185348,8586.388927
567.012599,919.314598,888.247130,8216.285956
567.012914,1532.190996,1036.288319,7846.182985
567.013230,842.705048,740.205942,7698.141797
567.013546,1149.143247,444.123565,8290.306550
567.013862,1072.533697,-296.082377,8660.409521
567.014177,459.657299,-592.164754,9474.636058
567.014493,-459.657299,-962.267725,10066.800811
567.014809,-612.876398,-962.267725,10881.027347
567.015125,-1378.971896,-1184.329507,11473.192101
567.015440,-1455.581446,-1184.329507,11473.192101
567.015756,-995.924147,-814.226536,11177.109724
567.016072,-306.438199,-370.102971,10510.924376
567.016388,536.266849,-444.123565,10140.821405
567.016703,1225.752797,148.041188,9400.615463
567.017019,2451.505594,-0.000000,8586.388927
567.017335,3217.601092,740.205942,7624.121203
567.017651,3600.648841,1184.329507,7624.121203
567.017966,3600.648841,888.247130,7105.977043
567.018282,3600.648841,592.164754,7402.059420
567.018598,2681.334243,222.061783,7994.224174
567.018914,1991.848295,-0.000000,8882.471304
567.019229,1378.971896,-518.144159,9770.718434
567.019545,76.609550,-740.205942,10362.883188
567.019861,-919.314598,-666.185348,10955.047942
567.020177,-995.924147,-962.267725,11251.130318
567.020492,-1225.752797,-592.164754,10955.047942
567.020808,-919.314598,-740.205942,10584.944971
567.021124,-842.705048,-444.123565,10214.842000
567.021440,-153.219100,-296.082377,9622.677246
567.021755,229.828649,-0.000000,8734.430116
567.022071,766.095498,222.061783,8290.306550
567.022387,995.924147,444.123565,7994.224174
567.022703,1072.533697,74.020594,8068.244768
567.023018,689.485948,-0.000000,8734.430116
567.023334,459.657299,-370.102971,9252.574275
567.023650,0.000000,-518.144159,9622.677246
567.023966,-842.705048,-1110.308913,10214.842000
567.024281,-995.924147,-888.247130,10807.006753
567.024597,-1302.362347,-962.267725,11029.068536
567.024913,-1225.752797,-740.205942,11103.089130
567.025229,-919.314598,-666.185348,11103.089130
567.025544,-383.047749,-296.082377,10436.903782
567.025860,306.438199,-0.000000,9844.739029
567.026176,1072.533697,-0.000000,9252.574275
567.026492,1532.190996,592.164754,8586.388927
567.026807,1991.848295,444.123565,7920.203579
567.027123,2374.896044,370.102971,7698.141797
567.027439,2374.896044,814.226536,7624.121203
567.027755,1532.190996,444.123565,7920.203579
567.028070,1072.533697,-0.000000,8586.388927
567.028386,766.095498,-444.123565,9474.636058
567.028702,-459.657299,-888.247130,9918.759623
567.029018,-1225.752797,-1110.308913,10807.006753
567.029334,-1685.410096,-1184.329507,11325.150913
567.029649,-1685.410096,-1036.288319,11473.192101
567.029965,-1991.848295,-962.267725,11177.109724
567.030281,-1149.143247,-592.164754,10288.862594
567.030597,-459.657299,-296.082377,9696.697840
567.030912,76.609550,-0.000000,8808.450710
567.031228,1072.533697,444.123565,8364.327145
567.031544,1532.190996,592.164754,7994.224174
567.031860,1608.800546,888.247130,7624.121203
567.032175,1685.410096,518.144159,7624.121203
567.032491,1072.533697,-0.000000,8364.327145
567.032807,459.657299,-1036.288319,9104.533087
567.033123,306.438199,-592.164754,9992.780217
567.033438,-612.876398,-888.247130,10584.944971
567.033754,-1302.362347,-1258.350101,10955.047942
567.034070,-1225.752797,-1258.350101,11473.192101
567.034386,-1455.581446,-1258.350101,11547.212695
567.034701,-612.876398,-888.247130,11029.068536
567.035017,0.000000,-814.226536,10584.944971
567.035333,766.095498,-296.082377,9844.739029
567.035649,1838.629195,-0.000000,9104.533087
567.035964,2681.334243,370.102971,8068.244768
567.036280,3217.601092,962.267725,7476.080014
567.036596,4136.915689,1480.411884,7105.977043
567.036912,3677.258390,1406.391290,7179.997637
567.037227,3600.648841,814.226536,7624.121203
567.037543,2604.724693,370.102971,8290.306550
567.037859,1532.190996,222.061783,8956.491898
567.038175,1072.533697,-222.061783,9918.759623
567.038490,0.000000,-888.247130,10584.944971
567.038806,-766.095498,-814.226536,11103.089130
567.039122,-919.314598,-1036.288319,11251.130318
567.039438,-1225.752797,-592.164754,11399.171507
567.039753,-1225.752797,-518.144159,10807.006753
567.040069,-689.485948,-148.041188,10288.862594
567.040385,-306.438199,148.041188,9474.636058
567.040701,459.657299,222.061783,8734.430116
567.041016,1225.752797,592.164754,8364.327145
567.041332,1149.143247,740.205942,7994.224174
567.041648,1225.752797,222.061783,8142.265362
567.041964,1225.752797,148.041188,8734.430116
567.042279,306.438199,-444.123565,8882.471304
567.042595,76.609550,-740.205942,10140.821405
567.042911,-459.657299,-740.205942,10436.903782
567.043227,-919.314598,-740.205942,10732.986159
567.043542,-1378.971896,-962.267725,10881.027347
567.043858,-919.314598,-592.164754,11251.130318
567.044174,-689.485948,-444.123565,10881.027347
567.044490,-229.828649,-222.061783,10288.862594
567.044805,383.047749,-0.000000,9622.677246
567.045121,1991.848295,-0.000000,9178.553681
567.045437,2068.457845,222.061783,8734.430116
567.045753,2451.505594,962.267725,8142.265362
567.046068,2451.505594,1036.288319,7550.100608
567.046384,2374.896044,666.185348,7698.141797
567.046700,1532.190996,-0.000000,8142.265362
567.047016,766.095498,-148.041188,8660.409521
567.047331,229.828649,-666.185348,9400.615463
567.047647,-459.657299,-962.267725,10066.800811
567.047963,-766.095498,-1554.432478,10510.924376
567.048279,-1608.800546,-1258.350101,11177.109724
567.048594,-1608.800546,-1110.308913,11103.089130
567.048910,-1378.971896,-740.205942,10510.924376
567.049226,-1072.533697,-518.144159,10288.862594
567.049542,-612.876398,-74.020594,9696.697840
567.049857,229.828649,-74.020594,8882.471304
567.050173,842.705048,296.082377,8290.306550
567.050489,1302.362347,666.185348,7476.080014
567.050805,1838.629195,666.185348,7624.121203
567.051120,1378.971896,-148.041188,7846.182985
567.051436,612.876398,-814.226536,8586.388927
567.051752,153.219100,-1036.288319,9400.615463
567.052068,-306.438199,-1332.370696,9918.759623
567.052383,-689.485948,-1110.308913,10584.944971
567.052699,-1685.410096,-1480.411884,11325.150913
567.053015,-1455.581446,-1332.370696,11473.192101
567.053331,-1455.581446,-1110.308913,11177.109724
567.053646,-383.047749,-666.185348,10584.944971
567.053962,153.219100,-370.102971,10288.862594
567.054278,1225.752797,-74.020594,9474.636058
567.054594,2145.067394,222.061783,8512.368333
567.054909,2834.553343,888.247130,7920.203579
567.055225,3600.648841,814.226536,7476.080014
567.055541,3753.867940,1480.411884,7254.018232
567.055857,3447.429741,1110.308913,7105.977043
567.056172,2757.943793,518.144159,8142.265362
567.056488,2145.067394,-0.000000,8882.471304
567.056804,1302.362347,-0.000000,9326.594869
567.057119,76.609550,-518.144159,9844.739029
567.057435,-842.705048,-740.205942,11029.068536
567.057751,-1225.752797,-962.267725,11251.130318
567.058067,-1532.190996,-740.205942,11251.130318
567.058382,-1302.362347,-296.082377,11103.089130
567.058698,-1072.533697,-0.000000,10807.006753
567.059014,0.000000,148.041188,10066.800811
567.059329,383.047749,296.082377,9326.594869
567.059645,689.485948,814.226536,8364.327145
567.059961,1455.581446,1036.288319,8142.265362
567.060277,1532.190996,666.185348,7846.182985
567.060592,1302.362347,444.123565,8216.285956
567.060908,612.876398,-0.000000,8882.471304
567.061224,153.219100,-444.123565,9474.636058
567.061539,-153.219100,-1036.288319,9992.780217
567.061855,-766.095498,-1110.308913,10955.047942
567.062171,-1455.581446,-888.247130,11399.171507
567.062487,-1302.362347,-888.247130,11251.130318
567.062802,-1455.581446,-666.185348,11251.130318
567.063118,-995.924147,-518.144159,11029.068536
567.063434,0.000000,-296.082377,10288.862594
567.063750,383.047749,-0.000000,9844.739029
567.064065,1302.362347,74.020594,9104.533087
567.064381,1991.848295,666.185348,8364.327145
567.064697,2451.505594,1036.288319,7994.224174
567.065012,2374.896044,740.205942,7254.018232
567.065328,2298.286494,740.205942,7772.162391
567.065644,1762.019645,444.123565,8216.285956
567.065960,1149.143247,-222.061783,8808.450710
567.066275,689.485948,-518.144159,9844.739029
567.066591,-459.657299,-740.205942,10288.862594
567.066907,-1225.752797,-1258.350101,10881.027347
567.067222,-1762.019645,-1036.288319,11103.089130
567.067538,-1608.800546,-1258.350101,11177.109724
567.067854,-1378.971896,-1036.288319,10658.965565
567.068170,-842.705048,-814.226536,10436.903782
567.068485,-459.657299,-370.102971,9622.677246
567.068801,459.657299,-0.000000,8660.409521
567.069117,995.924147,370.102971,7920.203579
567.069432,1762.019645,592.164754,7624.121203
567.069748,1608.800546,444.123565,7698.141797
567.070064,1149.143247,-0.000000,8068.244768
567.070380,612.876398,-592.164754,8808.450710
567.070695,383.047749,-1184.329507,9474.636058
567.071011,-306.438199,-1258.350101,10066.800811
567.071327,-995.924147,-1184.329507,10658.965565
567.071643,-1072.533697,-1406.391290,11103.089130
567.071958,-1455.581446,-1258.350101,11325.150913
567.072274,-1072.533697,-962.267725,10955.047942
567.072590,-229.828649,-814.226536,10584.944971
567.072905,383.047749,-740.205942,10066.800811
567.073221,1302.362347,-222.061783,9252.574275
567.073537,2451.505594,-0.000000,8660.409521
567.073853,2834.553343,222.061783,7994.224174
567.074168,3830.477490,1036.288319,7402.059420
567.074484,3600.648841,1258.350101,7031.956449
567.074800,3600.648841,1110.308913,7698.141797
567.075115,2834.553343,518.144159,7994.224174
567.075431,2451.505594,-0.000000,8956.491898
567.075747,1149.143247,-370.102971,9474.636058
567.076063,0.000000,-740.205942,10214.842000
567.076378,-689.485948,-1184.329507,10881.027347
567.076694,-1302.362347,-1184.329507,11325.150913
567.077010,-1378.971896,-1036.288319,11251.130318
567.077325,-842.705048,-592.164754,11103.089130
567.077641,-919.314598,-518.144159,10436.903782
567.077957,-153.219100,-0.000000,9474.636058
567.078273,689.485948,296.082377,9104.533087
567.078588,1149.143247,814.226536,8290.306550
567.078904,1532.190996,814.226536,7698.141797
567.079220,1685.410096,814.226536,7920.203579
567.079536,1149.143247,592.164754,8512.368333
567.079851,919.314598,-222.061783,9104.533087
567.080167,0.000000,-444.123565,9326.594869
567.080483,-383.047749,-666.185348,9918.759623
567.080798,-919.314598,-740.205942,10658.965565
567.081114,-1302.362347,-888.247130,11473.192101
567.081430,-919.314598,-666.185348,11399.171507
567.081746,-919.314598,-444.123565,11177.109724
567.082061,-306.438199,-222.061783,10658.965565
567.082377,306.438199,-74.020594,10214.842000
567.082693,995.924147,148.041188,9548.656652
567.083008,1685.410096,222.061783,9104.533087
567.083324,2604.724693,888.247130,8290.306550
567.083640,2834.553343,1184.329507,7476.080014
567.083956,2757.943793,962.267725,7624.121203
567.084271,2374.896044,740.205942,7920.203579
567.084587,1685.410096,-0.000000,8290.306550
567.084903,1225.752797,-222.061783,8956.491898
567.085218,229.828649,-814.226536,9548.656652
567.085534,-689.485948,-888.247130,10362.883188
567.085850,-1225.752797,-1036.288319,10955.047942
567.086166,-2145.067394,-1110.308913,11695.253884
567.086481,-1608.800546,-1184.329507,11177.109724
567.086797,-1838.629195,-740.205942,10658.965565
567.087113,-995.924147,-222.061783,10140.821405
567.087428,0.000000,-222.061783,9326.594869
567.087744,612.876398,148.041188,8438.347739
567.088060,1225.752797,666.185348,7846.182985
567.088376,1455.581446,740.205942,7624.121203
567.088691,1762.019645,444.123565,7624.121203
567.089007,1302.362347,-222.061783,8216.285956
567.089323,536.266849,-370.102971,8808.450710
567.089639,0.000000,-888.247130,9622.677246
567.089954,-612.876398,-814.226536,10140.821405
567.090270,-919.314598,-1258.350101,10807.006753
567.090586,-1455.581446,-1258.350101,11251.130318
567.090901,-1302.362347,-1110.308913,11325.150913
567.091217,-995.924147,-1036.288319,10955.047942
567.091533,-306.438199,-592.164754,10732.986159
567.091849,306.438199,-74.020594,10288.862594
567.092164,1608.800546,-148.041188,9474.636058
567.092480,2451.505594,-0.000000,8586.388927
567.092796,2987.772442,962.267725,7698.141797
567.093111,3524.039291,1258.350101,7328.038826
567.093427,3600.648841,814.226536,7254.018232
567.093743,3447.429741,1036.288319,7550.100608
567.094059,2681.334243,666.185348,7920.203579
567.094374,1762.019645,-0.000000,8808.450710
567.094690,842.705048,-444.123565,9548.656652
567.095006,-76.609550,-888.247130,10214.842000
567.095321,-995.924147,-1036.288319,11029.068536
567.095637,-1225.752797,-1258.350101,11473.192101
567.095953,-1149.143247,-1110.308913,11325.150913
567.096269,-1225.752797,-814.226536,10658.965565
567.096584,-612.876398,-666.185348,10214.842000
567.096900,-229.828649,-148.041188,9696.697840
567.097216,459.657299,296.082377,9030.512492
567.097532,1455.581446,888.247130,8068.244768
567.097847,1608.800546,814.226536,7698.141797
567.098163,1302.362347,740.205942,8216.285956
567.098479,1072.533697,-0.000000,8364.327145
567.098794,689.485948,-370.102971,8882.471304
567.099110,0.000000,-592.164754,9548.656652
567.099426,-612.876398,-962.267725,10362.883188
567.099742,-1225.752797,-1036.288319,10732.986159
567.100057,-1532.190996,-888.247130,11399.171507
567.100373,-1455.581446,-518.144159,11473.192101
567.100689,-1072.533697,-592.164754,10955.047942
567.101004,-306.438199,-222.061783,10732.986159
567.101320,76.609550,-148.041188,10066.800811
567.101636,995.924147,-0.000000,9252.574275
567.101952,1915.238745,148.041188,8734.430116
567.102267,2298.286494,814.226536,8068.244768
567.102583,2451.505594,1110.308913,7550.100608
567.102899,2604.724693,814.226536,7698.141797
567.103214,2145.067394,666.185348,7920.203579
567.103530,1378.971896,148.041188,8364.327145
567.103846,536.266849,-444.123565,9252.574275
567.104162,0.000000,-814.226536,9918.759623
567.104477,-995.924147,-1110.308913,10510.924376
567.104793,-1302.362347,-1184.329507,11177.109724
567.105109,-1608.800546,-1036.288319,11029.068536
567.105425,-1378.971896,-740.205942,10732.986159
567.105740,-1225.752797,-740.205942,10807.006753
567.106056,-919.314598,-370.102971,9696.697840
567.106372,0.000000,296.082377,9326.594869
567.106687,689.485948,518.144159,8290.306550
567.107003,1378.971896,518.144159,7920.203579
567.107319,1838.629195,1036.288319,8068.244768
567.107635,1225.752797,370.102971,7772.162391
567.107950,995.924147,-222.061783,8586.388927
567.108266,153.219100,-518.144159,9178.553681
567.108582,-383.047749,-1110.308913,9622.677246
567.108897,-766.095498,-1628.453072,10436.903782
567.109213,-1378.971896,-1332.370696,11103.089130
567.109529,-1378.971896,-1184.329507,11325.150913
567.109845,-1149.143247,-1036.288319,11177.109724
567.110160,-766.095498,-740.205942,11029.068536
567.110476,-536.266849,-370.102971,10214.842000
567.110792,842.705048,-222.061783,9696.697840
567.111107,1762.019645,-0.000000,9104.533087
567.111423,2528.115143,518.144159,8364.327145
567.111739,3524.039291,962.267725,7846.182985
567.112055,3907.087040,962.267725,7402.059420
567.112370,3370.820191,814.226536,7402.059420
567.112686,2911.162892,592.164754,7846.182985
567.113002,2451.505594,370.102971,8216.285956
567.113318,1608.800546,-222.061783,9030.512492
567.113633,383.047749,-592.164754,9918.759623
567.113949,-306.438199,-814.226536,10584.944971
567.114265,-1072.533697,-1184.329507,11103.089130
567.114580,-1378.971896,-1036.288319,11547.212695
567.114896,-1302.362347,-666.185348,11029.068536
567.115212,-1302.362347,-444.123565,10584.944971
567.115528,-536.266849,-444.123565,10288.862594
567.115843,-153.219100,-148.041188,9474.636058
567.116159,612.876398,148.041188,8808.450710
567.116475,1455.581446,888.247130,7846.182985
567.116790,1532.190996,666.185348,7846.182985
567.117106,1072.533697,370.102971,7772.162391
567.117422,919.314598,-0.000000,8364.327145
567.117738,536.266849,-296.082377,9104.533087
567.118053,0.000000,-666.185348,9992.780217
567.118369,-536.266849,-740.205942,10362.883188
567.118685,-1149.143247,-962.267725,10881.027347
567.119000,-1378.971896,-740.205942,11473.192101
567.119316,-1302.362347,-666.185348,11251.130318
567.119632,-842.705048,-222.061783,10955.047942
567.119948,-306.438199,-370.102971,10362.883188
567.120263,306.438199,-74.020594,9770.718434
567.120579,1072.533697,-0.000000,9178.553681
567.120895,1991.848295,296.082377,8512.368333
567.121211,2298.286494,888.247130,7994.224174
567.121526,2528.115143,1110.308913,7698.141797
567.121842,2068.457845,666.185348,7624.121203
567.122158,1685.410096,444.123565,8068.244768
567.122473,1455.581446,-296.082377,9178.553681
567.122789,383.047749,-296.082377,9474.636058
567.123105,-306.438199,-814.226536,10140.821405
567.123421,-1072.533697,-1036.288319,10881.027347
567.123736,-1378.971896,-1184.329507,11103.089130
567.124052,-1608.800546,-1036.288319,11177.109724
567.124368,-1149.143247,-740.205942,10732.986159
567.124683,-1225.752797,-592.164754,10436.903782
567.124999,-383.047749,-370.102971,9622.677246
567.125315,306.438199,-0.000000,8956.491898
567.125631,919.314598,444.123565,8438.347739
567.125946,1378.971896,814.226536,7920.203579
567.126262,1762.019645,666.185348,7624.121203
567.126578,1302.362347,148.041188,7920.203579
567.126893,306.438199,-370.102971,8512.368333
567.127209,612.876398,-888.247130,8808.450710
567.127525,-306.438199,-1036.288319,9696.697840
567.127841,-1072.533697,-1332.370696,10807.006753
567.128156,-1072.533697,-1332.370696,11251.130318
567.128472,-766.095498,-962.267725,11251.130318
567.128788,-842.705048,-962.267725,11103.089130
567.129104,-306.438199,-666.185348,10732.986159
567.129419,536.266849,-296.082377,10214.842000
567.129735,1302.362347,-0.000000,9474.636058
567.130051,2068.457845,370.102971,9252.574275
567.130366,3064.381992,1036.288319,8142.265362
567.130682,3370.820191,1258.350101,7328.038826
567.130998,3600.648841,1480.411884,7179.997637
567.131314,3524.039291,1036.288319,7031.956449
567.131629,2834.553343,666.185348,7846.182985
567.131945,2298.286494,-74.020594,8438.347739
567.132261,1378.971896,-370.102971,9400.615463
567.132576,153.219100,-518.144159,10288.862594
567.132892,-766.095498,-1332.370696,10955.047942
567.133208,-1302.362347,-1332.370696,11177.109724
567.133524,-1532.190996,-1258.350101,11399.171507
567.133839,-1378.971896,-962.267725,11399.171507
567.134155,-842.705048,-666.185348,10807.006753
567.134471,-689.485948,-74.020594,10140.821405
567.134786,383.047749,370.102971,8956.491898
567.135102,995.924147,592.164754,8734.430116
567.135418,1685.410096,962.267725,7772.162391
567.135734,1685.410096,888.247130,7550.100608
567.136049,1685.410096,370.102971,7994.224174
567.136365,919.314598,-0.000000,8734.430116
567.136681,612.876398,-296.082377,9252.574275
567.136997,0.000000,-666.185348,9918.759623
567.137312,-689.485948,-814.226536,10732.986159
567.137628,-1225.752797,-740.205942,11177.109724
567.137944,-1302.362347,-518.144159,11325.150913
567.138259,-1455.581446,-666.185348,11325.150913
567.138575,-919.314598,-370.102971,11029.068536
567.138891,0.000000,-370.102971,10436.903782
567.139207,229.828649,-370.102971,9844.739029
567.139522,1149.143247,-0.000000,9178.553681
567.139838,2145.067394,370.102971,8364.327145
567.140154,2374.896044,962.267725,7698.141797
567.140469,2757.943793,1110.308913,7476.080014
567.140785,2298.286494,518.144159,7476.080014
567.141101,1838.629195,74.020594,7994.224174
567.141417,1072.533697,-148.041188,8586.388927
567.141732,383.047749,-740.205942,9696.697840
567.142048,-459.657299,-1036.288319,10140.821405
567.142364,-919.314598,-1184.329507,10807.006753
567.142679,-1302.362347,-1184.329507,11177.109724
567.142995,-1302.362347,-740.205942,11103.089130
567.143311,-1302.362347,-518.144159,10658.965565
567.143627,-612.876398,-0.000000,10066.800811
567.143942,-229.828649,-0.000000,9474.636058
567.144258,612.876398,-0.000000,8586.388927
567.144574,1149.143247,666.185348,8290.306550
567.144890,1532.190996,666.185348,7624.121203
567.145205,1225.752797,518.144159,7920.203579
567.145521,1072.533697,-0.000000,8142.265362
567.145837,459.657299,-666.185348,8882.471304
567.146152,76.609550,-1036.288319,9548.656652
567.146468,-383.047749,-1184.329507,10436.903782
567.146784,-1302.362347,-1480.411884,10955.047942
567.147100,-1225.752797,-1184.329507,10955.047942
567.147415,-1378.971896,-1332.370696,11103.089130
567.147731,-766.095498,-888.247130,10807.006753
567.148047,0.000000,-370.102971,10436.903782
567.148362,766.095498,-296.082377,9844.739029
567.148678,1608.800546,-0.000000,8882.471304
567.148994,2681.334243,740.205942,8290.306550
567.149310,3447.429741,740.205942,7624.121203
567.149625,4060.306139,1110.308913,7179.997637
567.149941,3370.820191,666.185348,7105.977043
567.150257,3217.601092,740.205942,7772.162391
567.150572,2451.505594,518.144159,8142.265362
567.150888,1762.019645,-0.000000,8808.450710
567.151204,383.047749,-592.164754,9770.718434
567.151520,-383.047749,-962.267725,10436.903782
567.151835,-1072.533697,-1184.329507,10881.027347
567.152151,-1532.190996,-1110.308913,11547.212695
567.152467,-1455.581446,-1110.308913,11621.233289
567.152782,-1532.190996,-666.185348,10881.027347
567.153098,-1149.143247,-296.082377,10288.862594
567.153414,-612.876398,148.041188,9622.677246
567.153730,536.266849,296.082377,8882.471304
567.154045,1225.752797,888.247130,8142.265362
567.154361,2068.457845,1184.329507,7772.162391
567.154677,1532.190996,814.226536,7772.162391
567.154992,1225.752797,370.102971,8290.306550
567.155308,689.485948,-74.020594,8882.471304
567.155624,76.609550,-444.123565,9696.697840
567.155940,-306.438199,-888.247130,10362.883188
567.156255,-1302.362347,-962.267725,10807.006753
567.156571,-1455.581446,-1184.329507,11325.150913
567.156887,-1532.190996,-888.247130,11547.212695
567.157202,-1225.752797,-592.164754,11029.068536
567.157518,-842.705048,-518.144159,10584.944971
567.157834,0.000000,-370.102971,10214.842000
567.158149,689.485948,-148.041188,9548.656652
567.158465,1302.362347,-0.000000,8808.450710
567.158781,2221.676944,222.061783,8290.306550
567.159096,2374.896044,518.144159,7698.141797
567.159412,2221.676944,666.185348,7328.038826
567.159728,1991.848295,518.144159,7846.182985
567.160044,1532.190996,-0.000000,8290.306550
567.160359,1072.533697,-518.144159,9030.512492
567.160675,153.219100,-518.144159,9548.656652
567.160991,-689.485948,-814.226536,10436.903782
567.161306,-1072.533697,-1258.350101,11251.130318
567.161622,-1608.800546,-1480.411884,11177.109724
567.161938,-1532.190996,-1110.308913,11177.109724
567.162253,-1608.800546,-666.185348,10362.883188
567.162569,-612.876398,-444.123565,9992.780217
567.162885,-229.828649,-148.041188,9400.615463
567.163201,536.266849,148.041188,8660.409521
567.163516,689.485948,814.226536,8142.265362
567.163832,1225.752797,592.164754,7698.141797
567.164148,1378.971896,296.082377,7920.203579
567.164463,1149.143247,-148.041188,7994.224174
567.164779,689.485948,-222.061783,8808.450710
567.165095,0.000000,-962.267725,9474.636058
567.165410,-612.876398,-962.267725,9992.780217
567.165726,-842.705048,-1184.329507,10732.986159
567.166042,-1149.143247,-1258.350101,11177.109724
567.166357,-995.924147,-888.247130,11251.130318
567.166673,-919.314598,-666.185348,10955.047942
567.166989,0.000000,-592.164754,10584.944971
567.167305,766.095498,-148.041188,9770.718434
567.167620,1685.410096,222.061783,9252.574275
567.167936,2604.724693,444.123565,8586.388927
567.168252,3447.429741,1036.288319,7550.100608
567.168567,3447.429741,1554.432478,7328.038826
567.168883,3447.429741,1184.329507,7328.038826
567.169199,3140.991542,1110.308913,7846.182985
567.169514,2528.115143,518.144159,8290.306550
567.169830,1685.410096,370.102971,9104.533087
567.170146,919.314598,-148.041188,9918.759623
567.170461,-229.828649,-666.185348,10510.924376
567.170777,-919.314598,-1110.308913,11399.171507
567.171093,-1225.752797,-962.267725,11325.150913
567.171409,-995.924147,-740.205942,11399.171507
567.171724,-1072.533697,-518.144159,10584.944971
567.172040,-306.438199,-148.041188,10288.862594
567.172356,-306.438199,370.102971,9548.656652
567.172671,536.266849,370.102971,9178.553681
567.172987,1302.362347,1036.288319,8068.244768
567.173303,1455.581446,962.267725,7846.182985
567.173618,1149.143247,888.247130,8068.244768
567.173934,459.657299,222.061783,8734.430116
567.174250,536.266849,-296.082377,9030.512492
567.174565,-153.219100,-592.164754,9696.697840
567.174881,-536.266849,-962.267725,10510.924376
567.175197,-1302.362347,-1184.329507,10955.047942
567.175513,-1225.752797,-1110.308913,11621.233289
567.175828,-1608.800546,-888.247130,11621.233289
567.176144,-1072.533697,-518.144159,11251.130318
567.176460,-612.876398,-370.102971,10807.006753
567.176775,153.219100,-370.102971,10140.821405
567.177091,1149.143247,-74.020594,9400.615463
567.177407,1762.019645,296.082377,8808.450710
567.177722,2298.286494,962.267725,7698.141797
567.178038,2757.943793,1258.350101,7550.100608
567.178354,2451.505594,1036.288319,7402.059420
567.178669,2221.676944,222.061783,7698.141797
567.178985,1685.410096,-74.020594,8290.306550
567.179301,766.095498,-592.164754,9178.553681
567.179617,0.000000,-888.247130,9918.759623
567.179932,-383.047749,-1110.308913,10658.965565
567.180248,-1455.581446,-1332.370696,11103.089130
567.180564,-1302.362347,-1184.329507,11103.089130
567.180879,-1072.533697,-1110.308913,10881.027347
567.181195,-919.314598,-740.205942,10214.842000
567.181511,-689.485948,-666.185348,9548.656652
567.181826,-153.219100,-148.041188,9104.533087
567.182142,689.485948,-0.000000,8438.347739
567.182458,1532.190996,592.164754,7624.121203
567.182774,1455.581446,370.102971,7476.080014
567.183089,1225.752797,-0.000000,7254.018232
567.183405,842.705048,-370.102971,8290.306550
567.183721,306.438199,-1110.308913,8882.471304
567.184036,0.000000,-1258.350101,9622.677246
567.184352,-612.876398,-1406.391290,9992.780217
567.184668,-995.924147,-1332.370696,10955.047942
567.184983,-1532.190996,-1406.391290,11251.130318
567.185299,-1455.581446,-1110.308913,11177.109724
567.185615,-536.266849,-666.185348,10658.965565
567.185930,0.000000,-444.123565,10288.862594
567.186246,689.485948,-0.000000,10066.800811
567.186562,1991.848295,-0.000000,9178.553681
567.186878,2528.115143,740.205942,8290.306550
567.187193,3370.820191,1258.350101,7698.141797
567.187509,3677.258390,1406.391290,7550.100608
567.187825,3294.210641,1184.329507,7624.121203
567.188140,2911.162892,1110.308913,7846.182985
567.188456,2451.505594,592.164754,8512.368333
567.188772,1455.581446,-0.000000,9326.594869
567.189087,459.657299,-296.082377,10288.862594
567.189403,0.000000,-814.226536,10955.047942
567.189719,-842.705048,-592.164754,11177.109724
567.190034,-1072.533697,-888.247130,11547.212695
567.190350,-919.314598,-592.164754,11399.171507
567.190666,-1225.752797,-148.041188,10658.965565
567.190982,-383.047749,-74.020594,10510.924376
567.191297,76.609550,148.041188,9548.656652
567.191613,766.095498,888.247130,9030.512492
567.191929,1072.533697,814.226536,8068.244768
567.192244,1225.752797,1036.288319,8290.306550
567.192560,1455.581446,666.185348,8512.368333
567.192876,995.924147,-0.000000,8660.409521
567.193191,383.047749,-370.102971,9178.553681
567.193507,-229.828649,-666.185348,9844.739029
567.193823,-842.705048,-666.185348,10288.862594
567.194138,-1378.971896,-666.185348,10807.006753
567.194454,-1302.362347,-888.247130,11399.171507
567.194770,-1072.533697,-370.102971,11325.150913
567.195086,-919.314598,-370.102971,10881.027347
567.195401,-306.438199,-518.144159,10584.944971
567.195717,459.657299,-222.061783,9844.739029
567.196033,995.924147,296.082377,9252.574275
567.196348,1838.629195,592.164754,8512.368333
567.196664,2374.896044,1184.329507,7920.203579
567.196980,2451.505594,1258.350101,7624.121203
567.197295,1991.848295,888.247130,7476.080014
567.197611,1762.019645,444.123565,8216.285956
567.197927,1225.752797,-74.020594,8660.409521
567.198242,612.876398,-370.102971,9326.594869
567.198558,0.000000,-962.267725,9696.697840
567.198874,-766.095498,-1184.329507,10510.924376
567.199190,-1378.971896,-1258.350101,11251.130318
567.199505,-1685.410096,-1184.329507,11103.089130
567.199821,-1149.143247,-740.205942,10881.027347
567.200137,-1455.581446,-222.061783,10658.965565
567.200452,-536.266849,-444.123565,9844.739029
567.200768,459.657299,-0.000000,8882.471304
567.201084,689.485948,-0.000000,8216.285956
567.201399,1302.362347,592.164754,7698.141797
567.201715,1532.190996,222.061783,7476.080014
567.202031,1225.752797,-74.020594,7994.224174
567.202346,536.266849,-740.205942,8586.388927
567.202662,153.219100,-1184.329507,9400.615463
567.202978,-383.047749,-1258.350101,9696.697840
567.203294,-1072.533697,-1332.370696,10362.883188
567.203609,-1608.800546,-1332.370696,10732.986159
567.203925,-1302.362347,-1406.391290,11399.171507
567.204241,-995.924147,-1110.308913,10955.047942
567.204556,306.438199,-888.247130,10288.862594
567.204872,306.438199,-592.164754,9992.780217
567.205188,1072.533697,-222.061783,9474.636058
567.205503,2145.067394,-0.000000,8808.450710
567.205819,2834.553343,518.144159,8216.285956
567.206135,3447.429741,1110.308913,7402.059420
567.206451,3294.210641,1184.329507,7254.018232
567.206766,2757.943793,1036.288319,7476.080014
567.207082,2604.724693,592.164754,8216.285956
567.207398,1838.629195,222.061783,8364.327145
567.207713,995.924147,-518.144159,9030.512492
567.208029,229.828649,-592.164754,9992.780217
567.208345,-612.876398,-814.226536,11103.089130
567.208660,-1072.533697,-1036.288319,11325.150913
567.208976,-1532.190996,-814.226536,11547.212695
567.209292,-1608.800546,-962.267725,11177.109724
567.209607,-995.924147,-444.123565,10881.027347
567.209923,-536.266849,-0.000000,9918.759623
567.210239,229.828649,222.061783,9104.533087
567.210555,1149.143247,370.102971,8512.368333
567.210870,1149.143247,814.226536,8142.265362
567.211186,1225.752797,814.226536,7846.182985
567.211502,1072.533697,222.061783,8142.265362
567.211817,766.095498,-74.020594,8734.430116
567.212133,153.219100,-370.102971,9474.636058
567.212449,0.000000,-444.123565,10140.821405
567.212764,-689.485948,-740.205942,10732.986159
567.213080,-1149.143247,-592.164754,11103.089130
567.213396,-1149.143247,-1036.288319,11621.233289
567.213711,-1302.362347,-740.205942,11399.171507
567.214027,-842.705048,-370.102971,10807.006753
567.214343,-229.828649,-0.000000,10362.883188
567.214659,383.047749,-0.000000,9844.739029
567.214974,1149.143247,296.082377,9252.574275
567.215290,1991.848295,666.185348,8290.306550
567.215606,2604.724693,1110.308913,7772.162391
567.215921,2374.896044,1036.288319,7402.059420
567.216237,2145.067394,666.185348,7920.203579
567.216553,1685.410096,444.123565,8142.265362
567.216868,995.924147,-0.000000,8882.471304
567.217184,306.438199,-518.144159,9474.636058
567.217500,-536.266849,-666.185348,10214.842000
567.217815,-1378.971896,-962.267725,10732.986159
567.218131,-1455.581446,-888.247130,11177.109724
567.218447,-1455.581446,-1184.329507,11103.089130
567.218763,-1302.362347,-666.185348,10732.986159
567.219078,-995.924147,-592.164754,10288.862594
567.219394,-229.828649,-296.082377,9400.615463
567.219710,229.828649,-0.000000,8660.409521
567.220025,1149.143247,592.164754,7920.203579
567.220341,1302.362347,740.205942,7698.141797
567.220657,1378.971896,592.164754,7624.121203
567.220972,1455.581446,74.020594,7846.182985
567.221288,995.924147,-518.144159,8586.388927
567.221604,229.828649,-740.205942,9326.594869
567.221919,0.000000,-888.247130,10066.800811
567.222235,-689.485948,-1406.391290,10510.924376
567.222551,-995.924147,-1332.370696,11103.089130
567.222867,-995.924147,-1184.329507,11251.130318
567.223182,-536.266849,-1110.308913,10955.047942
567.223498,-153.219100,-592.164754,10584.944971
567.223814,459.657299,-518.144159,10066.800811
567.224129,995.924147,-444.123565,9474.636058
567.224445,2298.286494,-0.000000,8660.409521
567.224761,2987.772442,740.205942,7994.224174
567.225076,3370.820191,1184.329507,7550.100608
567.225392,3600.648841,1406.391290,7328.038826
567.225708,2911.162892,814.226536,7698.141797
567.226024,2451.505594,296.082377,8068.244768
567.226339,1532.190996,-222.061783,9030.512492
567.226655,766.095498,-444.123565,9474.636058
567.226971,0.000000,-962.267725,10214.842000
567.227286,-766.095498,-1332.370696,10658.965565
567.227602,-1149.143247,-1110.308913,11251.130318
567.227918,-1225.752797,-962.267725,11399.171507
567.228233,-1149.143247,-666.185348,10881.027347
567.228549,-766.095498,-888.247130,10436.903782
567.228865,-229.828649,-74.020594,9844.739029
567.229180,383.047749,222.061783,9030.512492
567.229496,1149.143247,888.247130,8068.244768
567.229812,1455.581446,666.185348,7846.182985
567.230128,995.924147,740.205942,7772.162391
567.230443,1225.752797,148.041188,8512.368333
567.230759,842.705048,-74.020594,8882.471304
567.231075,229.828649,-444.123565,9400.615463
567.231390,-306.438199,-740.205942,9992.780217
567.231706,-612.876398,-1036.288319,10658.965565
567.232022,-1149.143247,-888.247130,11177.109724
567.232337,-1072.533697,-592.164754,11325.150913
567.232653,-1072.533697,-666.185348,11325.150913
567.232969,-766.095498,-444.123565,10732.986159
567.233284,0.000000,-0.000000,10362.883188
567.233600,689.485948,-148.041188,9326.594869
567.233916,1455.581446,296.082377,8808.450710
567.234232,2298.286494,814.226536,8142.265362
567.234547,2068.457845,1332.370696,7846.182985
567.234863,2451.505594,1258.350101,7179.997637
567.235179,2221.676944,592.164754,7476.080014
567.235494,1685.410096,518.144159,8290.306550
567.235810,919.314598,-296.082377,9178.553681
567.236126,0.000000,-888.247130,9918.759623
567.236441,-766.095498,-888.247130,10436.903782
567.236757,-1455.581446,-1184.329507,11325.150913
567.237073,-1685.410096,-1332.370696,11325.150913
567.237388,-1608.800546,-1036.288319,11177.109724
567.237704,-1072.533697,-888.247130,10955.047942
567.238020,-995.924147,-296.082377,9992.780217
567.238336,76.609550,-0.000000,9252.574275
567.238651,536.266849,296.082377,8512.368333
567.238967,1149.143247,666.185348,7920.203579
567.239283,1455.581446,518.144159,7476.080014
567.239598,1378.971896,370.102971,7920.203579
567.239914,612.876398,-222.061783,8216.285956
567.240230,383.047749,-740.205942,9178.553681
567.240545,76.609550,-1110.308913,9474.636058
567.240861,-306.438199,-1406.391290,10066.800811
567.241177,-1225.752797,-1110.308913,10807.006753
567.241492,-1378.971896,-1332.370696,11399.171507
567.241808,-1072.533697,-962.267725,11251.130318
567.242124,-459.657299,-666.185348,10881.027347
567.242440,76.609550,-222.061783,10436.903782
567.242755,842.705048,-74.020594,9696.697840
567.243071,1685.410096,444.123565,9104.533087
567.243387,2528.115143,592.164754,8364.327145
567.243702,3294.210641,962.267725,7772.162391
567.244018,3907.087040,1554.432478,7179.997637
567.244334,3907.087040,1332.370696,7254.018232
567.244649,2911.162892,666.185348,7624.121203
567.244965,2451.505594,370.102971,8216.285956
567.245281,1378.971896,-0.000000,8956.491898
567.245596,459.657299,-222.061783,9992.780217
567.245912,-612.876398,-962.267725,10807.006753
567.246228,-995.924147,-1036.288319,11103.089130
567.246544,-1225.752797,-1184.329507,11251.130318
567.246859,-1455.581446,-962.267725,11103.089130
567.247175,-1072.533697,-296.082377,10732.986159
567.247491,-536.266849,-222.061783,10140.821405
567.247806,0.000000,148.041188,9474.636058
567.248122,995.924147,370.102971,9030.512492
567.248438,1532.190996,814.226536,7772.162391
567.248753,1685.410096,962.267725,7402.059420
567.249069,1378.971896,666.185348,7772.162391
567.249385,995.924147,-0.000000,8660.409521
567.249701,229.828649,-592.164754,9326.594869
567.250016,-383.047749,-888.247130,9622.677246
567.250332,-766.095498,-962.267725,10288.862594
567.250648,-1532.190996,-1036.288319,11103.089130
567.250963,-1608.800546,-1258.350101,11843.295072
567.251279,-1532.190996,-962.267725,11621.233289
567.251595,-1378.971896,-814.226536,11251.130318
567.251910,-919.314598,-518.144159,10881.027347
567.252226,0.000000,-148.041188,10140.821405
567.252542,842.705048,-0.000000,9400.615463
567.252857,1915.238745,444.123565,8660.409521
567.253173,2681.334243,888.247130,7698.141797
567.253489,2757.943793,1184.329507,7328.038826
567.253805,2528.115143,1110.308913,7328.038826
567.254120,2221.676944,518.144159,7550.100608
567.254436,1532.190996,296.082377,8808.450710
567.254752,612.876398,-518.144159,9104.533087
567.255067,153.219100,-888.247130,9992.780217
567.255383,-919.314598,-1184.329507,10584.944971
567.255699,-1225.752797,-1258.350101,11177.109724
567.256014,-1608.800546,-1258.350101,11547.212695
567.256330,-1532.190996,-888.247130,11103.089130
567.256646,-1225.752797,-666.185348,10436.903782
567.256961,-689.485948,-296.082377,9474.636058
567.257277,0.000000,-74.020594,8956.491898
567.257592,766.095498,-0.000000,8438.347739
567.257908,1378.971896,592.164754,7550.100608
567.258224,1608.800546,666.185348,7624.121203
567.258539,1378.971896,-0.000000,7624.121203
567.258855,1302.362347,-296.082377,8586.388927
567.259171,306.438199,-1184.329507,8956.491898
567.259486,0.000000,-1110.308913,9770.718434
567.259802,-842.705048,-1480.411884,10288.862594
567.260117,-1455.581446,-1554.432478,10955.047942
567.260433,-1455.581446,-962.267725,11325.150913
567.260749,-1072.533697,-962.267725,11177.109724
567.261064,-536.266849,-444.123565,10807.006753
567.261380,76.609550,-148.041188,10288.862594
567.261696,842.705048,-222.061783,9474.636058
567.262011,2221.676944,-0.000000,8882.471304
567.262327,2911.162892,444.123565,8142.265362
567.262642,3294.210641,1184.329507,7698.141797
567.262958,3294.210641,1184.329507,7254.018232
567.263274,3217.601092,1110.308913,7476.080014
567.263589,2681.334243,592.164754,8364.327145
567.263905,1762.019645,148.041188,8512.368333
567.264221,1225.752797,-148.041188,9400.615463
567.264536,153.219100,-740.205942,9992.780217
567.264852,-459.657299,-740.205942,11177.109724
567.265167,-1455.581446,-1036.288319,11177.109724
567.265483,-1532.190996,-962.267725,11177.109724
567.265799,-1532.190996,-740.205942,11473.192101
567.266114,-995.924147,-518.144159,10732.986159
567.266430,-229.828649,148.041188,10066.800811
567.266746,0.000000,148.041188,9178.553681
567.267061,612.876398,518.144159,8734.430116
567.267377,1608.800546,1110.308913,8068.244768
567.267692,1685.410096,1110.308913,7772.162391
567.268008,1378.971896,370.102971,7846.182985
567.268324,1072.533697,-74.020594,8660.409521
567.268639,536.266849,-444.123565,9474.636058
567.268955,-383.047749,-740.205942,9844.739029
567.269271,-1072.533697,-962.267725,10584.944971
567.269586,-1302.362347,-1184.329507,11399.171507
567.269902,-1455.581446,-888.247130,11399.171507
567.270217,-1838.629195,-888.247130,11621.233289
567.270533,-1072.533697,-518.144159,10955.047942
567.270849,-383.047749,-74.020594,10288.862594
567.271164,612.876398,-74.020594,9918.759623
567.271480,1608.800546,370.102971,8956.491898
567.271795,2221.676944,666.185348,8290.306550
567.272111,2757.943793,1184.329507,7402.059420
567.272427,2911.162892,1036.288319,7476.080014
567.272742,2757.943793,814.226536,7624.121203
567.273058,1991.848295,444.123565,8142.265362
567.273374,1685.410096,-0.000000,8660.409521
567.273689,459.657299,-518.144159,9474.636058
567.274005,-536.266849,-962.267725,10214.842000
567.274320,-1225.752797,-1036.288319,10955.047942
567.274636,-1532.190996,-1184.329507,11177.109724
567.274952,-1762.019645,-1110.308913,11473.192101
567.275267,-1532.190996,-888.247130,10807.006753
567.275583,-1072.533697,-444.123565,10881.027347
567.275899,-459.657299,-222.061783,9622.677246
567.276214,536.266849,-0.000000,8808.450710
567.276530,995.924147,370.102971,8142.265362
567.276845,1608.800546,888.247130,7624.121203
567.277161,842.705048,518.144159,7476.080014
567.277477,1225.752797,-0.000000,7920.203579
567.277792,919.314598,-222.061783,8586.388927
567.278108,459.657299,-1110.308913,9030.512492
567.278424,0.000000,-1258.350101,9844.739029
567.278739,-612.876398,-1332.370696,10584.944971
567.279055,-1149.143247,-1406.391290,11251.130318
567.279370,-1072.533697,-1184.329507,10955.047942
567.279686,-995.924147,-814.226536,11177.109724
567.280002,-689.485948,-592.164754,10658.965565
567.280317,536.266849,-666.185348,9992.780217
567.280633,1302.362347,-0.000000,9400.615463
567.280949,2298.286494,444.123565,8734.430116
567.281264,3064.381992,592.164754,7920.203579
567.281580,3983.696590,1184.329507,7476.080014
567.281895,3370.820191,1480.411884,7105.977043
567.282211,3294.210641,1110.308913,7698.141797
567.282527,2681.334243,296.082377,8216.285956
567.282842,2145.067394,-444.123565,8808.450710
567.283158,919.314598,-444.123565,9400.615463
567.283474,0.000000,-666.185348,10436.903782
567.283789,-995.924147,-962.267725,11251.130318
567.284105,-1378.971896,-962.267725,11473.192101
567.284420,-1378.971896,-148.041188,11399.171507
567.284736,-1225.752797,-370.102971,10807.006753
567.285052,-766.095498,-222.061783,10288.862594
567.285367,-153.219100,-0.000000,9622.677246
567.285683,459.657299,-0.000000,8882.471304
567.285999,1225.752797,1036.288319,8586.388927
567.286314,1532.190996,962.267725,7624.121203
567.286630,1532.190996,666.185348,7624.121203
567.286945,1149.143247,-0.000000,8216.285956
567.287261,919.314598,-148.041188,8882.471304
567.287577,0.000000,-814.226536,9696.697840
567.287892,-766.095498,-888.247130,10288.862594
567.288208,-1455.581446,-888.247130,10955.047942
567.288524,-1608.800546,-1036.288319,11177.109724
567.288839,-1991.848295,-592.164754,11621.233289
567.289155,-1149.143247,-1184.329507,11177.109724
567.289470,-612.876398,-222.061783,10658.965565
567.289786,76.609550,-222.061783,10066.800811
567.290102,612.876398,-0.000000,9474.636058
567.290417,1762.019645,370.102971,8734.430116
567.290733,2451.505594,962.267725,8142.265362
567.291049,2834.553343,1184.329507,7550.100608
567.291364,2834.553343,1332.370696,7402.059420
567.291680,2298.286494,1110.308913,7624.121203
567.291995,1762.019645,444.123565,8216.285956
567.292311,842.705048,370.102971,9474.636058
567.292627,0.000000,-666.185348,9696.697840
567.292942,-995.924147,-962.267725,10436.903782
567.293258,-1608.800546,-1184.329507,11251.130318
567.293573,-1685.410096,-1628.453072,11695.253884
567.293889,-2068.457845,-1110.308913,11177.109724
567.294205,-1455.581446,-666.185348,10510.924376
567.294520,-995.924147,-592.164754,9992.780217
567.294836,0.000000,-148.041188,9178.553681
567.295152,1149.143247,-148.041188,8512.368333
567.295467,995.924147,592.164754,7920.203579
567.295783,2068.457845,814.226536,7402.059420
567.296098,1838.629195,222.061783,7402.059420
567.296414,1378.971896,-0.000000,7920.203579
567.296730,1225.752797,-592.164754,8808.450710
567.297045,153.219100,-1036.288319,9474.636058
567.297361,-383.047749,-1332.370696,10214.842000
567.297677,-1072.533697,-1480.411884,10807.006753
567.297992,-1378.971896,-1258.350101,11251.130318
567.298308,-689.485948,-1036.288319,11325.150913
567.298623,-612.876398,-666.185348,10807.006753
567.298939,-76.609550,-518.144159,10214.842000
567.299255,536.266849,-444.123565,9696.697840
567.299570,1608.800546,-0.000000,9030.512492
567.299886,2374.896044,296.082377,8734.430116
567.300202,3370.820191,888.247130,7772.162391
567.300517,3447.429741,1184.329507,7402.059420
567.300833,3447.429741,1184.329507,7254.018232
567.301148,2987.772442,888.247130,7550.100608
567.301464,2604.724693,666.185348,8512.368333
567.301780,1685.410096,-296.082377,9104.533087
567.302095,306.438199,-740.205942,9992.780217
567.302411,-536.266849,-1110.308913,10436.903782
567.302727,-1072.533697,-1036.288319,11325.150913
567.303042,-1455.581446,-1110.308913,11399.171507
567.303358,-1455.581446,-814.226536,11177.109724
567.303673,-1149.143247,-444.123565,10658.965565
567.303989,-459.657299,-370.102971,10140.821405
567.304305,0.000000,-222.061783,9474.636058
567.304620,919.314598,222.061783,8512.368333
567.304936,1072.533697,740.205942,8068.244768
567.305252,1685.410096,888.247130,7994.224174
567.305567,1225.752797,592.164754,7920.203579
567.305883,1455.581446,74.020594,8808.450710
567.306198,229.828649,-370.102971,9178.553681
567.306514,-229.828649,-814.226536,9844.739029
567.306830,-766.095498,-888.247130,10510.924376
567.307145,-1455.581446,-962.267725,11251.130318
567.307461,-1532.190996,-518.144159,11769.274478
567.307777,-1685.410096,-1036.288319,11473.192101
567.308092,-1225.752797,-296.082377,11103.089130
567.308408,-689.485948,-74.020594,10584.944971
567.308723,0.000000,-74.020594,10140.821405
567.309039,919.314598,814.226536,9400.615463
567.309355,1608.800546,666.185348,8586.388927
567.309670,2451.505594,962.267725,7994.224174
567.309986,2757.943793,1184.329507,7698.141797
567.310302,2681.334243,888.247130,7624.121203
567.310617,1838.629195,370.102971,7920.203579
567.310933,1532.190996,-0.000000,8808.450710
567.311248,689.485948,-296.082377,9326.594869
567.311564,0.000000,-592.164754,9918.759623
567.311880,-689.485948,-1036.288319,10732.986159
567.312195,-1532.190996,-962.267725,11029.068536
567.312511,-1532.190996,-1110.308913,11399.171507
567.312827,-1532.190996,-962.267725,10807.006753
567.313142,-1302.362347,-444.123565,10288.862594
567.313458,-536.266849,-222.061783,9770.718434
567.313773,0.000000,-370.102971,9030.512492
567.314089,459.657299,74.020594,8438.347739
567.314405,1225.752797,518.144159,7772.162391
567.314720,1685.410096,592.164754,7772.162391
567.315036,1455.581446,444.123565,7698.141797
567.315351,919.314598,-296.082377,8216.285956
567.315667,383.047749,-666.185348,9030.512492
567.315983,-383.047749,-888.247130,9474.636058
567.316298,-306.438199,-1258.350101,10214.842000
567.316614,-919.314598,-1332.370696,10807.006753
567.316930,-1378.971896,-1258.350101,11399.171507
567.317245,-995.924147,-1184.329507,11473.192101
567.317561,-383.047749,-814.226536,10732.986159
567.317876,0.000000,-148.041188,10066.800811
567.318192,1149.143247,-148.041188,9696.697840
567.318508,1838.629195,-0.000000,8956.491898
567.318823,2757.943793,518.144159,8290.306550
567.319139,3064.381992,1184.329507,7846.182985
567.319455,3294.210641,1184.329507,7476.080014
567.319770,3370.820191,1184.329507,7402.059420
567.320086,2757.943793,666.185348,7846.182985
567.320401,2221.676944,370.102971,8808.450710
567.320717,1838.629195,-74.020594,9400.615463
567.321033,153.219100,-666.185348,10066.800811
567.321348,-306.438199,-962.267725,10658.965565
567.321664,-766.095498,-888.247130,11473.192101
567.321980,-1149.143247,-814.226536,11325.150913
567.322295,-1378.971896,-1036.288319,11399.171507
567.322611,-919.314598,-148.041188,10584.944971
567.322926,-536.266849,-0.000000,10066.800811
567.323242,536.266849,-0.000000,9252.574275
567.323558,919.314598,740.205942,8956.491898
567.323873,1225.752797,518.144159,7994.224174
567.324189,1838.629195,814.226536,7846.182985
567.324505,1455.581446,518.144159,8068.244768
567.324820,842.705048,-0.000000,8512.368333
567.325136,76.609550,-518.144159,9178.553681
567.325451,0.000000,-1036.288319,9992.780217
567.325767,-995.924147,-962.267725,10732.986159
567.326083,-1455.581446,-962.267725,11103.089130
567.326398,-1455.581446,-1036.288319,11473.192101
567.326714,-1455.581446,-1036.288319,11251.130318
567.327030,-1455.581446,-518.144159,10955.047942
567.327345,-76.609550,-148.041188,10436.903782
567.327661,306.438199,-148.041188,9696.697840
567.327976,1225.752797,-0.000000,8956.491898
567.328292,2298.286494,592.164754,8290.306550
567.328608,2681.334243,888.247130,7550.100608
567.328923,2911.162892,1036.288319,7550.100608
567.329239,2757.943793,666.185348,7328.038826
567.329555,2298.286494,370.102971,7772.162391
567.329870,1302.362347,148.041188,8660.409521
567.330186,766.095498,-296.082377,9400.615463
567.330501,-153.219100,-888.247130,9918.759623
567.330817,-995.924147,-1110.308913,10732.986159
567.331133,-1762.019645,-1036.288319,11399.171507
567.331448,-1838.629195,-1332.370696,11103.089130
567.331764,-1685.410096,-962.267725,10955.047942
567.332080,-1378.971896,-888.247130,10436.903782
567.332395,-689.485948,-444.123565,9622.677246
567.332711,76.609550,-0.000000,9030.512492
567.333026,153.219100,-74.020594,8290.306550
567.333342,1838.629195,666.185348,7994.224174
567.333658,1685.410096,740.205942,7550.100608
567.333973,1455.581446,296.082377,7920.203579
567.334289,1302.362347,-444.123565,8512.368333
567.334604,766.095498,-1036.288319,9400.615463
567.334920,0.000000,-814.226536,9844.739029
567.335236,-689.485948,-1110.308913,10288.862594
567.335551,-1149.143247,-1110.308913,10955.047942
567.335867,-1225.752797,-962.267725,11399.171507
567.336183,-842.705048,-740.205942,11251.130318
567.336498,-306.438199,-518.144159,10658.965565
567.336814,153.219100,-296.082377,9992.780217
567.337129,1225.752797,-0.000000,9400.615463
567.337445,1991.848295,-0.000000,8734.430116
567.337761,2528.115143,740.205942,7994.224174
567.338076,3064.381992,1036.288319,7476.080014
567.338392,3370.820191,1184.329507,7476.080014
567.338708,3064.381992,962.267725,7772.162391
567.339023,2911.162892,592.164754,8142.265362
567.339339,2145.067394,-74.020594,8734.430116
567.339654,995.924147,-592.164754,9400.615463
567.339970,76.609550,-666.185348,10362.883188
567.340286,-612.876398,-888.247130,10955.047942
567.340601,-919.314598,-1036.288319,11177.109724
567.340917,-1149.143247,-592.164754,11251.130318
567.341233,-1149.143247,-444.123565,11103.089130
567.341548,-459.657299,-74.020594,10288.862594
567.341864,0.000000,-0.000000,9548.656652
567.342179,306.438199,222.061783,9104.533087
567.342495,919.314598,740.205942,8364.327145
567.342811,1838.629195,1110.308913,7772.162391
567.343126,1685.410096,740.205942,7772.162391
567.343442,1225.752797,444.123565,8216.285956
567.343758,919.314598,-0.000000,8956.491898
567.344073,0.000000,-444.123565,9400.615463
567.344389,-612.876398,-814.226536,9992.780217
567.344704,-1225.752797,-1184.329507,10955.047942
567.345020,-1685.410096,-1036.288319,11621.233289
567.345336,-1838.629195,-1036.288319,11769.274478
567.345651,-1608.800546,-962.267725,11473.192101
567.345967,-1149.143247,-518.144159,11029.068536
567.346283,-306.438199,-296.082377,10362.883188
567.346598,689.485948,-0.000000,9622.677246
567.346914,1608.800546,222.061783,8956.491898
567.347229,2145.067394,814.226536,7994.224174
567.347545,2834.553343,1406.391290,7476.080014
567.347861,2911.162892,1406.391290,7254.018232
567.348176,2757.943793,592.164754,7402.059420
567.348492,2298.286494,222.061783,7920.203579
567.348808,1455.581446,-222.061783,8586.388927
567.349123,383.047749,-370.102971,9326.594869
567.349439,-229.828649,-814.226536,10214.842000
567.349754,-1072.533697,-1184.329507,11103.089130
567.350070,-1915.238745,-1258.350101,11399.171507
567.350386,-1838.629195,-1332.370696,11325.150913
567.350701,-1685.410096,-962.267725,10955.047942
567.351017,-1378.971896,-592.164754,10362.883188
567.351333,-689.485948,-222.061783,9622.677246
567.351648,0.000000,-74.020594,8660.409521
567.351964,1072.533697,444.123565,8068.244768
567.352279,1225.752797,592.164754,7846.182985
567.352595,1378.971896,222.061783,7550.100608
567.352911,1455.581446,222.061783,7920.203579
567.353226,995.924147,-370.102971,8734.430116
567.353542,306.438199,-666.185348,9104.533087
567.353858,-153.219100,-1184.329507,9918.759623
567.354173,-459.657299,-1258.350101,10658.965565
567.354489,-1149.143247,-1110.308913,11029.068536
567.354804,-1072.533697,-1110.308913,11103.089130
567.355120,-842.705048,-962.267725,11029.068536
567.355436,-459.657299,-518.144159,10510.924376
567.355751,306.438199,-666.185348,10140.821405
567.356067,919.314598,-0.000000,9400.615463
567.356382,1991.848295,148.041188,8808.450710
567.356698,2528.115143,518.144159,8216.285956
567.357014,2987.772442,666.185348,7624.121203
567.357329,2757.943793,1110.308913,7624.121203
567.357645,3140.991542,592.164754,7920.203579
567.357961,2528.115143,370.102971,8068.244768
567.358276,1532.190996,-74.020594,8808.450710
567.358592,766.095498,-370.102971,9696.697840
567.358908,76.609550,-814.226536,10362.883188
567.359223,-612.876398,-962.267725,11029.068536
567.359539,-919.314598,-1184.329507,11103.089130
567.359855,-766.095498,-666.185348,11177.109724
567.360170,-153.219100,-74.020594,10807.006753
567.360486,-153.219100,-148.041188,10066.800811
567.360802,0.000000,-0.000000,9326.594869
567.361117,383.047749,518.144159,8734.430116
567.361433,1302.362347,592.164754,8142.265362
567.361749,1762.019645,666.185348,7920.203579
567.362064,1608.800546,962.267725,7698.141797
567.362380,766.095498,-0.000000,8216.285956
567.362696,229.828649,-444.123565,8808.450710
567.363011,-383.047749,-814.226536,9474.636058
567.363327,-995.924147,-1110.308913,10584.944971
567.363643,-1532.190996,-1258.350101,10881.027347
567.363958,-1838.629195,-1036.288319,11399.171507
567.364274,-1838.629195,-962.267725,11473.192101
567.364590,-1072.533697,-592.164754,11103.089130
567.364905,-229.828649,-0.000000,10807.006753
567.365221,0.000000,296.082377,10214.842000
567.365537,1072.533697,444.123565,9326.594869
567.365852,2145.067394,592.164754,8660.409521
567.366168,2757.943793,1258.350101,7698.141797
567.366484,2911.162892,1184.329507,7476.080014
567.366799,3064.381992,1184.329507,7328.038826
567.367115,2757.943793,814.226536,7550.100608
567.367431,1762.019645,444.123565,8142.265362
567.367746,919.314598,-0.000000,9252.574275
567.368062,-306.438199,-370.102971,9992.780217
567.368378,-1149.143247,-1258.350101,10584.944971
567.368693,-1302.362347,-1258.350101,11399.171507
567.369009,-1838.629195,-1184.329507,11695.253884
567.369325,-1838.629195,-1258.350101,11399.171507
567.369640,-1532.190996,-888.247130,10807.006753
567.369956,-995.924147,-592.164754,10214.842000
567.370272,-153.219100,-148.041188,9474.636058
567.370587,689.485948,296.082377,8734.430116
567.370903,1532.190996,518.144159,7772.162391
567.371218,1838.629195,1036.288319,7772.162391
567.371534,1762.019645,592.164754,7624.121203
567.371850,1532.190996,148.041188,7994.224174
567.372165,842.705048,-444.123565,8660.409521
567.372481,229.828649,-740.205942,9622.677246
567.372797,-536.266849,-1258.350101,10288.862594
567.373112,-919.314598,-1406.391290,10955.047942
567.373428,-1149.143247,-1406.391290,11399.171507
567.373744,-1072.533697,-1036.288319,11473.192101
567.374059,-689.485948,-592.164754,11103.089130
567.374375,0.000000,-518.144159,10510.924376
567.374691,536.266849,-222.061783,9918.759623
567.375006,1532.190996,370.102971,9252.574275
567.375322,2451.505594,518.144159,8438.347739
567.375638,3600.648841,1036.288319,7846.182985
567.375953,3524.039291,1258.350101,7254.018232
567.376269,3370.820191,1332.370696,7254.018232
567.376585,3064.381992,666.185348,7846.182985
567.376900,2298.286494,148.041188,8290.306550
567.377216,1915.238745,-222.061783,9178.553681
567.377532,689.485948,-444.123565,9696.697840
567.377847,-383.047749,-1110.308913,10436.903782
567.378163,-536.266849,-1036.288319,10881.027347
567.378479,-995.924147,-962.267725,11473.192101
567.378794,-1225.752797,-1036.288319,11325.150913
567.379110,-919.314598,-444.123565,10658.965565
567.379426,-459.657299,-222.061783,10140.821405
567.379741,0.000000,-0.000000,9326.594869
567.380057,919.314598,148.041188,8882.471304
567.380373,1302.362347,148.041188,7920.203579
567.380688,1608.800546,888.247130,7772.162391
567.381004,1455.581446,444.123565,7994.224174
567.381320,842.705048,-148.041188,8364.327145
567.381635,383.047749,-814.226536,9104.533087
567.381951,-229.828649,-888.247130,9770.718434
567.382267,-919.314598,-888.247130,10510.924376
567.382582,-1302.362347,-1184.329507,10807.006753
567.382898,-1532.190996,-1110.308913,11325.150913
567.383214,-1225.752797,-814.226536,11251.130318
567.383529,-995.924147,-444.123565,10955.047942
567.383845,-229.828649,-74.020594,10288.862594
567.384161,459.657299,-0.000000,9770.718434
567.384476,1302.362347,222.061783,8808.450710
567.384792,2145.067394,-0.000000,8142.265362
567.385108,2451.505594,1258.350101,7550.100608
567.385423,2757.943793,1406.391290,7402.059420
567.385739,2681.334243,962.267725,7328.038826
567.386054,2221.676944,444.123565,7772.162391
567.386370,1378.971896,-0.000000,8586.388927
567.386686,766.095498,-592.164754,9474.636058
567.387001,-153.219100,-814.226536,10066.800811
567.387317,-1225.752797,-1258.350101,10955.047942
567.387633,-2145.067394,-1258.350101,11621.233289
567.387948,-1838.629195,-962.267725,11843.295072
567.388264,-1762.019645,-888.247130,11399.171507
567.388580,-1302.362347,-370.102971,10584.944971
567.388895,-459.657299,-74.020594,9548.656652
567.389211,459.657299,-0.000000,8956.491898
567.389527,1302.362347,666.185348,8142.265362
567.389842,1838.629195,814.226536,7698.141797
567.390158,1838.629195,962.267725,7179.997637
567.390474,1532.190996,-0.000000,7698.141797
567.390789,1149.143247,-592.164754,8438.347739
567.391105,612.876398,-666.185348,9252.574275
567.391421,-153.219100,-1036.288319,9918.759623
567.391736,-612.876398,-1184.329507,10658.965565
567.392052,-919.314598,-1480.411884,11251.130318
567.392368,-1455.581446,-1184.329507,11251.130318
567.392683,-1455.581446,-888.247130,11399.171507
567.392999,-1072.533697,-370.102971,11029.068536
567.393315,0.000000,-0.000000,10510.924376
567.393630,919.314598,-148.041188,9548.656652
567.393946,1685.410096,-0.000000,8512.368333
567.394262,2604.724693,444.123565,8364.327145
567.394577,3064.381992,1110.308913,7402.059420
567.394893,3294.210641,1184.329507,7105.977043
567.395209,2987.772442,1110.308913,7476.080014
567.395524,3064.381992,518.144159,7994.224174
567.395840,2145.067394,222.061783,8438.347739
567.396156,1532.190996,-74.020594,9104.533087
567.396471,306.438199,-444.123565,9696.697840
567.396787,0.000000,-666.185348,10658.965565
567.397103,-842.705048,-814.226536,11251.130318
567.397418,-1225.752797,-888.247130,11251.130318
567.397734,-1225.752797,-592.164754,11103.089130
567.398050,-1149.143247,-370.102971,10658.965565
567.398365,-536.266849,-148.041188,10214.842000
567.398681,0.000000,-148.041188,9252.574275
567.398997,459.657299,370.102971,8438.347739
567.399312,1149.143247,666.185348,7994.224174
567.399628,1455.581446,666.185348,7920.203579
567.399944,1149.143247,-0.000000,7994.224174
567.400259,689.485948,-296.082377,8734.430116
567.400575,0.000000,-740.205942,9326.594869
567.400890,-383.047749,-1110.308913,9622.677246
567.401206,-842.705048,-1110.308913,10436.903782
567.401522,-1225.752797,-1110.308913,11177.109724
567.401837,-1378.971896,-814.226536,11325.150913
567.402153,-1149.143247,-666.185348,11103.089130
567.402469,-995.924147,-444.123565,10881.027347
567.402784,0.000000,-0.000000,10288.862594
567.403100,459.657299,-0.000000,9844.739029
567.403416,1378.971896,370.102971,8882.471304
567.403731,1915.238745,444.123565,8290.306550
567.404047,2374.896044,814.226536,7772.162391
567.404363,2528.115143,814.226536,7698.141797
567.404678,2374.896044,444.123565,7624.121203
567.404994,1455.581446,296.082377,8512.368333
567.405310,1149.143247,-222.061783,8956.491898
567.405625,0.000000,-592.164754,9622.677246
567.405941,-459.657299,-1258.350101,10510.924376
567.406257,-1532.190996,-1480.411884,11029.068536
567.406572,-1608.800546,-1258.350101,11177.109724
567.406888,-1685.410096,-1258.350101,11251.130318
567.407204,-1072.533697,-740.205942,10881.027347
567.407519,-919.314598,-444.123565,10214.842000
567.407835,-383.047749,-0.000000,9548.656652
567.408151,612.876398,222.061783,8734.430116
567.408466,1149.143247,814.226536,8142.265362
567.408782,1532.190996,888.247130,7624.121203
567.409098,1685.410096,518.144159,7624.121203
567.409413,1225.752797,-0.000000,8142.265362
567.409729,919.314598,-592.164754,8808.450710
567.410045,153.219100,-962.267725,9474.636058
567.410360,-766.095498,-1628.453072,10214.842000
567.410676,-995.924147,-1480.411884,10658.965565
567.410992,-1302.362347,-1554.432478,11103.089130
567.411307,-1532.190996,-1406.391290,11251.130318
567.411623,-1072.533697,-1184.329507,11029.068536
567.411939,-383.047749,-814.226536,10807.006753
567.412254,536.266849,-518.144159,10066.800811
567.412570,1225.752797,-0.000000,9474.636058
567.412886,2374.896044,296.082377,8586.388927
567.413201,2987.772442,962.267725,7994.224174
567.413517,3677.258390,1258.350101,7402.059420
567.413833,3600.648841,1480.411884,7254.018232
567.414148,3370.820191,1036.288319,7328.038826
567.414464,2757.943793,444.123565,7772.162391
567.414780,2221.676944,-0.000000,8734.430116
567.415095,1149.143247,-370.102971,9548.656652
567.415411,0.000000,-814.226536,10140.821405
567.415726,-842.705048,-888.247130,11029.068536
567.416042,-1072.533697,-666.185348,11325.150913
567.416358,-1149.143247,-740.205942,11399.171507
567.416673,-1072.533697,-740.205942,11029.068536
567.416989,-1072.533697,-222.061783,10362.883188
567.417305,-459.657299,-0.000000,9696.697840
567.417620,383.047749,222.061783,8956.491898
567.417936,842.705048,592.164754,8364.327145
567.418252,1072.533697,888.247130,7994.224174
567.418567,1072.533697,666.185348,7624.121203
567.418883,995.924147,74.020594,8438.347739
567.419199,689.485948,-296.082377,8808.450710
567.419514,536.266849,-888.247130,9474.636058
567.419830,-306.438199,-666.185348,9992.780217
567.420146,-995.924147,-814.226536,10658.965565
567.420461,-1225.752797,-592.164754,11251.130318
567.420777,-1149.143247,-592.164754,11251.130318
567.421093,-995.924147,-296.082377,11325.150913
567.421408,-766.095498,-0.000000,10732.986159
567.421724,0.000000,-74.020594,9918.759623
567.422040,766.095498,296.082377,9400.615463
567.422355,1838.629195,444.123565,8808.450710
567.422671,2681.334243,888.247130,8142.265362
567.422987,2528.115143,1332.370696,7772.162391
567.423302,2834.553343,1184.329507,7476.080014
567.423618,2298.286494,814.226536,7846.182985
567.423934,1762.019645,-74.020594,8216.285956
567.424249,995.924147,-370.102971,9326.594869
567.424565,76.609550,-666.185348,9992.780217
567.424881,-612.876398,-592.164754,10658.965565
567.425196,-1225.752797,-1036.288319,11177.109724
567.425512,-1455.581446,-962.267725,11547.212695
567.425828,-1455.581446,-814.226536,11177.109724
567.426143,-1225.752797,-222.061783,10658.965565
567.426459,-995.924147,-296.082377,9992.780217
567.426775,-153.219100,-222.061783,9474.636058
567.427090,536.266849,-222.061783,8512.368333
567.427406,1225.752797,296.082377,7920.203579
567.427722,1378.971896,888.247130,7994.224174
567.428037,1532.190996,222.061783,7698.141797
567.428353,995.924147,-74.020594,8290.306550
567.428669,612.876398,-592.164754,8956.491898
567.428984,0.000000,-1184.329507,9548.656652
567.429300,-766.095498,-1332.370696,10436.903782
567.429616,-1225.752797,-1480.411884,10955.047942
567.429931,-1532.190996,-1554.432478,11399.171507
567.430247,-1378.971896,-1406.391290,11547.212695
567.430562,-842.705048,-814.226536,11177.109724
567.430878,0.000000,-444.123565,10214.842000
567.431194,766.095498,-444.123565,9992.780217
567.431509,1455.581446,-0.000000,8956.491898
567.431825,2451.505594,444.123565,8290.306550
567.432141,3140.991542,888.247130,7846.182985
567.432456,3524.039291,1036.288319,7328.038826
567.432772,3447.429741,888.247130,7105.977043
567.433088,3447.429741,592.164754,7772.162391
567.433403,2757.943793,-0.000000,7846.182985
567.433719,1532.190996,-148.041188,9104.533087
567.434035,842.705048,-740.205942,9696.697840
567.434350,0.000000,-888.247130,10288.862594
567.434666,-1149.143247,-1184.329507,11029.068536
567.434982,-1225.752797,-1184.329507,11547.212695
567.435297,-1225.752797,-1110.308913,11251.130318
567.435613,-1149.143247,-740.205942,10584.944971
567.435929,-689.485948,-370.102971,9992.780217
567.436244,0.000000,-148.041188,9400.615463
567.436560,536.266849,74.020594,8660.409521
567.436876,766.095498,518.144159,7920.203579
567.437191,1608.800546,666.185348,7698.141797
567.437507,1302.362347,-0.000000,7846.182985
567.437823,919.314598,-0.000000,8290.306550
567.438138,306.438199,-222.061783,9030.512492
567.438454,0.000000,-518.144159,9548.656652
567.438770,-612.876398,-740.205942,10066.800811
567.439085,-1378.971896,-962.267725,10732.986159
567.439401,-1532.190996,-814.226536,11103.089130
567.439717,-1455.581446,-740.205942,11251.130318
567.440032,-1149.143247,-518.144159,11029.068536
567.440348,-383.047749,-518.144159,10436.903782
567.440664,-459.657299,-74.020594,9992.780217
567.440979,919.314598,444.123565,9400.615463
567.441295,1532.190996,666.185348,8734.430116
567.441611,2298.286494,1406.391290,7994.224174
567.441926,2221.676944,1480.411884,7698.141797
567.442242,2374.896044,1258.350101,7772.162391
567.442558,2451.505594,740.205942,8142.265362
567.442873,1378.971896,222.061783,8512.368333
567.443189,919.314598,-222.061783,9326.594869
567.443505,76.609550,-518.144159,10362.883188
567.443820,-842.705048,-518.144159,10955.047942
567.444136,-1608.800546,-962.267725,11251.130318
567.444452,-1685.410096,-888.247130,11547.212695
567.444767,-1378.971896,-888.247130,11177.109724
567.445083,-842.705048,-666.185348,10807.006753
567.445398,-459.657299,-296.082377,9992.780217
567.445714,0.000000,-74.020594,9400.615463
567.446030,1072.533697,222.061783,8586.388927
567.446345,1455.581446,740.205942,7920.203579
567.446661,2068.457845,666.185348,7402.059420
567.446977,1762.019645,518.144159,7772.162391
567.447292,1378.971896,-74.020594,8216.285956
567.447608,766.095498,-592.164754,8882.471304
567.447924,0.000000,-1036.288319,9770.718434
567.448239,-306.438199,-888.247130,10362.883188
567.448555,-995.924147,-1258.350101,10881.027347
567.448871,-1225.752797,-1258.350101,11251.130318
567.449186,-1378.971896,-1258.350101,11399.171507
567.449502,-689.485948,-814.226536,11029.068536
567.449818,229.828649,-592.164754,10732.986159
567.450133,612.876398,-444.123565,9770.718434
567.450449,1302.362347,-74.020594,9326.594869
567.450765,2451.505594,518.144159,8290.306550
567.451080,3064.381992,1110.308913,7550.100608
567.451396,3447.429741,1332.370696,7846.182985
567.451712,3524.039291,1184.329507,7328.038826
567.452027,3064.381992,740.205942,7254.018232
567.452343,2298.286494,296.082377,8142.265362
567.452659,1302.362347,-148.041188,8808.450710
567.452974,766.095498,-1036.288319,9400.615463
567.453290,0.000000,-666.185348,10510.924376
567.453606,-842.705048,-962.267725,10955.047942
567.453921,-1149.143247,-1110.308913,11473.192101
567.454237,-1225.752797,-814.226536,11177.109724
567.454553,-995.924147,-444.123565,10288.862594
567.454868,-689.485948,-296.082377,9918.759623
567.455184,0.000000,-0.000000,9326.594869
567.455500,536.266849,148.041188,8734.430116
567.455816,1225.752797,370.102971,7920.203579
567.456131,1532.190996,518.144159,7772.162391
567.456447,1532.190996,296.082377,7846.182985
567.456763,766.095498,-370.102971,8808.450710
567.457079,229.828649,-592.164754,9104.533087
567.457394,0.000000,-1036.288319,9696.697840
567.457710,-842.705048,-1036.288319,10436.903782
567.458026,-1532.190996,-1258.350101,11029.068536
567.458341,-1378.971896,-1110.308913,11473.192101
567.458657,-1225.752797,-1036.288319,11399.171507
567.458973,-1072.533697,-444.123565,10881.027347
567.459289,-536.266849,-444.123565,10510.924376
567.459604,536.266849,-0.000000,9992.780217
567.459920,1302.362347,222.061783,8808.450710
567.460236,1991.848295,666.185348,8512.368333
567.460552,2451.505594,888.247130,7920.203579
567.460867,2451.505594,1406.391290,7624.121203
567.461183,2604.724693,962.267725,7476.080014
567.461499,2068.457845,444.123565,7846.182985
567.461814,1149.143247,-74.020594,8882.471304
567.462130,0.000000,-592.164754,9548.656652
567.462446,-383.047749,-888.247130,10288.862594
567.462762,-1072.533697,-1036.288319,11029.068536
567.463077,-1838.629195,-1036.288319,11547.212695
567.463393,-1762.019645,-1184.329507,11399.171507
567.463709,-1608.800546,-814.226536,11325.150913
567.464025,-1225.752797,-296.082377,10436.903782
567.464340,-459.657299,-0.000000,9770.718434
567.464656,306.438199,-0.000000,9252.574275
567.464972,995.924147,370.102971,8290.306550
567.465287,1378.971896,1184.329507,7846.182985
567.465603,1915.238745,740.205942,7328.038826
567.465919,1685.410096,444.123565,7698.141797
567.466235,1302.362347,-0.000000,8438.347739
567.466550,919.314598,-740.205942,9178.553681
567.466866,0.000000,-888.247130,9770.718434
567.467182,-459.657299,-1110.308913,10510.924376
567.467498,-1225.752797,-1258.350101,11325.150913
567.467813,-1072.533697,-888.247130,11325.150913
567.468129,-995.924147,-888.247130,11325.150913
567.468445,-459.657299,-814.226536,10807.006753
567.468760,0.000000,-296.082377,10436.903782
567.469076,1149.143247,-0.000000,9622.677246
567.469392,2451.505594,148.041188,9178.553681
567.469708,2911.162892,296.082377,8142.265362
567.470023,3447.429741,1258.350101,7328.038826
567.470339,3600.648841,1406.391290,7105.977043
567.470655,3524.039291,1110.308913,7402.059420
567.470971,2911.162892,888.247130,7772.162391
567.471286,2451.505594,518.144159,8142.265362
567.471602,1608.800546,-0.000000,9104.533087
567.471918,536.266849,-666.185348,10140.821405
567.472233,-306.438199,-888.247130,10732.986159
567.472549,-1072.533697,-962.267725,11103.089130
567.472865,-1302.362347,-814.226536,11399.171507
567.473181,-1149.143247,-444.123565,11177.109724
567.473496,-689.485948,-370.102971,10362.883188
567.473812,-689.485948,-222.061783,10214.842000
567.474128,0.000000,222.061783,9400.615463
567.474444,689.485948,370.102971,8512.368333
567.474759,1149.143247,814.226536,8068.244768
567.475075,1302.362347,740.205942,8068.244768
567.475391,1455.581446,-0.000000,7994.224174
567.475707,766.095498,-0.000000,8882.471304
567.476022,76.609550,-592.164754,9252.574275
567.476338,-536.266849,-888.247130,9992.780217
567.476654,-1072.533697,-962.267725,10732.986159
567.476969,-1149.143247,-1110.308913,11251.130318
567.477285,-1302.362347,-814.226536,11399.171507
567.477601,-1149.143247,-666.185348,11177.109724
567.477917,-459.657299,-444.123565,10584.944971
567.478232,76.609550,-370.102971,10066.800811
567.478548,919.314598,148.041188,9770.718434
567.478864,1532.190996,518.144159,8734.430116
567.479180,2298.286494,814.226536,8142.265362
567.479495,2528.115143,1110.308913,7550.100608
567.479811,2145.067394,1110.308913,7328.038826
567.480127,1838.629195,370.102971,7624.121203
567.480442,1838.629195,-0.000000,8216.285956
567.480758,1072.533697,-518.144159,9030.512492
567.481074,-153.219100,-740.205942,9992.780217
567.481390,-689.485948,-1480.411884,10584.944971
567.481705,-1225.752797,-1406.391290,11547.212695
567.482021,-1608.800546,-1480.411884,11251.130318
567.482337,-1685.410096,-1184.329507,11029.068536
567.482653,-1225.752797,-592.164754,10732.986159
567.482968,-689.485948,-296.082377,10066.800811
567.483284,0.000000,-148.041188,9400.615463
567.483600,536.266849,296.082377,8586.388927
567.483915,1455.581446,518.144159,7846.182985
567.484231,1685.410096,814.226536,7476.080014
567.484547,1991.848295,518.144159,7476.080014
567.484863,1608.800546,-0.000000,7994.224174
567.485178,995.924147,-592.164754,8586.388927
567.485494,306.438199,-1036.288319,9400.615463
567.485810,0.000000,-1332.370696,9992.780217
567.486126,-1072.533697,-1554.432478,11103.089130
567.486441,-1455.581446,-1480.411884,11473.192101
567.486757,-1378.971896,-1554.432478,11695.253884
567.487073,-1225.752797,-1258.350101,11251.130318
567.487388,-766.095498,-592.164754,10807.006753
567.487704,459.657299,-592.164754,10140.821405
567.488020,1378.971896,-296.082377,9474.636058
567.488336,2221.676944,148.041188,8734.430116
567.488651,2987.772442,814.226536,7772.162391
567.488967,3524.039291,1110.308913,7402.059420
567.489283,3907.087040,1406.391290,7328.038826
567.489599,3524.039291,962.267725,7105.977043
567.489914,2911.162892,666.185348,7846.182985
567.490230,2145.067394,-74.020594,8586.388927
567.490546,1378.971896,-518.144159,9400.615463
567.490861,536.266849,-888.247130,10214.842000
567.491177,-612.876398,-962.267725,11029.068536
567.491493,-1378.971896,-1258.350101,11177.109724
567.491809,-1532.190996,-740.205942,11325.150913
567.492124,-1455.581446,-444.123565,10807.006753
567.492440,-1225.752797,-518.144159,10658.965565
567.492756,-612.876398,-148.041188,9696.697840
567.493072,0.000000,444.123565,8956.491898
567.493387,766.095498,666.185348,8364.327145
567.493703,1225.752797,888.247130,7846.182985
567.494019,995.924147,592.164754,7772.162391
567.494334,995.924147,444.123565,8068.244768
567.494650,689.485948,-148.041188,8808.450710
567.494966,306.438199,-444.123565,9400.615463
567.495282,0.000000,-518.144159,9770.718434
567.495597,-919.314598,-740.205942,10807.006753
567.495913,-1225.752797,-518.144159,11251.130318
567.496229,-1225.752797,-666.185348,11103.089130
567.496545,-995.924147,-444.123565,10881.027347
567.496860,-612.876398,-0.000000,10807.006753
567.497176,0.000000,222.061783,10140.821405
567.497492,689.485948,148.041188,9474.636058
567.497808,1149.143247,518.144159,8882.471304
567.498123,1991.848295,1184.329507,8364.327145
567.498439,2757.943793,814.226536,7624.121203
567.498755,2451.505594,814.226536,7624.121203
567.499070,1762.019645,370.102971,7994.224174
567.499386,1302.362347,-74.020594,8586.388927
567.499702,459.657299,-370.102971,9326.594869
567.500018,-842.705048,-962.267725,9992.780217
567.500333,-995.924147,-1332.370696,10732.986159
567.500649,-1532.190996,-1332.370696,11325.150913
567.500965,-1532.190996,-1184.329507,11325.150913
567.501281,-1455.581446,-888.247130,11029.068536
567.501596,-919.314598,-666.185348,10658.965565
567.501912,-383.047749,-148.041188,9844.739029
567.502228,153.219100,148.041188,9104.533087
567.502543,995.924147,444.123565,8438.347739
567.502859,2145.067394,592.164754,8068.244768
567.503175,1991.848295,740.205942,7402.059420
567.503491,1685.410096,148.041188,7772.162391
567.503806,995.924147,-296.082377,8512.368333
567.504122,536.266849,-888.247130,9030.512492
567.504438,0.000000,-1628.453072,9622.677246
567.504754,-995.924147,-1554.432478,10362.883188
567.505069,-1302.362347,-1628.453072,11177.109724
567.505385,-1532.190996,-1480.411884,11547.212695
567.505701,-1455.581446,-1110.308913,11251.130318
567.506016,-842.705048,-814.226536,10881.027347
567.506332,-153.219100,-518.144159,10658.965565
567.506648,1072.533697,-444.123565,9770.718434
567.506964,1685.410096,-148.041188,8956.491898
567.507279,2911.162892,518.144159,8142.265362
567.507595,3830.477490,740.205942,7179.997637
567.507911,3830.477490,1258.350101,6957.935855
567.508227,3753.867940,1110.308913,7105.977043
567.508542,3064.381992,962.267725,7550.100608
567.508858,2911.162892,222.061783,7994.224174
567.509174,1608.800546,-0.000000,8882.471304
567.509489,536.266849,-444.123565,9918.759623
567.509805,-306.438199,-962.267725,10658.965565
567.510121,-1149.143247,-1406.391290,11399.171507
567.510437,-1762.019645,-1332.370696,11251.130318
567.510752,-1608.800546,-740.205942,11325.150913
567.511068,-1378.971896,-666.185348,10881.027347
567.511384,-766.095498,-222.061783,10214.842000
567.511700,-229.828649,-0.000000,9326.594869
567.512015,689.485948,-0.000000,8660.409521
567.512331,995.924147,814.226536,8216.285956
567.512647,1532.190996,962.267725,8068.244768
567.512962,1532.190996,444.123565,7698.141797
567.513278,919.314598,-0.000000,8586.388927
567.513594,612.876398,-370.102971,8956.491898
567.513910,-153.219100,-888.247130,9548.656652
567.514225,-689.485948,-814.226536,10214.842000
567.514541,-1149.143247,-962.267725,10955.047942
567.514857,-1378.971896,-666.185348,11251.130318
567.515173,-1302.362347,-740.205942,11399.171507
567.515488,-842.705048,-444.123565,10955.047942
567.515804,-306.438199,-148.041188,10584.944971
567.516120,459.657299,-74.020594,9918.759623
567.516435,1455.581446,-296.082377,9178.553681
567.516751,1608.800546,370.102971,8586.388927
567.517067,2298.286494,1036.288319,8068.244768
567.517383,2451.505594,1110.308913,7550.100608
567.517698,2451.505594,888.247130,7476.080014
567.518014,2145.067394,518.144159,7846.182985
567.518330,1302.362347,-74.020594,8586.388927
567.518646,612.876398,-370.102971,9474.636058
567.518961,-459.657299,-962.267725,10066.800811
567.519277,-842.705048,-888.247130,11029.068536
567.519593,-1455.581446,-1258.350101,11029.068536
567.519909,-1302.362347,-888.247130,11103.089130
567.520224,-1532.190996,-518.144159,10955.047942
567.520540,-995.924147,-222.061783,10288.862594
567.520856,-459.657299,-0.000000,9622.677246
567.521171,383.047749,222.061783,9104.533087
567.521487,1072.533697,518.144159,8142.265362
567.521803,1685.410096,814.226536,7550.100608
567.522119,1762.019645,962.267725,7476.080014
567.522434,1532.190996,222.061783,7920.203579
567.522750,1225.752797,-444.123565,8808.450710
567.523066,383.047749,-740.205942,9178.553681
567.523382,-229.828649,-1332.370696,9992.780217
567.523697,-995.924147,-1184.329507,10584.944971
567.524013,-1378.971896,-1184.329507,11473.192101
567.524329,-1378.971896,-1332.370696,11325.150913
567.524644,-1072.533697,-962.267725,11473.192101
567.524960,-612.876398,-518.144159,10658.965565
567.525276,0.000000,-0.000000,10362.883188
567.525592,1072.533697,-74.020594,9622.677246
567.525907,1991.848295,-0.000000,8808.450710
567.526223,3294.210641,962.267725,8290.306550
567.526539,3600.648841,1332.370696,7476.080014
567.526855,3907.087040,1480.411884,7105.977043
567.527170,3753.867940,1110.308913,7031.956449
567.527486,2987.772442,740.205942,7772.162391
567.527802,2298.286494,370.102971,8438.347739
567.528117,1149.143247,-222.061783,9104.533087
567.528433,153.219100,-592.164754,10066.800811
567.528749,-612.876398,-1110.308913,11547.212695
567.529065,-995.924147,-1110.308913,11547.212695
567.529380,-1685.410096,-1036.288319,11399.171507
567.529696,-1455.581446,-962.267725,11325.150913
567.530012,-1149.143247,-740.205942,10807.006753
567.530328,-995.924147,-222.061783,10436.903782
567.530643,0.000000,-74.020594,9030.512492
567.530959,842.705048,296.082377,8512.368333
567.531275,1225.752797,814.226536,7920.203579
567.531590,1685.410096,814.226536,7624.121203
567.531906,1225.752797,222.061783,7994.224174
567.532222,1149.143247,-74.020594,8438.347739
567.532538,459.657299,-518.144159,8956.491898
567.532853,-229.828649,-740.205942,9770.718434
567.533169,-919.314598,-962.267725,10510.924376
567.533485,-1149.143247,-888.247130,11177.109724
567.533801,-1455.581446,-666.185348,11399.171507
567.534116,-1302.362347,-962.267725,11177.109724
567.534432,-842.705048,-592.164754,10955.047942
567.534748,-1225.752797,-0.000000,10066.800811
567.535063,536.266849,-296.082377,10066.800811
567.535379,919.314598,-0.000000,9326.594869
567.535695,1685.410096,518.144159,8882.471304
567.536011,2374.896044,888.247130,7698.141797
567.536326,2068.457845,740.205942,7624.121203
567.536642,2068.457845,592.164754,7550.100608
567.536958,1991.848295,148.041188,7920.203579
567.537274,1225.752797,-0.000000,8808.450710
567.537589,536.266849,-518.144159,9474.636058
567.537905,-229.828649,-888.247130,10214.842000
567.538221,-1149.143247,-1258.350101,10732.986159
567.538536,-1532.190996,-1332.370696,10955.047942
567.538852,-1532.190996,-1184.329507,11251.130318
567.539168,-1072.533697,-518.144159,10881.027347
567.539484,-1225.752797,-888.247130,10881.027347
567.539799,-536.266849,-222.061783,9696.697840
567.540115,306.438199,-0.000000,9030.512492
567.540431,995.924147,370.102971,8216.285956
567.540747,1608.800546,518.144159,7698.141797
567.541062,1838.629195,814.226536,7994.224174
567.541378,1225.752797,-0.000000,8216.285956
567.541694,766.095498,-740.205942,8808.450710
567.542010,76.609550,-740.205942,9400.615463
567.542325,-229.828649,-962.267725,9992.780217
567.542641,-766.095498,-1184.329507,10362.883188
567.542957,-1225.752797,-1110.308913,10955.047942
567.543272,-919.314598,-1036.288319,11325.150913
567.543588,-689.485948,-740.205942,10955.047942
567.543904,0.000000,-518.144159,10214.842000
567.544220,306.438199,-74.020594,10066.800811
567.544535,1378.971896,296.082377,9474.636058
567.544851,2298.286494,444.123565,8586.388927
567.545167,2911.162892,962.267725,7920.203579
567.545483,3524.039291,1110.308913,7328.038826
567.545798,3447.429741,1628.453072,7476.080014
567.546114,3370.820191,1184.329507,7476.080014
567.546430,2604.724693,740.205942,8068.244768
567.546745,1991.848295,-0.000000,8882.471304
567.547061,919.314598,-148.041188,9400.615463
567.547377,153.219100,-518.144159,10362.883188
567.547693,-612.876398,-888.247130,11177.109724
567.548008,-1225.752797,-814.226536,11251.130318
567.548324,-1378.971896,-740.205942,11399.171507
567.548640,-919.314598,-518.144159,11029.068536
567.548956,-766.095498,-222.061783,10510.924376
567.549271,-229.828649,-0.000000,9696.697840
567.549587,612.876398,370.102971,8882.471304
567.549903,1072.533697,370.102971,8586.388927
567.550218,1225.752797,888.247130,7772.162391
567.550534,1302.362347,814.226536,7772.162391
567.550850,1149.143247,296.082377,8290.306550
567.551166,536.266849,-370.102971,8808.450710
567.551481,0.000000,-740.205942,9770.718434
567.551797,-612.876398,-962.267725,10362.883188
567.552113,-1225.752797,-1406.391290,10807.006753
567.552429,-1608.800546,-1110.308913,11399.171507
567.552744,-1608.800546,-1480.411884,11473.192101
567.553060,-1072.533697,-1110.308913,11399.171507
567.553376,-1072.533697,-740.205942,10584.944971
567.553691,0.000000,-296.082377,10436.903782
567.554007,612.876398,-444.123565,9548.656652
567.554323,1225.752797,-0.000000,8512.368333
567.554639,1991.848295,592.164754,8290.306550
567.554954,2834.553343,962.267725,7550.100608
567.555270,2604.724693,962.267725,7476.080014
567.555586,2145.067394,444.123565,7550.100608
567.555902,1608.800546,-0.000000,8216.285956
567.556217,1302.362347,-74.020594,9030.512492
567.556533,153.219100,-740.205942,9548.656652
567.556849,-689.485948,-1110.308913,10362.883188
567.557165,-1532.190996,-1406.391290,11325.150913
567.557481,-1915.238745,-1406.391290,11251.130318
567.557796,-1838.629195,-1406.391290,11399.171507
567.558112,-1149.143247,-666.185348,10658.965565
567.558428,-919.314598,-370.102971,10140.821405
567.558744,-153.219100,-74.020594,9474.636058
567.559060,689.485948,222.061783,8660.409521
567.559375,1302.362347,444.123565,7772.162391
567.559691,1838.629195,814.226536,7846.182985
567.560007,1915.238745,888.247130,7550.100608
567.560323,1532.190996,-0.000000,8142.265362
567.560638,1149.143247,-296.082377,8290.306550
567.560954,383.047749,-740.205942,9326.594869
567.561270,-153.219100,-1258.350101,9992.780217
567.561586,-689.485948,-1332.370696,10881.027347
567.561902,-842.705048,-1480.411884,10955.047942
567.562217,-1149.143247,-1184.329507,11547.212695
567.562533,-842.705048,-1036.288319,11103.089130
567.562849,-383.047749,-666.185348,10584.944971
567.563165,459.657299,-296.082377,9992.780217
567.563480,1608.800546,-370.102971,9400.615463
567.563796,2068.457845,370.102971,8660.409521
567.564112,2987.772442,1110.308913,7698.141797
567.564428,3524.039291,1184.329507,7550.100608
567.564744,3370.820191,1110.308913,7402.059420
567.565059,3064.381992,888.247130,7328.038826
567.565375,2528.115143,444.123565,7994.224174
567.565691,1838.629195,-0.000000,8882.471304
567.566007,1072.533697,-222.061783,9622.677246
567.566323,153.219100,-592.164754,10140.821405
567.566638,-153.219100,-1110.308913,11103.089130
567.566954,-995.924147,-666.185348,11177.109724
567.567270,-1455.581446,-444.123565,11473.192101
567.567586,-1149.143247,-444.123565,10807.006753
567.567901,-766.095498,-0.000000,10362.883188
567.568217,-229.828649,-74.020594,9770.718434
567.568533,229.828649,518.144159,9104.533087
567.568849,766.095498,1110.308913,8142.265362
567.569165,1149.143247,1184.329507,7920.203579
567.569480,1149.143247,592.164754,7920.203579
567.569796,612.876398,-222.061783,8438.347739
567.570112,306.438199,-296.082377,8882.471304
567.570428,0.000000,-740.205942,9548.656652
567.570744,-536.266849,-740.205942,10140.821405
567.571059,-1532.190996,-814.226536,10807.006753
567.571375,-1149.143247,-814.226536,11103.089130
567.571691,-1302.362347,-444.123565,11473.192101
567.572007,-995.924147,-222.061783,11029.068536
567.572322,-459.657299,-0.000000,10436.903782
567.572638,0.000000,-148.041188,9622.677246
567.572954,1072.533697,296.082377,9400.615463
567.573270,1991.848295,444.123565,8586.388927
567.573586,2145.067394,888.247130,8068.244768
567.573901,2451.505594,1110.308913,7846.182985
567.574217,2757.943793,296.082377,7846.182985
567.574533,1991.848295,444.123565,8068.244768
567.574849,1302.362347,-0.000000,8364.327145
567.575165,612.876398,-444.123565,9252.574275
567.575480,-153.219100,-888.247130,9992.780217
567.575796,-1149.143247,-1110.308913,10881.027347
567.576112,-1378.971896,-1110.308913,11251.130318
567.576428,-1378.971896,-1110.308913,11251.130318
567.576743,-1455.581446,-1036.288319,11251.130318
567.577059,-1225.752797,-888.247130,10584.944971
567.577375,-612.876398,-222.061783,10140.821405
567.577691,306.438199,-222.061783,9104.533087
567.578007,995.924147,296.082377,8364.327145
567.578322,1608.800546,592.164754,7920.203579
567.578638,1991.848295,666.185348,7254.018232
567.578954,1302.362347,222.061783,7698.141797
567.579270,919.314598,-148.041188,8216.285956
567.579585,689.485948,-592.164754,8808.450710
567.579901,0.000000,-1184.329507,9400.615463
567.580217,-842.705048,-1628.453072,10214.842000
567.580533,-1378.971896,-1554.432478,10881.027347
567.580849,-1532.190996,-1406.391290,11325.150913
567.581164,-1302.362347,-1184.329507,11473.192101
567.581480,-919.314598,-962.267725,10881.027347
567.581796,-306.438199,-888.247130,10436.903782
567.582112,612.876398,-444.123565,9474.636058
567.582428,1532.190996,-370.102971,9104.533087
567.582743,2451.505594,296.082377,8512.368333
567.583059,3064.381992,666.185348,7698.141797
567.583375,3524.039291,1184.329507,7031.956449
567.583691,3600.648841,814.226536,7254.018232
567.584006,2987.772442,518.144159,7402.059420
567.584322,2681.334243,222.061783,7920.203579
567.584638,2145.067394,-74.020594,9030.512492
567.584954,459.657299,-666.185348,10066.800811
567.585270,-383.047749,-814.226536,10288.862594
567.585585,-995.924147,-1184.329507,11177.109724
567.585901,-1378.971896,-962.267725,11547.212695
567.586217,-1455.581446,-962.267725,11325.150913
567.586533,-1149.143247,-370.102971,10584.944971
567.586849,-919.314598,-148.041188,10288.862594
567.587164,-76.609550,-0.000000,9474.636058
567.587480,459.657299,222.061783,8956.491898
567.587796,1225.752797,592.164754,8068.244768
567.588112,1455.581446,814.226536,7846.182985
567.588427,1072.533697,518.144159,7920.203579
567.588743,919.314598,-0.000000,8364.327145
567.589059,689.485948,-222.061783,9030.512492
567.589375,76.609550,-592.164754,9770.718434
567.589691,-612.876398,-592.164754,10584.944971
567.590006,-1149.143247,-666.185348,11029.068536
567.590322,-1149.143247,-666.185348,11251.130318
567.590638,-1072.533697,-814.226536,11547.212695
567.590954,-689.485948,-222.061783,10955.047942
567.591270,-229.828649,148.041188,10214.842000
567.591585,306.438199,222.061783,9918.759623
567.591901,842.705048,444.123565,9326.594869
567.592217,2145.067394,444.123565,8512.368333
567.592533,2374.896044,1110.308913,7994.224174
567.592848,2145.067394,1036.288319,7698.141797
567.593164,2374.896044,814.226536,7846.182985
567.593480,1685.410096,296.082377,8142.265362
567.593796,1225.752797,-74.020594,8808.450710
567.594112,612.876398,-518.144159,9622.677246
567.594427,-306.438199,-1036.288319,10140.821405
567.594743,-1072.533697,-1110.308913,10732.986159
567.595059,-1455.581446,-1258.350101,11695.253884
567.595375,-1532.190996,-1110.308913,11621.233289
567.595690,-1378.971896,-814.226536,10807.006753
567.596006,-612.876398,-370.102971,10436.903782
567.596322,-459.657299,-0.000000,9696.697840
567.596638,459.657299,148.041188,9030.512492
567.596954,1149.143247,518.144159,8142.265362
567.597269,1685.410096,962.267725,7846.182985
567.597585,1685.410096,1036.288319,7328.038826
567.597901,1608.800546,444.123565,7698.141797
567.598217,842.705048,-222.061783,8512.368333
567.598533,919.314598,-1036.288319,9030.512492
567.598848,0.000000,-1332.370696,9918.759623
567.599164,-919.314598,-1480.411884,10584.944971
567.599480,-1378.971896,-1554.432478,11251.130318
567.599796,-1685.410096,-1776.494261,11547.212695
567.600111,-1455.581446,-1406.391290,11547.212695
567.600427,-919.314598,-814.226536,10955.047942
567.600743,0.000000,-444.123565,10288.862594
567.601059,612.876398,-370.102971,9696.697840
567.601375,1991.848295,-444.123565,8734.430116
567.601690,2834.553343,518.144159,8216.285956
567.602006,3907.087040,814.226536,7328.038826
567.602322,3830.477490,1184.329507,6957.935855
567.602638,3600.648841,1110.308913,7105.977043
567.602954,3370.820191,296.082377,7846.182985
567.603269,2681.334243,444.123565,8142.265362
567.603585,1608.800546,-0.000000,9178.553681
567.603901,612.876398,-592.164754,9696.697840
567.604217,-153.219100,-962.267725,10658.965565
567.604532,-919.314598,-1628.453072,11621.233289
567.604848,-1302.362347,-1332.370696,11399.171507
567.605164,-1378.971896,-666.185348,11251.130318
567.605480,-1532.190996,-518.144159,10955.047942
567.605796,-919.314598,-222.061783,10214.842000
567.606111,-229.828649,-370.102971,9474.636058
567.606427,383.047749,518.144159,8734.430116
567.606743,612.876398,666.185348,8068.244768
567.607059,1225.752797,666.185348,8068.244768
567.607375,1072.533697,296.082377,8142.265362
567.607690,612.876398,-148.041188,8660.409521
567.608006,536.266849,-740.205942,9104.533087
567.608322,-383.047749,-962.267725,10066.800811
567.608638,-612.876398,-814.226536,10362.883188
567.608953,-842.705048,-740.205942,11029.068536
567.609269,-1072.533697,-666.185348,11103.089130
567.609585,-919.314598,-518.144159,11103.089130
567.609901,-536.266849,-74.020594,10658.965565
567.610217,0.000000,-74.020594,10066.800811
567.610532,536.266849,370.102971,9622.677246
567.610848,1302.362347,370.102971,9400.615463
567.611164,1915.238745,888.247130,8438.347739
567.611480,2374.896044,962.267725,7846.182985
567.611795,2221.676944,1036.288319,7550.100608
567.612111,1991.848295,740.205942,7846.182985
567.612427,1685.410096,74.020594,8438.347739
567.612743,1072.533697,-222.061783,9178.553681
567.613059,229.828649,-814.226536,9770.718434
567.613374,-383.047749,-1036.288319,10362.883188
567.613690,-919.314598,-888.247130,11399.171507
567.614006,-1532.190996,-962.267725,11251.130318
567.614322,-1302.362347,-814.226536,11029.068536
567.614638,-995.924147,-592.164754,10584.944971
567.614953,-919.314598,-222.061783,9918.759623
567.615269,-153.219100,-74.020594,9474.636058
567.615585,689.485948,148.041188,8660.409521
567.615901,1225.752797,592.164754,8142.265362
567.616216,1608.800546,888.247130,7846.182985
567.616532,1302.362347,740.205942,7994.224174
567.616848,1532.190996,148.041188,8068.244768
567.617164,919.314598,-370.102971,8586.388927
567.617480,0.000000,-1110.308913,9326.594869
567.617795,-459.657299,-1184.329507,10140.821405
567.618111,-689.485948,-1776.494261,10732.986159
567.618427,-1225.752797,-1406.391290,11325.150913
567.618743,-1302.362347,-1332.370696,11621.233289
567.619059,-1072.533697,-962.267725,11103.089130
567.619374,-536.266849,-666.185348,10288.862594
567.619690,612.876398,-0.000000,10214.842000
567.620006,1532.190996,-0.000000,9252.574275
567.620322,2528.115143,444.123565,8438.347739
567.620637,3447.429741,962.267725,7846.182985
567.620953,3907.087040,1332.370696,7254.018232
567.621269,4213.525239,1332.370696,7254.018232
567.621585,3830.477490,1258.350101,7179.997637
567.621901,3370.820191,740.205942,7772.162391
567.622216,2451.505594,222.061783,8660.409521
567.622532,1378.971896,-74.020594,9326.594869
567.622848,306.438199,-888.247130,10066.800811
567.623164,-689.485948,-1110.308913,11251.130318
567.623479,-1072.533697,-888.247130,11473.192101
567.623795,-1608.800546,-1258.350101,11325.150913
567.624111,-1149.143247,-814.226536,11029.068536
567.624427,-995.924147,-518.144159,10732.986159
567.624743,-536.266849,-148.041188,10066.800811
567.625058,153.219100,148.041188,9030.512492
567.625374,612.876398,666.185348,8586.388927
567.625690,1378.971896,740.205942,8216.285956
567.626006,1378.971896,814.226536,7920.203579
567.626322,919.314598,296.082377,8142.265362
567.626637,842.705048,-222.061783,8956.491898
567.626953,306.438199,-814.226536,9474.636058
567.627269,0.000000,-1184.329507,10140.821405
567.627585,-919.314598,-1036.288319,10584.944971
567.627900,-1532.190996,-1184.329507,11029.068536
567.628216,-1532.190996,-814.226536,11473.192101
567.628532,-1378.971896,-1184.329507,11399.171507
567.628848,-842.705048,-518.144159,10584.944971
567.629164,-459.657299,-74.020594,10214.842000
567.629479,459.657299,-222.061783,9696.697840
567.629795,1225.752797,296.082377,9030.512492
567.630111,2221.676944,518.144159,7846.182985
567.630427,2374.896044,888.247130,7772.162391
567.630743,2451.505594,740.205942,7476.080014
567.631058,2221.676944,592.164754,7920.203579
567.631374,1532.190996,-0.000000,8364.327145
567.631690,995.924147,-518.144159,9252.574275
567.632006,0.000000,-518.144159,9844.739029
567.632321,-689.485948,-1110.308913,10362.883188
567.632637,-1149.143247,-1184.329507,10881.027347
