#time,accel_x,accel_y,accel_z
838.768595,-1302.362347,-2368.659014,10288.862594
838.768911,-1072.533697,-2294.638420,10658.965565
838.769227,-1532.190996,-1924.535449,10510.924376
838.769542,-1532.190996,-1110.308913,10288.862594
838.769858,-995.924147,-0.000000,10436.903782
838.770174,-383.047749,888.247130,9770.718434
838.770490,153.219100,1258.350101,9400.615463
838.770805,919.314598,1332.370696,9030.512492
838.771121,1991.848295,1110.308913,8734.430116
838.771437,2604.724693,888.247130,8142.265362
838.771752,3140.991542,666.185348,7920.203579
838.772068,2757.943793,222.061783,7476.080014
838.772384,2681.334243,-0.000000,8142.265362
838.772700,1991.848295,-296.082377,8808.450710
838.773015,459.657299,-740.205942,9474.636058
838.773331,-306.438199,-1110.308913,10140.821405
838.773647,-1455.581446,-1184.329507,10436.903782
838.773962,-2298.286494,-1110.308913,11103.089130
838.774278,-2604.724693,-888.247130,11399.171507
838.774594,-2298.286494,-444.123565,11103.089130
838.774909,-2528.115143,-0.000000,10584.944971
838.775225,-1838.629195,-222.061783,9918.759623
838.775541,-1608.800546,-740.205942,9844.739029
838.775857,-383.047749,-592.164754,9622.677246
838.776172,383.047749,-666.185348,8882.471304
838.776488,1072.533697,-74.020594,8512.368333
838.776804,1225.752797,-444.123565,8512.368333
838.777119,1149.143247,-666.185348,8364.327145
838.777435,1072.533697,-592.164754,8882.471304
838.777751,1072.533697,-518.144159,8882.471304
838.778067,766.095498,-518.144159,8956.491898
838.778382,0.000000,-296.082377,9104.533087
838.778698,-612.876398,-74.020594,9400.615463
838.779014,-919.314598,-0.000000,9548.656652
838.779329,-1225.752797,-74.020594,9696.697840
838.779645,-1455.581446,-814.226536,9696.697840
838.779961,-1225.752797,-1332.370696,10066.800811
838.780277,-1225.752797,-1702.473667,10066.800811
838.780592,-612.876398,-1924.535449,9770.718434
838.780908,-229.828649,-1258.350101,9622.677246
838.781224,842.705048,-1036.288319,9252.574275
838.781539,919.314598,-444.123565,8882.471304
838.781855,919.314598,-592.164754,8882.471304
838.782171,1149.143247,-148.041188,8734.430116
838.782487,995.924147,-0.000000,8586.388927
838.782802,1072.533697,-0.000000,8882.471304
838.783118,766.095498,592.164754,9178.553681
838.783434,383.047749,518.144159,8808.450710
838.783749,76.609550,296.082377,9252.574275
838.784065,0.000000,-0.000000,9844.739029
838.784381,0.000000,-74.020594,9992.780217
838.784696,0.000000,-444.123565,9770.718434
838.785012,76.609550,-814.226536,9696.697840
838.785328,612.876398,-888.247130,9844.739029
838.785644,536.266849,-1110.308913,9696.697840
838.785959,842.705048,-814.226536,9696.697840
838.786275,766.095498,-740.205942,9474.636058
838.786591,766.095498,-518.144159,9622.677246
838.786906,766.095498,-148.041188,9400.615463
838.787222,995.924147,-0.000000,9474.636058
838.787538,689.485948,222.061783,9030.512492
838.787854,995.924147,592.164754,9252.574275
838.788169,766.095498,296.082377,9178.553681
838.788485,995.924147,-0.000000,9252.574275
838.788801,689.485948,-370.102971,9252.574275
838.789116,842.705048,-148.041188,9474.636058
838.789432,612.876398,-444.123565,9622.677246
838.789748,612.876398,-444.123565,9696.697840
838.790064,459.657299,-444.123565,9548.656652
838.790379,1225.752797,-740.205942,9770.718434
838.790695,612.876398,-444.123565,9992.780217
838.791011,536.266849,-0.000000,9770.718434
838.791326,536.266849,-0.000000,9770.718434
838.791642,459.657299,296.082377,9622.677246
838.791958,842.705048,444.123565,9696.697840
838.792274,459.657299,518.144159,9400.615463
838.792589,612.876398,518.144159,9474.636058
838.792905,383.047749,296.082377,9474.636058
838.793221,689.485948,-0.000000,8882.471304
838.793536,995.924147,-0.000000,9622.677246
838.793852,766.095498,-0.000000,9030.512492
838.794168,766.095498,-148.041188,9252.574275
838.794484,842.705048,-0.000000,9474.636058
838.794799,383.047749,-296.082377,9622.677246
838.795115,383.047749,-222.061783,9548.656652
838.795431,383.047749,-0.000000,9474.636058
838.795746,0.000000,-0.000000,9548.656652
838.796062,0.000000,-74.020594,9622.677246
838.796378,0.000000,-74.020594,9918.759623
838.796693,76.609550,-0.000000,9770.718434
838.797009,153.219100,-0.000000,9474.636058
838.797325,-383.047749,-296.082377,9474.636058
838.797641,0.000000,-444.123565,9548.656652
838.797956,76.609550,-740.205942,9622.677246
838.798272,76.609550,-296.082377,9326.594869
838.798588,153.219100,-444.123565,9252.574275
838.798903,383.047749,-370.102971,9252.574275
838.799219,536.266849,-592.164754,9474.636058
838.799535,383.047749,-592.164754,9326.594869
838.799851,459.657299,-74.020594,9030.512492
838.800166,229.828649,-296.082377,9474.636058
838.800482,306.438199,-222.061783,9326.594869
838.800798,229.828649,-222.061783,9474.636058
838.801113,76.609550,-518.144159,9474.636058
838.801429,153.219100,-444.123565,9548.656652
838.801745,306.438199,-444.123565,9548.656652
838.802061,306.438199,-666.185348,9622.677246
838.802376,-229.828649,-740.205942,9400.615463
838.802692,229.828649,-592.164754,9474.636058
838.803008,383.047749,-370.102971,9474.636058
838.803323,383.047749,-148.041188,9474.636058
838.803639,459.657299,-370.102971,9474.636058
838.803955,612.876398,-370.102971,9400.615463
838.804271,919.314598,-222.061783,9326.594869
838.804586,1225.752797,-0.000000,9326.594869
838.804902,1072.533697,-0.000000,9252.574275
838.805218,995.924147,-370.102971,9178.553681
838.805533,995.924147,-0.000000,9326.594869
838.805849,1378.971896,-0.000000,9400.615463
838.806165,1455.581446,-222.061783,9474.636058
838.806480,995.924147,-444.123565,9548.656652
838.806796,842.705048,-444.123565,9622.677246
838.807112,919.314598,-222.061783,9548.656652
838.807428,766.095498,-370.102971,9474.636058
838.807743,612.876398,-74.020594,9474.636058
838.808059,612.876398,-148.041188,9548.656652
838.808375,689.485948,-0.000000,9548.656652
838.808690,689.485948,-0.000000,9400.615463
838.809006,612.876398,-0.000000,9400.615463
838.809322,612.876398,-74.020594,9474.636058
838.809638,1072.533697,-518.144159,9548.656652
838.809953,383.047749,-222.061783,9844.739029
838.810269,153.219100,-518.144159,9622.677246
838.810585,76.609550,-444.123565,9622.677246
838.810900,459.657299,-444.123565,9622.677246
838.811216,383.047749,-666.185348,9474.636058
838.811532,306.438199,-296.082377,9770.718434
838.811848,383.047749,-222.061783,9474.636058
838.812163,76.609550,-74.020594,9548.656652
838.812479,229.828649,-148.041188,9474.636058
838.812795,0.000000,-74.020594,9326.594869
838.813110,0.000000,-148.041188,9252.574275
838.813426,0.000000,-0.000000,9400.615463
838.813742,306.438199,-296.082377,9548.656652
838.814057,0.000000,-0.000000,9548.656652
838.814373,0.000000,-296.082377,9770.718434
838.814689,0.000000,-370.102971,9622.677246
838.815004,0.000000,-444.123565,9474.636058
838.815320,0.000000,-296.082377,9548.656652
838.815636,76.609550,-370.102971,9548.656652
838.815952,153.219100,-370.102971,9474.636058
838.816267,306.438199,-0.000000,9104.533087
838.816583,76.609550,-0.000000,9326.594869
838.816899,153.219100,-0.000000,8882.471304
838.817214,383.047749,296.082377,9104.533087
838.817530,536.266849,222.061783,9178.553681
838.817846,153.219100,-0.000000,9548.656652
838.818161,306.438199,-0.000000,9178.553681
838.818477,306.438199,-0.000000,9400.615463
838.818793,383.047749,-222.061783,9400.615463
838.819108,383.047749,-444.123565,9474.636058
838.819424,536.266849,-444.123565,9696.697840
838.819740,153.219100,-296.082377,9622.677246
838.820056,153.219100,-444.123565,9696.697840
838.820371,0.000000,-222.061783,9548.656652
838.820687,0.000000,-74.020594,9474.636058
838.821003,0.000000,-74.020594,9548.656652
838.821318,919.314598,-148.041188,9400.615463
838.821634,459.657299,-74.020594,9326.594869
838.821950,459.657299,-222.061783,9326.594869
838.822265,842.705048,-0.000000,9474.636058
838.822581,919.314598,-0.000000,9474.636058
838.822897,919.314598,-74.020594,9326.594869
838.823212,689.485948,-0.000000,9548.656652
838.823528,766.095498,-296.082377,9622.677246
838.823844,612.876398,-592.164754,9474.636058
838.824160,612.876398,-222.061783,9548.656652
838.824475,536.266849,-74.020594,9548.656652
838.824791,459.657299,-74.020594,9622.677246
838.825107,383.047749,-222.061783,9474.636058
838.825422,76.609550,-296.082377,9400.615463
838.825738,612.876398,-0.000000,9474.636058
838.826054,612.876398,-0.000000,9474.636058
838.826369,383.047749,-0.000000,9474.636058
838.826685,153.219100,-222.061783,9326.594869
838.827001,612.876398,-296.082377,9400.615463
838.827316,383.047749,-444.123565,9474.636058
838.827632,76.609550,-444.123565,9696.697840
838.827948,153.219100,-370.102971,9622.677246
838.828264,229.828649,-444.123565,9770.718434
838.828579,76.609550,-592.164754,9252.574275
838.828895,229.828649,-296.082377,9770.718434
838.829211,229.828649,-0.000000,9622.677246
838.829526,229.828649,-0.000000,9474.636058
838.829842,306.438199,-0.000000,9474.636058
838.830158,0.000000,-74.020594,9548.656652
838.830473,459.657299,-148.041188,9400.615463
838.830789,383.047749,-0.000000,9548.656652
838.831105,689.485948,-370.102971,9252.574275
838.831420,536.266849,-296.082377,9326.594869
838.831736,689.485948,-666.185348,9548.656652
838.832052,229.828649,-222.061783,9474.636058
838.832368,383.047749,-370.102971,9474.636058
838.832683,153.219100,-222.061783,9474.636058
838.832999,153.219100,-370.102971,9474.636058
838.833315,383.047749,-592.164754,9326.594869
838.833630,153.219100,-370.102971,9474.636058
838.833946,0.000000,-222.061783,9326.594869
838.834262,153.219100,-296.082377,9326.594869
838.834577,-76.609550,-148.041188,9178.553681
838.834893,153.219100,-962.267725,8956.491898
838.835209,459.657299,-74.020594,9252.574275
838.835524,306.438199,-222.061783,9474.636058
838.835840,383.047749,-74.020594,9474.636058
838.836156,306.438199,-148.041188,9400.615463
838.836472,383.047749,-222.061783,9548.656652
838.836787,459.657299,-222.061783,9252.574275
838.837103,459.657299,-148.041188,9400.615463
838.837419,536.266849,-222.061783,9474.636058
838.837734,229.828649,-222.061783,9622.677246
838.838050,383.047749,-74.020594,9548.656652
838.838366,229.828649,-370.102971,9474.636058
838.838681,229.828649,-74.020594,9326.594869
838.838997,383.047749,-0.000000,9548.656652
838.839313,766.095498,-74.020594,9918.759623
838.839628,383.047749,-0.000000,9548.656652
838.839944,306.438199,-74.020594,9474.636058
838.840260,306.438199,-0.000000,9326.594869
838.840575,459.657299,-74.020594,9474.636058
838.840891,689.485948,-0.000000,9548.656652
838.841207,536.266849,-148.041188,9622.677246
838.841523,995.924147,-296.082377,9548.656652
838.841838,689.485948,-0.000000,9474.636058
838.842154,766.095498,-0.000000,9474.636058
838.842470,842.705048,-296.082377,9844.739029
838.842785,612.876398,74.020594,9622.677246
838.843101,766.095498,-0.000000,9622.677246
838.843417,842.705048,-0.000000,9548.656652
838.843732,689.485948,-296.082377,9474.636058
838.844048,766.095498,-0.000000,9622.677246
838.844364,536.266849,-296.082377,9548.656652
838.844679,842.705048,-0.000000,9622.677246
838.844995,689.485948,-74.020594,9548.656652
838.845311,459.657299,-148.041188,9548.656652
838.845627,612.876398,-222.061783,9474.636058
838.845942,459.657299,-148.041188,9696.697840
838.846258,459.657299,-148.041188,9400.615463
838.846574,536.266849,-148.041188,9474.636058
838.846889,689.485948,-222.061783,9844.739029
838.847205,383.047749,-222.061783,9696.697840
838.847521,766.095498,-0.000000,9474.636058
838.847836,459.657299,-0.000000,9474.636058
838.848152,536.266849,-0.000000,9326.594869
838.848468,229.828649,-296.082377,9400.615463
838.848783,306.438199,-74.020594,9474.636058
838.849099,306.438199,-148.041188,9474.636058
838.849415,306.438199,-0.000000,9400.615463
838.849731,153.219100,-74.020594,9252.574275
838.850046,306.438199,-148.041188,9400.615463
838.850362,229.828649,-74.020594,9252.574275
838.850678,0.000000,-444.123565,9474.636058
838.850993,306.438199,-296.082377,9474.636058
838.851309,383.047749,-74.020594,9474.636058
838.851625,229.828649,-148.041188,9622.677246
838.851940,306.438199,-296.082377,9326.594869
838.852256,306.438199,-370.102971,9326.594869
838.852572,383.047749,-444.123565,9548.656652
838.852887,229.828649,-518.144159,9326.594869
838.853203,229.828649,-148.041188,9400.615463
838.853519,306.438199,-370.102971,9326.594869
838.853835,76.609550,-370.102971,9474.636058
838.854150,153.219100,-148.041188,9474.636058
838.854466,76.609550,-0.000000,9622.677246
838.854782,459.657299,-148.041188,9474.636058
838.855097,383.047749,-148.041188,9474.636058
838.855413,536.266849,-74.020594,9400.615463
838.855729,612.876398,-148.041188,9326.594869
838.856044,459.657299,-370.102971,9326.594869
838.856360,383.047749,-444.123565,9474.636058
838.856676,459.657299,-148.041188,9770.718434
838.856991,612.876398,-0.000000,9326.594869
838.857307,383.047749,-222.061783,9474.636058
838.857623,689.485948,-74.020594,9474.636058
838.857939,383.047749,-148.041188,9474.636058
838.858254,689.485948,-0.000000,9548.656652
838.858570,612.876398,148.041188,9474.636058
838.858886,536.266849,-0.000000,9474.636058
838.859201,229.828649,-74.020594,9474.636058
838.859517,383.047749,-74.020594,9474.636058
838.859833,689.485948,-148.041188,9326.594869
838.860148,459.657299,-0.000000,9548.656652
838.860464,383.047749,-0.000000,9474.636058
838.860780,612.876398,-222.061783,9400.615463
838.861095,383.047749,-222.061783,9474.636058
838.861411,459.657299,-296.082377,9548.656652
838.861727,383.047749,-148.041188,9548.656652
838.862043,842.705048,-222.061783,9696.697840
838.862358,383.047749,-222.061783,9696.697840
838.862674,383.047749,-222.061783,9474.636058
838.862990,459.657299,-148.041188,9400.615463
838.863305,459.657299,-222.061783,9696.697840
838.863621,459.657299,-296.082377,9474.636058
838.863937,612.876398,-74.020594,9474.636058
838.864252,383.047749,-222.061783,9400.615463
838.864568,536.266849,-148.041188,9474.636058
838.864884,536.266849,-296.082377,9474.636058
838.865199,459.657299,-0.000000,9696.697840
838.865515,459.657299,-296.082377,9474.636058
838.865831,536.266849,-222.061783,9622.677246
838.866147,306.438199,-148.041188,9474.636058
838.866462,306.438199,-222.061783,9474.636058
838.866778,459.657299,-370.102971,9178.553681
838.867094,229.828649,-0.000000,9696.697840
838.867409,306.438199,-74.020594,9326.594869
838.867725,306.438199,-148.041188,9400.615463
838.868041,306.438199,-444.123565,9400.615463
838.868356,306.438199,-370.102971,9474.636058
838.868672,383.047749,-222.061783,9400.615463
838.868988,383.047749,-74.020594,9400.615463
838.869303,229.828649,-148.041188,9400.615463
838.869619,689.485948,-222.061783,9400.615463
838.869935,383.047749,-444.123565,9326.594869
838.870251,153.219100,-296.082377,9474.636058
838.870566,229.828649,-296.082377,9474.636058
838.870882,536.266849,-148.041188,9326.594869
838.871198,229.828649,-148.041188,9326.594869
838.871513,383.047749,-370.102971,9400.615463
838.871829,383.047749,-296.082377,9400.615463
838.872145,306.438199,-370.102971,9548.656652
838.872460,229.828649,-296.082377,9474.636058
838.872776,383.047749,-296.082377,9400.615463
838.873092,536.266849,-370.102971,9548.656652
838.873407,153.219100,-370.102971,9548.656652
838.873723,153.219100,-518.144159,9326.594869
838.874039,76.609550,-370.102971,9548.656652
838.874355,229.828649,-370.102971,9548.656652
838.874670,383.047749,-592.164754,9178.553681
838.874986,383.047749,-0.000000,9474.636058
838.875302,76.609550,-370.102971,9548.656652
838.875617,383.047749,-0.000000,9400.615463
838.875933,153.219100,-148.041188,9400.615463
838.876249,459.657299,-0.000000,9474.636058
838.876564,306.438199,-222.061783,9474.636058
838.876880,306.438199,-370.102971,9474.636058
838.877196,383.047749,-296.082377,9622.677246
838.877511,536.266849,-0.000000,9548.656652
838.877827,383.047749,-148.041188,9548.656652
838.878143,306.438199,-148.041188,9548.656652
838.878459,383.047749,-296.082377,9400.615463
838.878774,612.876398,-74.020594,9548.656652
838.879090,229.828649,-444.123565,9622.677246
838.879406,153.219100,-222.061783,9548.656652
838.879721,229.828649,-0.000000,9622.677246
838.880037,76.609550,-74.020594,9474.636058
838.880353,383.047749,-0.000000,9548.656652
838.880668,766.095498,-148.041188,9918.759623
838.880984,383.047749,-74.020594,9474.636058
838.881300,612.876398,-296.082377,9474.636058
838.881615,612.876398,-74.020594,9474.636058
838.881931,459.657299,-222.061783,9474.636058
838.882247,766.095498,-296.082377,9770.718434
838.882563,229.828649,-74.020594,9770.718434
838.882878,383.047749,-0.000000,9474.636058
838.883194,536.266849,-148.041188,9474.636058
838.883510,306.438199,-0.000000,9474.636058
838.883825,766.095498,-0.000000,9326.594869
838.884141,459.657299,-0.000000,9474.636058
838.884457,612.876398,-0.000000,9400.615463
838.884772,536.266849,-222.061783,9400.615463
838.885088,1072.533697,-148.041188,9622.677246
838.885404,766.095498,-296.082377,9030.512492
838.885719,689.485948,-74.020594,9548.656652
838.886035,383.047749,-74.020594,9252.574275
838.886351,306.438199,-222.061783,9474.636058
838.886667,306.438199,-74.020594,9474.636058
838.886982,383.047749,-296.082377,9326.594869
838.887298,306.438199,-296.082377,9326.594869
838.887614,0.000000,-296.082377,9474.636058
838.887929,229.828649,-148.041188,9474.636058
838.888245,76.609550,-0.000000,9400.615463
838.888561,0.000000,-0.000000,9474.636058
838.888876,842.705048,-0.000000,9326.594869
838.889192,459.657299,-222.061783,9474.636058
838.889508,306.438199,-148.041188,9326.594869
838.889823,383.047749,-148.041188,9474.636058
838.890139,459.657299,-296.082377,9326.594869
838.890455,306.438199,-148.041188,9622.677246
838.890771,383.047749,-296.082377,9400.615463
838.891086,459.657299,-148.041188,9474.636058
838.891402,612.876398,-222.061783,9474.636058
838.891718,689.485948,-296.082377,9252.574275
838.892033,536.266849,-296.082377,9178.553681
838.892349,612.876398,-148.041188,9474.636058
838.892665,459.657299,-74.020594,9400.615463
838.892980,612.876398,-0.000000,9474.636058
838.893296,612.876398,-148.041188,9326.594869
838.893612,612.876398,-74.020594,9474.636058
838.893927,383.047749,-148.041188,9696.697840
838.894243,536.266849,-74.020594,9622.677246
838.894559,612.876398,-296.082377,9400.615463
838.894875,689.485948,-444.123565,9770.718434
838.895190,689.485948,-296.082377,9770.718434
838.895506,689.485948,-148.041188,9548.656652
838.895822,612.876398,-222.061783,9696.697840
838.896137,842.705048,-148.041188,9400.615463
838.896453,766.095498,-222.061783,9622.677246
838.896769,919.314598,-0.000000,9400.615463
838.897084,766.095498,-148.041188,9326.594869
838.897400,689.485948,-222.061783,9326.594869
838.897716,612.876398,-148.041188,9548.656652
838.898031,306.438199,-222.061783,9548.656652
838.898347,536.266849,-74.020594,9474.636058
838.898663,536.266849,-370.102971,9548.656652
838.898979,383.047749,-148.041188,9770.718434
838.899294,229.828649,-296.082377,9474.636058
838.899610,306.438199,-444.123565,9474.636058
838.899926,76.609550,-74.020594,9548.656652
838.900241,459.657299,-222.061783,9474.636058
838.900557,766.095498,-296.082377,9326.594869
838.900873,383.047749,-74.020594,9548.656652
838.901188,383.047749,-74.020594,9474.636058
838.901504,229.828649,-0.000000,9474.636058
838.901820,459.657299,-74.020594,9400.615463
838.902135,0.000000,-444.123565,9548.656652
838.902451,306.438199,-296.082377,9474.636058
838.902767,306.438199,-148.041188,9474.636058
838.903083,153.219100,-74.020594,9696.697840
838.903398,76.609550,-0.000000,9474.636058
838.903714,153.219100,-222.061783,9252.574275
838.904030,153.219100,-148.041188,9474.636058
838.904345,306.438199,-0.000000,9548.656652
838.904661,536.266849,-0.000000,9326.594869
838.904977,612.876398,-0.000000,9326.594869
838.905292,0.000000,-296.082377,9474.636058
838.905608,306.438199,-148.041188,9400.615463
838.905924,229.828649,-74.020594,9474.636058
838.906239,229.828649,-222.061783,9474.636058
838.906555,76.609550,-148.041188,9548.656652
838.906871,459.657299,-444.123565,9326.594869
838.907187,383.047749,-0.000000,9474.636058
838.907502,612.876398,-74.020594,9474.636058
838.907818,459.657299,-74.020594,9474.636058
838.908134,612.876398,-148.041188,9474.636058
838.908449,612.876398,-74.020594,9474.636058
838.908765,689.485948,-74.020594,9474.636058
838.909081,306.438199,-296.082377,9474.636058
838.909396,842.705048,-222.061783,9474.636058
838.909712,689.485948,-222.061783,9622.677246
838.910028,536.266849,-0.000000,9252.574275
838.910343,459.657299,-0.000000,9104.533087
838.910659,536.266849,-148.041188,9548.656652
838.910975,689.485948,-0.000000,9548.656652
838.911291,383.047749,-148.041188,9474.636058
838.911606,306.438199,-222.061783,9696.697840
838.911922,306.438199,-74.020594,9474.636058
838.912238,306.438199,-296.082377,9474.636058
838.912553,153.219100,-0.000000,9770.718434
838.912869,459.657299,-148.041188,9622.677246
838.913185,306.438199,-370.102971,9474.636058
838.913500,229.828649,-148.041188,9622.677246
838.913816,689.485948,-370.102971,9474.636058
838.914132,536.266849,-296.082377,9622.677246
838.914448,383.047749,-444.123565,9474.636058
838.914763,383.047749,-222.061783,9696.697840
838.915079,459.657299,-296.082377,9548.656652
838.915395,536.266849,-148.041188,9400.615463
838.915710,842.705048,-444.123565,9622.677246
838.916026,306.438199,-148.041188,9622.677246
838.916342,459.657299,-222.061783,9474.636058
838.916658,383.047749,-0.000000,9400.615463
838.916973,306.438199,-222.061783,9474.636058
838.917289,459.657299,-296.082377,9030.512492
838.917605,536.266849,-518.144159,9326.594869
838.917920,612.876398,-148.041188,9548.656652
838.918236,536.266849,-296.082377,9252.574275
838.918552,459.657299,-296.082377,9474.636058
838.918867,459.657299,-444.123565,9548.656652
838.919183,306.438199,-296.082377,9474.636058
838.919499,229.828649,-222.061783,9474.636058
838.919815,229.828649,-74.020594,9400.615463
838.920130,229.828649,-0.000000,9548.656652
838.920446,306.438199,-148.041188,9252.574275
838.920762,153.219100,-222.061783,9622.677246
838.921077,153.219100,-296.082377,9474.636058
838.921393,306.438199,-296.082377,9400.615463
838.921709,306.438199,-222.061783,9474.636058
838.922025,0.000000,-222.061783,9400.615463
838.922340,536.266849,-0.000000,9326.594869
838.922656,306.438199,-148.041188,9252.574275
838.922972,153.219100,-0.000000,9474.636058
838.923287,306.438199,-74.020594,9548.656652
838.923603,229.828649,-222.061783,9474.636058
838.923919,0.000000,-222.061783,9548.656652
838.924234,459.657299,-518.144159,9548.656652
838.924550,0.000000,-148.041188,9474.636058
838.924866,76.609550,-222.061783,9474.636058
838.925182,383.047749,-148.041188,9696.697840
838.925497,76.609550,-74.020594,9548.656652
838.925813,459.657299,-148.041188,9252.574275
838.926129,229.828649,-222.061783,9474.636058
838.926444,612.876398,-74.020594,9548.656652
838.926760,229.828649,-0.000000,9622.677246
838.927076,306.438199,-0.000000,9400.615463
838.927392,459.657299,-0.000000,9622.677246
838.927707,459.657299,-0.000000,9548.656652
838.928023,153.219100,-148.041188,9474.636058
838.928339,383.047749,-0.000000,9326.594869
838.928654,459.657299,-0.000000,9474.636058
838.928970,383.047749,-74.020594,9474.636058
838.929286,229.828649,-0.000000,9548.656652
838.929601,536.266849,-296.082377,9622.677246
838.929917,383.047749,-222.061783,9400.615463
838.930233,0.000000,-74.020594,9696.697840
838.930549,383.047749,-0.000000,9474.636058
838.930864,536.266849,-222.061783,9548.656652
838.931180,689.485948,74.020594,9400.615463
838.931496,612.876398,-148.041188,9474.636058
838.931811,383.047749,-148.041188,9474.636058
838.932127,383.047749,-74.020594,9474.636058
838.932443,383.047749,-74.020594,9474.636058
838.932758,536.266849,-518.144159,9474.636058
838.933074,766.095498,-74.020594,9474.636058
838.933390,459.657299,-222.061783,9178.553681
838.933706,536.266849,-148.041188,9400.615463
838.934021,612.876398,-148.041188,9474.636058
838.934337,766.095498,-0.000000,9474.636058
838.934653,612.876398,-148.041188,9400.615463
838.934968,383.047749,-148.041188,9400.615463
838.935284,459.657299,-74.020594,9326.594869
838.935600,842.705048,-222.061783,9400.615463
838.935916,459.657299,-222.061783,9992.780217
838.936231,306.438199,-444.123565,9326.594869
838.936547,459.657299,-74.020594,9696.697840
838.936863,383.047749,-222.061783,9548.656652
838.937178,306.438199,-370.102971,9474.636058
838.937494,383.047749,-518.144159,9326.594869
838.937810,229.828649,-370.102971,9474.636058
838.938125,383.047749,-370.102971,9474.636058
838.938441,383.047749,-222.061783,9548.656652
838.938757,536.266849,-222.061783,9696.697840
838.939073,689.485948,-148.041188,9696.697840
838.939388,766.095498,-0.000000,9474.636058
838.939704,689.485948,-518.144159,9474.636058
838.940020,306.438199,-148.041188,9474.636058
838.940335,383.047749,-74.020594,9326.594869
838.940651,306.438199,-74.020594,9548.656652
838.940967,612.876398,-296.082377,9400.615463
838.941283,306.438199,-148.041188,9400.615463
838.941598,459.657299,-222.061783,9400.615463
838.941914,383.047749,-74.020594,9474.636058
838.942230,0.000000,-444.123565,9770.718434
838.942545,229.828649,-74.020594,9474.636058
838.942861,153.219100,-370.102971,9548.656652
838.943177,306.438199,-296.082377,9400.615463
838.943492,612.876398,-370.102971,9622.677246
838.943808,459.657299,-370.102971,9400.615463
838.944124,536.266849,-296.082377,9474.636058
838.944440,612.876398,-148.041188,9474.636058
838.944755,383.047749,-148.041188,9326.594869
838.945071,919.314598,-0.000000,9474.636058
838.945387,612.876398,-148.041188,9400.615463
838.945702,766.095498,-222.061783,9326.594869
838.946018,612.876398,-74.020594,9326.594869
838.946334,612.876398,-222.061783,9474.636058
838.946650,459.657299,-222.061783,9474.636058
838.946965,306.438199,-74.020594,9474.636058
838.947281,536.266849,-222.061783,9474.636058
838.947597,536.266849,-296.082377,9548.656652
838.947912,459.657299,-148.041188,9474.636058
838.948228,153.219100,-222.061783,9548.656652
838.948544,536.266849,-296.082377,9548.656652
838.948859,76.609550,-148.041188,9622.677246
838.949175,153.219100,-0.000000,9622.677246
838.949491,459.657299,-370.102971,9548.656652
838.949807,383.047749,-518.144159,9770.718434
838.950122,383.047749,-74.020594,9548.656652
838.950438,306.438199,-0.000000,9548.656652
838.950754,536.266849,-74.020594,9474.636058
838.951069,383.047749,-0.000000,9474.636058
838.951385,689.485948,-74.020594,9474.636058
838.951701,383.047749,-0.000000,9474.636058
838.952017,612.876398,-148.041188,9326.594869
838.952332,689.485948,-148.041188,9548.656652
838.952648,459.657299,-148.041188,9474.636058
838.952964,383.047749,-296.082377,9474.636058
838.953279,383.047749,-148.041188,9400.615463
838.953595,459.657299,-74.020594,9548.656652
838.953911,306.438199,-148.041188,9548.656652
838.954226,306.438199,-148.041188,9770.718434
838.954542,383.047749,-74.020594,9326.594869
838.954858,306.438199,-222.061783,9474.636058
838.955174,306.438199,-296.082377,9548.656652
838.955489,459.657299,-148.041188,9326.594869
838.955805,459.657299,-370.102971,9548.656652
838.956121,459.657299,-148.041188,9474.636058
838.956436,459.657299,-148.041188,9474.636058
838.956752,612.876398,-222.061783,9548.656652
838.957068,536.266849,-222.061783,9474.636058
838.957384,383.047749,-0.000000,9474.636058
838.957699,383.047749,-0.000000,9622.677246
838.958015,766.095498,-0.000000,9474.636058
838.958331,306.438199,-148.041188,9400.615463
838.958646,459.657299,-0.000000,9474.636058
838.958962,612.876398,-0.000000,9622.677246
838.959278,536.266849,-222.061783,9400.615463
838.959593,459.657299,-148.041188,9474.636058
838.959909,459.657299,-222.061783,9474.636058
838.960225,536.266849,-296.082377,9474.636058
838.960541,153.219100,-296.082377,9474.636058
838.960856,306.438199,-296.082377,9622.677246
838.961172,536.266849,-0.000000,9474.636058
838.961488,153.219100,-296.082377,9622.677246
838.961803,459.657299,-296.082377,9474.636058
838.962119,229.828649,-222.061783,9400.615463
838.962435,459.657299,-148.041188,9548.656652
838.962751,383.047749,-370.102971,9548.656652
838.963066,306.438199,-370.102971,9326.594869
838.963382,689.485948,-444.123565,9474.636058
838.963698,306.438199,-444.123565,9400.615463
838.964013,536.266849,-296.082377,9474.636058
838.964329,459.657299,-222.061783,9400.615463
838.964645,919.314598,-222.061783,9474.636058
838.964960,306.438199,-444.123565,9474.636058
838.965276,536.266849,-222.061783,9400.615463
838.965592,689.485948,-370.102971,9548.656652
838.965908,536.266849,-148.041188,9474.636058
838.966223,536.266849,-148.041188,9474.636058
838.966539,536.266849,-0.000000,9474.636058
838.966855,612.876398,-0.000000,9252.574275
838.967170,689.485948,-74.020594,9474.636058
838.967486,306.438199,-296.082377,9326.594869
838.967802,76.609550,-148.041188,9696.697840
838.968118,229.828649,-296.082377,9474.636058
838.968433,153.219100,-74.020594,9696.697840
838.968749,229.828649,-370.102971,9548.656652
838.969065,153.219100,-444.123565,9622.677246
838.969380,153.219100,-518.144159,9474.636058
838.969696,306.438199,-370.102971,9474.636058
838.970012,306.438199,-222.061783,9400.615463
838.970327,153.219100,-296.082377,9622.677246
838.970643,383.047749,-296.082377,9326.594869
838.970959,-229.828649,-148.041188,9474.636058
838.971275,383.047749,-0.000000,9252.574275
838.971590,459.657299,-222.061783,9474.636058
838.971906,459.657299,-222.061783,9474.636058
838.972222,459.657299,-148.041188,9326.594869
838.972537,459.657299,-0.000000,9548.656652
838.972853,306.438199,-74.020594,9400.615463
838.973169,306.438199,-74.020594,9474.636058
838.973484,459.657299,-148.041188,9474.636058
838.973800,689.485948,-0.000000,9474.636058
838.974116,-153.219100,-0.000000,9474.636058
838.974432,0.000000,-370.102971,9548.656652
838.974747,0.000000,-370.102971,9474.636058
838.975063,0.000000,-148.041188,9474.636058
838.975379,0.000000,-0.000000,9474.636058
838.975694,306.438199,-666.185348,9548.656652
838.976010,229.828649,-148.041188,9474.636058
838.976326,229.828649,-0.000000,9548.656652
838.976642,229.828649,-0.000000,9326.594869
838.976957,459.657299,-0.000000,9622.677246
838.977273,612.876398,-148.041188,9326.594869
838.977589,306.438199,-0.000000,9770.718434
838.977904,0.000000,-74.020594,9474.636058
838.978220,229.828649,-0.000000,9474.636058
838.978536,536.266849,-74.020594,9548.656652
838.978851,919.314598,-370.102971,9548.656652
838.979167,383.047749,-222.061783,9548.656652
838.979483,383.047749,-74.020594,9326.594869
838.979799,383.047749,-222.061783,9400.615463
838.980114,459.657299,-296.082377,9400.615463
838.980430,612.876398,-444.123565,9548.656652
838.980746,383.047749,-296.082377,9474.636058
838.981061,612.876398,-0.000000,9474.636058
838.981377,306.438199,-296.082377,9548.656652
838.981693,612.876398,-74.020594,9474.636058
838.982009,919.314598,-148.041188,9400.615463
838.982324,153.219100,-518.144159,9622.677246
838.982640,536.266849,-0.000000,9622.677246
838.982956,612.876398,-74.020594,9474.636058
838.983271,536.266849,-222.061783,9474.636058
838.983587,536.266849,-0.000000,9622.677246
838.983903,459.657299,-222.061783,9548.656652
838.984218,536.266849,-222.061783,9474.636058
838.984534,612.876398,-74.020594,9474.636058
838.984850,842.705048,-0.000000,9474.636058
838.985166,536.266849,-222.061783,9474.636058
838.985481,612.876398,-296.082377,9400.615463
838.985797,536.266849,-222.061783,9622.677246
838.986113,459.657299,-296.082377,9400.615463
838.986428,612.876398,-370.102971,9474.636058
838.986744,536.266849,-518.144159,9474.636058
838.987060,766.095498,-74.020594,9474.636058
838.987376,536.266849,-74.020594,9548.656652
838.987691,459.657299,-222.061783,9400.615463
838.988007,536.266849,-592.164754,9548.656652
838.988323,383.047749,-222.061783,9474.636058
838.988638,229.828649,-148.041188,9326.594869
838.988954,229.828649,-296.082377,9474.636058
838.989270,383.047749,-296.082377,9326.594869
838.989585,153.219100,-74.020594,9622.677246
838.989901,383.047749,-444.123565,9548.656652
838.990217,306.438199,-148.041188,9548.656652
838.990533,459.657299,-148.041188,9548.656652
838.990848,612.876398,-74.020594,9474.636058
838.991164,-153.219100,-222.061783,9178.553681
838.991480,383.047749,-296.082377,9326.594869
838.991795,459.657299,-296.082377,9326.594869
838.992111,383.047749,-148.041188,9326.594869
838.992427,689.485948,-296.082377,9474.636058
838.992743,536.266849,-0.000000,9696.697840
838.993058,229.828649,-148.041188,9622.677246
838.993374,459.657299,-0.000000,9474.636058
838.993690,383.047749,-222.061783,9474.636058
838.994005,383.047749,-148.041188,9474.636058
838.994321,689.485948,-518.144159,9400.615463
838.994637,306.438199,-148.041188,9548.656652
838.994952,766.095498,-296.082377,9400.615463
838.995268,689.485948,-148.041188,9548.656652
838.995584,995.924147,-222.061783,9696.697840
838.995900,842.705048,-148.041188,9400.615463
838.996215,383.047749,-222.061783,9400.615463
838.996531,383.047749,-148.041188,9622.677246
838.996847,536.266849,-296.082377,9474.636058
838.997162,306.438199,-74.020594,9474.636058
838.997478,383.047749,-222.061783,9326.594869
838.997794,459.657299,-0.000000,9548.656652
838.998110,383.047749,-370.102971,9326.594869
838.998425,536.266849,-148.041188,9400.615463
838.998741,459.657299,-222.061783,9474.636058
838.999057,689.485948,-370.102971,9622.677246
838.999372,689.485948,-148.041188,9326.594869
838.999688,229.828649,-148.041188,9622.677246
839.000004,459.657299,-0.000000,9548.656652
839.000319,612.876398,-444.123565,9400.615463
839.000635,459.657299,-0.000000,9548.656652
839.000951,612.876398,-0.000000,9548.656652
839.001267,612.876398,-0.000000,9400.615463
839.001582,383.047749,-148.041188,9474.636058
839.001898,306.438199,-74.020594,9474.636058
839.002214,383.047749,-0.000000,9474.636058
839.002529,612.876398,-0.000000,9326.594869
839.002845,459.657299,-74.020594,9548.656652
839.003161,459.657299,-148.041188,9474.636058
839.003477,76.609550,-148.041188,9622.677246
839.003792,383.047749,-148.041188,9548.656652
839.004108,536.266849,-74.020594,9548.656652
839.004424,383.047749,-74.020594,9474.636058
839.004739,459.657299,-0.000000,9474.636058
839.005055,459.657299,-444.123565,9474.636058
839.005371,689.485948,-74.020594,9326.594869
839.005686,306.438199,-222.061783,9400.615463
839.006002,612.876398,-148.041188,9400.615463
839.006318,306.438199,-148.041188,9548.656652
839.006634,383.047749,-0.000000,9400.615463
839.006949,383.047749,-0.000000,9474.636058
839.007265,383.047749,-296.082377,9474.636058
839.007581,306.438199,-296.082377,9548.656652
839.007896,459.657299,-222.061783,9252.574275
839.008212,383.047749,222.061783,9696.697840
839.008528,536.266849,-370.102971,9252.574275
839.008843,153.219100,-0.000000,9474.636058
839.009159,459.657299,-370.102971,9474.636058
839.009475,383.047749,-222.061783,9548.656652
839.009791,612.876398,-222.061783,9474.636058
839.010106,536.266849,-370.102971,9474.636058
839.010422,306.438199,-444.123565,9474.636058
839.010738,383.047749,-148.041188,9622.677246
839.011053,459.657299,-444.123565,9252.574275
839.011369,229.828649,-444.123565,9548.656652
839.011685,383.047749,-148.041188,9326.594869
839.012001,306.438199,-222.061783,9474.636058
839.012316,459.657299,-370.102971,9474.636058
839.012632,459.657299,-148.041188,9474.636058
839.012948,383.047749,-74.020594,9474.636058
839.013263,383.047749,-148.041188,9548.656652
839.013579,459.657299,-296.082377,9474.636058
839.013895,612.876398,-296.082377,9474.636058
839.014210,459.657299,-74.020594,9400.615463
839.014526,383.047749,-444.123565,9326.594869
839.014842,76.609550,-148.041188,9548.656652
839.015157,383.047749,-222.061783,9474.636058
839.015473,459.657299,-148.041188,9474.636058
839.015789,383.047749,-74.020594,9548.656652
839.016104,459.657299,-0.000000,9474.636058
839.016420,383.047749,-148.041188,9548.656652
839.016736,383.047749,-222.061783,9474.636058
839.017051,153.219100,-444.123565,9770.718434
839.017367,229.828649,-148.041188,9474.636058
839.017682,229.828649,-222.061783,9622.677246
839.017998,229.828649,-0.000000,9548.656652
839.018314,459.657299,-148.041188,9400.615463
839.018629,536.266849,-296.082377,9400.615463
839.018945,459.657299,-148.041188,9474.636058
839.019261,459.657299,-74.020594,9696.697840
839.019576,306.438199,-0.000000,9400.615463
839.019892,612.876398,-296.082377,9696.697840
839.020208,459.657299,-148.041188,9474.636058
839.020523,306.438199,-148.041188,9474.636058
839.020839,536.266849,-148.041188,9474.636058
839.021155,459.657299,-0.000000,9696.697840
839.021470,459.657299,-296.082377,9474.636058
839.021786,536.266849,-0.000000,9326.594869
839.022102,459.657299,-0.000000,9252.574275
839.022417,306.438199,-0.000000,9474.636058
839.022733,459.657299,-0.000000,9548.656652
839.023049,383.047749,-370.102971,9844.739029
839.023364,229.828649,-0.000000,9696.697840
839.023680,306.438199,-74.020594,9474.636058
839.023996,306.438199,-0.000000,9548.656652
839.024311,306.438199,-148.041188,9474.636058
839.024627,0.000000,-0.000000,9548.656652
839.024943,229.828649,-148.041188,9474.636058
839.025258,229.828649,-74.020594,9474.636058
839.025574,229.828649,-74.020594,9474.636058
839.025889,153.219100,-74.020594,9474.636058
839.026205,153.219100,-222.061783,9696.697840
839.026521,383.047749,-74.020594,9474.636058
839.026836,766.095498,-148.041188,9474.636058
839.027152,153.219100,-74.020594,9474.636058
839.027468,459.657299,-222.061783,9548.656652
839.027783,306.438199,-222.061783,9474.636058
839.028099,459.657299,-296.082377,9548.656652
839.028415,459.657299,-74.020594,9474.636058
839.028730,536.266849,-0.000000,9548.656652
839.029046,612.876398,-444.123565,9326.594869
839.029362,459.657299,-74.020594,9400.615463
839.029677,612.876398,-148.041188,9400.615463
839.029993,612.876398,-74.020594,9400.615463
839.030309,306.438199,-222.061783,9474.636058
839.030624,459.657299,-592.164754,9548.656652
839.030940,229.828649,-518.144159,9326.594869
839.031256,612.876398,-74.020594,9474.636058
839.031571,459.657299,-222.061783,9474.636058
839.031887,306.438199,-222.061783,9474.636058
839.032203,689.485948,-222.061783,9400.615463
839.032518,383.047749,-222.061783,9474.636058
839.032834,536.266849,-148.041188,9474.636058
839.033150,383.047749,-148.041188,9400.615463
839.033465,536.266849,-74.020594,9326.594869
839.033781,612.876398,-666.185348,9178.553681
839.034097,612.876398,-666.185348,9252.574275
839.034412,612.876398,-74.020594,9474.636058
839.034728,689.485948,-518.144159,9474.636058
839.035043,383.047749,-222.061783,9474.636058
839.035359,612.876398,-296.082377,9548.656652
839.035675,612.876398,-222.061783,9400.615463
839.035990,689.485948,-222.061783,9474.636058
839.036306,536.266849,-74.020594,9696.697840
839.036622,536.266849,-370.102971,9622.677246
839.036937,842.705048,-296.082377,9696.697840
839.037253,536.266849,-296.082377,9548.656652
839.037569,689.485948,-222.061783,9474.636058
839.037884,689.485948,-296.082377,9400.615463
839.038200,612.876398,-148.041188,9326.594869
839.038516,306.438199,-296.082377,9622.677246
839.038831,689.485948,-148.041188,9548.656652
839.039147,229.828649,-148.041188,9400.615463
839.039463,306.438199,-148.041188,9474.636058
839.039778,536.266849,-148.041188,9844.739029
839.040094,306.438199,-444.123565,9696.697840
839.040410,0.000000,-370.102971,9622.677246
839.040725,0.000000,-666.185348,9622.677246
839.041041,0.000000,-296.082377,9548.656652
839.041357,229.828649,-444.123565,9474.636058
839.041672,306.438199,-148.041188,9474.636058
839.041988,229.828649,-148.041188,9400.615463
839.042304,229.828649,-0.000000,9326.594869
839.042619,459.657299,-0.000000,9474.636058
839.042935,383.047749,-148.041188,9326.594869
839.043250,766.095498,-74.020594,9400.615463
839.043566,536.266849,-222.061783,9252.574275
839.043882,612.876398,-74.020594,9548.656652
839.044197,689.485948,-0.000000,9400.615463
839.044513,306.438199,-148.041188,9696.697840
839.044829,153.219100,-148.041188,9548.656652
839.045144,383.047749,-0.000000,9548.656652
839.045460,76.609550,-148.041188,9548.656652
839.045776,306.438199,-148.041188,9548.656652
839.046091,459.657299,-148.041188,9474.636058
839.046407,383.047749,-0.000000,9474.636058
839.046723,612.876398,-0.000000,9400.615463
839.047038,229.828649,-74.020594,9548.656652
839.047354,306.438199,-0.000000,9326.594869
839.047670,153.219100,-74.020594,9622.677246
839.047985,459.657299,-0.000000,9548.656652
839.048301,459.657299,-0.000000,9400.615463
839.048617,306.438199,-0.000000,9474.636058
839.048932,459.657299,-148.041188,9474.636058
839.049248,536.266849,-148.041188,9474.636058
839.049564,536.266849,148.041188,9474.636058
839.049879,612.876398,-0.000000,9474.636058
839.050195,306.438199,-0.000000,9548.656652
839.050511,536.266849,-222.061783,9474.636058
839.050826,383.047749,-296.082377,9474.636058
839.051142,383.047749,-74.020594,9474.636058
839.051457,459.657299,-148.041188,9474.636058
839.051773,536.266849,-74.020594,9548.656652
839.052089,689.485948,296.082377,9474.636058
839.052404,306.438199,-222.061783,9548.656652
839.052720,459.657299,-0.000000,9548.656652
839.053036,229.828649,-148.041188,9474.636058
839.053351,229.828649,-296.082377,9548.656652
839.053667,612.876398,-370.102971,9548.656652
839.053983,229.828649,-296.082377,9474.636058
839.054298,306.438199,-444.123565,9326.594869
839.054614,459.657299,-222.061783,9326.594869
839.054930,612.876398,-222.061783,9400.615463
839.055245,612.876398,-222.061783,9326.594869
839.055561,766.095498,-74.020594,9474.636058
839.055877,459.657299,-370.102971,9400.615463
839.056192,612.876398,-74.020594,9548.656652
839.056508,536.266849,-222.061783,9474.636058
839.056824,536.266849,-296.082377,9474.636058
839.057139,536.266849,-74.020594,9326.594869
839.057455,459.657299,-370.102971,9400.615463
839.057771,383.047749,-222.061783,9622.677246
839.058086,459.657299,-296.082377,9474.636058
839.058402,229.828649,-370.102971,9696.697840
839.058718,153.219100,-296.082377,9474.636058
839.059033,229.828649,-222.061783,9548.656652
839.059349,229.828649,-148.041188,9474.636058
839.059665,612.876398,-296.082377,9400.615463
839.059980,383.047749,-296.082377,9400.615463
839.060296,383.047749,-370.102971,9326.594869
839.060611,306.438199,-0.000000,9474.636058
839.060927,536.266849,-222.061783,9400.615463
839.061243,842.705048,-444.123565,9474.636058
839.061558,153.219100,-444.123565,9178.553681
839.061874,612.876398,-296.082377,9178.553681
839.062190,306.438199,-222.061783,9400.615463
839.062505,306.438199,-148.041188,9474.636058
839.062821,153.219100,-0.000000,9474.636058
839.063137,383.047749,-148.041188,9474.636058
839.063452,306.438199,-74.020594,9326.594869
839.063768,459.657299,-74.020594,9400.615463
839.064084,229.828649,-222.061783,9400.615463
839.064399,306.438199,-296.082377,9252.574275
839.064715,229.828649,-148.041188,9474.636058
839.065031,383.047749,-74.020594,9548.656652
839.065346,383.047749,-296.082377,9474.636058
839.065662,536.266849,-148.041188,9844.739029
839.065978,229.828649,-592.164754,9696.697840
839.066293,536.266849,-148.041188,9474.636058
839.066609,459.657299,-222.061783,9400.615463
839.066925,383.047749,-148.041188,9326.594869
839.067240,536.266849,222.061783,9696.697840
839.067556,383.047749,-0.000000,9474.636058
839.067872,229.828649,-0.000000,9474.636058
839.068187,459.657299,-222.061783,9474.636058
839.068503,306.438199,-74.020594,9548.656652
839.068818,459.657299,-148.041188,9548.656652
839.069134,229.828649,-370.102971,9548.656652
839.069450,229.828649,-0.000000,9548.656652
839.069765,536.266849,-0.000000,9474.636058
839.070081,459.657299,296.082377,9622.677246
839.070397,383.047749,-370.102971,9548.656652
839.070712,229.828649,-74.020594,9474.636058
839.071028,536.266849,-0.000000,9474.636058
839.071344,536.266849,-0.000000,9326.594869
839.071659,459.657299,-0.000000,9474.636058
839.071975,306.438199,-0.000000,9252.574275
839.072291,536.266849,-74.020594,9622.677246
839.072606,383.047749,-0.000000,9474.636058
839.072922,383.047749,-74.020594,9622.677246
839.073238,612.876398,222.061783,9548.656652
839.073553,306.438199,-222.061783,9474.636058
839.073869,383.047749,-74.020594,9474.636058
839.074185,229.828649,-148.041188,9548.656652
839.074500,459.657299,-74.020594,9474.636058
839.074816,76.609550,-148.041188,9252.574275
839.075132,536.266849,-148.041188,9178.553681
839.075447,459.657299,-148.041188,9474.636058
839.075763,383.047749,-148.041188,9548.656652
839.076079,383.047749,-296.082377,9474.636058
839.076394,612.876398,-0.000000,9622.677246
839.076710,459.657299,-370.102971,9400.615463
839.077026,536.266849,-222.061783,9326.594869
839.077341,229.828649,-296.082377,9474.636058
839.077657,306.438199,-222.061783,9474.636058
839.077972,306.438199,-444.123565,9770.718434
839.078288,459.657299,-148.041188,9400.615463
839.078604,612.876398,-0.000000,9400.615463
839.078919,153.219100,-222.061783,9474.636058
839.079235,76.609550,-370.102971,9474.636058
839.079551,383.047749,-296.082377,9548.656652
839.079866,459.657299,-74.020594,9400.615463
839.080182,229.828649,-296.082377,9400.615463
839.080498,306.438199,-222.061783,9474.636058
839.080813,229.828649,-444.123565,9400.615463
839.081129,995.924147,-222.061783,9252.574275
839.081445,383.047749,-0.000000,9474.636058
839.081760,919.314598,-148.041188,9474.636058
839.082076,229.828649,-370.102971,9326.594869
839.082392,459.657299,-370.102971,9400.615463
839.082707,383.047749,-296.082377,9474.636058
839.083023,612.876398,-222.061783,9474.636058
839.083339,383.047749,-296.082377,9326.594869
839.083654,536.266849,-74.020594,9400.615463
839.083970,383.047749,-148.041188,9326.594869
839.084286,536.266849,-666.185348,9326.594869
839.084601,766.095498,-222.061783,9400.615463
839.084917,383.047749,-296.082377,9474.636058
839.085233,612.876398,-74.020594,9474.636058
839.085548,536.266849,-0.000000,9474.636058
839.085864,536.266849,-296.082377,9400.615463
839.086179,536.266849,-222.061783,9548.656652
839.086495,459.657299,-74.020594,9548.656652
839.086811,536.266849,-74.020594,9474.636058
839.087126,536.266849,-148.041188,9474.636058
839.087442,229.828649,-222.061783,9474.636058
839.087758,306.438199,-370.102971,9474.636058
839.088073,536.266849,-222.061783,9474.636058
839.088389,689.485948,-148.041188,9474.636058
839.088705,306.438199,-296.082377,9622.677246
839.089020,306.438199,-222.061783,9474.636058
839.089336,459.657299,-74.020594,9548.656652
839.089652,459.657299,-74.020594,9622.677246
839.089967,459.657299,-222.061783,9474.636058
839.090283,612.876398,-370.102971,9844.739029
839.090599,612.876398,-0.000000,9770.718434
839.090914,459.657299,-148.041188,9548.656652
839.091230,536.266849,-0.000000,9474.636058
839.091546,383.047749,-0.000000,9474.636058
839.091861,536.266849,-370.102971,9548.656652
839.092177,536.266849,-222.061783,9400.615463
839.092493,383.047749,-148.041188,9474.636058
839.092808,689.485948,-0.000000,9548.656652
839.093124,612.876398,-370.102971,9548.656652
839.093440,306.438199,-0.000000,9400.615463
839.093755,306.438199,-148.041188,9400.615463
839.094071,459.657299,-0.000000,9474.636058
839.094386,612.876398,-74.020594,9474.636058
839.094702,76.609550,-74.020594,9622.677246
839.095018,306.438199,-148.041188,9400.615463
839.095333,612.876398,-222.061783,9400.615463
839.095649,459.657299,-148.041188,9474.636058
839.095965,306.438199,-370.102971,9622.677246
839.096280,536.266849,-222.061783,9400.615463
839.096596,383.047749,-148.041188,9474.636058
839.096912,612.876398,-0.000000,9474.636058
839.097227,459.657299,-296.082377,9474.636058
839.097543,459.657299,-74.020594,9474.636058
839.097859,383.047749,-296.082377,9696.697840
839.098174,306.438199,-0.000000,9474.636058
839.098490,459.657299,-0.000000,9622.677246
839.098806,383.047749,-148.041188,9400.615463
839.099121,0.000000,-74.020594,9400.615463
839.099437,383.047749,-444.123565,9474.636058
839.099753,383.047749,-148.041188,9548.656652
839.100068,229.828649,-148.041188,9400.615463
839.100384,153.219100,-148.041188,9400.615463
839.100700,459.657299,-222.061783,9548.656652
839.101015,383.047749,-370.102971,9400.615463
839.101331,383.047749,-222.061783,9474.636058
839.101647,229.828649,-370.102971,9474.636058
839.101962,153.219100,-296.082377,9474.636058
839.102278,459.657299,-740.205942,9474.636058
839.102594,459.657299,-0.000000,9622.677246
839.102909,536.266849,-296.082377,9548.656652
839.103225,536.266849,-296.082377,9474.636058
839.103540,383.047749,-296.082377,9474.636058
839.103856,383.047749,-296.082377,9326.594869
839.104172,842.705048,-74.020594,9400.615463
839.104487,536.266849,-148.041188,9400.615463
839.104803,383.047749,-148.041188,9400.615463
839.105119,536.266849,-296.082377,9548.656652
839.105434,536.266849,-148.041188,9474.636058
839.105750,612.876398,-296.082377,9474.636058
839.106066,459.657299,-444.123565,9474.636058
839.106381,689.485948,-0.000000,9696.697840
839.106697,229.828649,-148.041188,9918.759623
839.107013,306.438199,-592.164754,9696.697840
839.107328,306.438199,-444.123565,9696.697840
839.107644,536.266849,-148.041188,9474.636058
839.107960,536.266849,-0.000000,9622.677246
839.108275,459.657299,-148.041188,9918.759623
839.108591,612.876398,-222.061783,9326.594869
839.108907,612.876398,-0.000000,9474.636058
839.109222,612.876398,-0.000000,9326.594869
839.109538,689.485948,-74.020594,9252.574275
839.109854,229.828649,-296.082377,9326.594869
839.110169,153.219100,-222.061783,9400.615463
839.110485,306.438199,-222.061783,9548.656652
839.110801,383.047749,-296.082377,9474.636058
839.111116,153.219100,-148.041188,9548.656652
839.111432,459.657299,-444.123565,9178.553681
839.111747,229.828649,-296.082377,9548.656652
839.112063,229.828649,-222.061783,9548.656652
839.112379,153.219100,-296.082377,9474.636058
839.112694,383.047749,-148.041188,9252.574275
839.113010,153.219100,-74.020594,9252.574275
839.113325,536.266849,-74.020594,9252.574275
839.113641,229.828649,-148.041188,9474.636058
839.113957,153.219100,-0.000000,9474.636058
839.114272,459.657299,-0.000000,9252.574275
839.114588,536.266849,-0.000000,9252.574275
839.114903,306.438199,-74.020594,9400.615463
839.115219,76.609550,-222.061783,9474.636058
839.115535,459.657299,-0.000000,9474.636058
839.115850,229.828649,-148.041188,9548.656652
839.116166,536.266849,-148.041188,9326.594869
839.116482,306.438199,-148.041188,9400.615463
839.116797,229.828649,-0.000000,9474.636058
839.117113,76.609550,-0.000000,9474.636058
839.117428,153.219100,-0.000000,9548.656652
839.117744,229.828649,-74.020594,9844.739029
839.118060,383.047749,-74.020594,9474.636058
839.118375,306.438199,-222.061783,9474.636058
839.118691,229.828649,-0.000000,9474.636058
839.119006,536.266849,-0.000000,9548.656652
839.119322,76.609550,-222.061783,9474.636058
839.119638,306.438199,-0.000000,9548.656652
839.119953,153.219100,-370.102971,9622.677246
839.120269,383.047749,-296.082377,9400.615463
839.120585,383.047749,-0.000000,9474.636058
839.120900,689.485948,-148.041188,9770.718434
839.121216,229.828649,-148.041188,9548.656652
839.121531,383.047749,-74.020594,9622.677246
839.121847,766.095498,-0.000000,9474.636058
839.122163,459.657299,-0.000000,9326.594869
839.122478,536.266849,-222.061783,9474.636058
839.122794,536.266849,-0.000000,9548.656652
839.123109,459.657299,-296.082377,9474.636058
839.123425,306.438199,-222.061783,9474.636058
839.123741,536.266849,-444.123565,9770.718434
839.124056,306.438199,-296.082377,9770.718434
839.124372,229.828649,-296.082377,9696.697840
839.124688,383.047749,-148.041188,9548.656652
839.125003,536.266849,-148.041188,9474.636058
839.125319,536.266849,-148.041188,9400.615463
839.125634,459.657299,148.041188,9622.677246
839.125950,383.047749,-0.000000,9400.615463
839.126266,536.266849,-148.041188,9548.656652
839.126581,612.876398,-296.082377,9474.636058
839.126897,153.219100,-222.061783,9622.677246
839.127212,536.266849,-148.041188,9400.615463
839.127528,689.485948,-148.041188,9622.677246
839.127844,459.657299,-296.082377,9400.615463
839.128159,536.266849,-370.102971,9326.594869
839.128475,0.000000,-296.082377,9548.656652
839.128791,459.657299,-74.020594,9696.697840
839.129106,153.219100,-222.061783,9326.594869
839.129422,536.266849,-74.020594,9400.615463
839.129737,306.438199,-148.041188,9326.594869
839.130053,459.657299,-296.082377,9178.553681
839.130369,383.047749,-222.061783,9474.636058
839.130684,306.438199,-296.082377,9400.615463
839.131000,383.047749,-148.041188,9474.636058
839.131315,842.705048,-370.102971,9400.615463
839.131631,459.657299,-444.123565,9326.594869
839.131947,689.485948,-222.061783,9326.594869
839.132262,153.219100,-444.123565,9548.656652
839.132578,306.438199,-148.041188,9252.574275
839.132893,536.266849,-222.061783,9326.594869
839.133209,306.438199,296.082377,9474.636058
839.133525,383.047749,-148.041188,9474.636058
839.133840,383.047749,-296.082377,9474.636058
839.134156,459.657299,-296.082377,9400.615463
839.134472,689.485948,-74.020594,9474.636058
839.134787,0.000000,-74.020594,9474.636058
839.135103,383.047749,-222.061783,9252.574275
839.135418,459.657299,-148.041188,9252.574275
839.135734,536.266849,-222.061783,9548.656652
839.136050,229.828649,-148.041188,9474.636058
839.136365,383.047749,-296.082377,9696.697840
839.136681,153.219100,-222.061783,9548.656652
839.136996,536.266849,-74.020594,9474.636058
839.137312,153.219100,-148.041188,9252.574275
839.137628,306.438199,-444.123565,9474.636058
839.137943,459.657299,-74.020594,9696.697840
839.138259,383.047749,-74.020594,9696.697840
839.138575,536.266849,-74.020594,9326.594869
839.138890,536.266849,-0.000000,9548.656652
839.139206,842.705048,-0.000000,9474.636058
839.139521,689.485948,-0.000000,9622.677246
839.139837,536.266849,-0.000000,9474.636058
839.140153,689.485948,-0.000000,9474.636058
839.140468,306.438199,-0.000000,9474.636058
839.140784,612.876398,-0.000000,9548.656652
839.141099,459.657299,-222.061783,9474.636058
839.141415,76.609550,-370.102971,9844.739029
839.141731,536.266849,-0.000000,9622.677246
839.142046,229.828649,-0.000000,9622.677246
839.142362,842.705048,-296.082377,9400.615463
839.142678,306.438199,-296.082377,9474.636058
839.142993,459.657299,-148.041188,9548.656652
839.143309,383.047749,-222.061783,9696.697840
839.143624,612.876398,-74.020594,9474.636058
839.143940,536.266849,74.020594,9474.636058
839.144256,766.095498,222.061783,9474.636058
839.144571,766.095498,-0.000000,9474.636058
839.144887,766.095498,-0.000000,9400.615463
839.145202,612.876398,-0.000000,9548.656652
839.145518,612.876398,-444.123565,9548.656652
839.145834,383.047749,-222.061783,9400.615463
839.146149,459.657299,-370.102971,9548.656652
839.146465,383.047749,-296.082377,9326.594869
839.146781,459.657299,-222.061783,9474.636058
839.147096,536.266849,-222.061783,9770.718434
839.147412,383.047749,-74.020594,9622.677246
839.147727,612.876398,-148.041188,9474.636058
839.148043,153.219100,-74.020594,9474.636058
839.148359,306.438199,-74.020594,9400.615463
839.148674,536.266849,-148.041188,9400.615463
839.148990,459.657299,-222.061783,9178.553681
839.149305,229.828649,-222.061783,9474.636058
839.149621,383.047749,-222.061783,9400.615463
839.149937,459.657299,-740.205942,9252.574275
839.150252,459.657299,-370.102971,9474.636058
839.150568,459.657299,-74.020594,9326.594869
839.150883,459.657299,-222.061783,9400.615463
839.151199,76.609550,-296.082377,9474.636058
839.151515,306.438199,-740.205942,9622.677246
839.151830,306.438199,-222.061783,9400.615463
839.152146,383.047749,-518.144159,9252.574275
839.152462,153.219100,-296.082377,9474.636058
839.152777,383.047749,-296.082377,9326.594869
839.153093,229.828649,-74.020594,9400.615463
839.153408,689.485948,-148.041188,9252.574275
839.153724,459.657299,-296.082377,9400.615463
839.154040,536.266849,-296.082377,9474.636058
839.154355,612.876398,-296.082377,9474.636058
839.154671,383.047749,-296.082377,9474.636058
839.154986,459.657299,-296.082377,9400.615463
839.155302,612.876398,-74.020594,9474.636058
839.155618,459.657299,-444.123565,9326.594869
839.155933,383.047749,-222.061783,9548.656652
839.156249,306.438199,-370.102971,9474.636058
839.156565,383.047749,-148.041188,9622.677246
839.156880,459.657299,-148.041188,9400.615463
839.157196,459.657299,-148.041188,9696.697840
839.157511,689.485948,-296.082377,9474.636058
839.157827,383.047749,-296.082377,9400.615463
839.158143,383.047749,-74.020594,9548.656652
839.158458,612.876398,-148.041188,9474.636058
839.158774,383.047749,-222.061783,9474.636058
839.159089,0.000000,-370.102971,9474.636058
839.159405,383.047749,-74.020594,9474.636058
839.159721,383.047749,-74.020594,9474.636058
839.160036,0.000000,-0.000000,9548.656652
839.160352,153.219100,-0.000000,9696.697840
839.160668,229.828649,-0.000000,9696.697840
839.160983,459.657299,-148.041188,9474.636058
839.161299,383.047749,-0.000000,9326.594869
839.161614,383.047749,-222.061783,9474.636058
839.161930,459.657299,-74.020594,9696.697840
839.162246,459.657299,-74.020594,9474.636058
839.162561,306.438199,-0.000000,9548.656652
839.162877,229.828649,-0.000000,9474.636058
839.163192,536.266849,-0.000000,9622.677246
839.163508,383.047749,-888.247130,9474.636058
839.163824,612.876398,-74.020594,9474.636058
839.164139,306.438199,-296.082377,9400.615463
839.164455,383.047749,-148.041188,9622.677246
839.164771,459.657299,-74.020594,9474.636058
839.165086,536.266849,-148.041188,9622.677246
839.165402,306.438199,-0.000000,9474.636058
839.165717,459.657299,-222.061783,9474.636058
839.166033,153.219100,-148.041188,9474.636058
839.166349,536.266849,-222.061783,9474.636058
839.166664,0.000000,-148.041188,9400.615463
839.166980,536.266849,-0.000000,9696.697840
839.167295,459.657299,-148.041188,9548.656652
839.167611,536.266849,-0.000000,9400.615463
839.167927,383.047749,-222.061783,9326.594869
839.168242,459.657299,-148.041188,9326.594869
839.168558,459.657299,-370.102971,9474.636058
839.168873,383.047749,-222.061783,9400.615463
839.169189,306.438199,-148.041188,9474.636058
839.169505,383.047749,-222.061783,9474.636058
839.169820,306.438199,-148.041188,9474.636058
839.170136,536.266849,-222.061783,9474.636058
839.170452,306.438199,-222.061783,9400.615463
839.170767,459.657299,-296.082377,9400.615463
839.171083,612.876398,-222.061783,9400.615463
839.171398,229.828649,-0.000000,9474.636058
839.171714,459.657299,-444.123565,9474.636058
839.172030,76.609550,-222.061783,9770.718434
839.172345,536.266849,-222.061783,9474.636058
839.172661,306.438199,-148.041188,9474.636058
839.172976,536.266849,-148.041188,9252.574275
839.173292,612.876398,-444.123565,9474.636058
839.173608,229.828649,-148.041188,9474.636058
839.173923,383.047749,-222.061783,9474.636058
839.174239,306.438199,-222.061783,9474.636058
839.174555,383.047749,-222.061783,9474.636058
839.174870,689.485948,-148.041188,9326.594869
839.175186,612.876398,-74.020594,9474.636058
839.175501,612.876398,-148.041188,9474.636058
839.175817,612.876398,-370.102971,9400.615463
839.176133,612.876398,-222.061783,9474.636058
839.176448,612.876398,-148.041188,9400.615463
839.176764,306.438199,-148.041188,9400.615463
839.177079,306.438199,-148.041188,9474.636058
839.177395,766.095498,-518.144159,9474.636058
839.177711,612.876398,-592.164754,9548.656652
839.178026,383.047749,-296.082377,9548.656652
839.178342,536.266849,-148.041188,9548.656652
839.178658,766.095498,-222.061783,9622.677246
839.178973,766.095498,-296.082377,9326.594869
839.179289,689.485948,-74.020594,9474.636058
839.179604,842.705048,-0.000000,9178.553681
839.179920,842.705048,-0.000000,9400.615463
839.180236,689.485948,-0.000000,9252.574275
839.180551,766.095498,-296.082377,9548.656652
839.180867,459.657299,-296.082377,9474.636058
839.181182,459.657299,-222.061783,9474.636058
839.181498,229.828649,-148.041188,9696.697840
839.181814,76.609550,-444.123565,9622.677246
839.182129,612.876398,-296.082377,9696.697840
839.182445,0.000000,-444.123565,9696.697840
839.182761,229.828649,-370.102971,9548.656652
839.183076,153.219100,-74.020594,9474.636058
839.183392,229.828649,-74.020594,9474.636058
839.183707,306.438199,-222.061783,9400.615463
839.184023,383.047749,-148.041188,9326.594869
839.184339,153.219100,-222.061783,9252.574275
839.184654,306.438199,-0.000000,9474.636058
839.184970,229.828649,-0.000000,9474.636058
839.185285,0.000000,-296.082377,9474.636058
839.185601,306.438199,-74.020594,9474.636058
839.185917,536.266849,-0.000000,9548.656652
839.186232,459.657299,-0.000000,9400.615463
839.186548,306.438199,-222.061783,9548.656652
839.186863,459.657299,-0.000000,9474.636058
839.187179,612.876398,-0.000000,9474.636058
839.187495,383.047749,-0.000000,9252.574275
839.187810,229.828649,-0.000000,9400.615463
839.188126,383.047749,-0.000000,9474.636058
839.188442,229.828649,-0.000000,9474.636058
839.188757,383.047749,-0.000000,9474.636058
839.189073,229.828649,-0.000000,9326.594869
839.189388,383.047749,-0.000000,9548.656652
839.189704,383.047749,-518.144159,9474.636058
839.190020,306.438199,-222.061783,9400.615463
839.190335,76.609550,-74.020594,9474.636058
839.190651,153.219100,-0.000000,9548.656652
839.190966,459.657299,-74.020594,9622.677246
839.191282,153.219100,-0.000000,9844.739029
839.191598,459.657299,-296.082377,9400.615463
839.191913,383.047749,-74.020594,9474.636058
839.192229,536.266849,-0.000000,9474.636058
839.192545,459.657299,-74.020594,9474.636058
839.192860,306.438199,-0.000000,9400.615463
839.193176,459.657299,-222.061783,9326.594869
839.193491,612.876398,-0.000000,9252.574275
839.193807,306.438199,-74.020594,9474.636058
839.194123,919.314598,296.082377,9918.759623
839.194438,76.609550,-0.000000,9622.677246
839.194754,536.266849,-74.020594,9548.656652
839.195069,612.876398,-148.041188,9548.656652
839.195385,459.657299,-296.082377,9474.636058
839.195701,306.438199,-444.123565,9548.656652
839.196016,536.266849,-0.000000,9622.677246
839.196332,306.438199,-0.000000,9548.656652
839.196648,536.266849,-0.000000,9548.656652
839.196963,536.266849,-74.020594,9474.636058
839.197279,612.876398,-222.061783,9474.636058
839.197594,612.876398,-148.041188,9400.615463
839.197910,689.485948,-148.041188,9474.636058
839.198226,689.485948,-444.123565,9400.615463
839.198541,536.266849,-296.082377,9326.594869
839.198857,459.657299,-296.082377,9622.677246
839.199172,459.657299,-74.020594,9548.656652
839.199488,383.047749,-296.082377,9474.636058
839.199804,306.438199,-222.061783,9474.636058
839.200119,612.876398,-222.061783,9400.615463
839.200435,383.047749,-74.020594,9474.636058
839.200751,459.657299,-296.082377,9178.553681
839.201066,459.657299,-222.061783,9326.594869
839.201382,153.219100,-148.041188,9474.636058
839.201697,612.876398,-222.061783,9474.636058
839.202013,536.266849,-148.041188,9400.615463
839.202329,229.828649,-370.102971,9326.594869
839.202644,536.266849,-148.041188,9474.636058
839.202960,306.438199,-296.082377,9400.615463
839.203275,459.657299,-740.205942,9548.656652
839.203591,229.828649,-222.061783,9326.594869
839.203907,229.828649,-296.082377,9548.656652
839.204222,229.828649,-0.000000,9326.594869
839.204538,306.438199,-222.061783,9474.636058
839.204853,459.657299,-370.102971,9400.615463
839.205169,459.657299,-148.041188,9400.615463
839.205485,76.609550,-222.061783,9474.636058
839.205800,306.438199,-444.123565,9400.615463
839.206116,383.047749,-370.102971,9548.656652
839.206432,229.828649,-370.102971,9326.594869
839.206747,153.219100,-148.041188,9474.636058
839.207063,306.438199,-370.102971,9400.615463
839.207378,0.000000,-222.061783,9474.636058
839.207694,459.657299,-0.000000,9474.636058
839.208010,229.828649,-148.041188,9548.656652
839.208325,459.657299,-0.000000,9548.656652
839.208641,229.828649,-148.041188,9474.636058
839.208956,306.438199,-74.020594,9326.594869
839.209272,536.266849,-370.102971,9548.656652
839.209588,536.266849,-0.000000,9474.636058
839.209903,612.876398,-0.000000,9474.636058
839.210219,536.266849,-222.061783,9474.636058
839.210535,383.047749,-0.000000,9474.636058
839.210850,383.047749,-296.082377,9622.677246
839.211166,536.266849,-0.000000,9770.718434
839.211481,612.876398,-0.000000,9548.656652
839.211797,306.438199,-0.000000,9474.636058
839.212113,383.047749,-0.000000,9548.656652
839.212428,612.876398,-0.000000,9622.677246
839.212744,383.047749,-148.041188,9622.677246
839.213059,153.219100,-222.061783,9548.656652
839.213375,459.657299,-0.000000,9474.636058
839.213691,459.657299,-0.000000,9696.697840
839.214006,0.000000,-222.061783,9548.656652
839.214322,689.485948,-0.000000,9548.656652
839.214638,459.657299,-148.041188,9622.677246
839.214953,612.876398,-74.020594,9474.636058
839.215269,689.485948,-0.000000,9474.636058
839.215585,612.876398,-74.020594,9474.636058
839.215900,459.657299,-0.000000,9474.636058
839.216216,383.047749,-148.041188,9326.594869
839.216532,229.828649,-370.102971,9326.594869
839.216848,153.219100,-444.123565,9548.656652
839.217163,459.657299,-518.144159,9548.656652
839.217479,153.219100,-74.020594,9474.636058
839.217795,306.438199,-296.082377,9474.636058
839.218111,306.438199,-74.020594,9622.677246
839.218426,459.657299,-222.061783,9696.697840
839.218742,383.047749,-222.061783,9548.656652
839.219058,536.266849,-222.061783,9474.636058
839.219374,459.657299,-222.061783,9474.636058
839.219689,383.047749,-74.020594,9400.615463
839.220005,612.876398,-148.041188,9326.594869
839.220321,76.609550,-148.041188,9474.636058
839.220636,383.047749,-222.061783,9252.574275
839.220952,383.047749,-296.082377,9548.656652
839.221268,383.047749,-370.102971,9474.636058
839.221584,383.047749,-888.247130,9474.636058
839.221899,383.047749,-370.102971,9474.636058
839.222215,306.438199,-370.102971,9474.636058
839.222531,306.438199,-296.082377,9548.656652
839.222847,459.657299,-222.061783,9474.636058
839.223162,-229.828649,-296.082377,9400.615463
839.223478,383.047749,-148.041188,9400.615463
839.223794,383.047749,-0.000000,9326.594869
839.224110,536.266849,-370.102971,9178.553681
839.224425,459.657299,-222.061783,9400.615463
839.224741,536.266849,-0.000000,9178.553681
839.225057,612.876398,-148.041188,9400.615463
839.225373,383.047749,-370.102971,9474.636058
839.225688,153.219100,-148.041188,9474.636058
839.226004,306.438199,-148.041188,9474.636058
839.226320,306.438199,-296.082377,9474.636058
839.226636,689.485948,-296.082377,9474.636058
839.226951,383.047749,-222.061783,9474.636058
839.227267,536.266849,-296.082377,9548.656652
839.227583,383.047749,-222.061783,9474.636058
839.227899,383.047749,-148.041188,9474.636058
839.228214,383.047749,-0.000000,9474.636058
839.228530,612.876398,-74.020594,9474.636058
839.228846,766.095498,-222.061783,9474.636058
839.229161,536.266849,-0.000000,9548.656652
839.229477,842.705048,-0.000000,9548.656652
839.229793,842.705048,-0.000000,9474.636058
839.230109,459.657299,-222.061783,9326.594869
839.230424,536.266849,-148.041188,9474.636058
839.230740,229.828649,-0.000000,9622.677246
839.231056,459.657299,-370.102971,9400.615463
839.231372,383.047749,-370.102971,9548.656652
839.231687,383.047749,-0.000000,9474.636058
839.232003,536.266849,-0.000000,9622.677246
839.232319,612.876398,-74.020594,9548.656652
839.232635,536.266849,-296.082377,9696.697840
839.232950,229.828649,-0.000000,9548.656652
839.233266,612.876398,296.082377,9474.636058
839.233582,689.485948,-0.000000,9474.636058
839.233898,459.657299,-74.020594,9474.636058
839.234213,383.047749,-0.000000,9474.636058
839.234529,612.876398,-0.000000,9474.636058
839.234845,536.266849,-0.000000,9474.636058
839.235161,306.438199,-74.020594,9474.636058
839.235476,383.047749,-222.061783,9474.636058
839.235792,306.438199,-0.000000,9474.636058
839.236108,0.000000,-296.082377,9474.636058
839.236424,306.438199,-0.000000,9622.677246
839.236739,459.657299,-148.041188,9400.615463
839.237055,229.828649,-148.041188,9474.636058
839.237371,153.219100,-148.041188,9400.615463
839.237686,459.657299,-222.061783,9178.553681
839.238002,612.876398,-74.020594,9474.636058
839.238318,306.438199,-0.000000,9252.574275
839.238634,383.047749,-222.061783,9696.697840
839.238949,76.609550,-370.102971,9400.615463
839.239265,459.657299,-370.102971,9252.574275
839.239581,229.828649,-296.082377,9474.636058
839.239897,229.828649,-148.041188,9474.636058
839.240212,919.314598,-74.020594,9548.656652
839.240528,536.266849,-296.082377,9326.594869
839.240844,383.047749,-148.041188,9474.636058
839.241160,229.828649,-148.041188,9400.615463
839.241475,536.266849,-296.082377,9400.615463
839.241791,306.438199,-222.061783,9400.615463
839.242107,383.047749,-222.061783,9548.656652
839.242423,612.876398,-148.041188,9252.574275
839.242738,306.438199,-296.082377,9400.615463
839.243054,536.266849,-444.123565,9548.656652
839.243370,536.266849,-444.123565,9770.718434
839.243686,76.609550,-296.082377,9474.636058
839.244001,459.657299,-370.102971,9474.636058
839.244317,689.485948,-296.082377,9252.574275
839.244633,306.438199,-148.041188,9548.656652
839.244949,306.438199,-148.041188,9474.636058
839.245264,153.219100,-370.102971,9622.677246
839.245580,459.657299,-370.102971,9622.677246
839.245896,459.657299,-296.082377,9474.636058
839.246211,306.438199,-222.061783,9400.615463
839.246527,459.657299,-296.082377,9474.636058
839.246843,536.266849,-222.061783,9474.636058
839.247159,536.266849,-148.041188,9474.636058
839.247474,536.266849,-148.041188,9474.636058
839.247790,842.705048,-74.020594,9844.739029
839.248106,306.438199,-666.185348,9548.656652
839.248422,536.266849,-444.123565,9474.636058
839.248737,689.485948,-296.082377,9622.677246
839.249053,689.485948,-74.020594,9474.636058
839.249369,459.657299,-148.041188,9474.636058
839.249685,459.657299,-148.041188,9474.636058
839.250000,383.047749,-74.020594,9474.636058
839.250316,459.657299,-148.041188,9326.594869
839.250632,459.657299,-0.000000,9696.697840
839.250948,612.876398,-222.061783,9326.594869
839.251263,0.000000,-296.082377,9474.636058
839.251579,383.047749,-222.061783,9474.636058
839.251895,383.047749,-444.123565,9696.697840
839.252211,153.219100,-148.041188,9548.656652
839.252526,459.657299,-444.123565,9770.718434
839.252842,306.438199,-148.041188,9622.677246
839.253158,306.438199,-222.061783,9622.677246
839.253474,306.438199,-296.082377,9474.636058
839.253789,306.438199,-74.020594,9548.656652
839.254105,306.438199,-74.020594,9400.615463
839.254421,229.828649,148.041188,9474.636058
839.254736,306.438199,-0.000000,9400.615463
839.255052,229.828649,-74.020594,9548.656652
839.255368,383.047749,-0.000000,9474.636058
839.255684,306.438199,-0.000000,9474.636058
839.255999,306.438199,-296.082377,9400.615463
839.256315,229.828649,-74.020594,9400.615463
839.256631,0.000000,-222.061783,9474.636058
839.256947,383.047749,-0.000000,9770.718434
839.257262,76.609550,-74.020594,9622.677246
839.257578,306.438199,-222.061783,9696.697840
839.257894,383.047749,-0.000000,9548.656652
839.258210,306.438199,-0.000000,9474.636058
839.258525,383.047749,-148.041188,9548.656652
839.258841,306.438199,-222.061783,9400.615463
839.259157,229.828649,-0.000000,9474.636058
839.259473,459.657299,-0.000000,9474.636058
839.259788,306.438199,-0.000000,9474.636058
839.260104,459.657299,-74.020594,9326.594869
839.260420,536.266849,-0.000000,9474.636058
839.260736,612.876398,-0.000000,9252.574275
839.261051,153.219100,-222.061783,9474.636058
839.261367,689.485948,-74.020594,9696.697840
839.261683,306.438199,-0.000000,9622.677246
839.261999,459.657299,-296.082377,9548.656652
839.262314,306.438199,-296.082377,9474.636058
839.262630,536.266849,-148.041188,9548.656652
839.262946,536.266849,-74.020594,9622.677246
839.263261,459.657299,-296.082377,9400.615463
839.263577,306.438199,-148.041188,9400.615463
839.263893,459.657299,-0.000000,9548.656652
839.264209,153.219100,-222.061783,9474.636058
839.264524,536.266849,-74.020594,9696.697840
839.264840,383.047749,-222.061783,9474.636058
839.265156,459.657299,-74.020594,9474.636058
839.265472,383.047749,-148.041188,9474.636058
839.265787,612.876398,-222.061783,9622.677246
839.266103,536.266849,-222.061783,9548.656652
839.266419,536.266849,-148.041188,9474.636058
839.266735,459.657299,-296.082377,9400.615463
839.267050,612.876398,-222.061783,9474.636058
839.267366,612.876398,-0.000000,9770.718434
839.267682,536.266849,-222.061783,9770.718434
839.267998,612.876398,-74.020594,9326.594869
839.268313,536.266849,-444.123565,9474.636058
839.268629,459.657299,-0.000000,9474.636058
839.268945,919.314598,-370.102971,9548.656652
839.269261,612.876398,-370.102971,9252.574275
839.269576,612.876398,-444.123565,9326.594869
839.269892,612.876398,-296.082377,9474.636058
839.270208,306.438199,-222.061783,9474.636058
839.270524,459.657299,-296.082377,9252.574275
839.270839,383.047749,-444.123565,9474.636058
839.271155,383.047749,-74.020594,9474.636058
839.271471,536.266849,-222.061783,9474.636058
839.271786,612.876398,-148.041188,9400.615463
839.272102,842.705048,-370.102971,9548.656652
839.272418,229.828649,-592.164754,9400.615463
839.272734,383.047749,-296.082377,9474.636058
839.273049,459.657299,-370.102971,9400.615463
839.273365,459.657299,-370.102971,9400.615463
839.273681,536.266849,-370.102971,9400.615463
839.273997,306.438199,-296.082377,9252.574275
839.274312,0.000000,-74.020594,9252.574275
839.274628,383.047749,-370.102971,9474.636058
839.274944,229.828649,-296.082377,9548.656652
839.275260,689.485948,-444.123565,9622.677246
839.275575,229.828649,-296.082377,9474.636058
839.275891,306.438199,-148.041188,9326.594869
839.276207,229.828649,-222.061783,9474.636058
839.276523,536.266849,-222.061783,9474.636058
839.276838,383.047749,-0.000000,9548.656652
839.277154,383.047749,-296.082377,9326.594869
839.277470,459.657299,-148.041188,9252.574275
839.277786,229.828649,-222.061783,9474.636058
839.278101,306.438199,-222.061783,9400.615463
839.278417,306.438199,-0.000000,9844.739029
839.278733,383.047749,-222.061783,9474.636058
839.279049,459.657299,-148.041188,9474.636058
839.279364,459.657299,-148.041188,9474.636058
839.279680,306.438199,-74.020594,9548.656652
839.279996,306.438199,-0.000000,9326.594869
839.280311,306.438199,-74.020594,9548.656652
839.280627,766.095498,-0.000000,9474.636058
839.280943,459.657299,-0.000000,9400.615463
839.281259,536.266849,-0.000000,9474.636058
839.281574,1072.533697,148.041188,9622.677246
839.281890,536.266849,-0.000000,9548.656652
839.282206,459.657299,148.041188,9548.656652
839.282522,536.266849,-0.000000,9474.636058
839.282837,306.438199,-74.020594,9474.636058
839.283153,995.924147,-444.123565,9400.615463
839.283469,306.438199,-296.082377,9548.656652
839.283785,383.047749,-74.020594,9622.677246
839.284100,536.266849,-148.041188,9548.656652
839.284416,612.876398,-148.041188,9548.656652
839.284732,459.657299,-74.020594,9696.697840
839.285048,383.047749,-0.000000,9400.615463
839.285363,459.657299,-0.000000,9474.636058
839.285679,536.266849,-222.061783,9474.636058
839.285995,536.266849,-0.000000,9474.636058
839.286311,383.047749,-370.102971,9696.697840
839.286626,306.438199,-296.082377,9474.636058
839.286942,153.219100,-148.041188,9844.739029
839.287258,459.657299,-148.041188,9474.636058
839.287574,383.047749,-74.020594,9548.656652
839.287889,612.876398,-370.102971,9844.739029
839.288205,383.047749,-370.102971,9474.636058
839.288521,536.266849,-148.041188,9400.615463
839.288836,229.828649,-148.041188,9622.677246
839.289152,689.485948,-222.061783,9474.636058
839.289468,536.266849,-222.061783,9104.533087
839.289784,383.047749,-222.061783,9474.636058
839.290099,383.047749,-370.102971,9474.636058
839.290415,306.438199,-296.082377,9326.594869
839.290731,459.657299,-444.123565,9252.574275
839.291047,229.828649,-296.082377,9548.656652
839.291362,383.047749,-222.061783,9474.636058
839.291678,459.657299,-148.041188,9474.636058
839.291994,306.438199,-370.102971,9474.636058
839.292310,306.438199,-222.061783,9474.636058
839.292625,229.828649,-444.123565,9474.636058
839.292941,536.266849,-148.041188,9474.636058
839.293257,536.266849,-222.061783,9252.574275
839.293573,306.438199,-74.020594,9474.636058
839.293888,383.047749,-222.061783,9326.594869
839.294204,459.657299,-148.041188,9400.615463
839.294520,383.047749,-444.123565,9326.594869
839.294836,459.657299,-148.041188,9252.574275
839.295151,536.266849,-0.000000,9622.677246
839.295467,612.876398,-222.061783,9474.636058
839.295783,306.438199,-74.020594,9622.677246
839.296099,306.438199,-222.061783,9252.574275
839.296414,383.047749,-444.123565,9474.636058
839.296730,383.047749,-296.082377,9400.615463
839.297046,383.047749,-296.082377,9474.636058
839.297361,612.876398,-148.041188,9474.636058
839.297677,383.047749,-296.082377,9548.656652
839.297993,536.266849,-296.082377,9474.636058
839.298309,306.438199,-222.061783,9548.656652
839.298624,459.657299,-222.061783,9548.656652
839.298940,153.219100,-296.082377,9474.636058
839.299256,612.876398,-0.000000,9622.677246
839.299572,536.266849,-74.020594,9548.656652
839.299887,536.266849,-148.041188,9548.656652
839.300203,766.095498,-444.123565,9474.636058
839.300519,306.438199,-0.000000,9400.615463
839.300835,383.047749,-0.000000,9622.677246
839.301150,153.219100,-296.082377,9622.677246
839.301466,383.047749,-148.041188,9696.697840
839.301782,0.000000,-148.041188,9622.677246
839.302098,229.828649,-296.082377,9400.615463
839.302413,229.828649,148.041188,9474.636058
839.302729,459.657299,-0.000000,9474.636058
839.303045,612.876398,-74.020594,9548.656652
839.303361,536.266849,-222.061783,9474.636058
839.303676,536.266849,-74.020594,9548.656652
839.303992,842.705048,-74.020594,9326.594869
839.304308,459.657299,-0.000000,9474.636058
839.304624,612.876398,-222.061783,9178.553681
839.304939,612.876398,-0.000000,9474.636058
839.305255,459.657299,-74.020594,9400.615463
839.305571,229.828649,-0.000000,9400.615463
839.305886,383.047749,-74.020594,9474.636058
839.306202,766.095498,-0.000000,9696.697840
839.306518,459.657299,-74.020594,9548.656652
839.306834,306.438199,-222.061783,9474.636058
839.307149,536.266849,-74.020594,9474.636058
839.307465,306.438199,-296.082377,9474.636058
839.307781,459.657299,-74.020594,9252.574275
839.308097,229.828649,-74.020594,9474.636058
839.308412,612.876398,-0.000000,9252.574275
839.308728,383.047749,-0.000000,9548.656652
839.309044,229.828649,-148.041188,9400.615463
839.309360,689.485948,-296.082377,9696.697840
839.309675,383.047749,-148.041188,9400.615463
839.309991,306.438199,-222.061783,9474.636058
839.310307,383.047749,-296.082377,9400.615463
839.310623,306.438199,-444.123565,9622.677246
839.310938,459.657299,-296.082377,9474.636058
839.311254,383.047749,-296.082377,9252.574275
839.311570,459.657299,-0.000000,9548.656652
839.311886,229.828649,-148.041188,9326.594869
839.312201,536.266849,-222.061783,9400.615463
839.312517,536.266849,-370.102971,9326.594869
839.312833,383.047749,-148.041188,9400.615463
839.313149,306.438199,-370.102971,9474.636058
839.313464,229.828649,-518.144159,9400.615463
839.313780,612.876398,-296.082377,9400.615463
839.314096,306.438199,-296.082377,9474.636058
839.314412,459.657299,-444.123565,9474.636058
839.314727,383.047749,-444.123565,9474.636058
839.315043,383.047749,-444.123565,9400.615463
839.315359,306.438199,-296.082377,9400.615463
839.315675,689.485948,-148.041188,9252.574275
839.315990,536.266849,-296.082377,9400.615463
839.316306,459.657299,-74.020594,9474.636058
839.316622,1072.533697,-592.164754,9474.636058
839.316938,536.266849,-296.082377,9252.574275
839.317254,229.828649,-444.123565,9400.615463
839.317569,459.657299,-148.041188,9622.677246
839.317885,689.485948,-74.020594,9178.553681
839.318201,153.219100,-74.020594,9548.656652
839.318517,612.876398,-370.102971,9548.656652
839.318832,766.095498,-296.082377,9474.636058
839.319148,689.485948,-370.102971,9622.677246
839.319464,383.047749,-222.061783,9474.636058
839.319780,766.095498,-148.041188,9474.636058
839.320096,612.876398,-74.020594,9548.656652
839.320411,536.266849,-222.061783,9474.636058
839.320727,689.485948,-222.061783,9400.615463
839.321043,383.047749,-0.000000,9326.594869
839.321359,383.047749,-0.000000,9474.636058
839.321674,229.828649,-370.102971,9474.636058
839.321990,383.047749,-222.061783,9474.636058
839.322306,229.828649,-370.102971,9622.677246
839.322622,306.438199,-148.041188,9548.656652
839.322937,153.219100,-370.102971,9622.677246
839.323253,0.000000,-444.123565,9696.697840
839.323569,0.000000,-444.123565,9474.636058
839.323885,76.609550,-148.041188,9622.677246
839.324201,459.657299,-148.041188,9918.759623
839.324516,383.047749,-370.102971,9474.636058
839.324832,459.657299,-0.000000,9326.594869
839.325148,0.000000,-0.000000,9252.574275
839.325464,306.438199,-0.000000,9326.594869
839.325779,306.438199,-0.000000,9400.615463
839.326095,229.828649,-0.000000,9548.656652
839.326411,153.219100,-74.020594,9474.636058
839.326727,306.438199,-74.020594,9400.615463
839.327042,306.438199,-148.041188,9474.636058
839.327358,229.828649,-148.041188,9548.656652
839.327674,536.266849,-0.000000,9548.656652
839.327990,0.000000,-0.000000,9548.656652
839.328306,229.828649,-148.041188,9474.636058
839.328621,306.438199,-0.000000,9400.615463
839.328937,383.047749,-0.000000,9400.615463
839.329253,459.657299,-0.000000,9326.594869
839.329569,536.266849,-0.000000,9326.594869
839.329884,459.657299,-0.000000,9400.615463
839.330200,459.657299,-0.000000,9400.615463
839.330516,459.657299,-0.000000,9474.636058
839.330832,612.876398,148.041188,9548.656652
839.331148,306.438199,-148.041188,9548.656652
839.331463,459.657299,-0.000000,9474.636058
839.331779,383.047749,-74.020594,9474.636058
839.332095,766.095498,-0.000000,9474.636058
839.332411,229.828649,-0.000000,9474.636058
839.332726,536.266849,-222.061783,9474.636058
839.333042,536.266849,-0.000000,9622.677246
839.333358,459.657299,-0.000000,9622.677246
839.333674,919.314598,-148.041188,9474.636058
839.333989,76.609550,-148.041188,9474.636058
839.334305,612.876398,-0.000000,9770.718434
839.334621,536.266849,-74.020594,9474.636058
839.334937,536.266849,-0.000000,9474.636058
839.335253,459.657299,-222.061783,9770.718434
839.335568,383.047749,-148.041188,9770.718434
839.335884,459.657299,-222.061783,9474.636058
839.336200,459.657299,-296.082377,9548.656652
839.336516,536.266849,-370.102971,9548.656652
839.336831,383.047749,-222.061783,9548.656652
839.337147,459.657299,-296.082377,9622.677246
839.337463,536.266849,-370.102971,9548.656652
839.337779,612.876398,-74.020594,9548.656652
839.338095,612.876398,-74.020594,9474.636058
839.338410,919.314598,-592.164754,9474.636058
839.338726,536.266849,-148.041188,9326.594869
839.339042,612.876398,-148.041188,9548.656652
839.339358,383.047749,-222.061783,9474.636058
839.339673,612.876398,-370.102971,9474.636058
839.339989,459.657299,-444.123565,9326.594869
839.340305,612.876398,-296.082377,9474.636058
839.340621,612.876398,-222.061783,9548.656652
839.340936,306.438199,-148.041188,9474.636058
839.341252,459.657299,-148.041188,9474.636058
839.341568,306.438199,-222.061783,9844.739029
839.341884,459.657299,-296.082377,9622.677246
839.342200,459.657299,-296.082377,9474.636058
839.342515,766.095498,-296.082377,9400.615463
839.342831,459.657299,-370.102971,9474.636058
839.343147,689.485948,-222.061783,9326.594869
839.343463,306.438199,-296.082377,9400.615463
839.343778,536.266849,-0.000000,9622.677246
839.344094,306.438199,-222.061783,9326.594869
839.344410,383.047749,-222.061783,9326.594869
839.344726,612.876398,-148.041188,9252.574275
839.345041,536.266849,-222.061783,9252.574275
839.345357,306.438199,-148.041188,9474.636058
839.345673,383.047749,-296.082377,9400.615463
839.345989,229.828649,-370.102971,9548.656652
839.346305,306.438199,-444.123565,9622.677246
839.346620,306.438199,-148.041188,9252.574275
839.346936,153.219100,-592.164754,9474.636058
839.347252,459.657299,-0.000000,9548.656652
839.347568,383.047749,-370.102971,9252.574275
839.347883,383.047749,-296.082377,9770.718434
839.348199,459.657299,-74.020594,9400.615463
839.348515,153.219100,-370.102971,9474.636058
839.348831,153.219100,-222.061783,9548.656652
839.349147,229.828649,-444.123565,9474.636058
839.349462,536.266849,-0.000000,9696.697840
839.349778,459.657299,-0.000000,9474.636058
839.350094,612.876398,-148.041188,9326.594869
839.350410,536.266849,-0.000000,9474.636058
839.350725,459.657299,-222.061783,9400.615463
839.351041,612.876398,-222.061783,9474.636058
839.351357,306.438199,-0.000000,9548.656652
839.351673,383.047749,-74.020594,9474.636058
839.351988,689.485948,-222.061783,9474.636058
839.352304,459.657299,-0.000000,9622.677246
839.352620,383.047749,-148.041188,9622.677246
839.352936,383.047749,-0.000000,9696.697840
839.353252,612.876398,-74.020594,9474.636058
839.353567,459.657299,-0.000000,9622.677246
839.353883,-229.828649,-0.000000,9400.615463
839.354199,229.828649,-148.041188,9622.677246
839.354515,536.266849,-0.000000,9548.656652
839.354830,612.876398,-0.000000,9622.677246
839.355146,383.047749,-0.000000,9400.615463
839.355462,459.657299,-74.020594,9400.615463
839.355778,536.266849,-0.000000,9474.636058
839.356093,1072.533697,-74.020594,9326.594869
839.356409,689.485948,-0.000000,9400.615463
839.356725,689.485948,-74.020594,9474.636058
839.357041,689.485948,-148.041188,9104.533087
839.357357,306.438199,-148.041188,9474.636058
839.357672,612.876398,-148.041188,9474.636058
839.357988,306.438199,-148.041188,9474.636058
839.358304,229.828649,-148.041188,9474.636058
839.358620,229.828649,-74.020594,9622.677246
839.358935,229.828649,-148.041188,9770.718434
839.359251,153.219100,-148.041188,9622.677246
839.359567,383.047749,-74.020594,9696.697840
839.359883,306.438199,-148.041188,9400.615463
839.360199,459.657299,-222.061783,9178.553681
839.360514,459.657299,-148.041188,9474.636058
839.360830,306.438199,-148.041188,9400.615463
839.361146,76.609550,-296.082377,9474.636058
839.361462,306.438199,-222.061783,9474.636058
839.361777,0.000000,-370.102971,9548.656652
839.362093,383.047749,-370.102971,9548.656652
839.362409,383.047749,-74.020594,9400.615463
839.362725,306.438199,-222.061783,9548.656652
839.363040,229.828649,-444.123565,9326.594869
839.363356,383.047749,-370.102971,9400.615463
839.363672,383.047749,-296.082377,9326.594869
839.363988,306.438199,-370.102971,9474.636058
839.364304,306.438199,-222.061783,9474.636058
839.364619,612.876398,-518.144159,9474.636058
839.364935,459.657299,-296.082377,9400.615463
839.365251,536.266849,-222.061783,9178.553681
839.365567,612.876398,-148.041188,9474.636058
839.365882,612.876398,-74.020594,9400.615463
839.366198,689.485948,-222.061783,9400.615463
839.366514,536.266849,-148.041188,9400.615463
839.366830,459.657299,-148.041188,9400.615463
839.367145,306.438199,-222.061783,9474.636058
839.367461,306.438199,-74.020594,9548.656652
839.367777,459.657299,-444.123565,9474.636058
839.368093,306.438199,-296.082377,9844.739029
839.368409,536.266849,-148.041188,9696.697840
839.368724,306.438199,-222.061783,9400.615463
839.369040,383.047749,-222.061783,9400.615463
839.369356,306.438199,-222.061783,9400.615463
839.369672,459.657299,-0.000000,9622.677246
839.369987,306.438199,-0.000000,9548.656652
839.370303,459.657299,-74.020594,9474.636058
839.370619,459.657299,-0.000000,9474.636058
839.370935,766.095498,-0.000000,9400.615463
839.371251,842.705048,-0.000000,9474.636058
839.371566,612.876398,-222.061783,9178.553681
839.371882,459.657299,-370.102971,9474.636058
839.372198,306.438199,-74.020594,9474.636058
839.372514,383.047749,-296.082377,9400.615463
839.372829,536.266849,-74.020594,9474.636058
839.373145,76.609550,-222.061783,9622.677246
839.373461,459.657299,-370.102971,9548.656652
839.373777,459.657299,-74.020594,9548.656652
839.374092,612.876398,-0.000000,9548.656652
839.374408,306.438199,-222.061783,9696.697840
839.374724,536.266849,-74.020594,9696.697840
839.375040,459.657299,-74.020594,9400.615463
839.375356,536.266849,-222.061783,9474.636058
839.375671,383.047749,-0.000000,9622.677246
839.375987,536.266849,-74.020594,9474.636058
839.376303,229.828649,-0.000000,9400.615463
839.376619,536.266849,-222.061783,9400.615463
839.376934,459.657299,-148.041188,9474.636058
839.377250,383.047749,-148.041188,9696.697840
839.377566,536.266849,-74.020594,9474.636058
839.377882,612.876398,-74.020594,9474.636058
839.378197,0.000000,-0.000000,9696.697840
839.378513,383.047749,-148.041188,9400.615463
839.378829,383.047749,-74.020594,9548.656652
839.379145,383.047749,-74.020594,9400.615463
839.379461,536.266849,-74.020594,9400.615463
839.379776,536.266849,-74.020594,9474.636058
839.380092,459.657299,-296.082377,9326.594869
839.380408,383.047749,-74.020594,9474.636058
839.380724,459.657299,-74.020594,9326.594869
839.381039,306.438199,-444.123565,9326.594869
839.381355,0.000000,-148.041188,9548.656652
839.381671,612.876398,-0.000000,9548.656652
839.381987,306.438199,-148.041188,9474.636058
839.382303,459.657299,-148.041188,9474.636058
839.382618,229.828649,-222.061783,9474.636058
839.382934,229.828649,-222.061783,9548.656652
839.383250,383.047749,-222.061783,9326.594869
839.383566,536.266849,-296.082377,9400.615463
839.383881,229.828649,-222.061783,9474.636058
839.384197,229.828649,-370.102971,9622.677246
839.384513,383.047749,-518.144159,9326.594869
839.384829,383.047749,-0.000000,9474.636058
839.385144,306.438199,-518.144159,9326.594869
839.385460,306.438199,-296.082377,9474.636058
839.385776,383.047749,-296.082377,9326.594869
839.386092,0.000000,-518.144159,9104.533087
839.386408,459.657299,-148.041188,9400.615463
839.386723,459.657299,-148.041188,9474.636058
839.387039,459.657299,-222.061783,9474.636058
839.387355,229.828649,-296.082377,9474.636058
839.387671,536.266849,-444.123565,9104.533087
839.387986,306.438199,-444.123565,9474.636058
839.388302,536.266849,-370.102971,9400.615463
839.388618,689.485948,-0.000000,9548.656652
839.388934,459.657299,-222.061783,9474.636058
839.389249,612.876398,-370.102971,9474.636058
839.389565,536.266849,-444.123565,9622.677246
839.389881,689.485948,-296.082377,9548.656652
839.390197,689.485948,-370.102971,9548.656652
839.390513,153.219100,-0.000000,9622.677246
839.390828,536.266849,-518.144159,9548.656652
839.391144,612.876398,-74.020594,9474.636058
839.391460,919.314598,-148.041188,9178.553681
839.391776,766.095498,-222.061783,9326.594869
839.392091,536.266849,-148.041188,9400.615463
839.392407,689.485948,-74.020594,9400.615463
839.392723,229.828649,-74.020594,9474.636058
839.393039,306.438199,-370.102971,9474.636058
839.393355,383.047749,-148.041188,9548.656652
839.393670,153.219100,-222.061783,9548.656652
839.393986,76.609550,-666.185348,9770.718434
839.394302,76.609550,-518.144159,9474.636058
839.394618,306.438199,-444.123565,9696.697840
839.394933,306.438199,-222.061783,9474.636058
839.395249,383.047749,-0.000000,9474.636058
839.395565,153.219100,-296.082377,9474.636058
839.395881,306.438199,-0.000000,9548.656652
839.396196,306.438199,-74.020594,9474.636058
839.396512,306.438199,-0.000000,9252.574275
839.396828,306.438199,-0.000000,9474.636058
839.397144,229.828649,-666.185348,9622.677246
839.397460,153.219100,-148.041188,9474.636058
839.397775,0.000000,-296.082377,9622.677246
839.398091,76.609550,-148.041188,9474.636058
839.398407,153.219100,-0.000000,9474.636058
839.398723,153.219100,-148.041188,9696.697840
839.399038,306.438199,-74.020594,9400.615463
839.399354,76.609550,-0.000000,9474.636058
839.399670,306.438199,-74.020594,9400.615463
839.399986,383.047749,-0.000000,9474.636058
839.400301,459.657299,-148.041188,9474.636058
839.400617,153.219100,-74.020594,9622.677246
839.400933,383.047749,-0.000000,9400.615463
839.401249,383.047749,-74.020594,9474.636058
839.401565,306.438199,-74.020594,9400.615463
839.401880,536.266849,-148.041188,9844.739029
839.402196,383.047749,-0.000000,9548.656652
839.402512,229.828649,-0.000000,9548.656652
839.402828,229.828649,-148.041188,9400.615463
839.403143,306.438199,-148.041188,9548.656652
839.403459,689.485948,-74.020594,9400.615463
839.403775,766.095498,-74.020594,9474.636058
839.404091,766.095498,-148.041188,9400.615463
839.404407,536.266849,-0.000000,9474.636058
839.404722,383.047749,-0.000000,9474.636058
839.405038,383.047749,-0.000000,9696.697840
839.405354,612.876398,-0.000000,9548.656652
839.405670,383.047749,-0.000000,9622.677246
839.405985,459.657299,370.102971,9474.636058
839.406301,459.657299,-148.041188,9548.656652
839.406617,536.266849,-74.020594,9770.718434
839.406933,612.876398,-296.082377,9548.656652
839.407248,459.657299,-222.061783,9474.636058
839.407564,229.828649,-148.041188,9622.677246
839.407880,459.657299,-296.082377,9326.594869
839.408196,766.095498,-148.041188,9548.656652
839.408512,229.828649,-148.041188,9474.636058
839.408827,612.876398,-148.041188,9548.656652
839.409143,612.876398,-222.061783,9400.615463
839.409459,153.219100,-296.082377,9474.636058
839.409775,766.095498,-592.164754,9548.656652
839.410090,306.438199,-296.082377,9622.677246
839.410406,536.266849,-222.061783,9474.636058
839.410722,536.266849,-370.102971,9474.636058
839.411038,536.266849,-74.020594,9622.677246
839.411353,383.047749,-222.061783,9400.615463
839.411669,459.657299,-222.061783,9548.656652
839.411985,306.438199,-74.020594,9474.636058
839.412301,383.047749,-222.061783,9474.636058
839.412617,612.876398,-370.102971,9326.594869
839.412932,0.000000,-592.164754,9400.615463
839.413248,229.828649,-296.082377,9474.636058
839.413564,612.876398,-296.082377,9474.636058
839.413880,459.657299,-370.102971,9548.656652
839.414197,689.485948,-296.082377,9030.512492
839.414513,383.047749,-222.061783,9474.636058
839.414829,536.266849,-222.061783,9474.636058
839.415144,383.047749,-370.102971,9252.574275
839.415460,459.657299,-148.041188,9326.594869
839.415776,306.438199,-296.082377,9400.615463
839.416092,306.438199,-370.102971,9474.636058
839.416407,153.219100,-222.061783,9696.697840
839.416723,229.828649,-0.000000,9474.636058
839.417039,459.657299,-222.061783,9252.574275
839.417354,153.219100,-592.164754,9252.574275
839.417670,229.828649,-296.082377,9474.636058
839.417986,306.438199,-296.082377,9400.615463
839.418301,536.266849,-148.041188,9474.636058
839.418617,229.828649,-74.020594,9326.594869
839.418933,383.047749,-148.041188,9474.636058
839.419249,459.657299,-296.082377,9400.615463
839.419564,229.828649,-370.102971,9696.697840
839.419880,383.047749,-148.041188,9474.636058
839.420196,306.438199,-74.020594,9474.636058
839.420511,306.438199,-296.082377,9844.739029
839.420827,383.047749,-74.020594,9474.636058
839.421143,383.047749,-148.041188,9474.636058
839.421459,383.047749,-148.041188,9474.636058
839.421774,383.047749,-148.041188,9400.615463
839.422090,842.705048,-0.000000,9696.697840
839.422406,689.485948,-148.041188,9474.636058
839.422721,383.047749,-222.061783,9474.636058
839.423037,536.266849,-74.020594,9474.636058
839.423353,612.876398,-0.000000,9474.636058
839.423669,229.828649,-74.020594,9252.574275
839.423984,459.657299,-0.000000,9622.677246
839.424300,306.438199,-0.000000,9622.677246
839.424616,383.047749,-0.000000,9696.697840
839.424931,536.266849,-0.000000,9770.718434
839.425247,536.266849,-0.000000,9474.636058
839.425563,306.438199,-0.000000,9696.697840
839.425879,536.266849,-0.000000,9326.594869
839.426194,689.485948,-0.000000,9474.636058
839.426510,459.657299,-0.000000,9400.615463
839.426826,689.485948,-0.000000,9400.615463
839.427141,306.438199,-148.041188,9400.615463
839.427457,536.266849,-0.000000,9474.636058
839.427773,612.876398,-0.000000,9474.636058
839.428088,766.095498,-370.102971,9474.636058
839.428404,1225.752797,-148.041188,9474.636058
839.428720,229.828649,-296.082377,9696.697840
839.429036,536.266849,-148.041188,9474.636058
839.429351,306.438199,-148.041188,9474.636058
839.429667,459.657299,-222.061783,9548.656652
839.429983,536.266849,-370.102971,9548.656652
839.430298,306.438199,-296.082377,9474.636058
839.430614,459.657299,-148.041188,9474.636058
839.430930,306.438199,-222.061783,9474.636058
839.431246,383.047749,-444.123565,9474.636058
839.431561,842.705048,-444.123565,9252.574275
839.431877,306.438199,-296.082377,9400.615463
839.432193,536.266849,-74.020594,9400.615463
839.432508,306.438199,-370.102971,9400.615463
839.432824,766.095498,-518.144159,9104.533087
839.433140,383.047749,-74.020594,9474.636058
839.433456,612.876398,-444.123565,9400.615463
839.433771,459.657299,-296.082377,9326.594869
839.434087,536.266849,-370.102971,9474.636058
839.434403,689.485948,-296.082377,9252.574275
839.434718,306.438199,-444.123565,9474.636058
839.435034,383.047749,-148.041188,9400.615463
839.435350,459.657299,-222.061783,9400.615463
839.435665,536.266849,-148.041188,9400.615463
839.435981,536.266849,-148.041188,9474.636058
839.436297,383.047749,-222.061783,9326.594869
839.436613,536.266849,-222.061783,9326.594869
839.436928,0.000000,-222.061783,9474.636058
839.437244,306.438199,-222.061783,9548.656652
839.437560,536.266849,148.041188,10066.800811
839.437875,459.657299,-0.000000,9326.594869
839.438191,459.657299,-518.144159,9548.656652
839.438507,229.828649,-296.082377,9474.636058
839.438823,536.266849,-0.000000,9548.656652
839.439138,229.828649,-370.102971,9326.594869
839.439454,383.047749,-222.061783,9400.615463
839.439770,612.876398,-148.041188,9474.636058
839.440085,459.657299,-148.041188,9474.636058
839.440401,459.657299,-222.061783,9400.615463
839.440717,383.047749,-518.144159,9326.594869
839.441033,536.266849,-74.020594,9474.636058
839.441348,306.438199,-74.020594,9252.574275
839.441664,383.047749,-74.020594,9474.636058
839.441980,536.266849,-0.000000,9548.656652
839.442295,536.266849,-148.041188,9474.636058
839.442611,459.657299,-74.020594,9548.656652
839.442927,459.657299,-0.000000,9474.636058
839.443243,536.266849,-222.061783,9474.636058
839.443558,459.657299,-296.082377,9252.574275
839.443874,536.266849,-148.041188,9548.656652
839.444190,612.876398,-74.020594,9548.656652
839.444505,229.828649,-148.041188,9548.656652
839.444821,536.266849,-370.102971,9474.636058
839.445137,459.657299,-666.185348,9548.656652
839.445452,306.438199,-74.020594,9474.636058
839.445768,459.657299,-0.000000,9474.636058
839.446084,536.266849,-148.041188,9622.677246
839.446400,612.876398,-0.000000,9474.636058
839.446715,459.657299,-0.000000,9474.636058
839.447031,459.657299,-444.123565,9474.636058
839.447347,459.657299,-222.061783,9696.697840
839.447662,459.657299,-148.041188,9474.636058
839.447978,612.876398,-148.041188,9474.636058
839.448294,153.219100,-74.020594,9474.636058
839.448610,536.266849,-0.000000,9474.636058
839.448925,383.047749,-0.000000,9548.656652
839.449241,306.438199,-148.041188,9474.636058
839.449557,689.485948,-74.020594,9622.677246
839.449872,459.657299,-0.000000,9474.636058
839.450188,459.657299,-74.020594,9474.636058
839.450504,536.266849,-148.041188,9474.636058
839.450820,459.657299,-0.000000,9474.636058
839.451135,306.438199,-74.020594,9474.636058
839.451451,383.047749,-222.061783,9474.636058
839.451767,229.828649,-296.082377,9326.594869
839.452082,383.047749,-74.020594,9622.677246
839.452398,229.828649,-222.061783,9400.615463
839.452714,383.047749,-0.000000,9326.594869
839.453029,383.047749,-74.020594,9400.615463
839.453345,536.266849,-148.041188,9400.615463
839.453661,536.266849,-74.020594,9474.636058
839.453977,0.000000,-0.000000,9548.656652
839.454292,383.047749,-74.020594,9474.636058
839.454608,459.657299,-296.082377,9474.636058
839.454924,229.828649,-370.102971,9474.636058
839.455239,383.047749,-74.020594,9400.615463
839.455555,383.047749,-370.102971,9400.615463
839.455871,459.657299,-444.123565,9474.636058
839.456187,383.047749,-148.041188,9474.636058
839.456502,383.047749,-444.123565,9326.594869
839.456818,153.219100,-296.082377,9474.636058
839.457134,229.828649,-74.020594,9622.677246
839.457449,229.828649,-296.082377,9548.656652
839.457765,229.828649,-222.061783,9474.636058
839.458081,536.266849,-0.000000,9474.636058
839.458397,536.266849,-222.061783,9474.636058
839.458712,766.095498,-296.082377,9622.677246
839.459028,536.266849,-148.041188,9622.677246
839.459344,306.438199,-222.061783,9252.574275
839.459659,306.438199,-444.123565,9548.656652
839.459975,536.266849,-148.041188,9474.636058
839.460291,459.657299,-222.061783,9770.718434
839.460607,536.266849,-370.102971,9696.697840
839.460922,536.266849,-518.144159,9622.677246
839.461238,536.266849,-222.061783,9548.656652
839.461554,76.609550,-222.061783,9252.574275
839.461869,536.266849,-370.102971,9400.615463
839.462185,766.095498,-0.000000,9400.615463
839.462501,842.705048,-222.061783,9400.615463
839.462816,612.876398,-74.020594,9400.615463
839.463132,919.314598,-148.041188,9474.636058
839.463448,306.438199,-74.020594,9400.615463
839.463764,76.609550,-296.082377,9400.615463
839.464079,229.828649,-370.102971,9474.636058
839.464395,229.828649,-296.082377,9474.636058
839.464711,-383.047749,-518.144159,9548.656652
839.465026,0.000000,-296.082377,9696.697840
839.465342,0.000000,-370.102971,9622.677246
839.465658,153.219100,-518.144159,9548.656652
839.465974,76.609550,-148.041188,9474.636058
839.466289,76.609550,-148.041188,9548.656652
839.466605,76.609550,-370.102971,9474.636058
839.466921,76.609550,-148.041188,9548.656652
839.467236,306.438199,-148.041188,9326.594869
839.467552,153.219100,-0.000000,9474.636058
839.467868,306.438199,-74.020594,9622.677246
839.468184,229.828649,-74.020594,9474.636058
839.468499,459.657299,-0.000000,9326.594869
839.468815,383.047749,-222.061783,9326.594869
839.469131,383.047749,-148.041188,9326.594869
839.469446,536.266849,-296.082377,9326.594869
839.469762,383.047749,-0.000000,9474.636058
839.470078,612.876398,-0.000000,9326.594869
839.470393,383.047749,148.041188,9474.636058
839.470709,383.047749,-0.000000,9696.697840
839.471025,459.657299,-296.082377,9326.594869
839.471341,153.219100,-222.061783,9474.636058
839.471656,459.657299,-0.000000,9474.636058
839.471972,306.438199,-148.041188,9474.636058
839.472288,306.438199,-0.000000,9400.615463
839.472603,306.438199,-74.020594,9474.636058
839.472919,536.266849,-0.000000,9474.636058
839.473235,383.047749,-0.000000,9474.636058
839.473551,229.828649,-0.000000,9474.636058
839.473866,612.876398,-0.000000,9622.677246
839.474182,612.876398,-74.020594,9474.636058
839.474498,612.876398,-0.000000,9326.594869
839.474813,612.876398,-0.000000,9474.636058
839.475129,536.266849,-0.000000,9400.615463
839.475445,842.705048,-222.061783,9326.594869
839.475761,536.266849,-148.041188,9474.636058
839.476076,612.876398,148.041188,9770.718434
839.476392,689.485948,-0.000000,9474.636058
839.476708,306.438199,-148.041188,9474.636058
839.477023,383.047749,-296.082377,9548.656652
839.477339,306.438199,-148.041188,9548.656652
839.477655,306.438199,-296.082377,9474.636058
839.477971,153.219100,-296.082377,9696.697840
839.478286,229.828649,-222.061783,9696.697840
839.478602,383.047749,-222.061783,9770.718434
839.478918,536.266849,-0.000000,9548.656652
839.479233,229.828649,-518.144159,9696.697840
839.479549,536.266849,-0.000000,9696.697840
839.479865,536.266849,-148.041188,9400.615463
839.480180,1072.533697,-370.102971,9326.594869
839.480496,536.266849,-222.061783,9400.615463
839.480812,766.095498,-370.102971,9474.636058
839.481128,612.876398,-296.082377,9400.615463
839.481443,459.657299,-74.020594,9474.636058
839.481759,612.876398,-222.061783,9622.677246
839.482075,76.609550,-444.123565,9622.677246
839.482390,306.438199,-0.000000,9474.636058
839.482706,612.876398,-148.041188,9400.615463
839.483022,306.438199,-370.102971,9326.594869
839.483338,383.047749,-370.102971,9548.656652
839.483653,306.438199,-148.041188,9400.615463
839.483969,536.266849,-444.123565,9474.636058
839.484285,153.219100,-370.102971,9400.615463
839.484600,536.266849,-370.102971,9326.594869
839.484916,766.095498,-592.164754,9474.636058
839.485232,306.438199,-370.102971,9474.636058
839.485548,459.657299,-222.061783,9474.636058
839.485863,536.266849,-222.061783,9474.636058
839.486179,536.266849,-222.061783,9474.636058
839.486495,383.047749,-296.082377,9252.574275
839.486810,306.438199,-222.061783,9474.636058
839.487126,536.266849,-148.041188,9400.615463
839.487442,612.876398,-74.020594,9326.594869
839.487757,842.705048,-666.185348,9178.553681
839.488073,306.438199,-444.123565,9326.594869
839.488389,689.485948,-296.082377,9474.636058
839.488705,229.828649,-370.102971,9474.636058
839.489020,459.657299,-296.082377,9400.615463
839.489336,229.828649,-296.082377,9696.697840
839.489652,229.828649,-296.082377,9474.636058
839.489967,306.438199,-296.082377,9474.636058
839.490283,306.438199,-296.082377,9400.615463
839.490599,383.047749,-296.082377,9548.656652
839.490915,306.438199,-74.020594,9400.615463
839.491230,536.266849,-0.000000,9400.615463
839.491546,229.828649,-222.061783,9474.636058
839.491862,229.828649,-0.000000,9548.656652
839.492177,383.047749,-0.000000,9548.656652
839.492493,229.828649,-296.082377,9696.697840
839.492809,536.266849,-74.020594,9548.656652
839.493125,383.047749,-0.000000,9474.636058
839.493440,459.657299,148.041188,9474.636058
839.493756,459.657299,-74.020594,9474.636058
839.494072,306.438199,148.041188,9992.780217
839.494387,229.828649,-296.082377,9548.656652
839.494703,383.047749,-74.020594,9548.656652
839.495019,153.219100,-0.000000,9474.636058
839.495335,383.047749,-222.061783,9696.697840
839.495650,459.657299,-148.041188,9548.656652
839.495966,536.266849,-0.000000,9474.636058
839.496282,306.438199,-0.000000,9622.677246
839.496597,383.047749,-74.020594,9622.677246
839.496913,995.924147,-148.041188,9400.615463
839.497229,766.095498,-0.000000,9474.636058
839.497544,842.705048,-74.020594,9400.615463
839.497860,689.485948,-0.000000,9548.656652
839.498176,612.876398,-0.000000,9474.636058
839.498492,536.266849,-148.041188,9474.636058
839.498807,536.266849,-74.020594,9474.636058
839.499123,383.047749,-370.102971,9400.615463
839.499439,229.828649,-296.082377,9474.636058
839.499754,306.438199,-296.082377,9770.718434
839.500070,536.266849,-148.041188,9622.677246
839.500386,383.047749,-222.061783,9474.636058
839.500702,536.266849,-222.061783,9400.615463
839.501017,0.000000,-0.000000,9622.677246
839.501333,842.705048,-370.102971,9770.718434
839.501649,229.828649,-444.123565,9474.636058
839.501964,383.047749,-0.000000,9474.636058
839.502280,459.657299,-222.061783,9474.636058
839.502596,612.876398,-296.082377,9474.636058
839.502912,612.876398,-222.061783,9474.636058
839.503227,229.828649,-370.102971,9400.615463
839.503543,459.657299,-370.102971,9474.636058
839.503859,383.047749,-444.123565,9400.615463
839.504174,536.266849,-296.082377,9400.615463
839.504490,-229.828649,-370.102971,9696.697840
839.504806,383.047749,-148.041188,9474.636058
839.505121,76.609550,-518.144159,9474.636058
839.505437,306.438199,-444.123565,9400.615463
839.505753,229.828649,-444.123565,9252.574275
839.506069,536.266849,-222.061783,9400.615463
839.506384,306.438199,-296.082377,9474.636058
839.506700,153.219100,-222.061783,9400.615463
839.507016,306.438199,-222.061783,9326.594869
839.507331,459.657299,-0.000000,9400.615463
839.507647,306.438199,-296.082377,9474.636058
839.507963,229.828649,-370.102971,9696.697840
839.508279,306.438199,-222.061783,9474.636058
839.508594,383.047749,-370.102971,9474.636058
839.508910,306.438199,-222.061783,9400.615463
839.509226,153.219100,-740.205942,9474.636058
839.509541,383.047749,-222.061783,9474.636058
839.509857,229.828649,-222.061783,9622.677246
839.510173,459.657299,-296.082377,9474.636058
839.510489,842.705048,-444.123565,9400.615463
839.510804,153.219100,-148.041188,9696.697840
839.511120,919.314598,-0.000000,9474.636058
839.511436,459.657299,-444.123565,9474.636058
839.511751,536.266849,-222.061783,9326.594869
839.512067,383.047749,-222.061783,9474.636058
839.512383,306.438199,-444.123565,9474.636058
839.512699,306.438199,-296.082377,9548.656652
839.513014,459.657299,-74.020594,9548.656652
839.513330,459.657299,-74.020594,9622.677246
839.513646,383.047749,-148.041188,9696.697840
839.513961,229.828649,-296.082377,9696.697840
839.514277,153.219100,-74.020594,9696.697840
839.514593,383.047749,-0.000000,9622.677246
839.514908,306.438199,-0.000000,9622.677246
839.515224,383.047749,-222.061783,9474.636058
839.515540,536.266849,-370.102971,9548.656652
839.515856,459.657299,-148.041188,9548.656652
839.516171,306.438199,-74.020594,9400.615463
839.516487,459.657299,-74.020594,9326.594869
839.516803,536.266849,-0.000000,9548.656652
839.517118,689.485948,-222.061783,9474.636058
839.517434,612.876398,-0.000000,9622.677246
839.517750,383.047749,222.061783,9548.656652
839.518066,459.657299,-0.000000,9548.656652
839.518381,383.047749,-74.020594,9474.636058
839.518697,536.266849,-74.020594,9770.718434
839.519013,76.609550,-0.000000,9474.636058
839.519328,536.266849,-148.041188,9400.615463
839.519644,459.657299,-296.082377,9474.636058
839.519960,383.047749,-222.061783,9548.656652
839.520276,459.657299,222.061783,9770.718434
839.520591,306.438199,-296.082377,9474.636058
839.520907,383.047749,-222.061783,9326.594869
839.521223,229.828649,-148.041188,9474.636058
839.521538,536.266849,-222.061783,9474.636058
839.521854,383.047749,-296.082377,9400.615463
839.522170,459.657299,-148.041188,9326.594869
839.522486,306.438199,-296.082377,9548.656652
839.522801,383.047749,-0.000000,9252.574275
839.523117,536.266849,-148.041188,9548.656652
839.523433,689.485948,-0.000000,9474.636058
839.523748,383.047749,-74.020594,9474.636058
839.524064,612.876398,-0.000000,9326.594869
839.524380,306.438199,-0.000000,9474.636058
839.524696,842.705048,-296.082377,9252.574275
839.525011,459.657299,-296.082377,9178.553681
839.525327,306.438199,-444.123565,9326.594869
839.525643,383.047749,-370.102971,9474.636058
839.525958,229.828649,-370.102971,9474.636058
839.526274,459.657299,-370.102971,9326.594869
839.526590,229.828649,-444.123565,9474.636058
839.526906,0.000000,-148.041188,9548.656652
839.527221,459.657299,-148.041188,9474.636058
839.527537,383.047749,-148.041188,9548.656652
839.527853,842.705048,-74.020594,9844.739029
839.528168,459.657299,-296.082377,9474.636058
839.528484,306.438199,-296.082377,9474.636058
839.528800,459.657299,-222.061783,9474.636058
839.529116,689.485948,-222.061783,9400.615463
839.529431,383.047749,-444.123565,9474.636058
839.529747,689.485948,-222.061783,9326.594869
839.530063,612.876398,-222.061783,9474.636058
839.530378,612.876398,-222.061783,9622.677246
839.530694,383.047749,-222.061783,9474.636058
839.531010,766.095498,-148.041188,9474.636058
839.531325,689.485948,-296.082377,9696.697840
839.531641,766.095498,-0.000000,9474.636058
839.531957,612.876398,-148.041188,9474.636058
839.532273,459.657299,-222.061783,9400.615463
839.532588,383.047749,-148.041188,9548.656652
839.532904,612.876398,-74.020594,9474.636058
839.533220,689.485948,-148.041188,9252.574275
839.533535,383.047749,-222.061783,9474.636058
839.533851,229.828649,-222.061783,9548.656652
839.534167,919.314598,-222.061783,9770.718434
839.534483,306.438199,-74.020594,9770.718434
839.534798,383.047749,-370.102971,9400.615463
839.535114,229.828649,-370.102971,9622.677246
839.535430,153.219100,-296.082377,9474.636058
839.535745,306.438199,-296.082377,9178.553681
839.536061,153.219100,-0.000000,9622.677246
839.536377,612.876398,-0.000000,9400.615463
839.536693,383.047749,-0.000000,9474.636058
839.537008,383.047749,-222.061783,9326.594869
839.537324,383.047749,-222.061783,9548.656652
839.537640,383.047749,-148.041188,9474.636058
839.537955,459.657299,-0.000000,9326.594869
839.538271,459.657299,-0.000000,9326.594869
839.538587,76.609550,-148.041188,9178.553681
839.538903,383.047749,-0.000000,9548.656652
839.539218,153.219100,-296.082377,9474.636058
839.539534,229.828649,-0.000000,9474.636058
839.539850,306.438199,-148.041188,9400.615463
839.540165,229.828649,-0.000000,9548.656652
839.540481,229.828649,-222.061783,9696.697840
839.540797,153.219100,-0.000000,9548.656652
839.541113,383.047749,-74.020594,9400.615463
839.541428,306.438199,-0.000000,9474.636058
839.541744,229.828649,-370.102971,9474.636058
839.542060,-306.438199,-148.041188,9474.636058
839.542375,612.876398,-0.000000,9474.636058
839.542691,459.657299,-222.061783,9252.574275
839.543007,306.438199,-0.000000,9474.636058
839.543323,229.828649,-0.000000,9474.636058
839.543638,383.047749,-0.000000,9622.677246
839.543954,383.047749,-0.000000,9622.677246
839.544270,383.047749,-148.041188,9400.615463
839.544585,383.047749,-74.020594,9474.636058
839.544901,153.219100,-222.061783,9474.636058
839.545217,612.876398,-74.020594,9400.615463
839.545533,153.219100,-148.041188,9696.697840
839.545848,306.438199,-148.041188,9474.636058
839.546164,536.266849,-148.041188,9400.615463
839.546480,612.876398,222.061783,9622.677246
839.546795,459.657299,-148.041188,9400.615463
839.547111,536.266849,-148.041188,9548.656652
839.547427,536.266849,-222.061783,9474.636058
839.547743,306.438199,-74.020594,9548.656652
839.548058,383.047749,-444.123565,9474.636058
839.548374,383.047749,-370.102971,9622.677246
839.548690,229.828649,-148.041188,9622.677246
839.549005,306.438199,-222.061783,9548.656652
839.549321,306.438199,-296.082377,9474.636058
839.549637,612.876398,-222.061783,9696.697840
839.549952,689.485948,-148.041188,9474.636058
839.550268,612.876398,-148.041188,9548.656652
839.550584,536.266849,-222.061783,9474.636058
839.550900,459.657299,-0.000000,9696.697840
839.551215,383.047749,-74.020594,9696.697840
839.551531,842.705048,-74.020594,9326.594869
839.551847,842.705048,-222.061783,9326.594869
839.552162,459.657299,-222.061783,9474.636058
839.552478,383.047749,-0.000000,9548.656652
839.552794,459.657299,-148.041188,9400.615463
839.553110,306.438199,-296.082377,9474.636058
839.553425,612.876398,-148.041188,9474.636058
839.553741,383.047749,-222.061783,9474.636058
839.554057,459.657299,-0.000000,9474.636058
839.554372,229.828649,-370.102971,9400.615463
839.554688,306.438199,-148.041188,9622.677246
839.555004,612.876398,-148.041188,9474.636058
839.555320,383.047749,-148.041188,9400.615463
839.555635,536.266849,-148.041188,9622.677246
839.555951,459.657299,-0.000000,9696.697840
839.556267,459.657299,-296.082377,9474.636058
839.556582,612.876398,-222.061783,9474.636058
839.556898,229.828649,-0.000000,9474.636058
839.557214,459.657299,-222.061783,9474.636058
839.557530,306.438199,-74.020594,9622.677246
839.557845,536.266849,-74.020594,9474.636058
839.558161,536.266849,-148.041188,9474.636058
839.558477,229.828649,-0.000000,9474.636058
839.558792,383.047749,-74.020594,9474.636058
839.559108,459.657299,-296.082377,9326.594869
839.559424,306.438199,-0.000000,9474.636058
839.559740,153.219100,-222.061783,9474.636058
839.560055,0.000000,-222.061783,9400.615463
839.560371,0.000000,-74.020594,9622.677246
839.560687,383.047749,-148.041188,9474.636058
839.561002,536.266849,-296.082377,9696.697840
839.561318,306.438199,-148.041188,9474.636058
839.561634,383.047749,-296.082377,9696.697840
839.561950,306.438199,-148.041188,9474.636058
839.562265,229.828649,-148.041188,9474.636058
839.562581,459.657299,-74.020594,9474.636058
839.562897,536.266849,-74.020594,9474.636058
839.563212,689.485948,-74.020594,9548.656652
839.563528,383.047749,-74.020594,9474.636058
839.563844,459.657299,-148.041188,9622.677246
839.564160,459.657299,-74.020594,9400.615463
839.564475,612.876398,-0.000000,9326.594869
839.564791,306.438199,-148.041188,9474.636058
839.565107,459.657299,-0.000000,9622.677246
839.565422,306.438199,-222.061783,9326.594869
839.565738,459.657299,-74.020594,9474.636058
839.566054,383.047749,-592.164754,9474.636058
839.566369,306.438199,-148.041188,9548.656652
839.566685,459.657299,-0.000000,9474.636058
839.567001,459.657299,-0.000000,9474.636058
839.567317,383.047749,-0.000000,9696.697840
839.567632,612.876398,74.020594,9696.697840
839.567948,842.705048,-0.000000,9474.636058
839.568264,383.047749,-0.000000,9474.636058
839.568579,612.876398,-0.000000,9474.636058
839.568895,536.266849,-74.020594,9474.636058
839.569211,383.047749,-0.000000,9844.739029
839.569527,536.266849,-74.020594,9400.615463
839.569842,383.047749,-74.020594,9474.636058
839.570158,612.876398,-148.041188,9474.636058
839.570474,459.657299,-296.082377,9400.615463
839.570789,153.219100,-222.061783,9696.697840
839.571105,459.657299,-148.041188,9696.697840
839.571421,383.047749,-518.144159,9474.636058
839.571737,306.438199,-296.082377,9622.677246
839.572052,306.438199,-74.020594,9400.615463
839.572368,459.657299,-296.082377,9400.615463
839.572684,383.047749,-148.041188,9548.656652
839.572999,459.657299,-74.020594,9400.615463
839.573315,536.266849,-148.041188,9326.594869
839.573631,383.047749,-222.061783,9400.615463
839.573947,612.876398,-222.061783,9326.594869
839.574262,383.047749,-518.144159,8956.491898
839.574578,153.219100,-444.123565,9400.615463
839.574894,306.438199,-222.061783,9326.594869
839.575209,306.438199,-296.082377,9548.656652
839.575525,842.705048,-444.123565,9474.636058
839.575841,306.438199,-74.020594,9548.656652
839.576157,229.828649,-222.061783,9474.636058
839.576472,383.047749,-370.102971,9326.594869
839.576788,536.266849,-148.041188,9326.594869
839.577104,689.485948,-296.082377,9474.636058
839.577419,536.266849,-222.061783,9252.574275
839.577735,383.047749,-296.082377,9400.615463
839.578051,306.438199,-222.061783,9252.574275
839.578367,306.438199,-222.061783,9474.636058
839.578682,1072.533697,-592.164754,9474.636058
839.578998,306.438199,-148.041188,9400.615463
839.579314,383.047749,-148.041188,9622.677246
839.579629,536.266849,-222.061783,9548.656652
839.579945,-229.828649,-296.082377,9474.636058
839.580261,153.219100,-148.041188,9622.677246
839.580577,536.266849,-148.041188,9548.656652
839.580892,612.876398,-222.061783,9474.636058
839.581208,459.657299,-296.082377,9474.636058
839.581524,306.438199,-222.061783,9474.636058
839.581839,153.219100,-222.061783,9696.697840
839.582155,459.657299,-222.061783,9474.636058
839.582471,383.047749,-0.000000,9548.656652
839.582787,306.438199,-148.041188,9548.656652
839.583102,459.657299,-0.000000,9474.636058
839.583418,919.314598,-444.123565,9400.615463
839.583734,153.219100,-222.061783,9400.615463
839.584049,459.657299,-148.041188,9622.677246
839.584365,459.657299,-222.061783,9400.615463
839.584681,306.438199,-222.061783,9474.636058
839.584996,1072.533697,-740.205942,9622.677246
839.585312,536.266849,-74.020594,9548.656652
839.585628,459.657299,-222.061783,9622.677246
839.585944,459.657299,-296.082377,9474.636058
839.586259,383.047749,-0.000000,9622.677246
839.586575,612.876398,-0.000000,9622.677246
839.586891,612.876398,-0.000000,9474.636058
839.587206,459.657299,-148.041188,9474.636058
839.587522,536.266849,-0.000000,9548.656652
839.587838,536.266849,-74.020594,9400.615463
839.588154,842.705048,-0.000000,9992.780217
839.588469,612.876398,-0.000000,9548.656652
839.588785,536.266849,-0.000000,9474.636058
839.589101,459.657299,-0.000000,9474.636058
839.589416,383.047749,-0.000000,9548.656652
839.589732,306.438199,-148.041188,9252.574275
839.590048,306.438199,-74.020594,9474.636058
839.590364,536.266849,-148.041188,9326.594869
839.590679,383.047749,-74.020594,9622.677246
839.590995,459.657299,-444.123565,9622.677246
839.591311,536.266849,-296.082377,9474.636058
839.591626,383.047749,-74.020594,9622.677246
839.591942,612.876398,-148.041188,9400.615463
839.592258,612.876398,-0.000000,9400.615463
839.592574,459.657299,-0.000000,9770.718434
839.592889,229.828649,-148.041188,9622.677246
839.593205,459.657299,-74.020594,9400.615463
839.593521,612.876398,-148.041188,9548.656652
839.593836,459.657299,-296.082377,9400.615463
839.594152,919.314598,-148.041188,9474.636058
839.594468,229.828649,-222.061783,9474.636058
839.594784,383.047749,-444.123565,9400.615463
839.595099,459.657299,-222.061783,9474.636058
839.595415,383.047749,-0.000000,9474.636058
839.595731,76.609550,-370.102971,9104.533087
839.596046,306.438199,-296.082377,9622.677246
839.596362,459.657299,-0.000000,9474.636058
839.596678,229.828649,-222.061783,9548.656652
839.596994,306.438199,-296.082377,9548.656652
839.597309,0.000000,-666.185348,9548.656652
839.597625,383.047749,-370.102971,9548.656652
839.597941,612.876398,-148.041188,9474.636058
839.598256,459.657299,-222.061783,9548.656652
839.598572,536.266849,-296.082377,9474.636058
839.598888,689.485948,-370.102971,9474.636058
839.599204,536.266849,-370.102971,9548.656652
839.599519,689.485948,-148.041188,9326.594869
839.599835,689.485948,-0.000000,9400.615463
839.600151,536.266849,-0.000000,9548.656652
839.600466,766.095498,-518.144159,9622.677246
839.600782,612.876398,-222.061783,9474.636058
839.601098,306.438199,-222.061783,9474.636058
839.601413,689.485948,-370.102971,9474.636058
839.601729,536.266849,-222.061783,9696.697840
839.602045,612.876398,-296.082377,9474.636058
839.602361,612.876398,-444.123565,9548.656652
