#time,accel_x,accel_y,accel_z
781.487443,612.876398,-0.000000,9474.636058
781.487758,842.705048,-592.164754,9252.574275
781.488074,229.828649,-296.082377,9622.677246
781.488389,383.047749,-148.041188,9326.594869
781.488705,306.438199,-148.041188,9400.615463
781.489020,459.657299,-296.082377,9474.636058
781.489336,383.047749,-148.041188,9474.636058
781.489651,306.438199,-74.020594,9474.636058
781.489967,536.266849,-148.041188,9548.656652
781.490282,536.266849,-0.000000,9474.636058
781.490598,689.485948,-0.000000,9326.594869
781.490914,229.828649,-0.000000,9548.656652
781.491229,0.000000,-222.061783,9548.656652
781.491545,153.219100,-74.020594,9696.697840
781.491860,536.266849,-74.020594,9474.636058
781.492176,306.438199,-296.082377,9474.636058
781.492491,306.438199,-370.102971,9770.718434
781.492807,306.438199,-148.041188,9474.636058
781.493122,306.438199,-0.000000,9548.656652
781.493438,459.657299,296.082377,9474.636058
781.493753,383.047749,-0.000000,9474.636058
781.494069,306.438199,444.123565,9326.594869
781.494384,153.219100,74.020594,9474.636058
781.494700,229.828649,74.020594,9622.677246
781.495016,0.000000,-148.041188,9252.574275
781.495331,153.219100,-0.000000,9548.656652
781.495647,0.000000,-296.082377,9992.780217
781.495962,0.000000,-370.102971,9918.759623
781.496278,76.609550,-296.082377,9770.718434
781.496593,306.438199,-148.041188,9548.656652
781.496909,536.266849,296.082377,9326.594869
781.497224,1072.533697,592.164754,9326.594869
781.497540,689.485948,888.247130,9252.574275
781.497855,995.924147,814.226536,9252.574275
781.498171,919.314598,814.226536,9030.512492
781.498486,842.705048,666.185348,9178.553681
781.498802,153.219100,444.123565,9474.636058
781.499118,689.485948,370.102971,9474.636058
781.499433,612.876398,-0.000000,9622.677246
781.499749,842.705048,444.123565,9696.697840
781.500064,766.095498,740.205942,9770.718434
781.500380,1149.143247,444.123565,9548.656652
781.500695,1072.533697,888.247130,9474.636058
781.501011,1455.581446,1110.308913,9104.533087
781.501326,1685.410096,1406.391290,9474.636058
781.501642,1991.848295,1628.453072,9252.574275
781.501957,1838.629195,1776.494261,9178.553681
781.502273,2145.067394,1480.411884,8882.471304
781.502589,2451.505594,1554.432478,9178.553681
781.502904,2451.505594,1702.473667,9326.594869
781.503220,2298.286494,1480.411884,9400.615463
781.503535,2451.505594,1406.391290,9326.594869
781.503851,2451.505594,1924.535449,9474.636058
781.504166,2451.505594,1850.514855,9400.615463
781.504482,2604.724693,2146.597232,9622.677246
781.504797,2681.334243,2368.659014,9622.677246
781.505113,2987.772442,2294.638420,9400.615463
781.505428,3064.381992,2442.679609,9326.594869
781.505744,3140.991542,2368.659014,9400.615463
781.506059,3370.820191,2294.638420,9252.574275
781.506375,3217.601092,2664.741391,9326.594869
781.506691,3294.210641,2590.720797,10066.800811
781.507006,3370.820191,2590.720797,9326.594869
781.507322,3064.381992,2590.720797,9622.677246
781.507637,3064.381992,2664.741391,9474.636058
781.507953,2987.772442,2590.720797,9696.697840
781.508268,2911.162892,2664.741391,10066.800811
781.508584,2757.943793,2664.741391,9770.718434
781.508899,2911.162892,2368.659014,9770.718434
781.509215,2528.115143,2146.597232,9918.759623
781.509530,2528.115143,1850.514855,9844.739029
781.509846,2604.724693,2368.659014,10140.821405
781.510162,2757.943793,2146.597232,9770.718434
781.510477,2681.334243,2368.659014,9770.718434
781.510793,2681.334243,2368.659014,9770.718434
781.511108,2757.943793,2368.659014,9844.739029
781.511424,2757.943793,2146.597232,9918.759623
781.511739,2834.553343,2146.597232,9474.636058
781.512055,2911.162892,2294.638420,9474.636058
781.512370,2757.943793,2220.617826,9400.615463
781.512686,2911.162892,1998.556043,9474.636058
781.513001,2298.286494,1924.535449,9622.677246
781.513317,1915.238745,1702.473667,9548.656652
781.513632,1532.190996,1332.370696,9696.697840
781.513948,995.924147,518.144159,9844.739029
781.514264,612.876398,370.102971,10288.862594
781.514579,536.266849,-222.061783,10658.965565
781.514895,459.657299,-222.061783,10955.047942
781.515210,612.876398,-518.144159,10881.027347
781.515526,1072.533697,-148.041188,10807.006753
781.515841,1532.190996,148.041188,9992.780217
781.516157,2528.115143,1332.370696,9844.739029
781.516472,3217.601092,2146.597232,8660.409521
781.516788,3830.477490,2812.782580,7772.162391
781.517103,4290.134789,3182.885551,7254.018232
781.517419,4443.353888,3108.864956,7105.977043
781.517734,4443.353888,2590.720797,6957.935855
781.518050,4136.915689,2072.576638,7550.100608
781.518366,3217.601092,814.226536,8142.265362
781.518681,2374.896044,666.185348,8882.471304
781.518997,919.314598,148.041188,9548.656652
781.519312,306.438199,-0.000000,10436.903782
781.519628,-612.876398,-0.000000,10584.944971
781.519943,-1149.143247,-444.123565,10436.903782
781.520259,-766.095498,-740.205942,11103.089130
781.520574,-306.438199,-1702.473667,10732.986159
781.520890,-306.438199,-1110.308913,10658.965565
781.521205,459.657299,-222.061783,10362.883188
781.521521,1225.752797,740.205942,9770.718434
781.521837,2757.943793,1628.453072,9252.574275
781.522152,4136.915689,2368.659014,8290.306550
781.522468,5439.278036,3330.926739,7550.100608
781.522783,6358.592633,4145.153275,7105.977043
781.523099,6741.640382,4071.132681,6809.894666
781.523414,6665.030833,4145.153275,6957.935855
781.523730,6358.592633,4071.132681,6883.915261
781.524045,5745.716235,3923.091493,7328.038826
781.524361,4749.792088,3108.864956,8364.327145
781.524676,3217.601092,2146.597232,9400.615463
781.524992,1608.800546,814.226536,10510.924376
781.525307,383.047749,-296.082377,11695.253884
781.525623,-612.876398,-962.267725,12583.501014
781.525939,-1302.362347,-814.226536,13175.665768
781.526254,-995.924147,-74.020594,13101.645173
781.526570,-383.047749,592.164754,12139.377449
781.526885,459.657299,2072.576638,11325.150913
781.527201,2145.067394,3256.906145,9918.759623
781.527516,3217.601092,3997.112087,8512.368333
781.527832,4519.963438,4885.359217,7179.997637
781.528147,6128.763984,4219.173869,6809.894666
781.528463,6894.859482,3701.029710,7105.977043
781.528778,6818.249932,3552.988522,7402.059420
781.529094,5745.716235,2812.782580,7994.224174
781.529410,4979.620737,2516.700203,9104.533087
781.529725,4903.011187,2072.576638,10362.883188
781.530041,2911.162892,1924.535449,11473.192101
781.530356,1991.848295,1776.494261,11843.295072
781.530672,842.705048,2220.617826,11621.233289
781.530987,536.266849,2960.823768,11103.089130
781.531303,919.314598,3034.844362,10584.944971
781.531618,1225.752797,2442.679609,10214.842000
781.531934,1608.800546,2368.659014,10066.800811
781.532249,1532.190996,2294.638420,9104.533087
781.532565,1532.190996,2146.597232,8734.430116
781.532880,2528.115143,962.267725,9548.656652
781.533196,2604.724693,2294.638420,9252.574275
781.533512,1991.848295,2960.823768,8956.491898
781.533827,1455.581446,2664.741391,9326.594869
781.534143,1225.752797,2146.597232,9474.636058
781.534458,2068.457845,1776.494261,9400.615463
781.534774,2451.505594,1184.329507,10066.800811
781.535089,1378.971896,1036.288319,10362.883188
781.535405,1378.971896,1480.411884,11177.109724
781.535720,1838.629195,1332.370696,10955.047942
781.536036,2528.115143,2294.638420,10362.883188
781.536351,2604.724693,3330.926739,9326.594869
781.536667,3064.381992,4219.173869,7846.182985
781.536982,3830.477490,3775.050304,7476.080014
781.537298,4596.572988,2886.803174,7550.100608
781.537614,4673.182538,2516.700203,6735.874072
781.537929,3524.039291,2442.679609,7105.977043
781.538245,2757.943793,962.267725,8660.409521
781.538560,2374.896044,-74.020594,9548.656652
781.538876,919.314598,-148.041188,10732.986159
781.539191,0.000000,814.226536,11325.150913
781.539507,-306.438199,888.247130,11325.150913
781.539822,153.219100,814.226536,11325.150913
781.540138,919.314598,814.226536,10362.883188
781.540453,842.705048,1332.370696,10214.842000
781.540769,1915.238745,1406.391290,10658.965565
781.541085,2987.772442,888.247130,9548.656652
781.541400,3753.867940,1628.453072,8734.430116
781.541716,4290.134789,2442.679609,7698.141797
781.542031,5362.668486,2812.782580,7328.038826
781.542347,5592.497135,2812.782580,7846.182985
781.542662,5362.668486,2368.659014,7624.121203
781.542978,5132.839837,2516.700203,7846.182985
781.543293,4749.792088,2294.638420,8734.430116
781.543609,3217.601092,2368.659014,8882.471304
781.543924,1762.019645,2442.679609,9252.574275
781.544240,1532.190996,1406.391290,9844.739029
781.544555,1225.752797,888.247130,10436.903782
781.544871,-383.047749,222.061783,11029.068536
781.545187,-1072.533697,-740.205942,11991.336260
781.545502,-766.095498,-1332.370696,12583.501014
781.545818,-1072.533697,-592.164754,11473.192101
781.546133,0.000000,-74.020594,11769.274478
781.546449,2374.896044,296.082377,10362.883188
781.546764,3217.601092,1554.432478,9548.656652
781.547080,3524.039291,3108.864956,7624.121203
781.547395,4060.306139,2738.761985,7772.162391
781.547711,5286.058936,2960.823768,7550.100608
781.548026,4826.401637,4367.215058,7105.977043
781.548342,4903.011187,4219.173869,7476.080014
781.548658,4749.792088,2294.638420,7994.224174
781.548973,3370.820191,1702.473667,8956.491898
781.549289,1685.410096,888.247130,10214.842000
781.549604,1149.143247,-444.123565,11399.171507
781.549920,76.609550,296.082377,11251.130318
781.550235,-229.828649,1258.350101,10955.047942
781.550551,306.438199,222.061783,11991.336260
781.550866,1532.190996,-222.061783,11769.274478
781.551182,383.047749,444.123565,11251.130318
781.551497,919.314598,148.041188,9474.636058
781.551813,1685.410096,518.144159,9178.553681
781.552129,2451.505594,1628.453072,8882.471304
781.552444,3677.258390,2072.576638,8586.388927
781.552760,3907.087040,1924.535449,7550.100608
781.553075,2987.772442,2590.720797,7476.080014
781.553391,3064.381992,1480.411884,7920.203579
781.553706,2911.162892,1406.391290,8734.430116
781.554022,2681.334243,1850.514855,9696.697840
781.554337,2681.334243,518.144159,9770.718434
781.554653,2604.724693,888.247130,9474.636058
781.554968,1455.581446,1036.288319,10066.800811
781.555284,1225.752797,444.123565,10066.800811
781.555599,1532.190996,1776.494261,9104.533087
781.555915,1532.190996,1628.453072,10066.800811
781.556231,1915.238745,1406.391290,9844.739029
781.556546,1302.362347,1480.411884,8364.327145
781.556862,842.705048,1258.350101,8364.327145
781.557177,612.876398,296.082377,8586.388927
781.557493,229.828649,740.205942,8808.450710
781.557808,536.266849,222.061783,9844.739029
781.558124,153.219100,-148.041188,10140.821405
781.558439,-612.876398,-518.144159,9844.739029
781.558755,-689.485948,-666.185348,10510.924376
781.559070,-689.485948,-0.000000,9992.780217
781.559386,-153.219100,1110.308913,9844.739029
781.559702,459.657299,222.061783,10140.821405
781.560017,383.047749,740.205942,10066.800811
781.560333,1149.143247,1554.432478,9326.594869
781.560648,1302.362347,1110.308913,8364.327145
781.560964,1915.238745,2442.679609,7105.977043
781.561279,2298.286494,1036.288319,8660.409521
781.561595,2374.896044,-0.000000,9696.697840
781.561910,1302.362347,444.123565,8438.347739
781.562226,842.705048,-0.000000,9548.656652
781.562541,153.219100,222.061783,9400.615463
781.562857,-383.047749,-296.082377,9622.677246
781.563173,-459.657299,-962.267725,11251.130318
781.563488,-153.219100,-666.185348,11103.089130
781.563804,-1302.362347,-1258.350101,10658.965565
781.564119,-995.924147,-1110.308913,11103.089130
781.564435,-919.314598,-370.102971,10214.842000
781.564750,1149.143247,-222.061783,9400.615463
781.565066,1225.752797,444.123565,9770.718434
781.565381,919.314598,814.226536,8216.285956
781.565697,1532.190996,888.247130,8956.491898
781.566012,3140.991542,1702.473667,8142.265362
781.566328,2374.896044,1184.329507,6809.894666
781.566644,2681.334243,592.164754,8438.347739
781.566959,2145.067394,148.041188,9326.594869
781.567275,919.314598,-814.226536,9400.615463
781.567590,-153.219100,-444.123565,10214.842000
781.567906,-766.095498,-222.061783,9844.739029
781.568221,-1532.190996,-1332.370696,10362.883188
781.568537,-1762.019645,-962.267725,11399.171507
781.568852,-2451.505594,-1036.288319,10584.944971
781.569168,-2834.553343,-518.144159,11177.109724
781.569483,-1838.629195,-74.020594,10436.903782
781.569799,-842.705048,-740.205942,9474.636058
781.570115,306.438199,-1258.350101,10214.842000
781.570430,-306.438199,-962.267725,9030.512492
781.570746,0.000000,-1628.453072,9696.697840
781.571061,1378.971896,-222.061783,8808.450710
781.571377,1838.629195,296.082377,7846.182985
781.571692,2298.286494,1110.308913,8734.430116
781.572008,1915.238745,740.205942,8142.265362
781.572323,1455.581446,-0.000000,8142.265362
781.572639,689.485948,-0.000000,9178.553681
781.572954,689.485948,-0.000000,9030.512492
781.573270,1072.533697,-518.144159,9474.636058
781.573585,842.705048,-1184.329507,9844.739029
781.573901,0.000000,-1480.411884,9844.739029
781.574217,-612.876398,-1776.494261,10066.800811
781.574532,153.219100,-888.247130,10288.862594
781.574848,919.314598,-518.144159,8882.471304
781.575163,1378.971896,-592.164754,9326.594869
781.575479,1455.581446,-296.082377,8956.491898
781.575794,306.438199,-1036.288319,8808.450710
781.576110,612.876398,-518.144159,9104.533087
781.576425,1762.019645,444.123565,8290.306550
781.576741,1762.019645,592.164754,8216.285956
781.577056,1762.019645,518.144159,9252.574275
781.577372,459.657299,-0.000000,8734.430116
781.577688,76.609550,-740.205942,10288.862594
781.578003,306.438199,444.123565,9696.697840
781.578319,536.266849,444.123565,9178.553681
781.578634,1225.752797,1110.308913,9474.636058
781.578950,229.828649,1554.432478,9178.553681
781.579265,-383.047749,148.041188,9474.636058
781.579581,229.828649,592.164754,9548.656652
781.579896,459.657299,888.247130,9400.615463
781.580212,612.876398,518.144159,9252.574275
781.580527,536.266849,-0.000000,9770.718434
781.580843,-536.266849,-1702.473667,10658.965565
781.581159,-689.485948,-1036.288319,11325.150913
781.581474,-383.047749,666.185348,10066.800811
781.581790,153.219100,592.164754,9326.594869
781.582105,306.438199,1554.432478,9252.574275
781.582421,-153.219100,962.267725,9844.739029
781.582736,306.438199,-0.000000,9992.780217
781.583052,153.219100,518.144159,9474.636058
781.583367,612.876398,-370.102971,9548.656652
781.583683,1225.752797,-74.020594,9030.512492
781.583998,1149.143247,-148.041188,9770.718434
781.584314,0.000000,-1480.411884,10362.883188
781.584630,459.657299,-740.205942,9918.759623
781.584945,1225.752797,-0.000000,9474.636058
781.585261,1455.581446,296.082377,9770.718434
781.585576,766.095498,1036.288319,9030.512492
781.585892,459.657299,-148.041188,9400.615463
781.586207,0.000000,-0.000000,9326.594869
781.586523,76.609550,222.061783,9474.636058
781.586838,536.266849,-1110.308913,10214.842000
781.587154,459.657299,-888.247130,10214.842000
781.587469,-459.657299,-666.185348,9770.718434
781.587785,-766.095498,-1036.288319,9918.759623
781.588100,-153.219100,444.123565,9844.739029
781.588416,995.924147,-0.000000,10140.821405
781.588732,1378.971896,-0.000000,9474.636058
781.589047,1149.143247,370.102971,8512.368333
781.589363,153.219100,-518.144159,8734.430116
781.589678,766.095498,-0.000000,8660.409521
781.589994,1072.533697,-74.020594,8660.409521
781.590309,1072.533697,-814.226536,9400.615463
781.590625,995.924147,-74.020594,9104.533087
781.590940,-383.047749,-962.267725,8956.491898
781.591256,-689.485948,-1184.329507,9844.739029
781.591571,0.000000,-518.144159,9326.594869
781.591887,383.047749,-592.164754,9918.759623
781.592203,0.000000,74.020594,9548.656652
781.592518,-766.095498,-444.123565,9474.636058
781.592834,-766.095498,-1036.288319,9252.574275
781.593149,153.219100,-0.000000,8882.471304
781.593465,919.314598,-518.144159,8882.471304
781.593780,1149.143247,-666.185348,9696.697840
781.594096,766.095498,-0.000000,9104.533087
781.594411,76.609550,-740.205942,9178.553681
781.594727,536.266849,-666.185348,9474.636058
781.595042,1608.800546,370.102971,9474.636058
781.595358,1838.629195,962.267725,8660.409521
781.595674,1225.752797,1258.350101,8290.306550
781.595989,153.219100,-296.082377,9178.553681
781.596305,0.000000,-370.102971,9622.677246
781.596620,689.485948,148.041188,9178.553681
781.596936,995.924147,-222.061783,8808.450710
781.597251,766.095498,-444.123565,9474.636058
781.597567,0.000000,-1110.308913,10066.800811
781.597882,-995.924147,-2220.617826,10807.006753
781.598198,-153.219100,-444.123565,10658.965565
781.598513,306.438199,-296.082377,9622.677246
781.598829,1072.533697,1036.288319,9326.594869
781.599145,842.705048,444.123565,9104.533087
781.599460,0.000000,-222.061783,9178.553681
781.599776,383.047749,296.082377,9474.636058
781.600091,1072.533697,-370.102971,9696.697840
781.600407,1532.190996,-370.102971,9622.677246
781.600722,995.924147,-148.041188,9178.553681
781.601038,0.000000,-1036.288319,9992.780217
781.601353,-229.828649,-962.267725,10807.006753
781.601669,536.266849,222.061783,10214.842000
781.601984,919.314598,296.082377,9844.739029
781.602300,689.485948,740.205942,9770.718434
781.602615,0.000000,-0.000000,9844.739029
781.602931,383.047749,-148.041188,8734.430116
781.603247,0.000000,740.205942,8808.450710
781.603562,1302.362347,-0.000000,9696.697840
781.603878,612.876398,-814.226536,10140.821405
781.604193,153.219100,-296.082377,9030.512492
781.604509,-995.924147,-1998.556043,10510.924376
781.604824,-383.047749,-0.000000,9770.718434
781.605140,-229.828649,222.061783,10066.800811
781.605455,689.485948,-444.123565,10881.027347
781.605771,153.219100,888.247130,9474.636058
781.606086,-689.485948,-296.082377,9400.615463
781.606402,-689.485948,370.102971,8882.471304
781.606718,306.438199,-148.041188,9326.594869
781.607033,919.314598,148.041188,9474.636058
781.607349,612.876398,148.041188,8808.450710
781.607664,-612.876398,-740.205942,8956.491898
781.607980,0.000000,-1184.329507,9992.780217
781.608295,306.438199,-666.185348,9104.533087
781.608611,1302.362347,-592.164754,9104.533087
781.608926,689.485948,296.082377,9992.780217
781.609242,459.657299,-0.000000,8290.306550
781.609557,383.047749,-74.020594,8586.388927
781.609873,459.657299,-0.000000,9030.512492
781.610189,612.876398,-74.020594,8882.471304
781.610504,919.314598,-666.185348,8586.388927
781.610820,76.609550,-296.082377,9326.594869
781.611135,-229.828649,-1850.514855,9918.759623
781.611451,-306.438199,-1702.473667,10140.821405
781.611766,306.438199,-296.082377,9548.656652
781.612082,383.047749,-222.061783,9918.759623
781.612397,919.314598,592.164754,9326.594869
781.612713,689.485948,740.205942,8216.285956
781.613028,229.828649,-592.164754,8956.491898
781.613344,1378.971896,148.041188,9400.615463
781.613660,2451.505594,-444.123565,9622.677246
781.613975,2145.067394,222.061783,7994.224174
781.614291,689.485948,-222.061783,9474.636058
781.614606,76.609550,-1776.494261,10066.800811
781.614922,536.266849,-0.000000,9918.759623
781.615237,1225.752797,518.144159,9474.636058
781.615553,1838.629195,592.164754,9696.697840
781.615868,1762.019645,962.267725,8660.409521
781.616184,1072.533697,-296.082377,8734.430116
781.616499,1072.533697,222.061783,10066.800811
781.616815,1455.581446,-148.041188,9918.759623
781.617131,2145.067394,-74.020594,9104.533087
781.617446,1378.971896,666.185348,9178.553681
781.617762,153.219100,-888.247130,9770.718434
781.618077,0.000000,-1480.411884,10955.047942
781.618393,459.657299,148.041188,10140.821405
781.618708,1225.752797,444.123565,10140.821405
781.619024,1302.362347,962.267725,9400.615463
781.619339,536.266849,888.247130,8956.491898
781.619655,306.438199,-0.000000,9696.697840
781.619970,842.705048,74.020594,9326.594869
781.620286,1149.143247,592.164754,9030.512492
781.620601,919.314598,-0.000000,9844.739029
781.620917,229.828649,-370.102971,10288.862594
781.621233,-766.095498,-1776.494261,10362.883188
781.621548,-842.705048,-592.164754,10807.006753
781.621864,-459.657299,-0.000000,9696.697840
781.622179,76.609550,-0.000000,10066.800811
781.622495,612.876398,296.082377,10066.800811
781.622810,-383.047749,-74.020594,9178.553681
781.623126,-919.314598,-370.102971,9400.615463
781.623441,0.000000,444.123565,9622.677246
781.623757,153.219100,-814.226536,9178.553681
781.624072,0.000000,-888.247130,9326.594869
781.624388,-536.266849,-888.247130,9622.677246
781.624704,-1072.533697,-1924.535449,9770.718434
781.625019,-383.047749,-296.082377,10214.842000
781.625335,536.266849,148.041188,8586.388927
781.625650,919.314598,444.123565,8660.409521
781.625966,766.095498,296.082377,8142.265362
781.626281,0.000000,-1036.288319,8660.409521
781.626597,0.000000,148.041188,8808.450710
781.626912,229.828649,-0.000000,9178.553681
781.627228,842.705048,-370.102971,8660.409521
781.627543,229.828649,-0.000000,9252.574275
781.627859,-689.485948,-444.123565,9178.553681
781.628175,-919.314598,-962.267725,9770.718434
781.628490,-689.485948,-370.102971,9622.677246
781.628806,612.876398,-148.041188,10214.842000
781.629121,612.876398,518.144159,9548.656652
781.629437,76.609550,592.164754,8512.368333
781.629752,0.000000,592.164754,8512.368333
781.630068,766.095498,888.247130,8882.471304
781.630383,1072.533697,962.267725,8364.327145
781.630699,1302.362347,814.226536,9104.533087
781.631014,536.266849,-0.000000,9326.594869
781.631330,-229.828649,-1258.350101,9844.739029
781.631646,-76.609550,-962.267725,10436.903782
781.631961,689.485948,-666.185348,10288.862594
781.632277,1608.800546,-296.082377,10436.903782
781.632592,1225.752797,888.247130,8512.368333
781.632908,459.657299,-148.041188,9252.574275
781.633223,306.438199,-1110.308913,10436.903782
781.633539,1225.752797,148.041188,9844.739029
781.633854,1455.581446,-0.000000,9252.574275
781.634170,1532.190996,-74.020594,8882.471304
781.634485,995.924147,-1258.350101,9992.780217
781.634801,536.266849,-1776.494261,9844.739029
781.635116,689.485948,-148.041188,9548.656652
781.635432,1225.752797,-296.082377,9400.615463
781.635748,1378.971896,-74.020594,9992.780217
781.636063,1149.143247,148.041188,9474.636058
781.636379,459.657299,-666.185348,9770.718434
781.636694,306.438199,-0.000000,9474.636058
781.637010,689.485948,-0.000000,9474.636058
781.637325,1302.362347,-666.185348,9548.656652
781.637641,842.705048,-148.041188,9400.615463
781.637956,0.000000,-370.102971,9326.594869
781.638272,-766.095498,-1258.350101,10288.862594
781.638587,76.609550,-222.061783,10288.862594
781.638903,153.219100,-148.041188,10140.821405
781.639219,459.657299,370.102971,9770.718434
781.639534,-306.438199,-0.000000,8882.471304
781.639850,-536.266849,-814.226536,9548.656652
781.640165,-306.438199,-0.000000,8882.471304
781.640481,153.219100,-0.000000,9104.533087
781.640796,383.047749,-740.205942,9992.780217
781.641112,0.000000,-222.061783,9622.677246
781.641427,-919.314598,-1036.288319,9104.533087
781.641743,-612.876398,-888.247130,9770.718434
781.642058,306.438199,-148.041188,9622.677246
781.642374,689.485948,-444.123565,9400.615463
781.642690,689.485948,518.144159,8364.327145
781.643005,229.828649,-518.144159,8660.409521
781.643321,306.438199,-1036.288319,9474.636058
781.643636,919.314598,-0.000000,8290.306550
781.643952,1225.752797,-592.164754,8808.450710
781.644267,1302.362347,-74.020594,9622.677246
781.644583,229.828649,-296.082377,8882.471304
781.644898,-842.705048,-1036.288319,8734.430116
781.645214,-306.438199,-518.144159,10140.821405
781.645529,229.828649,-518.144159,9474.636058
781.645845,536.266849,148.041188,9474.636058
781.646161,612.876398,962.267725,8068.244768
781.646476,0.000000,-888.247130,9030.512492
781.646792,0.000000,-296.082377,9918.759623
781.647108,383.047749,518.144159,8882.471304
781.647423,459.657299,-0.000000,9178.553681
781.647739,383.047749,370.102971,9326.594869
781.648055,-229.828649,-1110.308913,9696.697840
781.648371,-689.485948,-962.267725,9992.780217
781.648686,-229.828649,-0.000000,10140.821405
781.649002,995.924147,-222.061783,10214.842000
781.649318,1302.362347,370.102971,10066.800811
781.649634,689.485948,814.226536,9400.615463
781.649949,229.828649,148.041188,8808.450710
781.650265,689.485948,1184.329507,9178.553681
781.650581,1532.190996,592.164754,9474.636058
781.650897,1762.019645,962.267725,9030.512492
781.651212,1302.362347,888.247130,9474.636058
781.651528,536.266849,-444.123565,9548.656652
781.651844,76.609550,-666.185348,10288.862594
781.652160,1072.533697,-370.102971,10066.800811
781.652475,1608.800546,-0.000000,9918.759623
781.652791,1455.581446,1036.288319,9622.677246
781.653107,612.876398,-0.000000,9400.615463
781.653423,153.219100,-370.102971,10732.986159
781.653738,536.266849,962.267725,9474.636058
781.654054,1149.143247,148.041188,9548.656652
781.654370,229.828649,-0.000000,9474.636058
781.654686,229.828649,-1110.308913,10510.924376
781.655001,-306.438199,-2368.659014,10658.965565
781.655317,-229.828649,-888.247130,10140.821405
781.655633,842.705048,-148.041188,9548.656652
781.655949,919.314598,-0.000000,9474.636058
781.656264,766.095498,222.061783,9844.739029
781.656580,-459.657299,-1110.308913,9474.636058
781.656896,-306.438199,-518.144159,9548.656652
781.657212,229.828649,-296.082377,9104.533087
781.657527,459.657299,-1258.350101,9400.615463
781.657843,766.095498,-1036.288319,10288.862594
781.658159,-459.657299,-1776.494261,9474.636058
781.658475,-689.485948,-1628.453072,10140.821405
781.658790,-306.438199,-222.061783,9992.780217
781.659106,1072.533697,-592.164754,8734.430116
781.659422,1149.143247,-0.000000,8660.409521
781.659738,383.047749,-74.020594,9030.512492
781.660053,-153.219100,-1184.329507,9548.656652
781.660369,459.657299,-296.082377,9178.553681
781.660685,842.705048,518.144159,8216.285956
781.661001,919.314598,296.082377,8734.430116
781.661317,459.657299,-74.020594,9696.697840
781.661632,-229.828649,-1332.370696,8734.430116
781.661948,-536.266849,-148.041188,9474.636058
781.662264,459.657299,-0.000000,9548.656652
781.662580,689.485948,-222.061783,9104.533087
781.662895,766.095498,888.247130,9474.636058
781.663211,153.219100,814.226536,9030.512492
781.663527,0.000000,-0.000000,9030.512492
781.663843,383.047749,1110.308913,8290.306550
781.664158,919.314598,-0.000000,8956.491898
781.664474,1149.143247,-444.123565,9622.677246
781.664790,536.266849,-148.041188,9622.677246
781.665106,-689.485948,-592.164754,9474.636058
781.665421,0.000000,-0.000000,9696.697840
781.665737,612.876398,296.082377,10066.800811
781.666053,842.705048,1184.329507,9400.615463
781.666369,612.876398,1480.411884,9326.594869
781.666684,76.609550,-740.205942,8956.491898
781.667000,-76.609550,-0.000000,9844.739029
781.667316,536.266849,222.061783,9992.780217
781.667632,1532.190996,-814.226536,9548.656652
781.667947,1378.971896,592.164754,9770.718434
781.668263,612.876398,-592.164754,10066.800811
781.668579,153.219100,-1110.308913,10066.800811
781.668895,766.095498,-148.041188,10214.842000
781.669210,1378.971896,-370.102971,9548.656652
781.669526,1532.190996,666.185348,9844.739029
781.669842,1302.362347,148.041188,10214.842000
781.670158,766.095498,-0.000000,9252.574275
781.670473,689.485948,1554.432478,8660.409521
781.670789,1072.533697,-0.000000,9474.636058
781.671105,1149.143247,-444.123565,10140.821405
781.671421,612.876398,370.102971,10288.862594
781.671736,-229.828649,-962.267725,9622.677246
781.672052,-383.047749,-888.247130,10510.924376
781.672368,76.609550,-592.164754,10807.006753
781.672684,383.047749,-444.123565,10584.944971
781.672999,306.438199,1332.370696,9548.656652
781.673315,-536.266849,370.102971,9030.512492
781.673631,-689.485948,-222.061783,9326.594869
781.673947,76.609550,-0.000000,9474.636058
781.674262,995.924147,-814.226536,9622.677246
781.674578,536.266849,-740.205942,9918.759623
781.674894,76.609550,-1184.329507,9622.677246
781.675210,-612.876398,-1702.473667,10214.842000
781.675525,-383.047749,-296.082377,9696.697840
781.675841,383.047749,-74.020594,8808.450710
781.676157,1149.143247,444.123565,8956.491898
781.676473,766.095498,666.185348,8068.244768
781.676788,-229.828649,-444.123565,8808.450710
781.677104,-689.485948,-592.164754,8956.491898
781.677420,612.876398,-962.267725,9474.636058
781.677736,1302.362347,-1036.288319,9252.574275
781.678051,766.095498,-666.185348,8808.450710
781.678367,153.219100,-740.205942,8956.491898
781.678683,-689.485948,-1036.288319,8734.430116
781.678999,0.000000,-666.185348,9548.656652
781.679314,919.314598,-1258.350101,9548.656652
781.679630,536.266849,-0.000000,9252.574275
781.679946,0.000000,-666.185348,8216.285956
781.680262,-536.266849,-1332.370696,9622.677246
781.680578,-306.438199,-814.226536,8364.327145
781.680893,689.485948,-666.185348,8956.491898
781.681209,689.485948,-222.061783,8808.450710
781.681525,0.000000,-74.020594,8956.491898
781.681841,-842.705048,-1258.350101,9548.656652
781.682156,-306.438199,-1406.391290,9844.739029
781.682472,536.266849,-592.164754,9548.656652
781.682788,1225.752797,-222.061783,9622.677246
781.683104,919.314598,518.144159,9030.512492
781.683419,536.266849,-0.000000,8734.430116
781.683735,229.828649,-0.000000,9030.512492
781.684051,995.924147,444.123565,9474.636058
781.684367,1302.362347,-0.000000,9326.594869
781.684682,1072.533697,-222.061783,9474.636058
781.684998,383.047749,-592.164754,10362.883188
781.685314,-306.438199,-1702.473667,10732.986159
781.685630,0.000000,-222.061783,10066.800811
781.685945,689.485948,666.185348,10288.862594
781.686261,995.924147,370.102971,9918.759623
781.686577,689.485948,296.082377,9696.697840
781.686893,995.924147,-74.020594,9474.636058
781.687208,612.876398,-148.041188,9622.677246
781.687524,1608.800546,518.144159,9548.656652
781.687840,1915.238745,666.185348,9326.594869
781.688156,1302.362347,592.164754,9030.512492
781.688471,383.047749,-814.226536,10140.821405
781.688787,0.000000,-1258.350101,10362.883188
781.689103,-383.047749,-296.082377,9918.759623
781.689419,536.266849,-1554.432478,10362.883188
781.689734,689.485948,-1110.308913,10732.986159
781.690050,0.000000,-814.226536,10066.800811
781.690366,-689.485948,-1258.350101,9918.759623
781.690682,-383.047749,-74.020594,9622.677246
781.690997,153.219100,-518.144159,9104.533087
781.691313,612.876398,-0.000000,8882.471304
781.691629,306.438199,-296.082377,9696.697840
781.691945,-229.828649,-1332.370696,9622.677246
781.692260,-306.438199,-666.185348,8734.430116
781.692576,536.266849,-518.144159,9474.636058
781.692892,1532.190996,-888.247130,9548.656652
781.693208,1072.533697,888.247130,8808.450710
781.693523,459.657299,518.144159,7994.224174
781.693839,0.000000,-74.020594,8808.450710
781.694155,153.219100,740.205942,9622.677246
781.694471,766.095498,222.061783,9104.533087
781.694786,536.266849,444.123565,9252.574275
781.695102,0.000000,-370.102971,9178.553681
781.695418,-612.876398,-1332.370696,9548.656652
781.695734,229.828649,148.041188,9918.759623
781.696049,229.828649,-0.000000,9474.636058
781.696365,689.485948,962.267725,8956.491898
781.696681,536.266849,1406.391290,9178.553681
781.696997,0.000000,740.205942,8586.388927
781.697312,76.609550,888.247130,8882.471304
781.697628,536.266849,1184.329507,9104.533087
781.697944,1302.362347,-74.020594,9178.553681
781.698260,766.095498,-74.020594,9548.656652
781.698576,306.438199,-1480.411884,9770.718434
781.698891,-383.047749,-1184.329507,10288.862594
781.699207,229.828649,-0.000000,10140.821405
781.699523,919.314598,148.041188,9918.759623
781.699839,842.705048,1036.288319,10362.883188
781.700154,383.047749,666.185348,9178.553681
781.700470,306.438199,-296.082377,9474.636058
781.700786,536.266849,-0.000000,9474.636058
781.701102,1225.752797,-74.020594,9474.636058
781.701417,1532.190996,-370.102971,9474.636058
781.701733,1225.752797,148.041188,9104.533087
781.702049,306.438199,-1332.370696,9918.759623
781.702365,0.000000,-666.185348,10066.800811
781.702680,842.705048,-370.102971,10140.821405
781.702996,536.266849,-666.185348,10658.965565
781.703312,842.705048,-0.000000,10658.965565
781.703628,536.266849,-740.205942,9178.553681
781.703943,153.219100,-0.000000,9326.594869
781.704259,842.705048,740.205942,9474.636058
781.704575,1378.971896,-74.020594,9104.533087
781.704891,919.314598,370.102971,8734.430116
781.705206,0.000000,-518.144159,9696.697840
781.705522,-536.266849,-1628.453072,9918.759623
781.705838,0.000000,-1110.308913,10584.944971
781.706154,-153.219100,-888.247130,9548.656652
781.706469,536.266849,-814.226536,10214.842000
781.706785,229.828649,-74.020594,9844.739029
781.707101,-306.438199,-740.205942,8882.471304
781.707417,-689.485948,-296.082377,9474.636058
781.707732,0.000000,148.041188,9474.636058
781.708048,1225.752797,-592.164754,8660.409521
781.708364,153.219100,-0.000000,8734.430116
781.708680,-536.266849,-1406.391290,9844.739029
781.708995,-383.047749,-1850.514855,10140.821405
781.709311,383.047749,-370.102971,8882.471304
781.709627,689.485948,-148.041188,9474.636058
781.709943,1302.362347,-74.020594,9770.718434
781.710258,766.095498,222.061783,8216.285956
781.710574,0.000000,-148.041188,8438.347739
781.710890,383.047749,-0.000000,9770.718434
781.711206,1378.971896,-148.041188,9252.574275
781.711521,1455.581446,962.267725,7920.203579
781.711837,612.876398,888.247130,8734.430116
781.712153,0.000000,-592.164754,9474.636058
781.712469,306.438199,-0.000000,9622.677246
781.712784,383.047749,518.144159,9326.594869
781.713100,689.485948,296.082377,9252.574275
781.713416,995.924147,740.205942,9400.615463
781.713732,383.047749,518.144159,8660.409521
781.714047,383.047749,444.123565,9548.656652
781.714363,536.266849,1036.288319,9992.780217
781.714679,766.095498,888.247130,9178.553681
781.714995,842.705048,1110.308913,8734.430116
781.715310,153.219100,222.061783,9548.656652
781.715626,-383.047749,-1110.308913,10140.821405
781.715942,76.609550,222.061783,10066.800811
781.716258,383.047749,444.123565,9844.739029
781.716573,995.924147,148.041188,9918.759623
781.716889,0.000000,962.267725,8660.409521
781.717205,0.000000,740.205942,9252.574275
781.717521,536.266849,-0.000000,10288.862594
781.717837,919.314598,666.185348,9474.636058
781.718152,1072.533697,-0.000000,9104.533087
781.718468,1072.533697,-370.102971,10140.821405
781.718784,306.438199,-1036.288319,10881.027347
781.719100,-612.876398,-1184.329507,10288.862594
781.719415,229.828649,-148.041188,9918.759623
781.719731,995.924147,-592.164754,10362.883188
781.720047,1149.143247,-0.000000,9696.697840
781.720363,612.876398,-148.041188,9474.636058
781.720678,306.438199,-1332.370696,10140.821405
781.720994,536.266849,-518.144159,9918.759623
781.721310,995.924147,-518.144159,9252.574275
781.721626,1455.581446,-370.102971,9622.677246
781.721941,1378.971896,-222.061783,9474.636058
781.722257,-153.219100,-1036.288319,8808.450710
781.722573,0.000000,-1258.350101,10066.800811
781.722889,536.266849,-1110.308913,9992.780217
781.723204,766.095498,-888.247130,9474.636058
781.723520,383.047749,-888.247130,9326.594869
781.723836,-153.219100,-1776.494261,9992.780217
781.724152,-612.876398,-1406.391290,9770.718434
781.724467,459.657299,-444.123565,9252.574275
781.724783,0.000000,-518.144159,8438.347739
781.725099,0.000000,-518.144159,9770.718434
781.725415,-153.219100,-1332.370696,9178.553681
781.725730,-536.266849,-1924.535449,9548.656652
781.726046,0.000000,-1036.288319,10288.862594
781.726362,536.266849,-1554.432478,9400.615463
781.726678,842.705048,-888.247130,9178.553681
781.726993,842.705048,-222.061783,9178.553681
781.727309,536.266849,-0.000000,8734.430116
781.727625,1378.971896,1110.308913,7328.038826
781.727941,1072.533697,444.123565,8512.368333
781.728256,1532.190996,-148.041188,8438.347739
781.728572,1378.971896,-0.000000,8808.450710
781.728888,0.000000,-1110.308913,9030.512492
781.729204,-995.924147,-1480.411884,9844.739029
781.729519,0.000000,-1258.350101,10288.862594
781.729835,229.828649,-444.123565,9622.677246
781.730151,-153.219100,518.144159,8808.450710
781.730467,-459.657299,-592.164754,10288.862594
781.730782,0.000000,-1184.329507,9474.636058
781.731098,-306.438199,-148.041188,8956.491898
781.731414,0.000000,-444.123565,9252.574275
781.731730,612.876398,-666.185348,9696.697840
781.732045,306.438199,-666.185348,9474.636058
781.732361,-536.266849,-740.205942,9696.697840
781.732677,0.000000,-148.041188,9252.574275
781.732993,459.657299,222.061783,9622.677246
781.733308,1225.752797,-0.000000,9400.615463
781.733624,995.924147,-0.000000,9326.594869
781.733940,536.266849,-296.082377,9548.656652
781.734256,229.828649,148.041188,9400.615463
781.734571,919.314598,740.205942,8956.491898
781.734887,1378.971896,444.123565,9252.574275
781.735203,1225.752797,740.205942,9548.656652
781.735519,459.657299,-0.000000,9770.718434
781.735835,-229.828649,-296.082377,9844.739029
781.736150,76.609550,-0.000000,10288.862594
781.736466,842.705048,-0.000000,10436.903782
781.736782,1455.581446,888.247130,9770.718434
781.737098,1608.800546,1258.350101,8956.491898
781.737413,306.438199,888.247130,9030.512492
781.737729,689.485948,1406.391290,9696.697840
781.738045,766.095498,1554.432478,9252.574275
781.738361,1378.971896,1110.308913,9252.574275
781.738676,1685.410096,962.267725,9548.656652
781.738992,0.000000,-0.000000,10066.800811
781.739308,-306.438199,-222.061783,10584.944971
781.739624,76.609550,518.144159,10510.924376
781.739939,689.485948,222.061783,10732.986159
781.740255,842.705048,1628.453072,9918.759623
781.740571,383.047749,740.205942,9770.718434
781.740887,0.000000,-0.000000,9474.636058
781.741202,0.000000,444.123565,9770.718434
781.741518,766.095498,-74.020594,9548.656652
781.741834,842.705048,-0.000000,9844.739029
781.742150,612.876398,-74.020594,9474.636058
781.742465,0.000000,-888.247130,9178.553681
781.742781,229.828649,-592.164754,9696.697840
781.743097,689.485948,-592.164754,9992.780217
781.743413,612.876398,-296.082377,10140.821405
781.743728,995.924147,370.102971,9400.615463
781.744044,229.828649,-0.000000,8290.306550
781.744360,459.657299,-0.000000,8956.491898
781.744676,459.657299,-222.061783,9104.533087
781.744991,1378.971896,-296.082377,8734.430116
781.745307,995.924147,-74.020594,9400.615463
781.745623,306.438199,-888.247130,9030.512492
781.745939,0.000000,-1184.329507,9918.759623
781.746254,76.609550,-740.205942,9622.677246
781.746570,306.438199,-370.102971,9474.636058
781.746886,766.095498,-370.102971,9104.533087
781.747202,612.876398,-592.164754,9178.553681
781.747517,-306.438199,-1258.350101,9104.533087
781.747833,-306.438199,-0.000000,9326.594869
781.748149,153.219100,296.082377,8808.450710
781.748465,612.876398,-444.123565,8438.347739
781.748781,612.876398,-222.061783,9400.615463
781.749097,-153.219100,-1258.350101,9474.636058
781.749413,-766.095498,-1554.432478,10066.800811
781.749729,0.000000,-444.123565,9252.574275
781.750044,766.095498,-814.226536,9548.656652
781.750360,1455.581446,-0.000000,9400.615463
781.750676,842.705048,-0.000000,8586.388927
781.750992,536.266849,-740.205942,9104.533087
781.751308,766.095498,-0.000000,9326.594869
781.751624,1072.533697,-592.164754,9030.512492
781.751940,1608.800546,-296.082377,9400.615463
781.752256,1225.752797,-518.144159,9326.594869
781.752571,-459.657299,-1776.494261,9474.636058
781.752887,76.609550,-1036.288319,10140.821405
781.753203,306.438199,-592.164754,9622.677246
781.753519,919.314598,-666.185348,9474.636058
781.753835,919.314598,-0.000000,9548.656652
781.754151,-153.219100,-888.247130,9326.594869
781.754467,-229.828649,-1258.350101,9548.656652
781.754783,383.047749,-296.082377,9696.697840
781.755098,1072.533697,-888.247130,9104.533087
781.755414,842.705048,-814.226536,9548.656652
781.755730,0.000000,-1258.350101,10436.903782
781.756046,-383.047749,-1332.370696,9178.553681
781.756362,76.609550,-74.020594,9770.718434
781.756678,536.266849,-370.102971,9622.677246
781.756994,1072.533697,-592.164754,9844.739029
781.757310,229.828649,-222.061783,9474.636058
781.757625,-536.266849,-962.267725,9326.594869
781.757941,-612.876398,-592.164754,9844.739029
781.758257,153.219100,-370.102971,9696.697840
781.758573,153.219100,148.041188,9474.636058
781.758889,0.000000,-0.000000,9474.636058
781.759205,-766.095498,-1702.473667,9844.739029
781.759521,-1455.581446,-1110.308913,10214.842000
781.759837,-306.438199,-296.082377,10584.944971
781.760152,0.000000,-1036.288319,9844.739029
781.760468,383.047749,666.185348,10066.800811
781.760784,-229.828649,888.247130,8956.491898
781.761100,0.000000,-148.041188,8808.450710
781.761416,306.438199,1036.288319,9400.615463
781.761732,1149.143247,444.123565,8660.409521
781.762048,1608.800546,-0.000000,8216.285956
781.762364,1072.533697,-0.000000,9400.615463
781.762679,229.828649,-888.247130,9622.677246
781.762995,689.485948,222.061783,9030.512492
781.763311,1072.533697,888.247130,9918.759623
781.763627,1225.752797,370.102971,9844.739029
781.763943,995.924147,1480.411884,9400.615463
781.764259,0.000000,444.123565,8956.491898
781.764575,-612.876398,-518.144159,9400.615463
781.764891,306.438199,-0.000000,10140.821405
781.765206,995.924147,-222.061783,9400.615463
781.765522,689.485948,814.226536,9474.636058
781.765838,0.000000,-0.000000,9696.697840
781.766154,76.609550,-148.041188,8808.450710
781.766470,0.000000,370.102971,9326.594869
781.766786,919.314598,-296.082377,10436.903782
781.767102,1762.019645,-370.102971,10214.842000
781.767418,995.924147,1036.288319,9104.533087
781.767733,0.000000,-74.020594,8512.368333
781.768049,1149.143247,-0.000000,9474.636058
781.768365,1532.190996,888.247130,8660.409521
781.768681,1762.019645,370.102971,9104.533087
781.768997,1685.410096,592.164754,9844.739029
781.769313,229.828649,-888.247130,9326.594869
781.769629,0.000000,-518.144159,9622.677246
781.769945,1072.533697,-74.020594,10214.842000
781.770260,1762.019645,-222.061783,9474.636058
781.770576,1378.971896,1332.370696,9104.533087
781.770892,995.924147,370.102971,9474.636058
781.771208,229.828649,-0.000000,9030.512492
781.771524,383.047749,1332.370696,9400.615463
781.771840,766.095498,296.082377,8882.471304
781.772156,1915.238745,222.061783,9326.594869
781.772472,766.095498,-0.000000,10066.800811
781.772787,-842.705048,-1184.329507,9992.780217
781.773103,-612.876398,-814.226536,10955.047942
781.773419,76.609550,-74.020594,11029.068536
781.773735,76.609550,370.102971,9252.574275
781.774051,306.438199,1258.350101,9400.615463
781.774367,0.000000,-444.123565,10436.903782
781.774683,-153.219100,-0.000000,9474.636058
781.774999,536.266849,222.061783,9918.759623
781.775315,1302.362347,-888.247130,9918.759623
781.775630,1378.971896,-370.102971,9104.533087
781.775946,459.657299,-370.102971,9252.574275
781.776262,-459.657299,-1184.329507,9474.636058
781.776578,76.609550,-1480.411884,10732.986159
781.776894,612.876398,-814.226536,9622.677246
781.777210,919.314598,370.102971,9326.594869
781.777526,0.000000,-0.000000,8956.491898
781.777842,0.000000,-1998.556043,9326.594869
781.778157,0.000000,-1036.288319,9326.594869
781.778473,459.657299,-666.185348,9622.677246
781.778789,995.924147,-740.205942,9326.594869
781.779105,76.609550,-666.185348,8586.388927
781.779421,-229.828649,-1406.391290,9400.615463
781.779737,-689.485948,-2146.597232,10584.944971
781.780053,-153.219100,-1184.329507,10362.883188
781.780369,229.828649,-0.000000,9252.574275
781.780684,689.485948,-148.041188,8882.471304
781.781000,153.219100,-592.164754,9030.512492
781.781316,-306.438199,-888.247130,8586.388927
781.781632,-76.609550,814.226536,9104.533087
781.781948,919.314598,-222.061783,8660.409521
781.782264,383.047749,444.123565,8216.285956
781.782580,-459.657299,148.041188,9474.636058
781.782896,-766.095498,-1702.473667,9104.533087
781.783211,-689.485948,-1184.329507,10732.986159
781.783527,-306.438199,-518.144159,10510.924376
781.783843,383.047749,-666.185348,9400.615463
781.784159,689.485948,444.123565,9400.615463
781.784475,-383.047749,-370.102971,9030.512492
781.784791,0.000000,-0.000000,8808.450710
781.785107,842.705048,814.226536,9918.759623
781.785423,1532.190996,-148.041188,9400.615463
781.785738,1455.581446,888.247130,8660.409521
781.786054,536.266849,-148.041188,8734.430116
781.786370,383.047749,-1480.411884,10066.800811
781.786686,919.314598,-370.102971,10658.965565
781.787002,1455.581446,592.164754,8808.450710
781.787318,2221.676944,1110.308913,8808.450710
781.787634,766.095498,592.164754,9326.594869
781.787950,306.438199,-592.164754,9252.574275
781.788265,383.047749,222.061783,9992.780217
781.788581,842.705048,-74.020594,9696.697840
781.788897,1072.533697,148.041188,9030.512492
781.789213,842.705048,-370.102971,9918.759623
781.789529,0.000000,-1332.370696,10214.842000
781.789845,0.000000,-1036.288319,10066.800811
781.790161,153.219100,-0.000000,9696.697840
781.790477,1072.533697,-296.082377,9992.780217
781.790792,766.095498,-148.041188,10214.842000
781.791108,689.485948,222.061783,9400.615463
781.791424,0.000000,-592.164754,9474.636058
781.791740,536.266849,740.205942,9474.636058
781.792056,1685.410096,-0.000000,8734.430116
781.792372,1225.752797,370.102971,8512.368333
781.792688,766.095498,148.041188,10362.883188
781.793004,0.000000,-1036.288319,9474.636058
781.793319,229.828649,74.020594,9622.677246
781.793635,306.438199,518.144159,9548.656652
781.793951,459.657299,-592.164754,9844.739029
781.794267,842.705048,222.061783,10214.842000
781.794583,0.000000,-296.082377,9696.697840
781.794899,-842.705048,518.144159,9104.533087
781.795215,153.219100,592.164754,9992.780217
781.795531,689.485948,-0.000000,9104.533087
781.795846,612.876398,740.205942,8956.491898
781.796162,0.000000,-148.041188,9474.636058
781.796478,76.609550,-666.185348,10362.883188
781.796794,536.266849,148.041188,10214.842000
781.797110,459.657299,962.267725,9030.512492
781.797426,1532.190996,888.247130,9104.533087
781.797742,842.705048,666.185348,9252.574275
781.798058,76.609550,-148.041188,9252.574275
781.798373,459.657299,370.102971,9918.759623
781.798689,689.485948,518.144159,10066.800811
781.799005,1072.533697,370.102971,9178.553681
781.799321,306.438199,518.144159,9326.594869
781.799637,0.000000,-888.247130,10140.821405
781.799953,-306.438199,-1036.288319,9992.780217
781.800269,-229.828649,-444.123565,10288.862594
781.800585,459.657299,-962.267725,9770.718434
781.800900,612.876398,-740.205942,10214.842000
781.801216,153.219100,-1184.329507,9992.780217
781.801532,-383.047749,-814.226536,9696.697840
781.801848,536.266849,-0.000000,9030.512492
781.802164,1225.752797,-444.123565,8882.471304
781.802480,1072.533697,-0.000000,8512.368333
781.802796,689.485948,-1332.370696,8882.471304
781.803112,153.219100,-2738.761985,9696.697840
781.803427,0.000000,-1924.535449,9918.759623
781.803743,689.485948,-1332.370696,9548.656652
781.804059,842.705048,-1554.432478,9252.574275
781.804375,536.266849,-888.247130,9252.574275
781.804691,0.000000,-1258.350101,9474.636058
781.805007,-536.266849,-444.123565,8660.409521
781.805323,-229.828649,-0.000000,9104.533087
781.805639,766.095498,-370.102971,8660.409521
781.805954,612.876398,-888.247130,9548.656652
781.806270,-383.047749,-1628.453072,9844.739029
781.806586,-1225.752797,-2146.597232,9400.615463
781.806902,-612.876398,-1554.432478,9770.718434
781.807218,-306.438199,-740.205942,9992.780217
781.807534,383.047749,-222.061783,8808.450710
781.807850,0.000000,-0.000000,8512.368333
781.808166,-689.485948,-222.061783,9252.574275
781.808481,-766.095498,-370.102971,9622.677246
781.808797,153.219100,-962.267725,9400.615463
781.809113,919.314598,-0.000000,9326.594869
781.809429,842.705048,-74.020594,9252.574275
781.809745,76.609550,-444.123565,9178.553681
781.810061,0.000000,-222.061783,9770.718434
781.810377,0.000000,370.102971,9474.636058
781.810693,1915.238745,814.226536,9104.533087
781.811009,1072.533697,1850.514855,8364.327145
781.811324,842.705048,518.144159,9104.533087
781.811640,842.705048,-0.000000,9474.636058
781.811956,842.705048,1110.308913,9400.615463
781.812272,1455.581446,888.247130,8734.430116
781.812588,1838.629195,592.164754,8734.430116
781.812904,919.314598,814.226536,9474.636058
781.813220,0.000000,-296.082377,9400.615463
781.813536,229.828649,-0.000000,10140.821405
781.813851,229.828649,444.123565,10066.800811
781.814167,766.095498,444.123565,9918.759623
781.814483,919.314598,1332.370696,9992.780217
781.814799,459.657299,740.205942,9178.553681
781.815115,0.000000,1258.350101,9474.636058
781.815431,536.266849,1850.514855,9326.594869
781.815747,1532.190996,518.144159,8956.491898
781.816063,1608.800546,962.267725,9992.780217
781.816378,536.266849,-0.000000,10288.862594
781.816694,0.000000,-370.102971,10214.842000
781.817010,536.266849,888.247130,10436.903782
781.817326,995.924147,1036.288319,9918.759623
781.817642,1072.533697,1480.411884,9992.780217
781.817958,689.485948,1332.370696,10066.800811
781.818274,0.000000,666.185348,9474.636058
781.818590,306.438199,1480.411884,10658.965565
781.818905,689.485948,592.164754,9622.677246
781.819221,1455.581446,-0.000000,10140.821405
781.819537,995.924147,-0.000000,10288.862594
781.819853,0.000000,-962.267725,10362.883188
781.820169,0.000000,-814.226536,10732.986159
781.820485,689.485948,370.102971,9918.759623
781.820801,1608.800546,962.267725,9770.718434
781.821117,1762.019645,740.205942,9400.615463
781.821432,766.095498,296.082377,9548.656652
781.821748,919.314598,-74.020594,8808.450710
781.822064,919.314598,-0.000000,9696.697840
781.822380,1915.238745,-444.123565,9104.533087
781.822696,1378.971896,-296.082377,8734.430116
781.823012,306.438199,-1036.288319,9252.574275
781.823328,-689.485948,-2368.659014,9992.780217
781.823644,-689.485948,-1850.514855,10362.883188
781.823959,766.095498,-1924.535449,9992.780217
781.824275,76.609550,-1480.411884,9252.574275
781.824591,153.219100,-814.226536,9252.574275
781.824907,-383.047749,-1480.411884,8660.409521
781.825223,-306.438199,-1332.370696,8364.327145
781.825539,-383.047749,-1850.514855,9400.615463
781.825855,153.219100,-1924.535449,8586.388927
781.826171,536.266849,-1258.350101,8586.388927
781.826486,-306.438199,-2146.597232,8734.430116
781.826802,-995.924147,-2590.720797,9252.574275
781.827118,0.000000,-2368.659014,9622.677246
781.827434,-153.219100,-2072.576638,8882.471304
781.827750,229.828649,-74.020594,9030.512492
781.828066,0.000000,-592.164754,8216.285956
781.828382,0.000000,-1036.288319,8216.285956
781.828698,-153.219100,-74.020594,8586.388927
781.829013,383.047749,-1110.308913,8882.471304
781.829329,1149.143247,-1332.370696,8438.347739
781.829645,459.657299,-1110.308913,8586.388927
781.829961,0.000000,-1924.535449,9770.718434
781.830277,-383.047749,-1480.411884,9622.677246
781.830593,-153.219100,-74.020594,9252.574275
781.830909,306.438199,-74.020594,9474.636058
781.831225,536.266849,592.164754,9030.512492
781.831540,229.828649,148.041188,9622.677246
781.831856,76.609550,-1184.329507,9326.594869
781.832172,0.000000,-222.061783,9326.594869
781.832488,612.876398,-1110.308913,9400.615463
781.832804,919.314598,-962.267725,9474.636058
781.833120,306.438199,-962.267725,9992.780217
781.833436,-459.657299,-1554.432478,10288.862594
781.833752,-383.047749,-518.144159,10214.842000
781.834067,153.219100,-0.000000,10436.903782
781.834383,1072.533697,-74.020594,10510.924376
781.834699,1455.581446,-0.000000,9992.780217
781.835015,536.266849,-740.205942,9918.759623
781.835331,995.924147,-222.061783,9844.739029
781.835647,1455.581446,-0.000000,9696.697840
781.835963,2145.067394,148.041188,9326.594869
781.836279,2145.067394,518.144159,8808.450710
781.836594,1072.533697,-666.185348,9918.759623
781.836910,383.047749,-888.247130,9992.780217
781.837226,229.828649,-370.102971,10584.944971
781.837542,383.047749,-740.205942,10436.903782
781.837858,1532.190996,-222.061783,10288.862594
781.838174,1378.971896,444.123565,9474.636058
781.838490,229.828649,-148.041188,8660.409521
781.838806,153.219100,888.247130,9030.512492
781.839121,1072.533697,-0.000000,9844.739029
781.839437,1378.971896,-0.000000,9474.636058
781.839753,536.266849,666.185348,9178.553681
781.840069,76.609550,-592.164754,9030.512492
781.840385,0.000000,-74.020594,9178.553681
781.840701,612.876398,740.205942,9548.656652
781.841017,153.219100,592.164754,9030.512492
781.841333,1072.533697,1480.411884,9178.553681
781.841648,766.095498,1406.391290,9252.574275
781.841964,0.000000,1332.370696,8882.471304
781.842280,0.000000,2368.659014,8882.471304
781.842596,536.266849,1036.288319,9622.677246
781.842912,766.095498,1702.473667,9178.553681
781.843228,0.000000,1554.432478,9548.656652
781.843544,-919.314598,370.102971,9474.636058
781.843860,-1378.971896,592.164754,10214.842000
781.844175,0.000000,666.185348,10140.821405
781.844491,383.047749,1184.329507,9548.656652
781.844807,995.924147,2368.659014,8808.450710
781.845123,0.000000,1702.473667,8808.450710
781.845439,229.828649,1036.288319,8882.471304
781.845755,1072.533697,1480.411884,9326.594869
781.846071,1149.143247,1036.288319,8142.265362
781.846387,842.705048,1184.329507,8512.368333
781.846702,229.828649,-740.205942,9474.636058
781.847018,-536.266849,-1110.308913,9548.656652
781.847334,306.438199,-444.123565,10510.924376
781.847650,689.485948,370.102971,9474.636058
781.847966,766.095498,814.226536,9252.574275
781.848282,383.047749,148.041188,9178.553681
781.848598,76.609550,-0.000000,9326.594869
781.848913,153.219100,962.267725,8586.388927
781.849229,842.705048,666.185348,8882.471304
781.849545,1378.971896,-74.020594,9474.636058
781.849861,766.095498,-222.061783,9326.594869
781.850176,0.000000,-1480.411884,10362.883188
781.850492,-229.828649,-962.267725,9844.739029
781.850808,0.000000,444.123565,10066.800811
781.851124,612.876398,-222.061783,10584.944971
781.851439,459.657299,222.061783,10436.903782
781.851755,766.095498,-222.061783,10955.047942
781.852071,0.000000,296.082377,10288.862594
781.852387,153.219100,1110.308913,9474.636058
781.852702,1225.752797,592.164754,10436.903782
781.853018,1762.019645,444.123565,9548.656652
781.853334,1455.581446,148.041188,9844.739029
781.853649,459.657299,-740.205942,9992.780217
781.853965,612.876398,-666.185348,9992.780217
781.854281,1149.143247,-518.144159,9844.739029
781.854597,1149.143247,-740.205942,10362.883188
781.854912,1532.190996,-370.102971,9696.697840
781.855228,919.314598,-592.164754,9474.636058
781.855544,612.876398,-518.144159,9030.512492
781.855860,383.047749,-592.164754,9400.615463
781.856175,842.705048,-2368.659014,9992.780217
781.856491,536.266849,-2368.659014,9844.739029
781.856807,-459.657299,-2516.700203,9400.615463
781.857122,-766.095498,-3182.885551,9770.718434
781.857438,-383.047749,-3034.844362,10214.842000
781.857754,0.000000,-3034.844362,10362.883188
781.858070,459.657299,-2220.617826,8808.450710
781.858385,306.438199,-1776.494261,9178.553681
781.858701,-229.828649,-2516.700203,8438.347739
781.859017,0.000000,-1702.473667,7994.224174
781.859333,689.485948,-1554.432478,8142.265362
781.859648,1378.971896,-2072.576638,7772.162391
781.859964,995.924147,-1702.473667,7772.162391
781.860280,0.000000,-2590.720797,8364.327145
781.860596,-306.438199,-2664.741391,8956.491898
781.860911,0.000000,-2220.617826,9474.636058
781.861227,306.438199,-1924.535449,8808.450710
781.861543,383.047749,-0.000000,7920.203579
781.861858,0.000000,-222.061783,7994.224174
781.862174,-536.266849,-1184.329507,8068.244768
781.862490,-229.828649,-592.164754,9770.718434
781.862806,229.828649,-888.247130,8660.409521
781.863121,766.095498,-74.020594,8290.306550
781.863437,76.609550,-0.000000,8586.388927
781.863753,-612.876398,-1110.308913,9030.512492
781.864069,-306.438199,-148.041188,9548.656652
781.864384,306.438199,814.226536,9178.553681
781.864700,536.266849,1036.288319,9178.553681
781.865016,459.657299,1702.473667,9104.533087
781.865331,153.219100,1110.308913,8808.450710
781.865647,0.000000,1332.370696,8882.471304
781.865963,229.828649,1998.556043,9548.656652
781.866279,1225.752797,1480.411884,9252.574275
781.866594,1455.581446,1924.535449,9474.636058
781.866910,153.219100,666.185348,10658.965565
781.867226,-536.266849,-0.000000,10288.862594
781.867542,-306.438199,1480.411884,10436.903782
781.867857,229.828649,888.247130,10955.047942
781.868173,536.266849,1258.350101,10732.986159
781.868489,459.657299,1850.514855,10288.862594
781.868804,229.828649,1184.329507,9844.739029
781.869120,459.657299,1036.288319,10510.924376
781.869436,1378.971896,962.267725,10510.924376
781.869752,1455.581446,-0.000000,10362.883188
781.870067,1378.971896,370.102971,10584.944971
781.870383,153.219100,-666.185348,10510.924376
781.870699,459.657299,-74.020594,11029.068536
781.871015,1149.143247,666.185348,10362.883188
781.871330,1149.143247,-0.000000,10066.800811
781.871646,1532.190996,1110.308913,10362.883188
781.871962,1302.362347,370.102971,9918.759623
781.872278,689.485948,-74.020594,9104.533087
781.872593,612.876398,888.247130,9992.780217
781.872909,1302.362347,-0.000000,9844.739029
781.873225,1762.019645,-370.102971,9178.553681
781.873540,229.828649,-0.000000,9844.739029
781.873856,-229.828649,-1332.370696,10214.842000
781.874172,153.219100,-1036.288319,9548.656652
781.874488,153.219100,-296.082377,10362.883188
781.874803,229.828649,-592.164754,9548.656652
781.875119,536.266849,-148.041188,9918.759623
781.875435,0.000000,-370.102971,9474.636058
781.875751,-536.266849,-444.123565,8882.471304
781.876066,76.609550,-0.000000,9622.677246
781.876382,766.095498,-592.164754,9104.533087
781.876698,766.095498,-0.000000,8882.471304
781.877013,459.657299,-370.102971,9844.739029
781.877329,0.000000,-888.247130,8808.450710
781.877645,229.828649,-148.041188,8586.388927
781.877961,842.705048,370.102971,9030.512492
781.878276,1455.581446,592.164754,9178.553681
781.878592,1302.362347,1184.329507,8216.285956
781.878908,229.828649,666.185348,7328.038826
781.879224,383.047749,814.226536,7698.141797
781.879539,1685.410096,-0.000000,9178.553681
781.879855,1762.019645,-74.020594,7624.121203
781.880171,842.705048,-0.000000,7920.203579
781.880487,0.000000,-1406.391290,9400.615463
781.880802,-383.047749,-1258.350101,9400.615463
781.881118,76.609550,-444.123565,9030.512492
781.881434,229.828649,-444.123565,9326.594869
781.881749,229.828649,-592.164754,9992.780217
781.882065,0.000000,-1406.391290,9030.512492
781.882381,-459.657299,-888.247130,8956.491898
781.882697,-306.438199,592.164754,8660.409521
781.883012,153.219100,-0.000000,8882.471304
781.883328,842.705048,-0.000000,8956.491898
781.883644,383.047749,-1036.288319,9474.636058
781.883960,-1149.143247,-1554.432478,8808.450710
781.884275,-842.705048,-1036.288319,10362.883188
781.884591,0.000000,-1702.473667,10362.883188
781.884907,612.876398,-592.164754,10510.924376
781.885222,689.485948,296.082377,9474.636058
781.885538,0.000000,-518.144159,9326.594869
781.885854,0.000000,-0.000000,10140.821405
781.886170,383.047749,-296.082377,9918.759623
781.886485,1149.143247,-370.102971,10288.862594
781.886801,842.705048,-148.041188,9696.697840
781.887117,0.000000,-962.267725,10214.842000
781.887433,153.219100,-962.267725,9696.697840
781.887748,0.000000,-518.144159,11103.089130
781.888064,1072.533697,-518.144159,10584.944971
781.888380,1225.752797,296.082377,10510.924376
781.888695,612.876398,370.102971,9696.697840
781.889011,229.828649,-222.061783,10214.842000
781.889327,995.924147,740.205942,9400.615463
781.889643,1378.971896,518.144159,10288.862594
781.889958,1608.800546,-0.000000,9548.656652
781.890274,1149.143247,-0.000000,10140.821405
781.890590,229.828649,-814.226536,10140.821405
781.890906,0.000000,-1110.308913,10066.800811
781.891221,306.438199,-888.247130,10807.006753
781.891537,689.485948,-148.041188,10288.862594
781.891853,1225.752797,592.164754,9326.594869
781.892169,76.609550,-148.041188,9844.739029
781.892484,-383.047749,-592.164754,10214.842000
781.892800,842.705048,-0.000000,9474.636058
781.893116,383.047749,-0.000000,8660.409521
781.893431,689.485948,-444.123565,9178.553681
781.893747,153.219100,-888.247130,9844.739029
781.894063,229.828649,-1184.329507,9326.594869
781.894379,0.000000,-962.267725,9622.677246
781.894694,0.000000,-592.164754,9400.615463
781.895010,919.314598,-148.041188,8808.450710
781.895326,536.266849,888.247130,8216.285956
781.895642,76.609550,-370.102971,8956.491898
781.895957,459.657299,-0.000000,8290.306550
781.896273,842.705048,888.247130,8216.285956
781.896589,1302.362347,-0.000000,8364.327145
781.896904,1378.971896,-222.061783,8586.388927
781.897220,383.047749,-592.164754,8956.491898
781.897536,-229.828649,-666.185348,8586.388927
781.897852,0.000000,-0.000000,9474.636058
781.898167,536.266849,296.082377,9400.615463
781.898483,766.095498,814.226536,8956.491898
781.898799,536.266849,444.123565,8512.368333
781.899115,-766.095498,-296.082377,9622.677246
781.899430,-383.047749,962.267725,9030.512492
781.899746,766.095498,666.185348,8882.471304
781.900062,383.047749,370.102971,9252.574275
781.900378,612.876398,666.185348,10214.842000
781.900693,-383.047749,-444.123565,9474.636058
781.901009,-459.657299,-962.267725,10140.821405
781.901325,383.047749,518.144159,10288.862594
781.901640,1225.752797,-74.020594,9918.759623
781.901956,1378.971896,1110.308913,9474.636058
781.902272,536.266849,666.185348,9844.739029
781.902588,459.657299,-148.041188,9548.656652
781.902903,1378.971896,666.185348,9474.636058
781.903219,1378.971896,-222.061783,9474.636058
781.903535,1455.581446,148.041188,9326.594869
781.903851,612.876398,-592.164754,10214.842000
781.904166,0.000000,-1628.453072,10140.821405
781.904482,229.828649,-518.144159,10658.965565
781.904798,612.876398,-0.000000,10732.986159
781.905113,919.314598,222.061783,9918.759623
781.905429,459.657299,666.185348,9474.636058
781.905745,0.000000,-148.041188,9696.697840
781.906061,0.000000,-0.000000,9474.636058
781.906376,459.657299,-370.102971,10140.821405
781.906692,536.266849,-370.102971,9548.656652
781.907008,306.438199,-148.041188,9474.636058
781.907324,-229.828649,-1184.329507,10066.800811
781.907639,-1072.533697,-1554.432478,10140.821405
781.907955,-536.266849,-518.144159,10288.862594
781.908271,0.000000,-0.000000,10510.924376
781.908587,306.438199,-0.000000,9326.594869
781.908902,153.219100,-0.000000,9178.553681
781.909218,-536.266849,-1036.288319,10288.862594
781.909534,-306.438199,-740.205942,9104.533087
781.909849,306.438199,-444.123565,9992.780217
781.910165,459.657299,-962.267725,9696.697840
781.910481,612.876398,-592.164754,9400.615463
781.910797,-153.219100,-1110.308913,9918.759623
781.911112,-306.438199,-1036.288319,9252.574275
781.911428,229.828649,-148.041188,10140.821405
781.911744,1149.143247,-296.082377,9178.553681
781.912060,1225.752797,888.247130,8438.347739
781.912375,1762.019645,-0.000000,9252.574275
781.912691,842.705048,148.041188,7920.203579
781.913007,1225.752797,814.226536,7920.203579
781.913322,1685.410096,-0.000000,8512.368333
781.913638,1762.019645,-0.000000,8438.347739
781.913954,1072.533697,-148.041188,9030.512492
781.914270,229.828649,-1776.494261,9474.636058
781.914585,306.438199,-666.185348,9326.594869
781.914901,459.657299,-444.123565,9844.739029
781.915217,536.266849,222.061783,9400.615463
781.915533,459.657299,444.123565,8586.388927
781.915848,0.000000,-296.082377,8882.471304
781.916164,0.000000,-148.041188,8512.368333
781.916480,229.828649,-0.000000,9548.656652
781.916795,842.705048,-74.020594,8956.491898
781.917111,1072.533697,-296.082377,8364.327145
781.917427,383.047749,-592.164754,9252.574275
781.917743,76.609550,-1258.350101,9696.697840
781.918058,383.047749,-74.020594,9918.759623
781.918374,766.095498,-296.082377,9474.636058
781.918690,995.924147,-0.000000,9918.759623
781.919006,842.705048,592.164754,9326.594869
781.919321,919.314598,-0.000000,9400.615463
781.919637,842.705048,888.247130,8956.491898
781.919953,1149.143247,592.164754,9400.615463
781.920269,2145.067394,-0.000000,10066.800811
781.920584,1532.190996,-222.061783,8882.471304
781.920900,0.000000,-962.267725,9992.780217
781.921216,0.000000,-1184.329507,10807.006753
781.921531,306.438199,-296.082377,10436.903782
781.921847,1072.533697,-222.061783,10436.903782
781.922163,995.924147,962.267725,9770.718434
781.922479,612.876398,296.082377,9178.553681
781.922794,0.000000,-74.020594,9474.636058
781.923110,459.657299,148.041188,10214.842000
781.923426,1455.581446,-0.000000,10066.800811
781.923742,995.924147,-0.000000,9548.656652
781.924057,229.828649,-370.102971,9622.677246
781.924373,-459.657299,-1036.288319,10066.800811
781.924689,-383.047749,-148.041188,10288.862594
781.925004,0.000000,-74.020594,10584.944971
781.925320,229.828649,-148.041188,9918.759623
781.925636,-153.219100,222.061783,9622.677246
781.925952,-919.314598,-370.102971,9770.718434
781.926267,-383.047749,-0.000000,9622.677246
781.926583,766.095498,-148.041188,9844.739029
781.926899,766.095498,-0.000000,8808.450710
781.927215,0.000000,296.082377,8808.450710
781.927530,-306.438199,-1184.329507,9696.697840
781.927846,-612.876398,-1554.432478,9474.636058
781.928162,-459.657299,-148.041188,9696.697840
781.928478,-229.828649,-444.123565,10066.800811
781.928793,459.657299,-296.082377,9548.656652
781.929109,0.000000,296.082377,8660.409521
781.929425,-383.047749,-444.123565,8808.450710
781.929740,0.000000,592.164754,8660.409521
781.930056,766.095498,370.102971,9178.553681
781.930372,919.314598,-0.000000,8438.347739
781.930688,689.485948,-0.000000,8956.491898
781.931003,-536.266849,-1406.391290,9474.636058
781.931319,0.000000,-740.205942,9696.697840
781.931635,306.438199,296.082377,9548.656652
781.931951,612.876398,-0.000000,8808.450710
781.932266,766.095498,1110.308913,8808.450710
781.932582,229.828649,-518.144159,9400.615463
781.932898,0.000000,-370.102971,8808.450710
781.933213,766.095498,666.185348,9474.636058
781.933529,919.314598,222.061783,8364.327145
781.933845,1608.800546,-296.082377,9474.636058
781.934161,536.266849,-666.185348,9474.636058
781.934476,229.828649,-1554.432478,10140.821405
781.934792,229.828649,-444.123565,10066.800811
781.935108,383.047749,-0.000000,9326.594869
781.935424,1072.533697,-0.000000,9622.677246
781.935739,995.924147,-222.061783,9696.697840
781.936055,153.219100,-1554.432478,9326.594869
781.936371,689.485948,-370.102971,9992.780217
781.936687,1532.190996,-0.000000,9030.512492
781.937002,1608.800546,-222.061783,8660.409521
781.937318,1302.362347,-0.000000,8882.471304
781.937634,536.266849,-518.144159,9548.656652
781.937949,229.828649,-1850.514855,10066.800811
781.938265,229.828649,-592.164754,10362.883188
781.938581,1302.362347,-518.144159,10362.883188
781.938897,1378.971896,-444.123565,9474.636058
781.939212,1302.362347,962.267725,9104.533087
781.939528,536.266849,-518.144159,8956.491898
781.939844,842.705048,-592.164754,9918.759623
781.940160,1225.752797,370.102971,9844.739029
781.940475,766.095498,444.123565,8364.327145
781.940791,766.095498,-0.000000,9326.594869
781.941107,153.219100,-1628.453072,10510.924376
781.941422,0.000000,-222.061783,9696.697840
781.941738,689.485948,962.267725,9918.759623
781.942054,459.657299,370.102971,9104.533087
781.942370,766.095498,444.123565,9178.553681
781.942685,76.609550,-0.000000,9474.636058
781.943001,-536.266849,-370.102971,9030.512492
781.943317,0.000000,370.102971,10066.800811
781.943633,459.657299,-740.205942,9548.656652
781.943948,459.657299,-0.000000,9474.636058
781.944264,-306.438199,-592.164754,9992.780217
781.944580,-1072.533697,-1702.473667,9918.759623
781.944895,-536.266849,-370.102971,10214.842000
781.945211,0.000000,-0.000000,9548.656652
781.945527,383.047749,296.082377,8660.409521
781.945843,306.438199,814.226536,9844.739029
781.946158,306.438199,-666.185348,9252.574275
781.946474,0.000000,-222.061783,8364.327145
781.946790,306.438199,296.082377,9178.553681
781.947106,536.266849,-444.123565,8438.347739
781.947421,306.438199,-370.102971,9326.594869
781.947737,-306.438199,-592.164754,9400.615463
781.948053,-1072.533697,-814.226536,9474.636058
781.948368,-229.828649,-0.000000,10140.821405
781.948684,-229.828649,-444.123565,9918.759623
781.949000,-536.266849,296.082377,8882.471304
781.949316,0.000000,-444.123565,9918.759623
781.949631,-689.485948,-1184.329507,9844.739029
781.949947,-536.266849,370.102971,9770.718434
781.950263,-76.609550,-0.000000,8956.491898
781.950579,306.438199,-74.020594,9548.656652
781.950894,153.219100,-74.020594,9400.615463
781.951210,0.000000,-1184.329507,9474.636058
781.951526,0.000000,-370.102971,9770.718434
781.951841,612.876398,-148.041188,9770.718434
781.952157,995.924147,-74.020594,9252.574275
781.952473,1608.800546,666.185348,9030.512492
781.952789,1225.752797,-0.000000,9104.533087
781.953104,919.314598,370.102971,8956.491898
781.953420,1532.190996,666.185348,9326.594869
781.953736,1915.238745,-74.020594,9400.615463
781.954052,1991.848295,518.144159,9326.594869
781.954367,1762.019645,-518.144159,9400.615463
781.954683,919.314598,-1332.370696,9844.739029
781.954999,995.924147,-1110.308913,10362.883188
781.955314,1762.019645,-0.000000,9770.718434
781.955630,1762.019645,296.082377,9474.636058
781.955946,1991.848295,666.185348,9474.636058
781.956262,1532.190996,296.082377,8586.388927
781.956577,919.314598,518.144159,8882.471304
781.956893,1455.581446,592.164754,8882.471304
781.957209,1532.190996,-962.267725,9474.636058
781.957524,1532.190996,-740.205942,9844.739029
781.957840,383.047749,-740.205942,9326.594869
781.958156,-383.047749,-1258.350101,10658.965565
781.958472,153.219100,-444.123565,10362.883188
781.958787,229.828649,-222.061783,9918.759623
781.959103,612.876398,222.061783,9844.739029
781.959419,459.657299,-444.123565,9992.780217
781.959735,-229.828649,-666.185348,9400.615463
781.960050,76.609550,-0.000000,9104.533087
781.960366,689.485948,-0.000000,9030.512492
781.960682,766.095498,-74.020594,9400.615463
781.960997,306.438199,-0.000000,9474.636058
781.961313,-766.095498,-1036.288319,9104.533087
781.961629,-1072.533697,-296.082377,9844.739029
781.961945,-536.266849,-518.144159,10066.800811
781.962260,229.828649,-740.205942,9326.594869
781.962576,689.485948,-0.000000,9178.553681
781.962892,-229.828649,-0.000000,9030.512492
781.963208,153.219100,-444.123565,9400.615463
781.963523,306.438199,296.082377,8586.388927
781.963839,229.828649,-0.000000,8956.491898
781.964155,0.000000,370.102971,9400.615463
781.964470,76.609550,-148.041188,8660.409521
781.964786,-536.266849,-666.185348,9252.574275
781.965102,-612.876398,222.061783,9844.739029
781.965418,383.047749,-296.082377,10214.842000
781.965733,536.266849,592.164754,8438.347739
781.966049,76.609550,1110.308913,8438.347739
781.966365,0.000000,-296.082377,9474.636058
781.966680,0.000000,370.102971,9400.615463
781.966996,229.828649,814.226536,9474.636058
781.967312,766.095498,518.144159,9400.615463
781.967628,306.438199,592.164754,9326.594869
781.967943,-459.657299,-296.082377,10288.862594
781.968259,-229.828649,-518.144159,10214.842000
781.968575,0.000000,296.082377,9770.718434
781.968891,459.657299,148.041188,9696.697840
781.969206,995.924147,962.267725,9474.636058
781.969522,766.095498,814.226536,9474.636058
781.969838,0.000000,-0.000000,9104.533087
781.970153,1225.752797,592.164754,9474.636058
781.970469,766.095498,444.123565,9030.512492
781.970785,1149.143247,-0.000000,9400.615463
781.971101,766.095498,-222.061783,9918.759623
781.971416,383.047749,-1036.288319,9548.656652
781.971732,0.000000,-518.144159,9696.697840
781.972048,229.828649,-370.102971,9622.677246
781.972364,842.705048,-518.144159,10362.883188
781.972679,1149.143247,-148.041188,9918.759623
781.972995,0.000000,-370.102971,9178.553681
781.973311,0.000000,-0.000000,9474.636058
781.973626,229.828649,592.164754,9622.677246
781.973942,1072.533697,-518.144159,8956.491898
781.974258,612.876398,-0.000000,9104.533087
781.974574,459.657299,-1332.370696,10436.903782
781.974889,-229.828649,-3182.885551,9844.739029
781.975205,0.000000,-1184.329507,10510.924376
781.975521,306.438199,-1036.288319,10214.842000
781.975836,689.485948,-740.205942,10066.800811
781.976152,919.314598,814.226536,9030.512492
781.976468,0.000000,-148.041188,8734.430116
781.976784,-229.828649,-740.205942,9622.677246
781.977099,689.485948,-666.185348,9474.636058
781.977415,766.095498,-962.267725,8956.491898
781.977731,1225.752797,-592.164754,9326.594869
781.978047,76.609550,-1258.350101,9844.739029
781.978362,459.657299,-1258.350101,9474.636058
781.978678,536.266849,-370.102971,9770.718434
781.978994,1302.362347,-222.061783,9178.553681
781.979309,2221.676944,592.164754,8808.450710
781.979625,1608.800546,-74.020594,8734.430116
781.979941,995.924147,-666.185348,8882.471304
781.980257,1072.533697,-0.000000,9252.574275
781.980572,1378.971896,148.041188,8660.409521
781.980888,1685.410096,444.123565,8660.409521
781.981204,995.924147,-370.102971,9104.533087
781.981520,0.000000,-1702.473667,9474.636058
781.981835,-459.657299,-1110.308913,10362.883188
781.982151,0.000000,-592.164754,10140.821405
781.982467,0.000000,-444.123565,9030.512492
781.982782,0.000000,74.020594,9696.697840
781.983098,0.000000,-518.144159,9696.697840
781.983414,-536.266849,-222.061783,9104.533087
781.983730,153.219100,592.164754,9104.533087
781.984045,153.219100,-444.123565,9104.533087
781.984361,306.438199,-74.020594,8956.491898
781.984677,459.657299,-592.164754,9252.574275
781.984992,-536.266849,-1406.391290,9400.615463
781.985308,-229.828649,-592.164754,10807.006753
781.985624,459.657299,-296.082377,9548.656652
781.985940,612.876398,666.185348,9178.553681
781.986255,612.876398,518.144159,9622.677246
781.986571,229.828649,-222.061783,9326.594869
781.986887,76.609550,148.041188,9400.615463
781.987203,766.095498,-0.000000,9326.594869
781.987518,766.095498,-518.144159,8734.430116
781.987834,842.705048,-74.020594,10140.821405
781.988150,0.000000,-740.205942,9844.739029
781.988465,-306.438199,-1258.350101,9326.594869
781.988781,383.047749,-0.000000,10140.821405
781.989097,612.876398,-0.000000,9696.697840
781.989413,612.876398,740.205942,9548.656652
781.989728,612.876398,592.164754,8956.491898
781.990044,153.219100,-444.123565,9030.512492
781.990360,612.876398,296.082377,10584.944971
781.990676,919.314598,370.102971,9178.553681
781.990991,1225.752797,1184.329507,7920.203579
781.991307,995.924147,-74.020594,9622.677246
781.991623,229.828649,-1184.329507,10288.862594
781.991938,0.000000,-740.205942,10510.924376
781.992254,0.000000,148.041188,10066.800811
781.992570,383.047749,-0.000000,9696.697840
781.992886,842.705048,444.123565,9918.759623
781.993201,76.609550,296.082377,9252.574275
781.993517,0.000000,-0.000000,9252.574275
781.993833,306.438199,962.267725,9400.615463
781.994148,306.438199,-148.041188,8882.471304
781.994464,1378.971896,-222.061783,9770.718434
781.994780,229.828649,-518.144159,9178.553681
781.995096,-306.438199,-1258.350101,9548.656652
781.995411,-153.219100,-592.164754,10658.965565
781.995727,459.657299,-592.164754,9992.780217
781.996043,842.705048,148.041188,8956.491898
781.996359,842.705048,1258.350101,8216.285956
781.996674,689.485948,-444.123565,9030.512492
781.996990,1149.143247,-444.123565,9548.656652
781.997306,842.705048,444.123565,9104.533087
781.997621,919.314598,-0.000000,9400.615463
781.997937,1608.800546,-0.000000,9548.656652
781.998253,766.095498,-0.000000,8882.471304
781.998569,153.219100,-74.020594,9252.574275
781.998884,689.485948,370.102971,9474.636058
781.999200,766.095498,-74.020594,9326.594869
781.999516,1072.533697,592.164754,9548.656652
781.999832,76.609550,74.020594,9326.594869
782.000147,0.000000,-888.247130,9770.718434
782.000463,76.609550,666.185348,9326.594869
782.000779,0.000000,-0.000000,9178.553681
782.001094,842.705048,222.061783,10214.842000
782.001410,689.485948,296.082377,9252.574275
782.001726,-229.828649,-296.082377,8956.491898
782.002042,0.000000,444.123565,10066.800811
782.002357,612.876398,-222.061783,10510.924376
782.002673,689.485948,-0.000000,9400.615463
782.002989,689.485948,1110.308913,9474.636058
782.003304,842.705048,-0.000000,8882.471304
782.003620,612.876398,-74.020594,9326.594869
782.003936,842.705048,666.185348,9252.574275
782.004252,766.095498,-74.020594,8808.450710
782.004567,1378.971896,-0.000000,9030.512492
782.004883,842.705048,-518.144159,9992.780217
782.005199,-229.828649,-1184.329507,9474.636058
782.005515,383.047749,-1332.370696,10732.986159
782.005830,306.438199,-370.102971,9992.780217
782.006146,383.047749,222.061783,8882.471304
782.006462,306.438199,-518.144159,9918.759623
782.006777,0.000000,-1036.288319,10436.903782
782.007093,-459.657299,-444.123565,9918.759623
782.007409,306.438199,-148.041188,9104.533087
782.007725,612.876398,-814.226536,9844.739029
782.008040,459.657299,-814.226536,9474.636058
782.008356,76.609550,-962.267725,9622.677246
782.008672,-459.657299,-148.041188,8956.491898
782.008988,0.000000,-1036.288319,10066.800811
782.009303,76.609550,-666.185348,9992.780217
782.009619,0.000000,-74.020594,9030.512492
782.009935,-536.266849,-1406.391290,9992.780217
782.010250,-229.828649,-1776.494261,10436.903782
782.010566,-766.095498,-1184.329507,9030.512492
782.010882,229.828649,-148.041188,9400.615463
782.011198,76.609550,-962.267725,9400.615463
782.011513,-306.438199,-1110.308913,9844.739029
782.011829,-383.047749,-1036.288319,9622.677246
782.012145,-153.219100,-518.144159,8808.450710
782.012460,0.000000,-222.061783,9770.718434
782.012776,689.485948,-518.144159,9178.553681
782.013092,842.705048,-370.102971,8290.306550
782.013408,919.314598,-888.247130,9326.594869
782.013723,383.047749,-666.185348,8364.327145
782.014039,766.095498,-0.000000,8364.327145
782.014355,995.924147,-370.102971,8512.368333
782.014671,689.485948,-296.082377,9326.594869
782.014986,153.219100,-1110.308913,9918.759623
782.015302,-459.657299,-1628.453072,9770.718434
782.015618,0.000000,-296.082377,9844.739029
782.015933,536.266849,-148.041188,9104.533087
782.016249,1302.362347,148.041188,9104.533087
782.016565,1378.971896,444.123565,8586.388927
782.016881,612.876398,-0.000000,9104.533087
782.017196,689.485948,592.164754,9030.512492
782.017512,842.705048,148.041188,8216.285956
782.017828,1225.752797,-296.082377,9326.594869
782.018144,1455.581446,666.185348,9252.574275
782.018459,76.609550,-74.020594,9326.594869
782.018775,0.000000,-148.041188,10140.821405
782.019091,536.266849,592.164754,9326.594869
782.019406,842.705048,-74.020594,9770.718434
782.019722,766.095498,518.144159,10214.842000
782.020038,383.047749,-0.000000,9770.718434
782.020354,536.266849,-148.041188,9844.739029
782.020669,383.047749,1110.308913,9326.594869
782.020985,689.485948,592.164754,9696.697840
782.021301,1608.800546,518.144159,9474.636058
782.021616,689.485948,222.061783,9474.636058
782.021932,0.000000,-962.267725,9918.759623
782.022248,612.876398,-222.061783,10732.986159
782.022564,995.924147,370.102971,9474.636058
782.022879,1378.971896,666.185348,9770.718434
782.023195,1302.362347,222.061783,10140.821405
782.023511,536.266849,-74.020594,9918.759623
782.023827,153.219100,296.082377,9326.594869
782.024142,229.828649,888.247130,9992.780217
782.024458,1685.410096,148.041188,9400.615463
782.024774,1149.143247,1110.308913,9326.594869
782.025089,153.219100,-0.000000,9844.739029
782.025405,0.000000,-1184.329507,9844.739029
782.025721,-536.266849,-148.041188,9844.739029
782.026037,0.000000,-444.123565,9622.677246
782.026352,306.438199,-74.020594,10584.944971
782.026668,459.657299,296.082377,9992.780217
782.026984,-689.485948,-0.000000,8956.491898
782.027300,0.000000,-0.000000,9844.739029
782.027615,842.705048,-518.144159,9474.636058
782.027931,689.485948,222.061783,8808.450710
782.028247,1072.533697,-74.020594,9252.574275
782.028562,0.000000,-1628.453072,9474.636058
782.028878,0.000000,-1110.308913,9622.677246
782.029194,383.047749,-0.000000,10140.821405
782.029510,153.219100,-666.185348,9030.512492
782.029825,842.705048,-444.123565,9918.759623
782.030141,383.047749,222.061783,8882.471304
782.030457,153.219100,-370.102971,8660.409521
782.030772,383.047749,222.061783,9474.636058
782.031088,612.876398,-370.102971,8734.430116
782.031404,919.314598,-370.102971,8438.347739
782.031720,689.485948,-814.226536,9400.615463
782.032035,0.000000,-1628.453072,9326.594869
782.032351,0.000000,-1258.350101,9992.780217
782.032667,229.828649,-814.226536,9400.615463
782.032983,229.828649,-148.041188,8438.347739
782.033298,612.876398,296.082377,9400.615463
782.033614,153.219100,-444.123565,8586.388927
782.033930,-153.219100,-370.102971,7920.203579
782.034245,459.657299,222.061783,9770.718434
782.034561,306.438199,-222.061783,8808.450710
782.034877,612.876398,-518.144159,9178.553681
782.035193,-229.828649,-666.185348,9252.574275
782.035508,0.000000,-1702.473667,10066.800811
782.035824,76.609550,-518.144159,10436.903782
782.036140,459.657299,-148.041188,9918.759623
782.036456,1072.533697,148.041188,9622.677246
782.036771,1532.190996,1036.288319,8290.306550
782.037087,229.828649,148.041188,8882.471304
782.037403,766.095498,-0.000000,9992.780217
782.037718,1302.362347,814.226536,9252.574275
782.038034,1685.410096,222.061783,8438.347739
782.038350,1072.533697,1184.329507,8586.388927
782.038666,766.095498,-888.247130,10288.862594
782.038981,536.266849,-1110.308913,9844.739029
782.039297,536.266849,296.082377,10510.924376
782.039613,689.485948,-74.020594,10584.944971
782.039928,1455.581446,148.041188,9770.718434
782.040244,1378.971896,518.144159,9030.512492
782.040560,153.219100,-222.061783,9474.636058
782.040876,919.314598,814.226536,9696.697840
782.041191,1072.533697,-0.000000,9548.656652
782.041507,459.657299,296.082377,9400.615463
782.041823,689.485948,-0.000000,10362.883188
782.042139,76.609550,-1184.329507,9326.594869
782.042454,153.219100,-222.061783,10140.821405
782.042770,229.828649,-444.123565,10436.903782
782.043086,995.924147,-148.041188,9622.677246
782.043401,383.047749,666.185348,9622.677246
782.043717,0.000000,-0.000000,9252.574275
782.044033,229.828649,-0.000000,10362.883188
782.044349,306.438199,740.205942,9474.636058
782.044664,459.657299,592.164754,8512.368333
782.044980,76.609550,-814.226536,9992.780217
782.045296,-383.047749,-1628.453072,10955.047942
782.045612,-383.047749,-1776.494261,10288.862594
782.045927,-306.438199,-444.123565,9622.677246
782.046243,229.828649,-74.020594,10140.821405
782.046559,306.438199,518.144159,9548.656652
782.046874,536.266849,1110.308913,8956.491898
782.047190,153.219100,-0.000000,8734.430116
782.047506,459.657299,-0.000000,9252.574275
782.047822,842.705048,518.144159,8808.450710
782.048137,1149.143247,-74.020594,7920.203579
782.048453,612.876398,222.061783,9178.553681
782.048769,153.219100,-1110.308913,9622.677246
782.049084,0.000000,-962.267725,9770.718434
782.049400,0.000000,592.164754,9474.636058
782.049716,0.000000,-148.041188,8956.491898
782.050031,383.047749,-296.082377,10214.842000
782.050347,76.609550,-518.144159,10066.800811
782.050663,-229.828649,-296.082377,9252.574275
782.050978,229.828649,1036.288319,9622.677246
782.051294,1072.533697,-0.000000,9400.615463
782.051610,766.095498,444.123565,8364.327145
782.051925,536.266849,444.123565,8660.409521
782.052241,-229.828649,-1184.329507,9400.615463
782.052557,0.000000,-666.185348,9992.780217
782.052872,229.828649,-592.164754,9918.759623
782.053188,536.266849,-1036.288319,9474.636058
782.053504,842.705048,444.123565,9696.697840
782.053819,766.095498,-0.000000,8808.450710
782.054135,0.000000,-0.000000,8882.471304
782.054451,306.438199,370.102971,10214.842000
782.054766,919.314598,-814.226536,8586.388927
782.055082,842.705048,-518.144159,9104.533087
782.055398,536.266849,-1332.370696,9992.780217
782.055713,383.047749,-2072.576638,10066.800811
782.056029,995.924147,-888.247130,9918.759623
782.056345,919.314598,-518.144159,8660.409521
782.056660,995.924147,-444.123565,9548.656652
782.056976,1149.143247,-148.041188,9696.697840
782.057292,229.828649,-666.185348,8512.368333
782.057607,459.657299,-148.041188,9326.594869
782.057923,689.485948,-74.020594,9622.677246
782.058239,1072.533697,-222.061783,8216.285956
782.058554,919.314598,-0.000000,9104.533087
782.058870,-306.438199,-1702.473667,10436.903782
782.059186,-306.438199,-1332.370696,9770.718434
782.059501,0.000000,74.020594,9548.656652
782.059817,-229.828649,-518.144159,9918.759623
782.060133,0.000000,-296.082377,10436.903782
782.060448,229.828649,-740.205942,10362.883188
782.060764,-459.657299,-962.267725,9548.656652
782.061080,-459.657299,-74.020594,10066.800811
782.061395,536.266849,-296.082377,9696.697840
782.061711,689.485948,-0.000000,8660.409521
782.062027,153.219100,222.061783,9252.574275
782.062342,153.219100,-740.205942,9474.636058
782.062658,306.438199,-592.164754,9696.697840
782.062974,229.828649,370.102971,9400.615463
782.063289,612.876398,-296.082377,9178.553681
782.063605,689.485948,-666.185348,9252.574275
782.063921,383.047749,-222.061783,9178.553681
782.064236,383.047749,-222.061783,9178.553681
782.064552,842.705048,-0.000000,9400.615463
782.064868,919.314598,148.041188,9030.512492
782.065183,919.314598,-0.000000,8734.430116
782.065499,306.438199,-814.226536,9030.512492
782.065815,-306.438199,-1406.391290,9918.759623
782.066130,76.609550,-222.061783,9548.656652
782.066446,306.438199,-74.020594,9696.697840
782.066762,229.828649,148.041188,10140.821405
782.067077,459.657299,666.185348,9474.636058
782.067393,76.609550,-222.061783,9104.533087
782.067709,0.000000,740.205942,8882.471304
782.068024,612.876398,296.082377,9474.636058
782.068340,1455.581446,-592.164754,9326.594869
782.068656,919.314598,222.061783,9474.636058
782.068971,229.828649,-296.082377,9622.677246
782.069287,0.000000,-148.041188,9622.677246
782.069603,689.485948,518.144159,9918.759623
782.069918,766.095498,-0.000000,9918.759623
782.070234,995.924147,666.185348,9474.636058
782.070550,919.314598,444.123565,9844.739029
782.070865,383.047749,370.102971,9622.677246
782.071181,1072.533697,1184.329507,8956.491898
782.071497,1302.362347,370.102971,8734.430116
782.071812,1072.533697,148.041188,8882.471304
782.072128,1532.190996,148.041188,9474.636058
782.072444,383.047749,-518.144159,9400.615463
782.072759,0.000000,-0.000000,9770.718434
782.073075,229.828649,-518.144159,9992.780217
782.073391,766.095498,-74.020594,9844.739029
782.073706,842.705048,518.144159,9696.697840
782.074022,383.047749,-444.123565,9844.739029
782.074338,536.266849,222.061783,9844.739029
782.074653,612.876398,666.185348,9326.594869
782.074969,1608.800546,-74.020594,9178.553681
782.075285,1225.752797,148.041188,9474.636058
782.075600,459.657299,-222.061783,9104.533087
782.075916,0.000000,-370.102971,9770.718434
782.076232,536.266849,-148.041188,9992.780217
782.076547,689.485948,-222.061783,9474.636058
782.076863,1302.362347,-148.041188,9326.594869
782.077179,689.485948,-444.123565,9178.553681
782.077494,0.000000,-1036.288319,9622.677246
782.077810,-153.219100,-592.164754,9696.697840
782.078126,76.609550,-0.000000,9474.636058
782.078441,0.000000,-74.020594,9178.553681
782.078757,229.828649,-592.164754,9474.636058
782.079073,-153.219100,-1628.453072,9474.636058
782.079388,-1149.143247,-1702.473667,10140.821405
782.079704,-536.266849,-1406.391290,10584.944971
782.080020,306.438199,-1184.329507,9548.656652
782.080335,76.609550,-74.020594,9400.615463
782.080651,306.438199,444.123565,9178.553681
782.080967,229.828649,-0.000000,8586.388927
782.081282,689.485948,814.226536,8290.306550
782.081598,766.095498,-0.000000,8512.368333
782.081914,1072.533697,-1258.350101,9178.553681
782.082229,842.705048,-592.164754,9474.636058
782.082545,0.000000,-1406.391290,9030.512492
782.082861,-153.219100,-0.000000,9696.697840
782.083176,153.219100,296.082377,9696.697840
782.083492,229.828649,-0.000000,9178.553681
782.083808,0.000000,1036.288319,8956.491898
782.084123,-459.657299,-518.144159,10214.842000
782.084439,-919.314598,-370.102971,9326.594869
782.084755,-153.219100,370.102971,9400.615463
782.085070,0.000000,-222.061783,9178.553681
782.085386,536.266849,-0.000000,9178.553681
782.085702,76.609550,-370.102971,9474.636058
782.086017,-1072.533697,-1406.391290,9548.656652
782.086333,-842.705048,-962.267725,10436.903782
782.086649,0.000000,-888.247130,10140.821405
782.086964,612.876398,-296.082377,9474.636058
782.087280,383.047749,-74.020594,10066.800811
782.087596,76.609550,-1406.391290,9918.759623
782.087911,612.876398,-518.144159,9474.636058
782.088227,842.705048,-370.102971,9474.636058
782.088543,1378.971896,-666.185348,9030.512492
782.088858,1915.238745,-148.041188,9030.512492
782.089174,766.095498,-1776.494261,9548.656652
782.089490,995.924147,-2294.638420,10362.883188
782.089805,1991.848295,-1406.391290,9992.780217
782.090121,2298.286494,-666.185348,8882.471304
782.090437,2068.457845,-0.000000,9326.594869
782.090752,1991.848295,-888.247130,8734.430116
782.091068,1532.190996,-518.144159,8882.471304
782.091384,995.924147,74.020594,8734.430116
782.091699,1302.362347,-888.247130,9104.533087
782.092015,995.924147,-1036.288319,9474.636058
782.092331,229.828649,-1850.514855,9030.512492
782.092646,-536.266849,-2590.720797,10436.903782
782.092962,-306.438199,-2664.741391,11251.130318
782.093278,-995.924147,-962.267725,9548.656652
782.093593,-1072.533697,-1480.411884,10140.821405
782.093909,-919.314598,-1850.514855,11029.068536
782.094225,-1149.143247,-1036.288319,9696.697840
782.094540,-229.828649,-2072.576638,9844.739029
782.094856,-306.438199,-1554.432478,9844.739029
782.095172,-459.657299,296.082377,8142.265362
782.095487,842.705048,-1702.473667,8142.265362
782.095803,766.095498,-222.061783,9326.594869
782.096119,-766.095498,-1406.391290,7550.100608
782.096434,-306.438199,-296.082377,8882.471304
782.096750,-153.219100,-370.102971,8290.306550
782.097066,-1149.143247,-1406.391290,8808.450710
782.097381,-689.485948,-1776.494261,9918.759623
782.097697,-1991.848295,-1628.453072,9326.594869
782.098013,-3140.991542,-2442.679609,10807.006753
782.098328,-2757.943793,-2442.679609,10732.986159
782.098644,-3447.429741,-2146.597232,9178.553681
782.098960,-3140.991542,-1850.514855,10584.944971
782.099275,-2911.162892,-2220.617826,10732.986159
782.099591,-3064.381992,-3404.947333,10288.862594
782.099907,-2604.724693,-2516.700203,10732.986159
782.100222,-2451.505594,-888.247130,8882.471304
782.100538,-1225.752797,-222.061783,8290.306550
782.100854,-459.657299,-148.041188,8734.430116
782.101170,-153.219100,-888.247130,7476.080014
782.101485,-383.047749,-1036.288319,8216.285956
782.101801,-1302.362347,-1628.453072,9770.718434
782.102117,-1072.533697,-2146.597232,9030.512492
782.102432,-1149.143247,-1406.391290,8586.388927
782.102748,-1762.019645,-1702.473667,9622.677246
782.103064,-2145.067394,-2738.761985,9622.677246
782.103379,-2528.115143,-3552.988522,11473.192101
782.103695,-2834.553343,-2886.803174,11325.150913
782.104011,-2987.772442,-2590.720797,9548.656652
782.104326,-2528.115143,-1628.453072,10214.842000
782.104642,-2374.896044,-2146.597232,10140.821405
782.104958,-1302.362347,-2072.576638,9474.636058
782.105273,-1302.362347,-1702.473667,9474.636058
782.105589,-1532.190996,-1258.350101,8586.388927
782.105905,-919.314598,-888.247130,7402.059420
782.106220,-612.876398,-1036.288319,7846.182985
782.106536,-1149.143247,-296.082377,7550.100608
782.106852,-766.095498,-1850.514855,8882.471304
782.107167,-842.705048,-3256.906145,9992.780217
782.107483,-2068.457845,-3256.906145,9622.677246
782.107799,-2145.067394,-3701.029710,10658.965565
782.108114,-2451.505594,-3923.091493,11103.089130
782.108430,-2911.162892,-2368.659014,10584.944971
782.108746,-2681.334243,-1702.473667,10807.006753
782.109061,-1685.410096,-2442.679609,10510.924376
782.109377,-2374.896044,-1702.473667,9918.759623
782.109693,-1991.848295,-1184.329507,9326.594869
782.110008,-1225.752797,-1850.514855,8808.450710
782.110324,-612.876398,-740.205942,8142.265362
782.110640,-919.314598,-444.123565,8142.265362
782.110955,0.000000,-1258.350101,8512.368333
782.111271,229.828649,-1924.535449,8216.285956
782.111587,-766.095498,-2368.659014,8956.491898
782.111902,-1072.533697,-3552.988522,9696.697840
782.112218,-842.705048,-3701.029710,10658.965565
782.112534,-1149.143247,-3552.988522,11325.150913
782.112849,-2145.067394,-2664.741391,10732.986159
782.113165,-1915.238745,-1998.556043,9992.780217
782.113481,-1915.238745,-2294.638420,9770.718434
782.113796,-842.705048,-2812.782580,9326.594869
782.114112,-1302.362347,-2072.576638,8882.471304
782.114428,-919.314598,-1554.432478,8586.388927
782.114743,-766.095498,-2294.638420,8216.285956
782.115059,-689.485948,-2220.617826,8216.285956
782.115375,-1149.143247,-2294.638420,8586.388927
782.115690,-2145.067394,-2368.659014,8142.265362
782.116006,-2221.676944,-2516.700203,8734.430116
782.116322,-2451.505594,-3775.050304,9696.697840
782.116637,-3217.601092,-4071.132681,9844.739029
782.116953,-3370.820191,-4367.215058,10807.006753
782.117269,-3524.039291,-4441.235652,11547.212695
782.117584,-3064.381992,-4219.173869,11103.089130
782.117900,-2834.553343,-2960.823768,10732.986159
782.118216,-2757.943793,-1406.391290,9844.739029
782.118531,-1302.362347,-222.061783,8438.347739
782.118847,-76.609550,-444.123565,8290.306550
782.119163,306.438199,-592.164754,7846.182985
782.119478,153.219100,-888.247130,6883.915261
782.119794,383.047749,-1776.494261,7624.121203
782.120110,306.438199,-1998.556043,8290.306550
782.120425,-306.438199,-2072.576638,8438.347739
782.120741,-919.314598,-1776.494261,9178.553681
782.121057,-2451.505594,-1184.329507,9400.615463
782.121372,-3370.820191,-1554.432478,9696.697840
782.121688,-3217.601092,-2368.659014,10510.924376
782.122004,-3600.648841,-2812.782580,10807.006753
782.122319,-3753.867940,-2960.823768,11251.130318
782.122635,-3830.477490,-3404.947333,11769.274478
782.122951,-3677.258390,-3923.091493,11547.212695
782.123266,-2757.943793,-2812.782580,11251.130318
782.123582,-2145.067394,-1998.556043,10584.944971
782.123898,-1532.190996,-814.226536,9104.533087
782.124213,-689.485948,-592.164754,8216.285956
782.124529,229.828649,-444.123565,7846.182985
782.124845,1762.019645,-148.041188,7179.997637
782.125160,2068.457845,-148.041188,7254.018232
782.125476,1302.362347,-1406.391290,7624.121203
782.125792,689.485948,-2294.638420,8364.327145
782.126107,-689.485948,-2146.597232,9474.636058
782.126423,-1532.190996,-2146.597232,10436.903782
782.126739,-2374.896044,-2368.659014,11251.130318
782.127054,-3064.381992,-2516.700203,11769.274478
782.127370,-3753.867940,-2886.803174,11695.253884
782.127686,-3677.258390,-2812.782580,11029.068536
782.128001,-3447.429741,-2368.659014,10140.821405
782.128317,-2604.724693,-2368.659014,9474.636058
782.128633,-1915.238745,-2960.823768,8882.471304
782.128948,-1762.019645,-3256.906145,9030.512492
782.129264,-1838.629195,-3775.050304,9400.615463
782.129580,-1915.238745,-3775.050304,9992.780217
782.129895,-2145.067394,-3849.070898,9770.718434
782.130211,-1608.800546,-3701.029710,10140.821405
782.130527,-995.924147,-2442.679609,10066.800811
782.130842,-383.047749,-1998.556043,9474.636058
782.131158,76.609550,-1406.391290,9104.533087
782.131474,153.219100,-962.267725,8660.409521
782.131789,0.000000,-518.144159,7994.224174
782.132105,459.657299,-148.041188,7254.018232
782.132421,76.609550,-962.267725,7328.038826
782.132736,-459.657299,-1480.411884,7698.141797
782.133052,-1302.362347,-2738.761985,8512.368333
782.133368,-1762.019645,-3997.112087,8734.430116
782.133683,-2757.943793,-4885.359217,9548.656652
782.133999,-3524.039291,-5403.503377,10510.924376
782.134315,-4060.306139,-5181.441594,11251.130318
782.134630,-3983.696590,-4959.379811,11769.274478
782.134946,-4749.792088,-4293.194464,11843.295072
782.135262,-4519.963438,-3478.967927,11251.130318
782.135577,-3830.477490,-2368.659014,10807.006753
782.135893,-2834.553343,-1332.370696,9474.636058
782.136209,-1608.800546,-666.185348,8808.450710
782.136524,0.000000,-0.000000,7476.080014
782.136840,1072.533697,444.123565,6587.832884
782.137156,1838.629195,-0.000000,5847.626942
782.137471,1991.848295,-222.061783,5625.565159
782.137787,1225.752797,-888.247130,6069.688724
782.138103,536.266849,-1554.432478,6883.915261
782.138418,-689.485948,-2442.679609,8512.368333
782.138734,-2374.896044,-4145.153275,10510.924376
782.139050,-4366.744339,-5255.462188,11843.295072
782.139365,-5209.449386,-6439.791695,13027.624579
782.139681,-6052.154434,-5773.606348,13693.809927
782.139997,-5975.544884,-4885.359217,13545.768739
782.140312,-5515.887586,-3478.967927,12953.603985
782.140628,-4136.915689,-1702.473667,11621.233289
782.140944,-2451.505594,-370.102971,9770.718434
782.141259,-612.876398,-0.000000,8216.285956
782.141575,1225.752797,148.041188,7179.997637
782.141891,2604.724693,444.123565,5847.626942
782.142206,3907.087040,370.102971,5329.482782
782.142522,4060.306139,444.123565,5403.503377
782.142838,3907.087040,-148.041188,6069.688724
782.143153,2528.115143,-1184.329507,7476.080014
782.143469,1149.143247,-2368.659014,9400.615463
782.143785,-536.266849,-3034.844362,10732.986159
782.144100,-1991.848295,-3478.967927,11917.315666
782.144416,-3753.867940,-3256.906145,12509.480420
782.144732,-4519.963438,-2590.720797,12879.583391
782.145047,-5056.230287,-2294.638420,12509.480420
782.145363,-5439.278036,-1998.556043,11991.336260
782.145679,-4979.620737,-1850.514855,11621.233289
782.145994,-4366.744339,-2220.617826,10214.842000
782.146310,-3447.429741,-2442.679609,9548.656652
782.146626,-1915.238745,-2590.720797,9178.553681
782.146941,-919.314598,-2146.597232,8364.327145
782.147257,-689.485948,-1776.494261,7698.141797
782.147573,76.609550,-1258.350101,8216.285956
782.147888,0.000000,-1924.535449,8512.368333
782.148204,-153.219100,-2146.597232,8956.491898
782.148520,-766.095498,-2072.576638,9326.594869
782.148836,-842.705048,-1924.535449,9992.780217
782.149151,-995.924147,-1036.288319,9918.759623
782.149467,-1302.362347,-814.226536,10066.800811
782.149783,-1149.143247,-1036.288319,10214.842000
782.150099,-1455.581446,-1702.473667,10214.842000
782.150414,-1915.238745,-2220.617826,9696.697840
782.150730,-1991.848295,-2442.679609,9548.656652
782.151046,-1455.581446,-3034.844362,9548.656652
782.151362,-383.047749,-3552.988522,9400.615463
782.151677,-1149.143247,-3404.947333,8956.491898
782.151993,-995.924147,-2812.782580,8882.471304
782.152309,-995.924147,-3627.009116,9252.574275
782.152625,-1302.362347,-3552.988522,9844.739029
782.152940,-1608.800546,-3404.947333,10140.821405
782.153256,-1302.362347,-2516.700203,9696.697840
782.153572,-459.657299,-1628.453072,9400.615463
782.153888,-536.266849,-666.185348,9178.553681
782.154203,536.266849,-222.061783,8586.388927
782.154519,919.314598,-222.061783,8142.265362
782.154835,1149.143247,-518.144159,8290.306550
782.155151,1072.533697,-1036.288319,7550.100608
782.155466,1149.143247,-1332.370696,7550.100608
782.155782,229.828649,-1628.453072,7698.141797
782.156098,76.609550,-1924.535449,8586.388927
782.156414,-766.095498,-2960.823768,9252.574275
782.156729,-2145.067394,-2960.823768,9844.739029
782.157045,-3064.381992,-2960.823768,10436.903782
782.157361,-4060.306139,-2442.679609,10955.047942
782.157677,-3907.087040,-1998.556043,10807.006753
782.157993,-3677.258390,-1110.308913,10510.924376
782.158308,-3370.820191,-222.061783,10140.821405
782.158624,-2604.724693,-222.061783,9474.636058
782.158940,-1685.410096,-814.226536,9474.636058
782.159256,-766.095498,-1110.308913,8882.471304
782.159571,-229.828649,-1110.308913,8660.409521
782.159887,-229.828649,-1036.288319,8216.285956
782.160203,0.000000,-1776.494261,8216.285956
782.160519,-306.438199,-1036.288319,8660.409521
782.160834,-766.095498,-1776.494261,9326.594869
782.161150,-1455.581446,-2072.576638,9400.615463
782.161466,-2145.067394,-2516.700203,9992.780217
782.161782,-2911.162892,-2960.823768,10066.800811
782.162097,-3677.258390,-2960.823768,10955.047942
782.162413,-4060.306139,-2886.803174,11177.109724
782.162729,-4519.963438,-2590.720797,11399.171507
782.163045,-4903.011187,-2590.720797,11029.068536
782.163360,-4903.011187,-3404.947333,10658.965565
782.163676,-4213.525239,-3775.050304,10658.965565
782.163992,-3753.867940,-4071.132681,10066.800811
782.164308,-3217.601092,-4145.153275,9696.697840
782.164623,-2451.505594,-4071.132681,9474.636058
782.164939,-1915.238745,-3775.050304,8956.491898
782.165255,-1225.752797,-3701.029710,9178.553681
782.165571,-919.314598,-4071.132681,9400.615463
782.165886,-1302.362347,-3701.029710,9252.574275
782.166202,-1838.629195,-3627.009116,9252.574275
782.166518,-1378.971896,-3478.967927,9770.718434
782.166834,-1608.800546,-3478.967927,9696.697840
782.167149,-1685.410096,-2886.803174,9992.780217
782.167465,-1762.019645,-2516.700203,9696.697840
782.167781,-1838.629195,-2960.823768,9104.533087
782.168097,-1378.971896,-3108.864956,9400.615463
782.168413,-842.705048,-2664.741391,8956.491898
782.168728,-766.095498,-2738.761985,8364.327145
782.169044,-612.876398,-2442.679609,8290.306550
782.169360,-536.266849,-2294.638420,7846.182985
782.169676,-689.485948,-2294.638420,7624.121203
782.169991,-306.438199,-2368.659014,7846.182985
782.170307,-919.314598,-2590.720797,8142.265362
782.170623,-1915.238745,-3034.844362,8438.347739
782.170939,-2145.067394,-3775.050304,8956.491898
782.171254,-2911.162892,-3478.967927,10140.821405
782.171570,-3294.210641,-3478.967927,10362.883188
782.171886,-3294.210641,-3478.967927,10510.924376
782.172202,-2911.162892,-3182.885551,10510.924376
782.172517,-2604.724693,-3552.988522,10436.903782
782.172833,-2145.067394,-3108.864956,10288.862594
782.173149,-1072.533697,-2220.617826,9104.533087
782.173465,-229.828649,-1258.350101,8512.368333
782.173780,612.876398,-296.082377,7624.121203
782.174096,1302.362347,148.041188,7105.977043
782.174412,1608.800546,370.102971,6883.915261
782.174728,1915.238745,518.144159,6365.771101
782.175043,1532.190996,-0.000000,6661.853478
782.175359,689.485948,-518.144159,7550.100608
782.175675,-612.876398,-1332.370696,8586.388927
782.175991,-1532.190996,-2590.720797,9844.739029
782.176306,-2681.334243,-3701.029710,11399.171507
782.176622,-3447.429741,-4737.318029,12361.439231
782.176938,-4673.182538,-4737.318029,13323.706956
782.177254,-4519.963438,-4515.256246,13767.830521
782.177569,-4136.915689,-3552.988522,13249.686362
782.177885,-3064.381992,-1924.535449,11843.295072
782.178201,-1991.848295,-444.123565,9992.780217
782.178517,-383.047749,888.247130,8660.409521
782.178833,612.876398,1406.391290,7254.018232
782.179148,1455.581446,1480.411884,5773.606348
782.179464,1762.019645,1628.453072,5625.565159
782.179780,1762.019645,740.205942,6143.709319
782.180096,1149.143247,-296.082377,7328.038826
782.180411,153.219100,-1702.473667,8956.491898
782.180727,-1532.190996,-3182.885551,10732.986159
782.181043,-3830.477490,-3404.947333,12361.439231
782.181359,-4826.401637,-3923.091493,12953.603985
782.181674,-5209.449386,-4145.153275,14063.912898
782.181990,-5056.230287,-2516.700203,13397.727550
782.182306,-4903.011187,-1628.453072,12287.418637
782.182622,-4136.915689,-666.185348,11177.109724
782.182937,-3983.696590,-370.102971,9770.718434
782.183253,-2528.115143,-518.144159,8882.471304
782.183569,-1149.143247,-592.164754,8068.244768
782.183885,-766.095498,-1184.329507,8142.265362
782.184200,-536.266849,-1776.494261,8290.306550
782.184516,-689.485948,-2146.597232,8142.265362
782.184832,-229.828649,-1924.535449,8068.244768
782.185148,-842.705048,-1850.514855,9252.574275
782.185463,-1532.190996,-1998.556043,9326.594869
782.185779,-2068.457845,-2442.679609,9548.656652
782.186095,-2604.724693,-3034.844362,10214.842000
782.186411,-2681.334243,-3182.885551,10658.965565
782.186726,-2757.943793,-3923.091493,11399.171507
782.187042,-3524.039291,-2960.823768,11251.130318
782.187358,-4060.306139,-3108.864956,10214.842000
782.187674,-3217.601092,-3256.906145,10510.924376
782.187989,-2298.286494,-3627.009116,9918.759623
782.188305,-2068.457845,-2812.782580,8660.409521
782.188621,-995.924147,-2886.803174,7920.203579
782.188937,-612.876398,-3404.947333,7402.059420
782.189253,153.219100,-4293.194464,7476.080014
782.189568,153.219100,-4071.132681,7994.224174
782.189884,-766.095498,-3775.050304,8956.491898
782.190200,-1302.362347,-3997.112087,9326.594869
782.190516,-1455.581446,-3849.070898,9622.677246
782.190831,-1685.410096,-2812.782580,9844.739029
782.191147,-1915.238745,-1776.494261,9104.533087
782.191463,-842.705048,-1406.391290,8882.471304
782.191779,-153.219100,-2442.679609,9252.574275
782.192094,306.438199,-2886.803174,8364.327145
782.192410,0.000000,-2368.659014,7994.224174
782.192726,229.828649,-2368.659014,8438.347739
782.193042,76.609550,-2368.659014,8068.244768
782.193357,-536.266849,-2368.659014,7920.203579
782.193673,-842.705048,-2960.823768,8586.388927
782.193989,-1225.752797,-3849.070898,9326.594869
782.194305,-2528.115143,-4071.132681,10214.842000
782.194620,-2834.553343,-4219.173869,10288.862594
782.194936,-3370.820191,-3404.947333,10436.903782
782.195252,-2604.724693,-2220.617826,10881.027347
782.195568,-2604.724693,-1110.308913,10140.821405
782.195883,-1915.238745,-444.123565,9548.656652
782.196199,-1378.971896,-592.164754,9326.594869
782.196515,-919.314598,-1110.308913,9104.533087
782.196831,-229.828649,-740.205942,8290.306550
782.197146,536.266849,-888.247130,7846.182985
782.197462,689.485948,-740.205942,7402.059420
782.197778,229.828649,-962.267725,7698.141797
782.198094,76.609550,-2146.597232,8660.409521
782.198410,-689.485948,-2368.659014,9104.533087
782.198725,-1991.848295,-2960.823768,9992.780217
782.199041,-3294.210641,-3182.885551,10510.924376
782.199357,-3447.429741,-3034.844362,11399.171507
782.199673,-4749.792088,-2664.741391,12139.377449
782.199988,-4826.401637,-2368.659014,13027.624579
782.200304,-3907.087040,-2146.597232,12509.480420
782.200620,-3907.087040,-888.247130,11177.109724
782.200936,-3294.210641,-222.061783,9844.739029
782.201251,-1608.800546,74.020594,9400.615463
782.201567,-153.219100,666.185348,7920.203579
782.201883,153.219100,592.164754,8364.327145
782.202199,1225.752797,148.041188,7402.059420
782.202514,1685.410096,-740.205942,7179.997637
782.202830,153.219100,-1258.350101,8512.368333
782.203146,-306.438199,-2220.617826,9622.677246
782.203462,-766.095498,-2368.659014,9474.636058
782.203777,-1608.800546,-1702.473667,10510.924376
782.204093,-2681.334243,-2220.617826,11547.212695
782.204409,-2681.334243,-2220.617826,11917.315666
782.204725,-4060.306139,-148.041188,11029.068536
782.205040,-4136.915689,-0.000000,10732.986159
782.205356,-3140.991542,-0.000000,10510.924376
782.205672,-2374.896044,-296.082377,9474.636058
782.205988,-2528.115143,-222.061783,9104.533087
782.206303,-1608.800546,-1406.391290,9474.636058
782.206619,-1302.362347,-2072.576638,8882.471304
782.206935,-612.876398,-1554.432478,8734.430116
782.207251,383.047749,-1258.350101,9104.533087
782.207566,536.266849,-1258.350101,9252.574275
782.207882,766.095498,-1036.288319,9030.512492
782.208198,229.828649,-1406.391290,9474.636058
782.208514,689.485948,-814.226536,10140.821405
782.208830,919.314598,1332.370696,8956.491898
782.209145,1455.581446,1036.288319,7994.224174
782.209461,1149.143247,148.041188,9770.718434
782.209777,612.876398,-0.000000,9252.574275
782.210093,612.876398,-148.041188,8660.409521
782.210408,612.876398,-1258.350101,9326.594869
782.210724,229.828649,-1110.308913,8512.368333
782.211040,842.705048,-1628.453072,9696.697840
782.211356,1149.143247,-2368.659014,9400.615463
782.211671,459.657299,-1258.350101,8956.491898
782.211987,76.609550,-2072.576638,9178.553681
782.212303,0.000000,-1628.453072,9474.636058
782.212619,153.219100,-962.267725,8438.347739
782.212934,459.657299,-1702.473667,9622.677246
782.213250,306.438199,-1628.453072,9992.780217
782.213566,-536.266849,-814.226536,9178.553681
782.213882,-306.438199,-1480.411884,10066.800811
782.214197,229.828649,-1406.391290,9548.656652
782.214513,612.876398,-592.164754,8956.491898
782.214829,919.314598,-1110.308913,9178.553681
782.215145,919.314598,-666.185348,9104.533087
782.215460,1072.533697,370.102971,7698.141797
782.215776,1685.410096,444.123565,7846.182985
782.216092,1378.971896,666.185348,7994.224174
782.216408,919.314598,-444.123565,8438.347739
782.216723,459.657299,-1480.411884,9474.636058
782.217039,-1072.533697,-1258.350101,10066.800811
782.217355,-1225.752797,-1406.391290,10436.903782
782.217671,-995.924147,-888.247130,10658.965565
782.217986,-1302.362347,-592.164754,10584.944971
782.218302,-1225.752797,-518.144159,11251.130318
782.218618,-1302.362347,-222.061783,11103.089130
782.218934,-1072.533697,-148.041188,10066.800811
782.219250,306.438199,-0.000000,10362.883188
782.219565,1225.752797,592.164754,9252.574275
782.219881,2221.676944,518.144159,8882.471304
782.220197,2451.505594,888.247130,7994.224174
782.220513,1991.848295,-74.020594,8438.347739
782.220828,2451.505594,-74.020594,8734.430116
782.221144,2528.115143,1480.411884,8068.244768
782.221460,2068.457845,666.185348,7698.141797
782.221776,1225.752797,-74.020594,9548.656652
782.222091,0.000000,-666.185348,10436.903782
782.222407,-1302.362347,-814.226536,10288.862594
782.222723,-1225.752797,-1110.308913,10807.006753
782.223039,-995.924147,-1776.494261,11103.089130
782.223354,-1685.410096,-2738.761985,11547.212695
782.223670,-1685.410096,-2220.617826,11843.295072
782.223986,-2298.286494,-2368.659014,11325.150913
782.224302,-842.705048,-1554.432478,10288.862594
782.224617,0.000000,-74.020594,9474.636058
782.224933,229.828649,-0.000000,8734.430116
782.225249,1225.752797,148.041188,9252.574275
782.225565,1149.143247,370.102971,8660.409521
782.225880,1378.971896,370.102971,8290.306550
782.226196,1762.019645,1110.308913,8142.265362
782.226512,1915.238745,-0.000000,7698.141797
782.226828,1149.143247,-148.041188,9474.636058
782.227143,383.047749,-962.267725,10584.944971
782.227459,-383.047749,-962.267725,10288.862594
782.227775,0.000000,-518.144159,10658.965565
782.228091,229.828649,-0.000000,10288.862594
782.228406,153.219100,-74.020594,9400.615463
782.228722,0.000000,370.102971,10066.800811
782.229038,0.000000,296.082377,9178.553681
782.229354,766.095498,370.102971,9326.594869
782.229670,1991.848295,1184.329507,8956.491898
782.229985,1608.800546,1110.308913,7550.100608
782.230301,1072.533697,-370.102971,8364.327145
782.230617,842.705048,-1036.288319,9252.574275
782.230933,229.828649,-1258.350101,9918.759623
782.231248,919.314598,-148.041188,9474.636058
782.231564,766.095498,-74.020594,9178.553681
782.231880,612.876398,-0.000000,8734.430116
782.232196,0.000000,1036.288319,9474.636058
782.232511,0.000000,666.185348,9030.512492
782.232827,612.876398,1184.329507,8808.450710
782.233143,842.705048,1184.329507,9104.533087
782.233459,842.705048,148.041188,9030.512492
782.233774,383.047749,370.102971,8808.450710
782.234090,306.438199,-962.267725,9548.656652
782.234406,0.000000,-1110.308913,9696.697840
782.234722,1149.143247,370.102971,9918.759623
782.235037,842.705048,-74.020594,9548.656652
782.235353,842.705048,666.185348,9104.533087
782.235669,153.219100,370.102971,9770.718434
782.235985,76.609550,296.082377,9548.656652
782.236300,766.095498,740.205942,9474.636058
782.236616,766.095498,-370.102971,9548.656652
782.236932,0.000000,-814.226536,10362.883188
782.237248,-459.657299,-1036.288319,10362.883188
782.237563,-689.485948,-1332.370696,10066.800811
782.237879,-229.828649,-518.144159,9918.759623
782.238195,612.876398,-222.061783,10214.842000
782.238511,842.705048,-444.123565,9400.615463
782.238827,306.438199,-148.041188,9548.656652
782.239142,306.438199,-1036.288319,9622.677246
782.239458,1149.143247,-370.102971,9474.636058
782.239774,1378.971896,222.061783,8882.471304
782.240090,919.314598,-296.082377,9178.553681
782.240405,459.657299,-666.185348,9696.697840
782.240721,-383.047749,-1036.288319,9992.780217
782.241037,-1149.143247,-1702.473667,10362.883188
782.241353,-306.438199,-962.267725,11177.109724
782.241668,0.000000,-962.267725,11029.068536
782.241984,-306.438199,-518.144159,10140.821405
782.242300,-689.485948,-370.102971,10214.842000
782.242616,153.219100,-0.000000,9474.636058
782.242931,689.485948,666.185348,9030.512492
782.243247,1762.019645,1036.288319,8808.450710
782.243563,1762.019645,-148.041188,8808.450710
782.243879,1685.410096,-370.102971,8512.368333
782.244194,1149.143247,-518.144159,8512.368333
782.244510,1378.971896,-592.164754,9178.553681
782.244826,2068.457845,-0.000000,9696.697840
782.245142,1685.410096,-666.185348,9326.594869
782.245457,919.314598,-518.144159,9474.636058
782.245773,153.219100,-1480.411884,10362.883188
782.246089,-229.828649,-518.144159,9252.574275
782.246405,229.828649,-0.000000,9326.594869
782.246720,612.876398,-592.164754,9326.594869
782.247036,229.828649,-1480.411884,9474.636058
782.247352,-306.438199,-740.205942,9252.574275
782.247668,-612.876398,-1924.535449,8808.450710
782.247983,-76.609550,-1850.514855,9104.533087
782.248299,612.876398,-814.226536,9548.656652
782.248615,612.876398,-888.247130,8660.409521
782.248931,306.438199,-592.164754,7624.121203
782.249247,76.609550,444.123565,8586.388927
782.249562,536.266849,-444.123565,8290.306550
782.249878,1455.581446,-0.000000,8882.471304
782.250194,459.657299,-74.020594,8438.347739
782.250510,-383.047749,-296.082377,8512.368333
782.250826,-153.219100,-740.205942,9696.697840
782.251141,-1072.533697,-1480.411884,10214.842000
782.251457,-459.657299,-296.082377,10658.965565
782.251773,536.266849,444.123565,9918.759623
782.252089,-383.047749,370.102971,9326.594869
782.252405,-919.314598,814.226536,10066.800811
782.252721,-612.876398,-0.000000,9474.636058
782.253037,76.609550,888.247130,9104.533087
782.253352,1225.752797,1480.411884,8882.471304
782.253668,842.705048,370.102971,8586.388927
782.253984,842.705048,518.144159,9474.636058
782.254300,153.219100,-0.000000,9400.615463
782.254616,306.438199,296.082377,10214.842000
782.254932,1302.362347,814.226536,10214.842000
782.255247,766.095498,296.082377,9548.656652
782.255563,383.047749,888.247130,9474.636058
782.255879,306.438199,518.144159,10510.924376
782.256195,766.095498,370.102971,9696.697840
782.256511,689.485948,1036.288319,9326.594869
782.256827,1225.752797,222.061783,10288.862594
782.257143,1072.533697,-222.061783,10066.800811
782.257458,153.219100,222.061783,9770.718434
782.257774,76.609550,-592.164754,10214.842000
782.258090,383.047749,-370.102971,10658.965565
782.258406,689.485948,-74.020594,10584.944971
782.258722,689.485948,592.164754,10066.800811
782.259038,536.266849,592.164754,9622.677246
782.259353,459.657299,148.041188,9696.697840
782.259669,536.266849,-370.102971,9696.697840
782.259985,1378.971896,666.185348,9918.759623
782.260301,1455.581446,-370.102971,9918.759623
782.260617,536.266849,-592.164754,9770.718434
782.260933,766.095498,-1036.288319,10214.842000
782.261249,459.657299,-814.226536,10066.800811
782.261564,842.705048,444.123565,9252.574275
782.261880,1378.971896,-222.061783,9844.739029
782.262196,1149.143247,-444.123565,9030.512492
782.262512,919.314598,-518.144159,9474.636058
782.262828,306.438199,-1036.288319,9252.574275
782.263144,766.095498,-148.041188,8882.471304
782.263459,1149.143247,-444.123565,9104.533087
782.263775,612.876398,-1036.288319,8290.306550
782.264091,459.657299,-740.205942,8734.430116
782.264407,-536.266849,-1480.411884,9622.677246
782.264723,-842.705048,-1110.308913,9252.574275
782.265039,0.000000,-666.185348,9474.636058
782.265355,153.219100,-1258.350101,9844.739029
782.265670,-153.219100,-740.205942,8882.471304
782.265986,-689.485948,-592.164754,8660.409521
782.266302,-306.438199,-814.226536,9252.574275
782.266618,919.314598,-0.000000,9030.512492
782.266934,1149.143247,370.102971,8586.388927
782.267250,1378.971896,666.185348,7772.162391
782.267565,306.438199,222.061783,8512.368333
782.267881,306.438199,-666.185348,9252.574275
782.268197,306.438199,296.082377,8808.450710
782.268513,306.438199,-148.041188,9474.636058
782.268829,0.000000,-0.000000,9622.677246
782.269145,0.000000,740.205942,8956.491898
782.269461,-766.095498,-0.000000,9104.533087
782.269776,-766.095498,296.082377,9400.615463
782.270092,0.000000,370.102971,10214.842000
782.270408,0.000000,-222.061783,8956.491898
782.270724,-306.438199,-592.164754,9548.656652
782.271040,-536.266849,-666.185348,9770.718434
782.271356,-536.266849,-962.267725,9474.636058
782.271671,229.828649,-740.205942,10214.842000
782.271987,842.705048,-740.205942,9696.697840
782.272303,766.095498,-296.082377,9474.636058
782.272619,306.438199,-0.000000,8660.409521
782.272935,229.828649,-518.144159,9474.636058
782.273251,1378.971896,-0.000000,9474.636058
782.273566,1608.800546,370.102971,8734.430116
782.273882,919.314598,-444.123565,9178.553681
782.274198,0.000000,-740.205942,9696.697840
782.274514,-536.266849,-1554.432478,10066.800811
782.274830,-153.219100,-1702.473667,10807.006753
782.275146,383.047749,-148.041188,10658.965565
782.275462,536.266849,-296.082377,9918.759623
782.275777,76.609550,148.041188,9622.677246
782.276093,306.438199,-370.102971,10288.862594
782.276409,689.485948,-666.185348,10510.924376
782.276725,1302.362347,444.123565,10436.903782
782.277041,1378.971896,222.061783,9918.759623
782.277357,1225.752797,-148.041188,9252.574275
782.277672,1302.362347,222.061783,9474.636058
782.277988,536.266849,-74.020594,9474.636058
782.278304,1455.581446,444.123565,10510.924376
782.278620,1838.629195,888.247130,10362.883188
782.278936,1532.190996,814.226536,9474.636058
782.279252,1532.190996,1110.308913,9104.533087
782.279568,766.095498,-0.000000,9104.533087
782.279883,1302.362347,370.102971,9696.697840
782.280199,1685.410096,1480.411884,8364.327145
782.280515,1455.581446,370.102971,9030.512492
782.280831,0.000000,-222.061783,9326.594869
782.281147,-306.438199,-1332.370696,10066.800811
782.281463,-383.047749,-1776.494261,9770.718434
782.281778,76.609550,-370.102971,10362.883188
782.282094,459.657299,-0.000000,9844.739029
782.282410,76.609550,-370.102971,9474.636058
782.282726,-306.438199,-74.020594,9548.656652
782.283042,-383.047749,-370.102971,9104.533087
782.283358,229.828649,814.226536,8216.285956
782.283674,536.266849,740.205942,8364.327145
782.283989,459.657299,-518.144159,8882.471304
782.284305,306.438199,-370.102971,9030.512492
782.284621,-459.657299,-1332.370696,8882.471304
782.284937,-689.485948,-1332.370696,10214.842000
782.285253,0.000000,-740.205942,9548.656652
782.285569,153.219100,-740.205942,9548.656652
782.285884,-383.047749,-74.020594,9178.553681
782.286200,-766.095498,-296.082377,9770.718434
782.286516,-306.438199,-592.164754,9474.636058
782.286832,766.095498,518.144159,8882.471304
782.287148,689.485948,444.123565,7994.224174
782.287464,536.266849,-666.185348,8660.409521
782.287780,-229.828649,-1480.411884,9252.574275
782.288095,-306.438199,-1998.556043,10140.821405
782.288411,76.609550,-370.102971,9474.636058
782.288727,306.438199,222.061783,9178.553681
782.289043,536.266849,-148.041188,9252.574275
782.289359,76.609550,-370.102971,8956.491898
782.289675,76.609550,-666.185348,9178.553681
782.289990,306.438199,-222.061783,9770.718434
782.290306,536.266849,-222.061783,9548.656652
782.290622,612.876398,-296.082377,9326.594869
782.290938,689.485948,-740.205942,9400.615463
782.291254,0.000000,-296.082377,9400.615463
782.291570,0.000000,-666.185348,10066.800811
782.291885,842.705048,-222.061783,11177.109724
782.292201,1302.362347,444.123565,9918.759623
782.292517,306.438199,1110.308913,9104.533087
782.292833,1378.971896,740.205942,9992.780217
782.293149,919.314598,-0.000000,9696.697840
782.293465,1302.362347,-0.000000,10066.800811
782.293781,1378.971896,518.144159,9918.759623
782.294096,1225.752797,-592.164754,8882.471304
782.294412,612.876398,-888.247130,9770.718434
782.294728,0.000000,-888.247130,10658.965565
782.295044,536.266849,-888.247130,10288.862594
782.295360,1072.533697,-74.020594,10658.965565
782.295676,1072.533697,-592.164754,9992.780217
782.295991,919.314598,-222.061783,9696.697840
782.296307,689.485948,-222.061783,9696.697840
782.296623,612.876398,-444.123565,8808.450710
782.296939,1455.581446,296.082377,9178.553681
782.297255,1378.971896,-222.061783,8808.450710
782.297571,1302.362347,-962.267725,8734.430116
782.297887,306.438199,-1258.350101,9844.739029
782.298202,229.828649,-1628.453072,9770.718434
782.298518,306.438199,-148.041188,8808.450710
782.298834,306.438199,-0.000000,9474.636058
782.299150,612.876398,-518.144159,9252.574275
782.299466,0.000000,-296.082377,9696.697840
782.299782,-459.657299,-518.144159,10140.821405
782.300097,0.000000,-148.041188,8734.430116
782.300413,306.438199,518.144159,8512.368333
782.300729,153.219100,148.041188,9326.594869
782.301045,-459.657299,-222.061783,9622.677246
782.301361,-842.705048,-1184.329507,9548.656652
782.301677,-842.705048,-518.144159,9326.594869
782.301993,-612.876398,-0.000000,9844.739029
782.302308,0.000000,-74.020594,10436.903782
782.302624,153.219100,518.144159,8882.471304
782.302940,-459.657299,1110.308913,8808.450710
782.303256,0.000000,370.102971,9030.512492
782.303572,1302.362347,1036.288319,8808.450710
782.303888,1532.190996,1702.473667,8142.265362
782.304203,995.924147,518.144159,8216.285956
782.304519,383.047749,-370.102971,9326.594869
