#time,accel_x,accel_y,accel_z
596.146694,1378.971896,1258.350101,9104.533087
596.147009,1838.629195,1332.370696,9104.533087
596.147325,2221.676944,1480.411884,8956.491898
596.147641,2451.505594,1480.411884,8882.471304
596.147956,2528.115143,1628.453072,9178.553681
596.148272,2374.896044,1258.350101,9178.553681
596.148588,2298.286494,1110.308913,9252.574275
596.148903,1762.019645,962.267725,9474.636058
596.149219,1455.581446,740.205942,9622.677246
596.149535,1302.362347,666.185348,9992.780217
596.149851,1149.143247,518.144159,9844.739029
596.150166,689.485948,-74.020594,9844.739029
596.150482,536.266849,-148.041188,10066.800811
596.150798,459.657299,-814.226536,10214.842000
596.151113,383.047749,-518.144159,10510.924376
596.151429,383.047749,-740.205942,9992.780217
596.151745,766.095498,-592.164754,10436.903782
596.152060,1225.752797,-0.000000,9992.780217
596.152376,2068.457845,592.164754,10066.800811
596.152692,2451.505594,814.226536,8956.491898
596.153008,3294.210641,1554.432478,8734.430116
596.153323,4060.306139,2072.576638,8364.327145
596.153639,4366.744339,2368.659014,8142.265362
596.153955,4366.744339,2368.659014,7698.141797
596.154270,4596.572988,2368.659014,7698.141797
596.154586,4290.134789,1776.494261,8068.244768
596.154902,4060.306139,1406.391290,8512.368333
596.155217,3753.867940,1110.308913,9104.533087
596.155533,2757.943793,666.185348,9400.615463
596.155849,2068.457845,370.102971,9770.718434
596.156165,1455.581446,444.123565,9918.759623
596.156480,1302.362347,666.185348,10288.862594
596.156796,1072.533697,888.247130,10066.800811
596.157112,1378.971896,1850.514855,10066.800811
596.157427,1685.410096,2146.597232,9992.780217
596.157743,2221.676944,2590.720797,9548.656652
596.158059,2451.505594,2738.761985,9178.553681
596.158374,3600.648841,2590.720797,8660.409521
596.158690,3983.696590,2960.823768,8734.430116
596.159006,4366.744339,3182.885551,8956.491898
596.159322,4519.963438,3478.967927,8882.471304
596.159637,4826.401637,3404.947333,9104.533087
596.159953,4749.792088,3034.844362,9252.574275
596.160269,4596.572988,3034.844362,9844.739029
596.160584,4673.182538,3108.864956,9770.718434
596.160900,4443.353888,3404.947333,9992.780217
596.161216,4060.306139,3701.029710,9770.718434
596.161531,4136.915689,3627.009116,9622.677246
596.161847,2987.772442,3849.070898,9696.697840
596.162163,2834.553343,3997.112087,9474.636058
596.162479,2298.286494,3552.988522,9474.636058
596.162794,2298.286494,2590.720797,9622.677246
596.163110,1762.019645,2442.679609,9918.759623
596.163426,1225.752797,1924.535449,10288.862594
596.163741,1072.533697,1258.350101,10362.883188
596.164057,842.705048,1258.350101,10881.027347
596.164373,459.657299,1036.288319,10881.027347
596.164688,229.828649,962.267725,10732.986159
596.165004,306.438199,1110.308913,10807.006753
596.165320,0.000000,1184.329507,10288.862594
596.165636,459.657299,1258.350101,9844.739029
596.165951,612.876398,888.247130,9696.697840
596.166267,306.438199,1258.350101,9548.656652
596.166583,76.609550,1036.288319,9400.615463
596.166898,229.828649,222.061783,9474.636058
596.167214,0.000000,-74.020594,9474.636058
596.167530,76.609550,-814.226536,10362.883188
596.167845,-459.657299,-1332.370696,10066.800811
596.168161,-536.266849,-1406.391290,10732.986159
596.168477,0.000000,-1480.411884,10510.924376
596.168793,0.000000,-1110.308913,10288.862594
596.169108,0.000000,-888.247130,10510.924376
596.169424,536.266849,-222.061783,9474.636058
596.169740,842.705048,148.041188,9030.512492
596.170055,1302.362347,592.164754,8068.244768
596.170371,1302.362347,296.082377,7624.121203
596.170687,1608.800546,-74.020594,7476.080014
596.171002,1838.629195,-296.082377,7846.182985
596.171318,766.095498,-1258.350101,7846.182985
596.171634,153.219100,-1554.432478,8586.388927
596.171950,-766.095498,-1924.535449,8734.430116
596.172265,-1455.581446,-2368.659014,9400.615463
596.172581,-1991.848295,-2590.720797,9622.677246
596.172896,-2757.943793,-3256.906145,10140.821405
596.173212,-3140.991542,-3404.947333,10584.944971
596.173527,-3140.991542,-3256.906145,10732.986159
596.173843,-3217.601092,-3701.029710,10732.986159
596.174159,-2298.286494,-3182.885551,10362.883188
596.174474,-1608.800546,-2368.659014,9548.656652
596.174790,-612.876398,-1702.473667,9104.533087
596.175105,306.438199,-1036.288319,8512.368333
596.175421,1608.800546,-518.144159,7624.121203
596.175737,2911.162892,370.102971,6957.935855
596.176052,3600.648841,740.205942,6439.791695
596.176368,3907.087040,740.205942,6365.771101
596.176683,3830.477490,222.061783,6883.915261
596.176999,3677.258390,-370.102971,7179.997637
596.177314,2757.943793,-962.267725,8364.327145
596.177630,1608.800546,-1036.288319,9104.533087
596.177946,306.438199,-1554.432478,9696.697840
596.178261,-1302.362347,-1332.370696,10436.903782
596.178577,-1608.800546,-1258.350101,10955.047942
596.178892,-2221.676944,-1110.308913,10658.965565
596.179208,-2451.505594,-1332.370696,10807.006753
596.179524,-2604.724693,-1480.411884,10881.027347
596.179839,-2374.896044,-1998.556043,11029.068536
596.180155,-1685.410096,-2220.617826,10955.047942
596.180470,-919.314598,-2146.597232,10881.027347
596.180786,229.828649,-1258.350101,10881.027347
596.181101,1378.971896,-666.185348,9992.780217
596.181417,2834.553343,592.164754,9844.739029
596.181733,3677.258390,1850.514855,8956.491898
596.182048,4749.792088,2886.803174,8512.368333
596.182364,5515.887586,3478.967927,7476.080014
596.182679,5745.716235,4293.194464,6957.935855
596.182995,5669.106685,3775.050304,7105.977043
596.183311,4826.401637,3256.906145,7772.162391
596.183626,3753.867940,2368.659014,8882.471304
596.183942,1915.238745,1480.411884,9474.636058
596.184257,0.000000,1036.288319,10362.883188
596.184573,-1072.533697,-0.000000,11103.089130
596.184889,-2451.505594,-444.123565,11917.315666
596.185204,-3217.601092,-962.267725,12361.439231
596.185520,-3677.258390,-814.226536,12435.459826
596.185835,-4443.353888,-962.267725,11843.295072
596.186151,-4213.525239,-592.164754,11621.233289
596.186466,-3677.258390,-888.247130,11621.233289
596.186782,-3140.991542,-740.205942,11621.233289
596.187098,-2145.067394,-0.000000,10807.006753
596.187413,-1149.143247,444.123565,10362.883188
596.187729,153.219100,1406.391290,9474.636058
596.188044,1762.019645,2368.659014,8438.347739
596.188360,3217.601092,3330.926739,7402.059420
596.188676,4596.572988,3775.050304,6809.894666
596.188991,4826.401637,3997.112087,5995.668130
596.189307,4519.963438,3997.112087,6513.812290
596.189622,4060.306139,2960.823768,6809.894666
596.189938,2987.772442,2294.638420,7476.080014
596.190253,1302.362347,1110.308913,9030.512492
596.190569,-689.485948,-0.000000,9770.718434
596.190885,-2374.896044,-814.226536,10807.006753
596.191200,-3983.696590,-1702.473667,11473.192101
596.191516,-4596.572988,-2220.617826,11991.336260
596.191831,-5439.278036,-2590.720797,12435.459826
596.192147,-5209.449386,-2590.720797,11843.295072
596.192463,-4443.353888,-2368.659014,11695.253884
596.192778,-3677.258390,-2368.659014,11473.192101
596.193094,-2681.334243,-2442.679609,10955.047942
596.193409,-689.485948,-1850.514855,9992.780217
596.193725,1072.533697,-1036.288319,9178.553681
596.194040,2681.334243,-0.000000,7920.203579
596.194356,4673.182538,1332.370696,6957.935855
596.194672,6205.373534,1850.514855,5921.647536
596.194987,6818.249932,2664.741391,5329.482782
596.195303,7124.688131,3108.864956,4885.359217
596.195618,6741.640382,2664.741391,5921.647536
596.195934,5515.887586,1998.556043,6365.771101
596.196250,3753.867940,370.102971,7846.182985
596.196565,1072.533697,-888.247130,9252.574275
596.196881,-689.485948,-1850.514855,10807.006753
596.197196,-2604.724693,-3330.926739,11843.295072
596.197512,-4060.306139,-3997.112087,12361.439231
596.197827,-4979.620737,-4515.256246,13027.624579
596.198143,-5362.668486,-4737.318029,13101.645173
596.198459,-5209.449386,-4441.235652,12509.480420
596.198774,-4213.525239,-3849.070898,11917.315666
596.199090,-2757.943793,-3478.967927,11473.192101
596.199405,-1685.410096,-3182.885551,10584.944971
596.199721,76.609550,-1998.556043,9844.739029
596.200037,1991.848295,-592.164754,8512.368333
596.200352,3983.696590,1036.288319,7179.997637
596.200668,5975.544884,1776.494261,6587.832884
596.200983,6588.421283,2146.597232,5625.565159
596.201299,7201.297681,2886.803174,5329.482782
596.201614,6971.469032,2516.700203,5477.523971
596.201930,5975.544884,1998.556043,6439.791695
596.202246,3830.477490,814.226536,7550.100608
596.202561,2068.457845,-222.061783,9030.512492
596.202877,229.828649,-1184.329507,10436.903782
596.203192,-1915.238745,-2220.617826,11473.192101
596.203508,-3447.429741,-2738.761985,12213.398043
596.203824,-4443.353888,-3701.029710,12435.459826
596.204139,-5209.449386,-3627.009116,12879.583391
596.204455,-5286.058936,-3627.009116,12731.542202
596.204770,-4903.011187,-3256.906145,12287.418637
596.205086,-3677.258390,-2738.761985,11621.233289
596.205401,-2911.162892,-2368.659014,11473.192101
596.205717,-1072.533697,-1258.350101,10288.862594
596.206033,536.266849,-296.082377,9252.574275
596.206348,2681.334243,1258.350101,8290.306550
596.206664,4519.963438,2664.741391,7105.977043
596.206979,6205.373534,3552.988522,6217.729913
596.207295,7124.688131,3849.070898,5699.585753
596.207611,7048.078582,4441.235652,5033.400406
596.207926,6665.030833,3849.070898,5699.585753
596.208242,5056.230287,3330.926739,6735.874072
596.208557,3447.429741,2368.659014,8142.265362
596.208873,612.876398,1036.288319,9252.574275
596.209189,-1072.533697,-148.041188,10658.965565
596.209504,-3217.601092,-962.267725,11991.336260
596.209820,-4136.915689,-1924.535449,12509.480420
596.210135,-5822.325785,-2220.617826,12953.603985
596.210451,-6128.763984,-2368.659014,13101.645173
596.210766,-5515.887586,-2294.638420,13175.665768
596.211082,-5132.839837,-2220.617826,12139.377449
596.211398,-3907.087040,-1628.453072,11695.253884
596.211713,-2451.505594,-740.205942,11251.130318
596.212029,-1149.143247,-296.082377,10436.903782
596.212344,1149.143247,1332.370696,8586.388927
596.212660,3140.991542,2442.679609,7698.141797
596.212976,5056.230287,3701.029710,6735.874072
596.213291,6128.763984,4367.215058,5477.523971
596.213607,7124.688131,4663.297435,5403.503377
596.213922,7201.297681,4515.256246,5255.462188
596.214238,6358.592633,3775.050304,5773.606348
596.214553,4826.401637,2590.720797,7624.121203
596.214869,2145.067394,1332.370696,9178.553681
596.215185,-306.438199,-0.000000,10436.903782
596.215500,-2221.676944,-740.205942,11621.233289
596.215816,-3983.696590,-1924.535449,12731.542202
596.216131,-4903.011187,-2664.741391,13323.706956
596.216447,-5669.106685,-2812.782580,13767.830521
596.216763,-5592.497135,-2886.803174,13249.686362
596.217078,-4826.401637,-2812.782580,12953.603985
596.217394,-3294.210641,-2368.659014,11991.336260
596.217709,-2145.067394,-2220.617826,11547.212695
596.218025,-536.266849,-1554.432478,10510.924376
596.218340,1149.143247,-148.041188,9474.636058
596.218656,3677.258390,1110.308913,8290.306550
596.218972,5592.497135,2220.617826,7402.059420
596.219287,7277.907231,3108.864956,5995.668130
596.219603,8427.050478,3701.029710,5181.441594
596.219918,8427.050478,3923.091493,4811.338623
596.220234,7967.393179,3108.864956,5551.544565
596.220550,6435.202183,2294.638420,6735.874072
596.220865,3907.087040,1184.329507,7920.203579
596.221181,1762.019645,-592.164754,9474.636058
596.221496,-689.485948,-1258.350101,10732.986159
596.221812,-2834.553343,-2590.720797,11843.295072
596.222127,-4443.353888,-3997.112087,12509.480420
596.222443,-5439.278036,-4367.215058,13101.645173
596.222759,-6358.592633,-5033.400406,13101.645173
596.223074,-5669.106685,-4811.338623,12879.583391
596.223390,-4903.011187,-3923.091493,12139.377449
596.223705,-3753.867940,-4145.153275,11769.274478
596.224021,-2528.115143,-3108.864956,11103.089130
596.224337,-842.705048,-1924.535449,9918.759623
596.224652,1455.581446,-370.102971,8290.306550
596.224968,3064.381992,962.267725,6957.935855
596.225283,4979.620737,2146.597232,5847.626942
596.225599,6358.592633,2812.782580,5329.482782
596.225914,6818.249932,3256.906145,4589.276840
596.226230,6818.249932,3108.864956,4959.379811
596.226546,5669.106685,2146.597232,5625.565159
596.226861,4213.525239,1184.329507,6883.915261
596.227177,1915.238745,-222.061783,8438.347739
596.227492,-842.705048,-1554.432478,9844.739029
596.227808,-2681.334243,-2146.597232,11473.192101
596.228124,-4749.792088,-2960.823768,12509.480420
596.228439,-5669.106685,-3701.029710,12731.542202
596.228755,-6665.030833,-3997.112087,13323.706956
596.229070,-6665.030833,-4071.132681,13249.686362
596.229386,-5822.325785,-3330.926739,12287.418637
596.229701,-4519.963438,-3034.844362,11769.274478
596.230017,-2911.162892,-2664.741391,11399.171507
596.230333,-1225.752797,-1850.514855,10436.903782
596.230648,1072.533697,-148.041188,8734.430116
596.230964,3140.991542,1480.411884,8068.244768
596.231279,4979.620737,2294.638420,6883.915261
596.231595,6588.421283,3552.988522,5847.626942
596.231911,7507.735880,4219.173869,4737.318029
596.232226,7737.564530,4515.256246,4885.359217
596.232542,7124.688131,3849.070898,5403.503377
596.232857,5592.497135,2886.803174,6439.791695
596.233173,3370.820191,2072.576638,8068.244768
596.233488,842.705048,666.185348,9548.656652
596.233804,-1302.362347,-592.164754,10881.027347
596.234120,-3600.648841,-1332.370696,12361.439231
596.234435,-4903.011187,-2294.638420,13397.727550
596.234751,-5822.325785,-2590.720797,13397.727550
596.235066,-6358.592633,-2590.720797,13545.768739
596.235382,-5898.935335,-2960.823768,13397.727550
596.235698,-4903.011187,-2516.700203,12509.480420
596.236013,-3447.429741,-1776.494261,11843.295072
596.236329,-2145.067394,-1332.370696,11177.109724
596.236644,-383.047749,-222.061783,10362.883188
596.236960,1838.629195,1258.350101,8734.430116
596.237276,3907.087040,2368.659014,7624.121203
596.237591,5132.839837,3923.091493,6661.853478
596.237907,6741.640382,4367.215058,5477.523971
596.238222,7431.126331,5107.421000,5181.441594
596.238538,7354.516781,4737.318029,5033.400406
596.238853,6205.373534,3849.070898,6069.688724
596.239169,4826.401637,2812.782580,7402.059420
596.239485,2374.896044,962.267725,8882.471304
596.239800,229.828649,-74.020594,10510.924376
596.240116,-2374.896044,-1776.494261,11695.253884
596.240431,-4136.915689,-2146.597232,12731.542202
596.240747,-5286.058936,-3330.926739,13397.727550
596.241063,-5898.935335,-3627.009116,13619.789333
596.241378,-5975.544884,-3478.967927,13767.830521
596.241694,-5592.497135,-3923.091493,13249.686362
596.242009,-4213.525239,-2886.803174,12287.418637
596.242325,-2451.505594,-2368.659014,11399.171507
596.242640,-842.705048,-1776.494261,10881.027347
596.242956,1455.581446,-592.164754,9474.636058
596.243272,3524.039291,666.185348,8142.265362
596.243587,5439.278036,2146.597232,6957.935855
596.243903,6741.640382,3108.864956,5403.503377
596.244218,7814.174080,3997.112087,4737.318029
596.244534,8197.221829,3997.112087,4737.318029
596.244850,7660.954980,3108.864956,4811.338623
596.245165,6205.373534,2442.679609,6143.709319
596.245481,3753.867940,1258.350101,7402.059420
596.245796,1378.971896,-148.041188,9030.512492
596.246112,-842.705048,-1480.411884,10510.924376
596.246427,-3524.039291,-2442.679609,11843.295072
596.246743,-5056.230287,-3478.967927,12509.480420
596.247059,-6588.421283,-4145.153275,13545.768739
596.247374,-6894.859482,-4737.318029,13545.768739
596.247690,-7277.907231,-4367.215058,12731.542202
596.248005,-5669.106685,-4145.153275,12065.356855
596.248321,-4366.744339,-3330.926739,11547.212695
596.248637,-2834.553343,-2886.803174,11029.068536
596.248952,-766.095498,-1702.473667,9844.739029
596.249268,1378.971896,-74.020594,8068.244768
596.249583,3294.210641,1184.329507,6661.853478
596.249899,5439.278036,2886.803174,5773.606348
596.250214,6894.859482,3182.885551,4959.379811
596.250530,7201.297681,3849.070898,4293.194464
596.250846,7584.345430,3552.988522,4737.318029
596.251161,6128.763984,2664.741391,5477.523971
596.251477,4136.915689,1628.453072,6809.894666
596.251792,2068.457845,222.061783,8808.450710
596.252108,0.000000,-1332.370696,10362.883188
596.252424,-2298.286494,-2294.638420,11991.336260
596.252739,-4443.353888,-3404.947333,12731.542202
596.253055,-5515.887586,-3923.091493,13249.686362
596.253370,-6281.983084,-3997.112087,13619.789333
596.253686,-6511.811733,-4219.173869,13249.686362
596.254001,-5515.887586,-3701.029710,12509.480420
596.254317,-3907.087040,-3108.864956,12065.356855
596.254633,-2068.457845,-2664.741391,11695.253884
596.254948,-536.266849,-1776.494261,10658.965565
596.255264,1532.190996,-518.144159,8734.430116
596.255579,3907.087040,1184.329507,8068.244768
596.255895,5745.716235,2516.700203,7105.977043
596.256211,7124.688131,3701.029710,5773.606348
596.256526,8044.002729,4515.256246,4885.359217
596.256842,7967.393179,4589.276840,5625.565159
596.257157,7967.393179,3775.050304,5403.503377
596.257473,6358.592633,3256.906145,6587.832884
596.257788,3907.087040,1998.556043,8068.244768
596.258104,1532.190996,444.123565,9918.759623
596.258420,-766.095498,-592.164754,10955.047942
596.258735,-3217.601092,-1702.473667,12509.480420
596.259051,-4826.401637,-2516.700203,13323.706956
596.259366,-5286.058936,-2960.823768,13471.748144
596.259682,-6052.154434,-3256.906145,13545.768739
596.259998,-5439.278036,-2886.803174,13323.706956
596.260313,-4596.572988,-2516.700203,12435.459826
596.260629,-3447.429741,-1924.535449,11843.295072
596.260944,-1991.848295,-1406.391290,11029.068536
596.261260,383.047749,-0.000000,10362.883188
596.261576,2298.286494,1258.350101,8586.388927
596.261891,3983.696590,2516.700203,7179.997637
596.262207,5515.887586,3627.009116,6291.750507
596.262522,6818.249932,4071.132681,5255.462188
596.262838,7431.126331,4293.194464,4885.359217
596.263153,7124.688131,4737.318029,4811.338623
596.263469,5975.544884,3478.967927,5847.626942
596.263785,4443.353888,2368.659014,7105.977043
596.264100,1608.800546,888.247130,8734.430116
596.264416,-459.657299,-740.205942,10658.965565
596.264731,-2604.724693,-1702.473667,11991.336260
596.265047,-4290.134789,-2368.659014,12657.521608
596.265363,-5515.887586,-3404.947333,13471.748144
596.265678,-5898.935335,-3997.112087,13101.645173
596.265994,-6281.983084,-3701.029710,13027.624579
596.266309,-5362.668486,-3182.885551,12213.398043
596.266625,-4290.134789,-2812.782580,11843.295072
596.266940,-2451.505594,-2368.659014,11251.130318
596.267256,-689.485948,-1924.535449,10510.924376
596.267572,1149.143247,-222.061783,8808.450710
596.267887,3294.210641,1036.288319,7698.141797
596.268203,5362.668486,2368.659014,6883.915261
596.268518,6741.640382,3478.967927,5477.523971
596.268834,7737.564530,3849.070898,4959.379811
596.269150,7967.393179,4145.153275,4737.318029
596.269465,7048.078582,3404.947333,5107.421000
596.269781,5515.887586,2294.638420,6439.791695
596.270096,3524.039291,962.267725,7920.203579
596.270412,689.485948,-296.082377,9696.697840
596.270727,-1532.190996,-1184.329507,11029.068536
596.271043,-3600.648841,-2664.741391,12139.377449
596.271359,-5132.839837,-3256.906145,13101.645173
596.271674,-6205.373534,-4145.153275,13619.789333
596.271990,-6128.763984,-4441.235652,13545.768739
596.272305,-5898.935335,-3997.112087,12879.583391
596.272621,-4979.620737,-3701.029710,12287.418637
596.272937,-3753.867940,-3182.885551,11621.233289
596.273248,-2298.286494,-2738.761985,11325.150913
596.273564,0.000000,-1184.329507,9844.739029
596.273879,1991.848295,518.144159,8290.306550
596.274195,3983.696590,2146.597232,7402.059420
596.274511,5975.544884,3034.844362,5921.647536
596.274827,7124.688131,3627.009116,5107.421000
596.275142,7354.516781,4071.132681,4737.318029
596.275458,7277.907231,3552.988522,4959.379811
596.275774,6052.154434,2516.700203,5921.647536
596.276089,3753.867940,1628.453072,7624.121203
596.276405,1302.362347,-518.144159,9104.533087
596.276721,-766.095498,-1258.350101,10807.006753
596.277037,-2911.162892,-2664.741391,11843.295072
596.277352,-4979.620737,-3478.967927,13175.665768
596.277668,-5669.106685,-4515.256246,13767.830521
596.277984,-6358.592633,-4589.276840,14137.933492
596.278300,-6205.373534,-4219.173869,13249.686362
596.278615,-5362.668486,-3997.112087,12731.542202
596.278931,-3753.867940,-3182.885551,12065.356855
596.279247,-2298.286494,-2368.659014,11103.089130
596.279562,-766.095498,-1628.453072,10214.842000
596.279878,1685.410096,-0.000000,8364.327145
596.280194,3983.696590,1554.432478,7254.018232
596.280510,5975.544884,2368.659014,6217.729913
596.280825,7507.735880,3701.029710,5477.523971
596.281141,8044.002729,4515.256246,4589.276840
596.281457,8120.612279,4293.194464,4589.276840
596.281772,7354.516781,3552.988522,5329.482782
596.282088,5362.668486,2442.679609,6735.874072
596.282404,2987.772442,1332.370696,7994.224174
596.282720,995.924147,-370.102971,9696.697840
596.283035,-1838.629195,-1110.308913,11695.253884
596.283351,-3830.477490,-2220.617826,12139.377449
596.283667,-5286.058936,-3108.864956,12879.583391
596.283982,-5822.325785,-3478.967927,13841.851115
596.284298,-6741.640382,-3627.009116,13619.789333
596.284614,-5898.935335,-2812.782580,12361.439231
596.284930,-4826.401637,-2590.720797,12065.356855
596.285245,-3524.039291,-1924.535449,11621.233289
596.285561,-1991.848295,-1480.411884,10658.965565
596.285877,153.219100,-222.061783,9252.574275
596.286192,2221.676944,1628.453072,7624.121203
596.286508,3983.696590,2664.741391,7105.977043
596.286824,5745.716235,3627.009116,6069.688724
596.287140,6665.030833,4367.215058,5181.441594
596.287455,6588.421283,4737.318029,4737.318029
596.287771,6971.469032,4589.276840,5033.400406
596.288087,5209.449386,3108.864956,6143.709319
596.288403,3140.991542,2368.659014,7920.203579
596.288718,1149.143247,222.061783,9252.574275
596.289034,-1378.971896,-814.226536,10807.006753
596.289350,-3600.648841,-1998.556043,12287.418637
596.289665,-5362.668486,-2738.761985,13175.665768
596.289981,-6205.373534,-3330.926739,13767.830521
596.290297,-6741.640382,-3701.029710,13915.871710
596.290613,-6281.983084,-3701.029710,13323.706956
596.290928,-5362.668486,-2886.803174,12509.480420
596.291244,-3600.648841,-2442.679609,11843.295072
596.291560,-1915.238745,-1628.453072,11103.089130
596.291875,76.609550,-1406.391290,10510.924376
596.292191,1991.848295,444.123565,8290.306550
596.292507,4596.572988,1924.535449,7254.018232
596.292823,6128.763984,2886.803174,6439.791695
596.293138,7584.345430,3923.091493,5699.585753
596.293454,8044.002729,4441.235652,4737.318029
596.293770,8273.831378,4441.235652,4737.318029
596.294085,7354.516781,3404.947333,6143.709319
596.294401,5132.839837,2220.617826,7254.018232
596.294717,2757.943793,814.226536,8586.388927
596.295033,383.047749,-592.164754,10362.883188
596.295348,-2145.067394,-1406.391290,11843.295072
596.295664,-3830.477490,-2368.659014,12583.501014
596.295980,-5209.449386,-3404.947333,13249.686362
596.296295,-5898.935335,-4219.173869,14211.954086
596.296611,-6435.202183,-4071.132681,13323.706956
596.296927,-5592.497135,-3775.050304,12509.480420
596.297243,-4596.572988,-3478.967927,11917.315666
596.297558,-2911.162892,-2738.761985,11251.130318
596.297874,-306.438199,-1850.514855,10584.944971
596.298190,995.924147,-888.247130,9178.553681
596.298506,2911.162892,888.247130,7994.224174
596.298821,4903.011187,2294.638420,6217.729913
596.299137,6588.421283,3108.864956,5551.544565
596.299453,7201.297681,3627.009116,4885.359217
596.299768,7354.516781,3923.091493,4737.318029
596.300084,6511.811733,3182.885551,4959.379811
596.300400,5056.230287,1998.556043,6587.832884
596.300716,3064.381992,666.185348,7846.182985
596.301031,612.876398,-814.226536,9400.615463
596.301347,-1838.629195,-1924.535449,10658.965565
596.301663,-3983.696590,-3034.844362,12065.356855
596.301978,-5362.668486,-3997.112087,13027.624579
596.302294,-6052.154434,-4441.235652,13619.789333
596.302610,-6665.030833,-4737.318029,13397.727550
596.302926,-5975.544884,-3923.091493,12731.542202
596.303241,-4596.572988,-3552.988522,11547.212695
596.303557,-3140.991542,-2812.782580,11251.130318
596.303873,-1378.971896,-1924.535449,10807.006753
596.304188,689.485948,-1110.308913,9474.636058
596.304504,2604.724693,444.123565,7624.121203
596.304820,4596.572988,1850.514855,6587.832884
596.305136,6588.421283,3182.885551,5995.668130
596.305451,7737.564530,3552.988522,5107.421000
596.305767,7890.783629,4071.132681,4737.318029
596.306083,7354.516781,4071.132681,5255.462188
596.306398,6281.983084,3034.844362,6365.771101
596.306714,4673.182538,1406.391290,7105.977043
596.307030,1762.019645,518.144159,9030.512492
596.307346,-612.876398,-814.226536,10807.006753
596.307661,-2604.724693,-1850.514855,11843.295072
596.307977,-4443.353888,-2516.700203,12583.501014
596.308293,-5056.230287,-3552.988522,13545.768739
596.308609,-6052.154434,-3701.029710,13693.809927
596.308924,-6052.154434,-3330.926739,12953.603985
596.309240,-4903.011187,-2738.761985,12435.459826
596.309556,-3447.429741,-2442.679609,11917.315666
596.309871,-1915.238745,-1628.453072,11177.109724
596.310187,-306.438199,-1036.288319,10658.965565
596.310503,1685.410096,296.082377,9104.533087
596.310819,3524.039291,1850.514855,7698.141797
596.311134,4903.011187,3404.947333,6587.832884
596.311450,6511.811733,3404.947333,6217.729913
596.311766,7124.688131,4145.153275,5403.503377
596.312081,6971.469032,4811.338623,5107.421000
596.312397,6205.373534,3849.070898,5921.647536
596.312713,4979.620737,2442.679609,7105.977043
596.313029,3064.381992,1406.391290,8216.285956
596.313344,536.266849,-0.000000,9992.780217
596.313660,-1685.410096,-1110.308913,11325.150913
596.313976,-3600.648841,-2294.638420,12657.521608
596.314291,-5286.058936,-2886.803174,13323.706956
596.314607,-5822.325785,-3478.967927,13471.748144
596.314923,-6052.154434,-3552.988522,13619.789333
596.315239,-5515.887586,-2886.803174,12805.562797
596.315554,-4213.525239,-2664.741391,12139.377449
596.315870,-2604.724693,-2368.659014,11325.150913
596.316186,-919.314598,-1480.411884,11177.109724
596.316501,612.876398,-666.185348,9548.656652
596.316817,2834.553343,888.247130,8216.285956
596.317133,4596.572988,2368.659014,7105.977043
596.317449,6281.983084,3404.947333,6587.832884
596.317764,7354.516781,3627.009116,5403.503377
596.318080,7660.954980,4293.194464,5033.400406
596.318396,7277.907231,4145.153275,5403.503377
596.318712,6205.373534,3108.864956,6365.771101
596.319027,4136.915689,2294.638420,7254.018232
596.319343,1991.848295,444.123565,8882.471304
596.319659,0.000000,-888.247130,10214.842000
596.319974,-2374.896044,-1776.494261,11325.150913
596.320290,-4366.744339,-2960.823768,12435.459826
596.320606,-5209.449386,-4145.153275,13545.768739
596.320922,-5898.935335,-3997.112087,13101.645173
596.321237,-6128.763984,-3552.988522,12583.501014
596.321553,-5209.449386,-3256.906145,11843.295072
596.321869,-3907.087040,-2886.803174,11695.253884
596.322184,-3294.210641,-2442.679609,10955.047942
596.322500,-1072.533697,-1924.535449,10140.821405
596.322816,995.924147,-296.082377,8734.430116
596.323132,3064.381992,1110.308913,7179.997637
596.323447,4366.744339,2294.638420,5995.668130
596.323763,6128.763984,3034.844362,5773.606348
596.324079,6588.421283,3256.906145,5255.462188
596.324394,6511.811733,3775.050304,4885.359217
596.324710,5822.325785,3034.844362,5403.503377
596.325026,4290.134789,2294.638420,7105.977043
596.325342,2374.896044,370.102971,8586.388927
596.325657,76.609550,-740.205942,9326.594869
596.325973,-2298.286494,-2072.576638,11103.089130
596.326289,-4136.915689,-3034.844362,12435.459826
596.326604,-5132.839837,-3552.988522,13175.665768
596.326920,-6435.202183,-4071.132681,13323.706956
596.327236,-6511.811733,-4293.194464,13323.706956
596.327552,-5745.716235,-3775.050304,12879.583391
596.327867,-4903.011187,-3256.906145,12065.356855
596.328183,-2987.772442,-2516.700203,11621.233289
596.328499,-1532.190996,-1850.514855,10881.027347
596.328815,459.657299,-1110.308913,9844.739029
596.329130,2528.115143,370.102971,8364.327145
596.329446,4136.915689,1628.453072,7328.038826
596.329762,5669.106685,2294.638420,6735.874072
596.330077,7277.907231,3256.906145,5847.626942
596.330393,7277.907231,3701.029710,5255.462188
596.330709,7201.297681,3849.070898,5699.585753
596.331025,6052.154434,2812.782580,6217.729913
596.331340,4673.182538,1776.494261,7254.018232
596.331656,2221.676944,444.123565,9400.615463
596.331972,76.609550,-888.247130,10140.821405
596.332287,-1762.019645,-1702.473667,11399.171507
596.332603,-3524.039291,-2442.679609,11917.315666
596.332919,-4979.620737,-3034.844362,13027.624579
596.333235,-5592.497135,-3552.988522,13619.789333
596.333550,-5975.544884,-3552.988522,12953.603985
596.333866,-5362.668486,-3034.844362,12065.356855
596.334182,-3753.867940,-3701.029710,12139.377449
596.334497,-2681.334243,-2368.659014,11547.212695
596.334813,-1149.143247,-1776.494261,10362.883188
596.335129,76.609550,-444.123565,9104.533087
596.335445,2221.676944,1184.329507,8068.244768
596.335760,4826.401637,2516.700203,7402.059420
596.336076,5669.106685,3478.967927,5921.647536
596.336392,6281.983084,4293.194464,4959.379811
596.336707,6971.469032,4589.276840,4737.318029
596.337023,6511.811733,3997.112087,5329.482782
596.337339,5515.887586,3108.864956,5921.647536
596.337655,3217.601092,1924.535449,7624.121203
596.337970,919.314598,518.144159,9030.512492
596.338286,-842.705048,-592.164754,10510.924376
596.338602,-2911.162892,-1406.391290,11769.274478
596.338918,-4596.572988,-2590.720797,12583.501014
596.339233,-5822.325785,-2886.803174,13101.645173
596.339549,-6052.154434,-3330.926739,13545.768739
596.339865,-6128.763984,-3108.864956,12879.583391
596.340180,-6052.154434,-2886.803174,12583.501014
596.340496,-4060.306139,-2442.679609,11547.212695
596.340812,-2681.334243,-1924.535449,11325.150913
596.341128,-612.876398,-1258.350101,10584.944971
596.341443,1302.362347,148.041188,8808.450710
596.341759,3217.601092,1628.453072,7772.162391
596.342075,5669.106685,2516.700203,6883.915261
596.342390,7124.688131,3552.988522,5921.647536
596.342706,7354.516781,4589.276840,4959.379811
596.343022,8120.612279,4737.318029,5033.400406
596.343338,7201.297681,3552.988522,5847.626942
596.343653,5592.497135,2738.761985,6957.935855
596.343969,3447.429741,1480.411884,8216.285956
596.344285,1149.143247,296.082377,9918.759623
596.344600,-995.924147,-740.205942,10955.047942
596.344916,-2681.334243,-2072.576638,11843.295072
596.345232,-4596.572988,-2664.741391,12731.542202
596.345548,-5515.887586,-3478.967927,13545.768739
596.345863,-5669.106685,-3552.988522,13323.706956
596.346179,-5745.716235,-3552.988522,12879.583391
596.346495,-4826.401637,-3478.967927,12879.583391
596.346810,-3677.258390,-2812.782580,12287.418637
596.347126,-2374.896044,-2368.659014,11177.109724
596.347442,-612.876398,-888.247130,10140.821405
596.347758,1685.410096,814.226536,8734.430116
596.348073,3907.087040,2368.659014,7550.100608
596.348389,5286.058936,2960.823768,5995.668130
596.348705,6588.421283,4071.132681,5107.421000
596.349021,7354.516781,4293.194464,4811.338623
596.349336,7431.126331,3849.070898,5329.482782
596.349652,5975.544884,2960.823768,5847.626942
596.349968,4290.134789,1776.494261,7179.997637
596.350283,2757.943793,222.061783,8882.471304
596.350599,0.000000,-1258.350101,10584.944971
596.350915,-2145.067394,-1924.535449,11695.253884
596.351231,-3983.696590,-2516.700203,12361.439231
596.351546,-5515.887586,-3775.050304,13249.686362
596.351862,-6052.154434,-4219.173869,13767.830521
596.352178,-5975.544884,-4293.194464,12879.583391
596.352493,-5592.497135,-3849.070898,12805.562797
596.352809,-4213.525239,-3701.029710,12139.377449
596.353125,-2911.162892,-3182.885551,11399.171507
596.353441,-995.924147,-2072.576638,10807.006753
596.353756,919.314598,-1184.329507,9178.553681
596.354072,3217.601092,814.226536,7698.141797
596.354388,5209.449386,2294.638420,6069.688724
596.354703,6971.469032,3330.926739,5477.523971
596.355019,7737.564530,3849.070898,4589.276840
596.355335,8044.002729,4293.194464,4367.215058
596.355651,7431.126331,3775.050304,5033.400406
596.355966,5975.544884,2294.638420,6661.853478
596.356282,3830.477490,888.247130,7402.059420
596.356598,1608.800546,-0.000000,8586.388927
596.356913,-459.657299,-962.267725,10362.883188
596.357229,-2681.334243,-2442.679609,11621.233289
596.357545,-4443.353888,-2960.823768,12657.521608
596.357861,-5745.716235,-3701.029710,13027.624579
596.358176,-6128.763984,-3775.050304,13619.789333
596.358492,-6052.154434,-3923.091493,12879.583391
596.358808,-4979.620737,-3552.988522,12287.418637
596.359124,-3907.087040,-2738.761985,11991.336260
596.359439,-2681.334243,-2738.761985,11325.150913
596.359755,-459.657299,-1184.329507,10288.862594
596.360071,1149.143247,370.102971,8882.471304
596.360386,3140.991542,1998.556043,7328.038826
596.360702,5132.839837,3182.885551,6217.729913
596.361018,6358.592633,3923.091493,5181.441594
596.361334,7277.907231,4515.256246,4737.318029
596.361649,7354.516781,4293.194464,4737.318029
596.361965,6205.373534,3552.988522,5477.523971
596.362281,4443.353888,2516.700203,7105.977043
596.362596,2221.676944,444.123565,8808.450710
596.362912,0.000000,-666.185348,10288.862594
596.363228,-2374.896044,-1628.453072,11473.192101
596.363544,-4060.306139,-2368.659014,12657.521608
596.363859,-5209.449386,-3330.926739,13545.768739
596.364175,-6435.202183,-3923.091493,14137.933492
596.364491,-6435.202183,-3478.967927,13471.748144
596.364806,-5745.716235,-3627.009116,13101.645173
596.365122,-4596.572988,-3108.864956,12731.542202
596.365438,-2987.772442,-2590.720797,11843.295072
596.365754,-2298.286494,-1776.494261,10955.047942
596.366069,766.095498,-0.000000,9622.677246
596.366385,2911.162892,1554.432478,8068.244768
596.366701,5209.449386,2738.761985,7105.977043
596.367016,6971.469032,3552.988522,6069.688724
596.367332,7737.564530,4441.235652,4737.318029
596.367648,7967.393179,4737.318029,4811.338623
596.367964,7737.564530,3849.070898,5477.523971
596.368279,6205.373534,2886.803174,6661.853478
596.368595,4213.525239,1998.556043,7698.141797
596.368911,1991.848295,814.226536,9326.594869
596.369227,0.000000,-518.144159,10510.924376
596.369542,-2374.896044,-1924.535449,11695.253884
596.369858,-4290.134789,-2738.761985,12435.459826
596.370174,-5439.278036,-3404.947333,13471.748144
596.370489,-6128.763984,-3849.070898,13619.789333
596.370805,-6128.763984,-3997.112087,13175.665768
596.371121,-4979.620737,-3627.009116,12805.562797
596.371437,-4290.134789,-3182.885551,12509.480420
596.371752,-2528.115143,-2442.679609,11325.150913
596.372068,-536.266849,-1036.288319,9992.780217
596.372384,1608.800546,444.123565,8734.430116
596.372699,3753.867940,2072.576638,7105.977043
596.373015,5822.325785,3330.926739,5847.626942
596.373331,6358.592633,4071.132681,4737.318029
596.373647,7431.126331,4293.194464,4737.318029
596.373962,7124.688131,3849.070898,4811.338623
596.374278,6205.373534,3256.906145,5699.585753
596.374594,4596.572988,1998.556043,7105.977043
596.374910,2221.676944,296.082377,8660.409521
596.375226,0.000000,-518.144159,9918.759623
596.375541,-2374.896044,-1776.494261,10955.047942
596.375857,-4213.525239,-2886.803174,12065.356855
596.376173,-5592.497135,-3775.050304,13249.686362
596.376489,-6435.202183,-4441.235652,13693.809927
596.376805,-6511.811733,-4441.235652,13027.624579
596.377121,-6128.763984,-3701.029710,12657.521608
596.377437,-4673.182538,-3552.988522,12361.439231
596.377752,-3140.991542,-3034.844362,11547.212695
596.378068,-1378.971896,-2146.597232,10584.944971
596.378384,842.705048,-370.102971,9178.553681
596.378700,2911.162892,888.247130,7624.121203
596.379016,5209.449386,2368.659014,6291.750507
596.379332,6741.640382,2960.823768,4959.379811
596.379647,7584.345430,4441.235652,4441.235652
596.379963,7967.393179,4145.153275,4663.297435
596.380279,7354.516781,3775.050304,5181.441594
596.380595,5822.325785,2664.741391,6291.750507
596.380911,3830.477490,1406.391290,7994.224174
596.381227,1608.800546,-0.000000,9326.594869
596.381542,-995.924147,-1036.288319,10881.027347
596.381858,-2834.553343,-1924.535449,11843.295072
596.382174,-4213.525239,-3182.885551,12731.542202
596.382490,-5515.887586,-3404.947333,13693.809927
596.382806,-6435.202183,-3923.091493,13545.768739
596.383122,-5975.544884,-4219.173869,13323.706956
596.383438,-5362.668486,-3775.050304,13027.624579
596.383753,-4596.572988,-2960.823768,12361.439231
596.384069,-2604.724693,-2516.700203,11547.212695
596.384385,-306.438199,-1406.391290,10436.903782
596.384701,1225.752797,592.164754,8808.450710
596.385017,3294.210641,2220.617826,7328.038826
596.385333,5132.839837,3108.864956,6365.771101
596.385648,7201.297681,4293.194464,5477.523971
596.385964,7431.126331,4737.318029,4441.235652
596.386280,7584.345430,4293.194464,5403.503377
596.386596,6511.811733,3404.947333,5699.585753
596.386912,4826.401637,2368.659014,7254.018232
596.387228,2604.724693,740.205942,8512.368333
596.387543,153.219100,-370.102971,10214.842000
596.387859,-2298.286494,-1258.350101,11769.274478
596.388175,-4136.915689,-2516.700203,12731.542202
596.388491,-5209.449386,-3404.947333,13545.768739
596.388807,-6281.983084,-3849.070898,14063.912898
596.389123,-6741.640382,-3923.091493,13249.686362
596.389439,-5592.497135,-3552.988522,13249.686362
596.389754,-4596.572988,-3108.864956,12657.521608
596.390070,-3370.820191,-3034.844362,11399.171507
596.390386,-1378.971896,-1850.514855,10807.006753
596.390702,612.876398,-148.041188,9252.574275
596.391018,3064.381992,1036.288319,7846.182985
596.391334,5209.449386,2960.823768,6513.812290
596.391649,6741.640382,3701.029710,5699.585753
596.391965,7660.954980,4293.194464,4663.297435
596.392281,8273.831378,4441.235652,4811.338623
596.392597,7507.735880,3775.050304,4885.359217
596.392913,5975.544884,2516.700203,6217.729913
596.393229,3677.258390,1036.288319,7846.182985
596.393544,1685.410096,-0.000000,9252.574275
596.393860,-919.314598,-666.185348,10732.986159
596.394176,-2757.943793,-2072.576638,11843.295072
596.394492,-4519.963438,-2960.823768,12361.439231
596.394808,-5362.668486,-3627.009116,13323.706956
596.395124,-6435.202183,-3775.050304,13249.686362
596.395440,-5745.716235,-3849.070898,12953.603985
596.395755,-5362.668486,-3256.906145,12805.562797
596.396071,-4136.915689,-2960.823768,12065.356855
596.396387,-2451.505594,-2442.679609,11547.212695
596.396703,-689.485948,-962.267725,9918.759623
596.397019,1532.190996,740.205942,8734.430116
596.397335,3753.867940,2368.659014,7179.997637
596.397650,5515.887586,2886.803174,5847.626942
596.397966,6971.469032,4515.256246,4663.297435
596.398282,7431.126331,4663.297435,4515.256246
596.398598,7431.126331,4441.235652,4885.359217
596.398914,5898.935335,3330.926739,5403.503377
596.399230,4673.182538,2146.597232,7402.059420
596.399545,1915.238745,444.123565,8586.388927
596.399861,-383.047749,-444.123565,10436.903782
596.400177,-2987.772442,-1998.556043,11843.295072
596.400493,-4443.353888,-3034.844362,13175.665768
596.400809,-5745.716235,-3552.988522,13693.809927
596.401125,-6665.030833,-4293.194464,13915.871710
596.401441,-6818.249932,-4293.194464,13693.809927
596.401756,-5822.325785,-3997.112087,13249.686362
596.402072,-4443.353888,-3182.885551,12509.480420
596.402388,-2681.334243,-2516.700203,11695.253884
596.402704,-995.924147,-1702.473667,10807.006753
596.403020,1149.143247,-74.020594,9104.533087
596.403336,3370.820191,1702.473667,7476.080014
596.403651,6052.154434,2368.659014,6513.812290
596.403967,6971.469032,3923.091493,5699.585753
596.404283,7814.174080,4515.256246,4589.276840
596.404599,8656.879127,3997.112087,4737.318029
596.404915,7890.783629,3849.070898,5477.523971
596.405231,6205.373534,2664.741391,6513.812290
596.405546,3753.867940,1258.350101,7994.224174
596.405862,1225.752797,-0.000000,9548.656652
596.406178,-1072.533697,-962.267725,10732.986159
596.406494,-2834.553343,-2294.638420,12065.356855
596.406810,-4749.792088,-3108.864956,13249.686362
596.407126,-5975.544884,-3775.050304,13767.830521
596.407442,-6358.592633,-4219.173869,13397.727550
596.407757,-6128.763984,-4219.173869,13027.624579
596.408073,-4979.620737,-3404.947333,12731.542202
596.408389,-4366.744339,-2812.782580,12139.377449
596.408705,-2298.286494,-2516.700203,11103.089130
596.409021,-153.219100,-518.144159,9770.718434
596.409337,1915.238745,666.185348,8068.244768
596.409652,4596.572988,2146.597232,7031.956449
596.409968,6052.154434,3182.885551,5181.441594
596.410284,7124.688131,4219.173869,4219.173869
596.410600,7890.783629,4367.215058,4367.215058
596.410916,7507.735880,4293.194464,4811.338623
596.411232,5975.544884,3256.906145,5625.565159
596.411547,4366.744339,1998.556043,7402.059420
596.411863,1762.019645,222.061783,8512.368333
596.412179,-842.705048,-814.226536,10362.883188
596.412495,-2757.943793,-1998.556043,11917.315666
596.412811,-4749.792088,-3552.988522,12731.542202
596.413127,-5745.716235,-3775.050304,13323.706956
596.413442,-6511.811733,-4071.132681,13767.830521
596.413758,-6511.811733,-4145.153275,13249.686362
596.414074,-5515.887586,-3627.009116,12731.542202
596.414390,-4596.572988,-3108.864956,12139.377449
596.414706,-2757.943793,-2590.720797,11325.150913
596.415022,-842.705048,-1702.473667,10584.944971
596.415338,1455.581446,222.061783,8808.450710
596.415653,3064.381992,1480.411884,7254.018232
596.415969,5515.887586,2664.741391,6365.771101
596.416285,7277.907231,3997.112087,4885.359217
596.416601,7890.783629,4367.215058,4367.215058
596.416917,8427.050478,4367.215058,4737.318029
596.417233,7048.078582,3775.050304,5551.544565
596.417548,5132.839837,2220.617826,7031.956449
596.417864,2987.772442,1036.288319,7624.121203
596.418180,536.266849,-0.000000,9622.677246
596.418496,-1762.019645,-1258.350101,11251.130318
596.418812,-3753.867940,-2516.700203,12139.377449
596.419128,-5515.887586,-3330.926739,13101.645173
596.419443,-6588.421283,-4219.173869,14137.933492
596.419759,-6818.249932,-4367.215058,13693.809927
596.420075,-6281.983084,-4145.153275,13249.686362
596.420391,-5592.497135,-3701.029710,12953.603985
596.420707,-3830.477490,-2886.803174,11843.295072
596.421023,-1762.019645,-1924.535449,11251.130318
596.421339,0.000000,-222.061783,9474.636058
596.421654,2145.067394,1406.391290,7994.224174
596.421970,4596.572988,2738.761985,7031.956449
596.422286,6128.763984,3997.112087,5625.565159
596.422602,7354.516781,4219.173869,4737.318029
596.422918,7814.174080,4219.173869,4589.276840
596.423234,7660.954980,4145.153275,5329.482782
596.423549,5822.325785,2812.782580,5995.668130
596.423865,4060.306139,1628.453072,7772.162391
596.424181,1072.533697,222.061783,9178.553681
596.424497,-995.924147,-888.247130,10955.047942
596.424813,-2757.943793,-2220.617826,11991.336260
596.425129,-4903.011187,-3330.926739,12953.603985
596.425444,-5975.544884,-4219.173869,13841.851115
596.425760,-6665.030833,-4219.173869,13619.789333
596.426076,-6435.202183,-3849.070898,13323.706956
596.426392,-5056.230287,-4071.132681,13249.686362
596.426708,-4060.306139,-3775.050304,12139.377449
596.427024,-2298.286494,-2442.679609,11251.130318
596.427340,-536.266849,-1332.370696,10362.883188
596.427655,2145.067394,-0.000000,8290.306550
596.427971,4290.134789,1628.453072,7254.018232
596.428287,6052.154434,3256.906145,5847.626942
596.428603,7507.735880,4293.194464,5033.400406
596.428919,8273.831378,4589.276840,4367.215058
596.429235,8503.660028,4367.215058,4293.194464
596.429550,7354.516781,3404.947333,5477.523971
596.429866,5286.058936,2220.617826,6957.935855
596.430182,2834.553343,740.205942,7920.203579
596.430498,153.219100,-370.102971,9622.677246
596.430814,-2068.457845,-1628.453072,11621.233289
596.431130,-4136.915689,-3034.844362,12213.398043
596.431445,-5669.106685,-3627.009116,13175.665768
596.431761,-6894.859482,-4145.153275,13915.871710
596.432077,-6818.249932,-3997.112087,13471.748144
596.432393,-5669.106685,-3997.112087,12953.603985
596.432709,-4979.620737,-3330.926739,12287.418637
596.433025,-3677.258390,-2812.782580,11843.295072
596.433341,-1455.581446,-1924.535449,10732.986159
596.433656,383.047749,-74.020594,8882.471304
596.433972,3140.991542,1554.432478,7550.100608
596.434288,5286.058936,2886.803174,6735.874072
596.434604,6741.640382,3997.112087,5699.585753
596.434920,7354.516781,4737.318029,4293.194464
596.435236,7737.564530,4589.276840,4219.173869
596.435551,6741.640382,3775.050304,5477.523971
596.435867,5439.278036,3034.844362,6513.812290
596.436183,3140.991542,1480.411884,7698.141797
596.436499,612.876398,-0.000000,9696.697840
596.436815,-1991.848295,-1406.391290,11473.192101
596.437131,-3753.867940,-2516.700203,12657.521608
596.437446,-5515.887586,-3404.947333,13101.645173
596.437762,-6358.592633,-3849.070898,14063.912898
596.438078,-6741.640382,-4145.153275,13915.871710
596.438394,-6358.592633,-4145.153275,13175.665768
596.438710,-5056.230287,-3478.967927,12583.501014
596.439026,-3524.039291,-2886.803174,12139.377449
596.439342,-1762.019645,-2220.617826,11103.089130
596.439657,383.047749,-666.185348,9548.656652
596.439973,2451.505594,1036.288319,8586.388927
596.440289,4903.011187,2516.700203,7105.977043
596.440605,6894.859482,3552.988522,5847.626942
596.440921,7890.783629,4145.153275,4737.318029
596.441237,8197.221829,4663.297435,4737.318029
596.441552,7890.783629,4219.173869,4959.379811
596.441868,6588.421283,3330.926739,5921.647536
596.442184,4213.525239,1850.514855,7846.182985
596.442500,1762.019645,518.144159,9400.615463
596.442816,-689.485948,-666.185348,10584.944971
596.443132,-3064.381992,-2516.700203,12213.398043
596.443447,-4903.011187,-3256.906145,13249.686362
596.443763,-5822.325785,-3997.112087,13841.851115
596.444079,-6741.640382,-3849.070898,13693.809927
596.444395,-6818.249932,-3701.029710,13249.686362
596.444711,-5515.887586,-3478.967927,12953.603985
596.445027,-4366.744339,-2812.782580,11843.295072
596.445342,-2604.724693,-2220.617826,11325.150913
596.445658,-689.485948,-1332.370696,10214.842000
596.445974,2374.896044,148.041188,8734.430116
596.446290,4060.306139,1702.473667,7254.018232
596.446606,5822.325785,3552.988522,6069.688724
596.446922,7354.516781,4071.132681,4959.379811
596.447238,7737.564530,4367.215058,4589.276840
596.447553,7354.516781,4219.173869,4515.256246
596.447869,6511.811733,3478.967927,5403.503377
596.448185,4903.011187,2368.659014,7031.956449
596.448501,2451.505594,666.185348,8512.368333
596.448817,0.000000,-1110.308913,10140.821405
596.449133,-2681.334243,-2294.638420,11695.253884
596.449448,-4673.182538,-3256.906145,12805.562797
596.449764,-5975.544884,-3923.091493,13397.727550
596.450080,-6588.421283,-4515.256246,13693.809927
596.450396,-6971.469032,-4737.318029,13471.748144
596.450712,-5898.935335,-3701.029710,12509.480420
596.451028,-4290.134789,-3182.885551,11843.295072
596.451343,-2911.162892,-2590.720797,10955.047942
596.451659,-919.314598,-1924.535449,10436.903782
596.451975,1685.410096,-222.061783,8882.471304
596.452291,3524.039291,1406.391290,7402.059420
596.452607,5745.716235,2590.720797,6291.750507
596.452923,7277.907231,3404.947333,5551.544565
596.453239,8044.002729,4071.132681,4885.359217
596.453554,7967.393179,4367.215058,4589.276840
596.453870,7507.735880,3701.029710,5329.482782
596.454186,5592.497135,2590.720797,6809.894666
596.454502,3370.820191,1332.370696,7772.162391
596.454818,689.485948,-0.000000,9622.677246
596.455134,-1685.410096,-1258.350101,11103.089130
596.455449,-3677.258390,-2368.659014,12287.418637
596.455765,-5515.887586,-3404.947333,13175.665768
596.456081,-6511.811733,-4367.215058,13841.851115
596.456397,-6588.421283,-4293.194464,13693.809927
596.456713,-6281.983084,-3775.050304,13249.686362
596.457029,-5132.839837,-3404.947333,12065.356855
596.457344,-3370.820191,-2812.782580,11843.295072
596.457660,-1838.629195,-1776.494261,10881.027347
596.457976,459.657299,-444.123565,9844.739029
596.458292,2604.724693,666.185348,7846.182985
596.458608,4366.744339,2294.638420,7254.018232
596.458924,6052.154434,3404.947333,5773.606348
596.459240,7431.126331,4145.153275,5329.482782
596.459555,7354.516781,4589.276840,4663.297435
596.459871,7277.907231,4071.132681,5107.421000
596.460187,6205.373534,3034.844362,5995.668130
596.460503,4060.306139,1924.535449,7402.059420
596.460819,1455.581446,592.164754,9030.512492
596.461135,-1378.971896,-1110.308913,10955.047942
596.461450,-3294.210641,-2220.617826,12065.356855
596.461766,-5056.230287,-3256.906145,13249.686362
596.462082,-6205.373534,-4071.132681,13693.809927
596.462398,-6435.202183,-4441.235652,13915.871710
596.462714,-6435.202183,-3923.091493,13397.727550
596.463030,-5515.887586,-3256.906145,12657.521608
596.463345,-3677.258390,-2960.823768,11843.295072
596.463661,-2145.067394,-2072.576638,11029.068536
596.463977,-536.266849,-1184.329507,9992.780217
596.464293,1991.848295,444.123565,8438.347739
596.464609,4213.525239,1702.473667,7328.038826
596.464925,6128.763984,3182.885551,6291.750507
596.465241,7431.126331,3849.070898,5403.503377
596.465556,8044.002729,4367.215058,4959.379811
596.465872,7967.393179,4663.297435,4959.379811
596.466188,7354.516781,3701.029710,5625.565159
596.466504,5669.106685,2664.741391,6735.874072
596.466820,3140.991542,1184.329507,7994.224174
596.467136,536.266849,-222.061783,9770.718434
596.467451,-1915.238745,-1480.411884,11177.109724
596.467767,-3907.087040,-2442.679609,12361.439231
596.468083,-5362.668486,-3330.926739,13249.686362
596.468399,-6052.154434,-3775.050304,13619.789333
596.468715,-6358.592633,-4293.194464,13397.727550
596.469031,-6128.763984,-3627.009116,12583.501014
596.469346,-4596.572988,-3108.864956,11769.274478
596.469662,-3140.991542,-2516.700203,11251.130318
596.469978,-1532.190996,-1628.453072,10584.944971
596.470294,612.876398,-444.123565,9548.656652
596.470610,2528.115143,1184.329507,7846.182985
596.470926,4673.182538,2516.700203,7179.997637
596.471242,6281.983084,3775.050304,5773.606348
596.471557,7201.297681,4367.215058,4959.379811
596.471873,7354.516781,4515.256246,4959.379811
596.472189,7201.297681,4071.132681,5033.400406
596.472505,5669.106685,2960.823768,6217.729913
596.472821,3447.429741,1776.494261,7698.141797
596.473137,1225.752797,-222.061783,9326.594869
596.473452,-1302.362347,-1480.411884,10807.006753
596.473768,-3294.210641,-2220.617826,11843.295072
596.474084,-5362.668486,-2960.823768,12805.562797
596.474400,-6128.763984,-3478.967927,13841.851115
596.474716,-6435.202183,-3775.050304,13545.768739
596.475032,-6741.640382,-3552.988522,13249.686362
596.475347,-5362.668486,-3256.906145,12361.439231
596.475663,-4060.306139,-3034.844362,11769.274478
596.475979,-2145.067394,-2146.597232,11029.068536
596.476295,-306.438199,-1332.370696,10288.862594
596.476611,1608.800546,74.020594,8586.388927
596.476927,4060.306139,1702.473667,7698.141797
596.477242,5515.887586,2442.679609,6587.832884
596.477558,6894.859482,3552.988522,5921.647536
596.477874,7660.954980,4071.132681,5403.503377
596.478190,7507.735880,3997.112087,4811.338623
596.478506,7354.516781,3701.029710,5551.544565
596.478821,4979.620737,2442.679609,6883.915261
596.479137,3217.601092,1036.288319,8364.327145
596.479453,306.438199,-444.123565,9918.759623
596.479769,-1762.019645,-1406.391290,11399.171507
596.480085,-3677.258390,-2368.659014,12213.398043
596.480401,-5209.449386,-3478.967927,12879.583391
596.480716,-6128.763984,-4219.173869,13841.851115
596.481032,-6741.640382,-4441.235652,13545.768739
596.481348,-5975.544884,-3775.050304,12657.521608
596.481664,-4903.011187,-3404.947333,12065.356855
596.481980,-3370.820191,-2664.741391,11621.233289
596.482296,-2145.067394,-2146.597232,10658.965565
596.482611,0.000000,-814.226536,9474.636058
596.482927,2681.334243,814.226536,8290.306550
596.483243,4136.915689,1480.411884,6957.935855
596.483559,5515.887586,3256.906145,5921.647536
596.483875,6971.469032,3256.906145,5107.421000
596.484191,7354.516781,3849.070898,4885.359217
596.484506,7048.078582,3923.091493,4885.359217
596.484822,5592.497135,2738.761985,5921.647536
596.485138,4290.134789,1850.514855,7402.059420
596.485454,1608.800546,-74.020594,8660.409521
596.485770,-612.876398,-1332.370696,10288.862594
596.486085,-2987.772442,-1998.556043,11621.233289
596.486401,-4749.792088,-2960.823768,12509.480420
596.486717,-5822.325785,-3627.009116,13693.809927
596.487033,-6052.154434,-3923.091493,13249.686362
596.487349,-6205.373534,-3701.029710,13027.624579
596.487665,-5362.668486,-3256.906145,12213.398043
596.487980,-4136.915689,-3034.844362,11547.212695
596.488296,-2068.457845,-2442.679609,11325.150913
596.488612,-536.266849,-1628.453072,10510.924376
596.488928,1608.800546,-148.041188,8512.368333
596.489244,3524.039291,1480.411884,7772.162391
596.489560,5592.497135,2664.741391,6587.832884
596.489875,6971.469032,3701.029710,5329.482782
596.490191,7737.564530,4663.297435,4959.379811
596.490507,7737.564530,4737.318029,4589.276840
596.490823,7354.516781,3997.112087,5255.462188
596.491139,5975.544884,2294.638420,6883.915261
596.491454,3677.258390,1258.350101,8216.285956
596.491770,1149.143247,-0.000000,9622.677246
596.492086,-919.314598,-1258.350101,11177.109724
596.492402,-3140.991542,-2220.617826,11917.315666
596.492718,-4826.401637,-3182.885551,13027.624579
596.493034,-5515.887586,-3182.885551,13175.665768
596.493349,-6358.592633,-3775.050304,13471.748144
596.493665,-5822.325785,-3478.967927,12805.562797
596.493981,-4979.620737,-3108.864956,12361.439231
596.494297,-3294.210641,-2738.761985,12065.356855
596.494613,-2298.286494,-2146.597232,11325.150913
596.494929,-536.266849,-962.267725,9918.759623
596.495244,1532.190996,666.185348,8956.491898
596.495560,3447.429741,1850.514855,7254.018232
596.495876,5362.668486,3478.967927,6809.894666
596.496192,6665.030833,4145.153275,5329.482782
596.496508,7354.516781,4885.359217,4885.359217
596.496823,7277.907231,4219.173869,4959.379811
596.497139,5898.935335,3478.967927,5921.647536
596.497455,4443.353888,2368.659014,7328.038826
596.497771,2221.676944,296.082377,9104.533087
596.498087,-383.047749,-814.226536,10214.842000
596.498403,-2451.505594,-1776.494261,11769.274478
596.498718,-3907.087040,-2664.741391,12805.562797
596.499034,-5669.106685,-3775.050304,13841.851115
596.499350,-5975.544884,-3775.050304,13619.789333
596.499666,-6205.373534,-3923.091493,13175.665768
596.499982,-5209.449386,-3478.967927,12287.418637
596.500298,-4366.744339,-2516.700203,12213.398043
596.500613,-2681.334243,-2368.659014,11547.212695
596.500929,-1072.533697,-2072.576638,10658.965565
596.501245,1225.752797,-666.185348,9474.636058
596.501561,2987.772442,666.185348,8290.306550
596.501877,5132.839837,1998.556043,6957.935855
596.502192,6894.859482,2960.823768,5921.647536
596.502508,7584.345430,3849.070898,4737.318029
596.502824,8197.221829,4293.194464,4219.173869
596.503140,7737.564530,3701.029710,4811.338623
596.503456,6281.983084,2738.761985,5847.626942
596.503772,3907.087040,1480.411884,7179.997637
596.504087,1532.190996,-0.000000,8956.491898
596.504403,-919.314598,-1258.350101,10658.965565
596.504719,-3217.601092,-2516.700203,11917.315666
596.505035,-4673.182538,-3627.009116,13027.624579
596.505351,-6052.154434,-4071.132681,12953.603985
596.505667,-6588.421283,-4589.276840,13175.665768
596.505982,-6358.592633,-3849.070898,13101.645173
596.506298,-4903.011187,-3552.988522,12139.377449
596.506614,-4136.915689,-2516.700203,11843.295072
596.506930,-2757.943793,-2220.617826,10881.027347
596.507246,-689.485948,-1332.370696,10362.883188
596.507562,1072.533697,222.061783,8438.347739
596.507877,3140.991542,1776.494261,7105.977043
596.508193,5362.668486,2590.720797,6291.750507
596.508509,6818.249932,3108.864956,5255.462188
596.508825,7354.516781,4737.318029,4589.276840
596.509141,7584.345430,3849.070898,4589.276840
596.509456,7124.688131,2960.823768,5847.626942
596.509772,4903.011187,2516.700203,6883.915261
596.510088,2374.896044,814.226536,8216.285956
596.510404,306.438199,-370.102971,9696.697840
596.510720,-2221.676944,-1776.494261,11695.253884
596.511036,-4290.134789,-3034.844362,12731.542202
596.511351,-4979.620737,-3701.029710,13397.727550
596.511667,-6281.983084,-3775.050304,13545.768739
596.511983,-6358.592633,-3997.112087,13915.871710
596.512299,-5822.325785,-3701.029710,13027.624579
596.512615,-4673.182538,-3330.926739,12361.439231
596.512931,-3217.601092,-2368.659014,12139.377449
596.513246,-1302.362347,-1924.535449,10955.047942
596.513562,689.485948,-222.061783,9474.636058
596.513878,2451.505594,888.247130,8512.368333
596.514194,4903.011187,2516.700203,6809.894666
596.514510,6894.859482,3775.050304,5995.668130
596.514825,7814.174080,4515.256246,4811.338623
596.515141,8350.440928,4219.173869,4737.318029
596.515457,7814.174080,4219.173869,5255.462188
596.515773,6435.202183,3330.926739,6143.709319
596.516089,4213.525239,1924.535449,7550.100608
596.516405,1608.800546,592.164754,9104.533087
596.516720,-766.095498,-888.247130,10584.944971
596.517036,-3064.381992,-1924.535449,11843.295072
596.517352,-4673.182538,-2812.782580,13101.645173
596.517668,-5898.935335,-3701.029710,13175.665768
596.517984,-6665.030833,-3997.112087,13693.809927
596.518300,-6435.202183,-3775.050304,13545.768739
596.518615,-5592.497135,-3849.070898,13101.645173
596.518931,-4366.744339,-3034.844362,12287.418637
596.519247,-3370.820191,-2368.659014,11621.233289
596.519563,-1225.752797,-1480.411884,10732.986159
596.519879,612.876398,296.082377,9030.512492
596.520194,2604.724693,2294.638420,7698.141797
596.520510,5132.839837,3034.844362,6217.729913
596.520826,6435.202183,3849.070898,5033.400406
596.521142,7354.516781,5033.400406,4663.297435
596.521458,7660.954980,4071.132681,4367.215058
596.521774,6971.469032,3182.885551,5255.462188
596.522089,4826.401637,2368.659014,7179.997637
596.522405,2834.553343,962.267725,8290.306550
596.522721,153.219100,-222.061783,9696.697840
596.523037,-2145.067394,-1258.350101,11547.212695
596.523353,-3983.696590,-2664.741391,12583.501014
596.523669,-5515.887586,-3330.926739,13249.686362
596.523984,-6205.373534,-4071.132681,13323.706956
596.524300,-6358.592633,-4071.132681,13619.789333
596.524616,-5669.106685,-3923.091493,12879.583391
596.524932,-4826.401637,-3552.988522,12361.439231
596.525248,-2834.553343,-2442.679609,11621.233289
596.525563,-1302.362347,-1850.514855,10584.944971
596.525879,612.876398,-740.205942,9622.677246
596.526195,2834.553343,1110.308913,7772.162391
596.526511,5132.839837,2368.659014,6439.791695
596.526827,6894.859482,3775.050304,5477.523971
596.527143,8044.002729,4367.215058,4589.276840
596.527458,8810.098227,4293.194464,4219.173869
596.527774,8197.221829,4219.173869,4811.338623
596.528090,6741.640382,3182.885551,5773.606348
596.528406,4290.134789,1628.453072,7476.080014
596.528722,1762.019645,518.144159,8734.430116
596.529038,-612.876398,-1110.308913,10288.862594
596.529353,-3064.381992,-1776.494261,11991.336260
596.529669,-4749.792088,-3108.864956,12731.542202
596.529985,-5898.935335,-3552.988522,13249.686362
596.530301,-6588.421283,-3849.070898,13323.706956
596.530617,-6052.154434,-3923.091493,13545.768739
596.530932,-5439.278036,-3552.988522,12657.521608
596.531248,-4366.744339,-3108.864956,12065.356855
596.531564,-2834.553343,-1998.556043,11325.150913
596.531880,-842.705048,-1110.308913,10214.842000
596.532196,1302.362347,888.247130,8364.327145
596.532512,3140.991542,2146.597232,7402.059420
596.532827,5362.668486,3182.885551,6809.894666
596.533143,7048.078582,4219.173869,5181.441594
596.533459,7660.954980,4589.276840,4737.318029
596.533775,7737.564530,4219.173869,5181.441594
596.534091,6818.249932,3701.029710,5773.606348
596.534407,4903.011187,2368.659014,7105.977043
596.534722,2528.115143,1110.308913,8512.368333
596.535038,153.219100,-222.061783,9918.759623
596.535354,-2451.505594,-1554.432478,11843.295072
596.535670,-4060.306139,-2960.823768,12731.542202
596.535986,-5515.887586,-3775.050304,13767.830521
596.536302,-6511.811733,-4219.173869,14063.912898
596.536617,-6358.592633,-4145.153275,13545.768739
596.536933,-5592.497135,-3923.091493,13249.686362
596.537249,-4519.963438,-3478.967927,12583.501014
596.537565,-3140.991542,-2516.700203,11843.295072
596.537881,-1378.971896,-1850.514855,10881.027347
596.538196,1225.752797,-592.164754,9104.533087
596.538512,2911.162892,1184.329507,7846.182985
596.538828,5132.839837,2220.617826,6661.853478
596.539144,6894.859482,3404.947333,5403.503377
596.539460,7431.126331,4145.153275,5033.400406
596.539776,8427.050478,4441.235652,4515.256246
596.540091,7660.954980,3775.050304,4737.318029
596.540407,5592.497135,2590.720797,5995.668130
596.540723,3677.258390,1628.453072,7476.080014
596.541039,1378.971896,-0.000000,8808.450710
596.541355,-1302.362347,-1036.288319,10288.862594
596.541671,-3600.648841,-2072.576638,11843.295072
596.541986,-4903.011187,-3330.926739,12953.603985
596.542302,-6052.154434,-3775.050304,13397.727550
596.542618,-6588.421283,-4293.194464,13027.624579
596.542934,-6281.983084,-4219.173869,12953.603985
596.543250,-5362.668486,-3849.070898,12583.501014
596.543565,-4519.963438,-2960.823768,11843.295072
596.543881,-2681.334243,-2516.700203,11177.109724
596.544197,0.000000,-1110.308913,10362.883188
596.544513,1378.971896,296.082377,8142.265362
596.544829,3677.258390,1850.514855,7328.038826
596.545145,5745.716235,3108.864956,5995.668130
596.545460,7124.688131,3997.112087,4737.318029
596.545776,7814.174080,4441.235652,4589.276840
596.546092,7737.564530,3849.070898,4589.276840
596.546408,6665.030833,2886.803174,5255.462188
596.546724,4749.792088,2220.617826,7031.956449
596.547040,2451.505594,666.185348,8216.285956
596.547355,306.438199,-666.185348,10436.903782
596.547671,-2451.505594,-1628.453072,11843.295072
596.547987,-4213.525239,-3034.844362,12583.501014
596.548303,-5209.449386,-3775.050304,13397.727550
596.548619,-6281.983084,-4219.173869,13841.851115
596.548934,-6052.154434,-4219.173869,13619.789333
596.549250,-5209.449386,-3923.091493,12953.603985
596.549566,-4519.963438,-3404.947333,12287.418637
596.549882,-2834.553343,-2368.659014,11843.295072
596.550198,-766.095498,-1702.473667,10658.965565
596.550514,919.314598,-518.144159,9326.594869
596.550829,3064.381992,1554.432478,7994.224174
596.551145,5592.497135,2664.741391,6661.853478
596.551461,7354.516781,3478.967927,5847.626942
596.551777,7890.783629,4293.194464,4959.379811
596.552093,8656.879127,4663.297435,4515.256246
596.552409,7890.783629,4441.235652,5033.400406
596.552724,5975.544884,3256.906145,6365.771101
596.553040,4136.915689,1332.370696,7920.203579
596.553356,1532.190996,-0.000000,9474.636058
596.553672,-1149.143247,-1110.308913,11177.109724
596.553988,-3524.039291,-2146.597232,12065.356855
596.554303,-5132.839837,-3256.906145,13471.748144
596.554619,-6358.592633,-3701.029710,14063.912898
596.554935,-6818.249932,-3404.947333,13545.768739
596.555251,-6665.030833,-3627.009116,13545.768739
596.555567,-5209.449386,-3478.967927,12805.562797
596.555883,-3983.696590,-2886.803174,11991.336260
596.556198,-2681.334243,-2220.617826,11621.233289
596.556514,-459.657299,-1184.329507,10362.883188
596.556830,1455.581446,592.164754,8512.368333
596.557146,3524.039291,2368.659014,6957.935855
596.557462,5822.325785,3182.885551,5847.626942
596.557778,7124.688131,4367.215058,5329.482782
596.558093,7737.564530,4811.338623,4293.194464
596.558409,7660.954980,4367.215058,4441.235652
596.558725,6435.202183,3108.864956,5921.647536
596.559041,4673.182538,1850.514855,7328.038826
596.559357,2374.896044,666.185348,8512.368333
596.559672,-536.266849,-1036.288319,10214.842000
596.559988,-2987.772442,-2220.617826,12139.377449
596.560304,-4903.011187,-3256.906145,12879.583391
596.560620,-5286.058936,-3923.091493,13767.830521
596.560936,-6665.030833,-4219.173869,13767.830521
596.561252,-6588.421283,-4145.153275,13545.768739
596.561567,-5669.106685,-3775.050304,12731.542202
596.561883,-4136.915689,-3478.967927,12139.377449
596.562199,-2374.896044,-2812.782580,11473.192101
596.562515,-1072.533697,-1776.494261,10510.924376
596.562831,1378.971896,-0.000000,8882.471304
596.563147,3600.648841,1702.473667,7328.038826
596.563462,5822.325785,2738.761985,6069.688724
596.563778,7277.907231,3997.112087,5699.585753
596.564094,8427.050478,4293.194464,4293.194464
596.564410,8427.050478,4367.215058,4219.173869
596.564726,7814.174080,3552.988522,5255.462188
596.565042,5898.935335,2368.659014,6217.729913
596.565357,3600.648841,1110.308913,7476.080014
596.565673,919.314598,-148.041188,9548.656652
596.565989,-1685.410096,-1406.391290,11251.130318
596.566305,-3830.477490,-2664.741391,12213.398043
596.566621,-5132.839837,-3701.029710,13027.624579
596.566936,-6435.202183,-4367.215058,13545.768739
596.567252,-7277.907231,-4145.153275,13841.851115
596.567568,-6358.592633,-4071.132681,12953.603985
596.567884,-5286.058936,-3701.029710,12657.521608
596.568200,-3983.696590,-2738.761985,11843.295072
596.568516,-2298.286494,-2294.638420,10807.006753
596.568831,0.000000,-888.247130,9622.677246
596.569147,1915.238745,962.267725,8216.285956
596.569463,4213.525239,2368.659014,7254.018232
596.569779,6281.983084,2886.803174,5477.523971
596.570095,7354.516781,4367.215058,4737.318029
596.570411,7660.954980,4737.318029,4589.276840
596.570726,7507.735880,4219.173869,4959.379811
596.571042,6205.373534,3404.947333,5773.606348
596.571358,3907.087040,2294.638420,7254.018232
596.571674,1608.800546,592.164754,9030.512492
596.571990,-1072.533697,-1184.329507,10955.047942
596.572305,-3600.648841,-2368.659014,12435.459826
596.572621,-5362.668486,-3552.988522,13323.706956
596.572937,-6511.811733,-4219.173869,13989.892304
596.573253,-7124.688131,-4441.235652,14211.954086
596.573569,-6894.859482,-4071.132681,13693.809927
596.573885,-5975.544884,-3775.050304,12731.542202
596.574200,-4290.134789,-3034.844362,12583.501014
596.574516,-2451.505594,-2738.761985,11769.274478
596.574832,-383.047749,-1628.453072,10510.924376
596.575148,2145.067394,444.123565,8586.388927
596.575464,3983.696590,2146.597232,7105.977043
596.575780,7124.688131,2960.823768,6217.729913
596.576095,7814.174080,4071.132681,4885.359217
596.576411,8580.269578,4959.379811,4071.132681
596.576727,8656.879127,4737.318029,4293.194464
596.577042,7584.345430,3849.070898,5403.503377
596.577358,5439.278036,2442.679609,6661.853478
596.577674,2681.334243,1110.308913,8142.265362
596.577989,459.657299,-74.020594,10066.800811
596.578305,-2451.505594,-1850.514855,11621.233289
596.578621,-4443.353888,-2812.782580,12953.603985
596.578937,-6052.154434,-3552.988522,13027.624579
596.579252,-6818.249932,-3923.091493,13989.892304
596.579568,-7201.297681,-4219.173869,13841.851115
596.579884,-6435.202183,-3552.988522,13027.624579
596.580199,-4673.182538,-3256.906145,12287.418637
596.580515,-3600.648841,-2368.659014,11769.274478
596.580831,-1532.190996,-1776.494261,10584.944971
596.581146,612.876398,-148.041188,9104.533087
596.581462,2987.772442,1110.308913,7476.080014
596.581778,4749.792088,2664.741391,6883.915261
596.582093,6818.249932,3923.091493,5551.544565
596.582409,7814.174080,4219.173869,4663.297435
596.582725,7814.174080,4737.318029,4071.132681
596.583040,7354.516781,4145.153275,4885.359217
596.583356,5822.325785,3034.844362,6217.729913
596.583672,3064.381992,1628.453072,7624.121203
596.583987,689.485948,-148.041188,9622.677246
596.584303,-1762.019645,-1554.432478,11103.089130
596.584619,-4366.744339,-3108.864956,13027.624579
596.584935,-5822.325785,-3923.091493,13841.851115
596.585250,-6511.811733,-4515.256246,14063.912898
596.585566,-7124.688131,-4441.235652,14063.912898
596.585882,-6588.421283,-4071.132681,13471.748144
596.586197,-5362.668486,-3627.009116,12287.418637
596.586513,-3447.429741,-2738.761985,11769.274478
596.586829,-1532.190996,-1776.494261,10807.006753
596.587144,229.828649,-592.164754,9622.677246
596.587460,2681.334243,1110.308913,7772.162391
596.587776,5362.668486,2368.659014,6587.832884
596.588091,7201.297681,3404.947333,5995.668130
596.588407,8656.879127,3849.070898,5181.441594
596.588723,8580.269578,4959.379811,4515.256246
596.589038,8273.831378,4071.132681,4589.276840
596.589354,7354.516781,3182.885551,6143.709319
596.589670,4903.011187,2294.638420,7105.977043
596.589985,1838.629195,592.164754,8512.368333
596.590301,-459.657299,-666.185348,10807.006753
596.590617,-3064.381992,-2294.638420,12435.459826
596.590933,-4903.011187,-3330.926739,13545.768739
596.591248,-5898.935335,-3849.070898,13619.789333
596.591564,-7201.297681,-4219.173869,13767.830521
596.591880,-6818.249932,-3997.112087,13619.789333
596.592195,-6128.763984,-3478.967927,12657.521608
596.592511,-4519.963438,-3182.885551,11991.336260
596.592827,-2987.772442,-2146.597232,11621.233289
596.593142,-1149.143247,-1332.370696,10140.821405
596.593458,1149.143247,222.061783,8586.388927
596.593774,3524.039291,1628.453072,7698.141797
596.594089,5592.497135,2960.823768,6365.771101
596.594405,7201.297681,4145.153275,5403.503377
596.594721,7890.783629,4441.235652,4367.215058
596.595036,7660.954980,4589.276840,4441.235652
596.595352,6894.859482,3849.070898,4885.359217
596.595668,5056.230287,2442.679609,6365.771101
596.595983,2528.115143,1184.329507,8290.306550
596.596299,-153.219100,-592.164754,10214.842000
596.596615,-2221.676944,-1924.535449,11695.253884
596.596931,-4903.011187,-3034.844362,12805.562797
596.597246,-6128.763984,-3775.050304,13693.809927
596.597562,-6818.249932,-4515.256246,14137.933492
596.597878,-6818.249932,-4071.132681,13989.892304
596.598193,-6128.763984,-3627.009116,12953.603985
596.598509,-4443.353888,-3627.009116,11843.295072
596.598825,-2681.334243,-2294.638420,11473.192101
596.599140,-1225.752797,-1406.391290,10436.903782
596.599456,995.924147,-444.123565,9030.512492
596.599772,3294.210641,1258.350101,7698.141797
596.600087,5822.325785,2590.720797,6883.915261
596.600403,7201.297681,3330.926739,5625.565159
596.600719,8810.098227,3552.988522,4811.338623
596.601034,8503.660028,4219.173869,4737.318029
596.601350,8197.221829,3997.112087,5107.421000
596.601666,6511.811733,2812.782580,6143.709319
596.601981,4290.134789,1702.473667,7624.121203
596.602297,1225.752797,518.144159,8882.471304
596.602613,-1225.752797,-1332.370696,10658.965565
596.602929,-3830.477490,-2368.659014,12435.459826
596.603244,-5209.449386,-3552.988522,13323.706956
596.603560,-6128.763984,-4071.132681,13619.789333
596.603876,-6971.469032,-4589.276840,13767.830521
596.604191,-6588.421283,-3923.091493,13101.645173
596.604507,-6052.154434,-2960.823768,12287.418637
596.604823,-3830.477490,-2664.741391,11473.192101
596.605138,-2298.286494,-2072.576638,10881.027347
596.605454,-383.047749,-666.185348,9992.780217
596.605770,1915.238745,370.102971,8216.285956
596.606085,4136.915689,1998.556043,7402.059420
596.606401,5975.544884,3404.947333,5995.668130
596.606717,7354.516781,4071.132681,5181.441594
596.607032,7584.345430,3997.112087,4663.297435
596.607348,7354.516781,4515.256246,4811.338623
596.607664,6435.202183,3478.967927,5403.503377
596.607980,4519.963438,2072.576638,7179.997637
596.608295,1991.848295,740.205942,8734.430116
596.608611,-842.705048,-888.247130,10510.924376
596.608927,-2911.162892,-1924.535449,11843.295072
596.609242,-5132.839837,-3552.988522,13249.686362
596.609558,-6052.154434,-4071.132681,13693.809927
596.609874,-6665.030833,-4515.256246,13767.830521
596.610189,-6818.249932,-4219.173869,13545.768739
596.610505,-5362.668486,-3997.112087,12657.521608
596.610821,-4136.915689,-3256.906145,11917.315666
596.611136,-2221.676944,-2368.659014,11251.130318
596.611452,-306.438199,-1332.370696,10140.821405
596.611768,1685.410096,296.082377,8660.409521
596.612083,4366.744339,1258.350101,7550.100608
596.612399,5898.935335,2442.679609,6291.750507
596.612715,7124.688131,3701.029710,5773.606348
596.613030,8197.221829,4293.194464,4885.359217
596.613346,8044.002729,3849.070898,5033.400406
596.613662,6741.640382,3701.029710,5551.544565
596.613978,5439.278036,2886.803174,6587.832884
596.614293,3370.820191,1110.308913,8364.327145
596.614609,612.876398,-74.020594,9844.739029
596.614925,-1838.629195,-888.247130,11843.295072
596.615240,-3830.477490,-2368.659014,12657.521608
596.615556,-5439.278036,-3108.864956,13397.727550
596.615872,-5898.935335,-3627.009116,13619.789333
596.616187,-6358.592633,-3849.070898,13249.686362
596.616503,-5669.106685,-3627.009116,12657.521608
596.616819,-4749.792088,-2664.741391,12065.356855
596.617134,-3217.601092,-2220.617826,11325.150913
596.617450,-1762.019645,-1480.411884,10584.944971
596.617766,153.219100,-370.102971,9696.697840
596.618081,2298.286494,592.164754,7994.224174
596.618397,3983.696590,2072.576638,6883.915261
596.618713,5515.887586,2960.823768,6661.853478
596.619028,6741.640382,3701.029710,5773.606348
596.619344,7277.907231,3849.070898,4811.338623
596.619660,6818.249932,3701.029710,4959.379811
596.619976,5822.325785,3108.864956,5847.626942
596.620291,4136.915689,2072.576638,7105.977043
596.620607,1685.410096,518.144159,8882.471304
596.620923,-842.705048,-1184.329507,10732.986159
596.621238,-2911.162892,-1998.556043,11695.253884
596.621554,-4673.182538,-2960.823768,12953.603985
596.621870,-5592.497135,-3923.091493,13397.727550
596.622185,-5975.544884,-3997.112087,13619.789333
596.622501,-6281.983084,-3849.070898,13027.624579
596.622817,-5362.668486,-3404.947333,12509.480420
596.623132,-3753.867940,-2664.741391,11843.295072
596.623448,-2451.505594,-2368.659014,11399.171507
596.623764,-689.485948,-962.267725,10214.842000
596.624079,1072.533697,-74.020594,9030.512492
596.624395,3447.429741,814.226536,7920.203579
596.624711,5132.839837,2442.679609,6957.935855
596.625026,6665.030833,3404.947333,5847.626942
596.625342,7814.174080,3849.070898,5403.503377
596.625658,7890.783629,4293.194464,5329.482782
596.625974,7507.735880,3701.029710,5403.503377
596.626289,5898.935335,2664.741391,6587.832884
596.626605,3753.867940,1628.453072,7624.121203
596.626921,1838.629195,-0.000000,9548.656652
596.627236,-766.095498,-1110.308913,10881.027347
596.627552,-2987.772442,-1776.494261,11769.274478
596.627868,-4826.401637,-2664.741391,12953.603985
596.628183,-5209.449386,-3404.947333,13249.686362
596.628499,-6435.202183,-3627.009116,13101.645173
596.628815,-6205.373534,-3627.009116,12731.542202
596.629130,-5056.230287,-2960.823768,11991.336260
596.629446,-3677.258390,-2812.782580,12065.356855
596.629762,-2528.115143,-2072.576638,11325.150913
596.630077,-1072.533697,-1480.411884,10510.924376
596.630393,1149.143247,-0.000000,9030.512492
596.630709,3370.820191,1480.411884,7846.182985
596.631024,4903.011187,2590.720797,6661.853478
596.631340,6588.421283,3923.091493,5847.626942
596.631656,6971.469032,3775.050304,5033.400406
596.631972,7277.907231,3923.091493,4737.318029
596.632287,6205.373534,3330.926739,5699.585753
596.632603,4749.792088,2368.659014,6661.853478
596.632919,2221.676944,740.205942,8438.347739
596.633234,0.000000,-518.144159,10066.800811
596.633550,-2145.067394,-1628.453072,11325.150913
596.633866,-4366.744339,-2812.782580,12509.480420
596.634181,-5209.449386,-3627.009116,13693.809927
596.634497,-5975.544884,-4293.194464,13841.851115
596.634813,-6128.763984,-4293.194464,13471.748144
596.635128,-5286.058936,-3478.967927,12583.501014
596.635444,-4519.963438,-3330.926739,12065.356855
596.635760,-3140.991542,-2368.659014,11473.192101
596.636075,-1302.362347,-1628.453072,10955.047942
596.636391,383.047749,-1110.308913,9770.718434
596.636707,2681.334243,1110.308913,8142.265362
596.637023,4596.572988,2072.576638,6809.894666
596.637338,6665.030833,2886.803174,6439.791695
596.637654,7737.564530,3923.091493,5107.421000
596.637970,7967.393179,3997.112087,4737.318029
596.638285,7890.783629,4145.153275,4515.256246
596.638601,6435.202183,2960.823768,6069.688724
596.638917,4290.134789,1998.556043,7105.977043
596.639232,2298.286494,666.185348,9104.533087
596.639548,-995.924147,-814.226536,10140.821405
596.639864,-2911.162892,-1850.514855,11843.295072
596.640179,-4749.792088,-2960.823768,12805.562797
596.640495,-5362.668486,-4219.173869,13471.748144
596.640811,-6511.811733,-4219.173869,13619.789333
596.641126,-6205.373534,-3775.050304,12731.542202
596.641442,-4979.620737,-3108.864956,12139.377449
596.641758,-3983.696590,-2886.803174,11843.295072
596.642073,-2911.162892,-2072.576638,11103.089130
596.642389,-1072.533697,-1554.432478,10510.924376
596.642705,612.876398,-148.041188,8956.491898
596.643021,2834.553343,1332.370696,7772.162391
596.643336,4596.572988,2590.720797,6587.832884
596.643652,6971.469032,3256.906145,5255.462188
596.643968,7124.688131,4219.173869,4589.276840
596.644283,7354.516781,4145.153275,4811.338623
596.644599,6971.469032,3849.070898,5107.421000
596.644915,5132.839837,2812.782580,6513.812290
596.645230,3217.601092,1184.329507,8068.244768
596.645546,536.266849,-296.082377,9696.697840
596.645862,-1762.019645,-1554.432478,11103.089130
596.646177,-3600.648841,-2442.679609,12287.418637
596.646493,-4979.620737,-3404.947333,13397.727550
596.646809,-5898.935335,-4145.153275,13989.892304
596.647124,-6435.202183,-3701.029710,13545.768739
596.647440,-5822.325785,-3182.885551,13101.645173
596.647756,-4596.572988,-3478.967927,12583.501014
596.648071,-3217.601092,-2442.679609,11991.336260
596.648387,-1608.800546,-2072.576638,10881.027347
596.648703,229.828649,-740.205942,9918.759623
596.649019,2451.505594,962.267725,8438.347739
596.649334,4443.353888,2072.576638,7105.977043
596.649650,6205.373534,3182.885551,6587.832884
596.649966,7431.126331,3997.112087,5181.441594
596.650281,8044.002729,4441.235652,4737.318029
596.650597,8273.831378,4145.153275,4885.359217
596.650913,6741.640382,3404.947333,6069.688724
596.651228,4903.011187,2220.617826,7105.977043
596.651544,2528.115143,814.226536,8586.388927
596.651860,0.000000,-592.164754,10362.883188
596.652175,-2528.115143,-1628.453072,11917.315666
596.652491,-4290.134789,-3182.885551,13101.645173
596.652807,-5209.449386,-3404.947333,13101.645173
596.653122,-6052.154434,-3775.050304,13323.706956
596.653438,-6052.154434,-3552.988522,13323.706956
596.653754,-5132.839837,-3256.906145,12509.480420
596.654069,-4443.353888,-2738.761985,12657.521608
596.654385,-3064.381992,-2294.638420,11325.150913
596.654701,-2068.457845,-1776.494261,10955.047942
596.655017,383.047749,-444.123565,9326.594869
596.655332,2451.505594,1258.350101,7698.141797
596.655648,4749.792088,2590.720797,7402.059420
596.655964,6205.373534,3701.029710,5773.606348
596.656279,7124.688131,4367.215058,4515.256246
596.656595,7354.516781,4367.215058,4219.173869
596.656911,7048.078582,3775.050304,4811.338623
596.657226,5286.058936,2664.741391,6217.729913
596.657542,2987.772442,1480.411884,8142.265362
596.657858,766.095498,-74.020594,9548.656652
596.658173,-1762.019645,-1332.370696,10955.047942
596.658489,-3677.258390,-2368.659014,12509.480420
596.658805,-5209.449386,-3627.009116,13545.768739
596.659120,-6128.763984,-4219.173869,13471.748144
596.659436,-6435.202183,-4293.194464,13397.727550
596.659752,-6052.154434,-3775.050304,12805.562797
596.660067,-4826.401637,-3775.050304,12435.459826
596.660383,-3753.867940,-2664.741391,11621.233289
596.660699,-2451.505594,-2072.576638,10807.006753
596.661015,0.000000,-1184.329507,9918.759623
596.661330,2145.067394,666.185348,8216.285956
596.661646,4443.353888,2220.617826,6957.935855
596.661962,6052.154434,3256.906145,6143.709319
596.662277,7814.174080,3923.091493,5033.400406
596.662593,8350.440928,4219.173869,4293.194464
596.662909,8120.612279,3997.112087,4589.276840
596.663224,7201.297681,3256.906145,5699.585753
596.663540,4826.401637,2294.638420,7031.956449
596.663856,2298.286494,888.247130,8290.306550
596.664171,0.000000,-592.164754,10436.903782
596.664487,-2604.724693,-1998.556043,11843.295072
596.664803,-4519.963438,-2812.782580,12657.521608
596.665118,-5745.716235,-3552.988522,13397.727550
596.665434,-6435.202183,-4219.173869,13619.789333
596.665750,-6511.811733,-3849.070898,13249.686362
596.666066,-5745.716235,-3478.967927,12953.603985
596.666381,-4519.963438,-3404.947333,12361.439231
596.666697,-3294.210641,-2368.659014,11473.192101
596.667013,-1685.410096,-1702.473667,10807.006753
596.667328,306.438199,-370.102971,9252.574275
596.667644,2681.334243,1332.370696,7624.121203
596.667960,4673.182538,2442.679609,7254.018232
596.668275,6588.421283,3627.009116,6069.688724
596.668591,7431.126331,3923.091493,4589.276840
596.668907,7890.783629,4367.215058,4367.215058
596.669222,7124.688131,3627.009116,4885.359217
596.669538,5822.325785,2294.638420,6439.791695
596.669854,3677.258390,1776.494261,7550.100608
596.670169,842.705048,-0.000000,9030.512492
596.670485,-1685.410096,-1258.350101,11029.068536
596.670801,-3677.258390,-2738.761985,12509.480420
596.671116,-5056.230287,-3923.091493,13249.686362
596.671432,-5822.325785,-4219.173869,13841.851115
596.671748,-6511.811733,-4145.153275,13693.809927
596.672064,-6052.154434,-4145.153275,13175.665768
596.672379,-4903.011187,-3627.009116,12657.521608
596.672695,-3677.258390,-2886.803174,11917.315666
596.673011,-2221.676944,-1924.535449,11177.109724
596.673326,0.000000,-740.205942,9992.780217
596.673642,2145.067394,666.185348,7994.224174
596.673958,4673.182538,2294.638420,7031.956449
596.674273,6435.202183,3330.926739,5995.668130
596.674589,7890.783629,4219.173869,4737.318029
596.674905,8503.660028,4219.173869,4219.173869
596.675220,8197.221829,3997.112087,5033.400406
596.675536,7354.516781,2738.761985,5329.482782
596.675852,4826.401637,1998.556043,7031.956449
596.676167,2145.067394,444.123565,8586.388927
596.676483,-153.219100,-370.102971,10658.965565
596.676799,-2604.724693,-1628.453072,11843.295072
596.677114,-4903.011187,-3108.864956,12805.562797
596.677430,-5592.497135,-3627.009116,13619.789333
596.677746,-6435.202183,-4145.153275,13619.789333
596.678061,-6358.592633,-3701.029710,12879.583391
596.678377,-5898.935335,-3404.947333,12583.501014
596.678693,-4596.572988,-3478.967927,12065.356855
596.679008,-3140.991542,-2812.782580,11547.212695
596.679324,-1915.238745,-1554.432478,10732.986159
596.679639,459.657299,-0.000000,8956.491898
596.679955,3064.381992,1702.473667,7698.141797
596.680271,4903.011187,2812.782580,6809.894666
596.680586,6588.421283,3997.112087,5699.585753
596.680902,7431.126331,4515.256246,4663.297435
596.681217,7737.564530,4515.256246,4515.256246
596.681533,7048.078582,3404.947333,5181.441594
596.681849,5132.839837,2886.803174,6513.812290
596.682164,2834.553343,1554.432478,7994.224174
596.682480,383.047749,-74.020594,9918.759623
596.682795,-1838.629195,-1480.411884,11399.171507
596.683111,-3830.477490,-2664.741391,12805.562797
596.683427,-5592.497135,-3775.050304,13767.830521
596.683742,-5975.544884,-4219.173869,13989.892304
596.684058,-6435.202183,-3923.091493,13841.851115
596.684374,-5669.106685,-3775.050304,13397.727550
596.684689,-4443.353888,-3404.947333,12657.521608
596.685005,-3064.381992,-2664.741391,11843.295072
596.685320,-1685.410096,-1702.473667,10881.027347
596.685636,536.266849,-666.185348,9548.656652
596.685952,2834.553343,888.247130,7920.203579
596.686267,5056.230287,2368.659014,7476.080014
596.686583,6971.469032,3330.926739,5699.585753
596.686898,8044.002729,3997.112087,4663.297435
596.687214,8580.269578,4145.153275,4441.235652
596.687530,7814.174080,4071.132681,4737.318029
596.687845,7277.907231,2738.761985,5477.523971
596.688161,4596.572988,2146.597232,7105.977043
596.688476,1762.019645,666.185348,8734.430116
596.688792,-612.876398,-888.247130,10955.047942
596.689108,-2834.553343,-2146.597232,11843.295072
596.689423,-4903.011187,-3108.864956,12953.603985
596.689739,-5898.935335,-4071.132681,13841.851115
596.690055,-6665.030833,-4071.132681,13767.830521
596.690370,-6511.811733,-3775.050304,12731.542202
596.690686,-5822.325785,-3404.947333,12805.562797
596.691001,-4673.182538,-2960.823768,12139.377449
596.691317,-3140.991542,-2146.597232,11251.130318
596.691633,-1532.190996,-1628.453072,10362.883188
596.691948,1225.752797,-0.000000,9400.615463
596.692264,3064.381992,1554.432478,7328.038826
596.692579,5286.058936,2886.803174,6513.812290
596.692895,6818.249932,3478.967927,5625.565159
596.693211,7431.126331,3997.112087,4589.276840
596.693526,7660.954980,4293.194464,4663.297435
596.693842,7201.297681,3627.009116,5255.462188
596.694157,5209.449386,2442.679609,6735.874072
596.694473,2987.772442,1480.411884,7846.182985
596.694789,229.828649,-370.102971,9696.697840
596.695104,-2298.286494,-2146.597232,11325.150913
596.695420,-4213.525239,-2886.803174,12731.542202
596.695736,-5745.716235,-4219.173869,13619.789333
596.696051,-6435.202183,-4589.276840,13767.830521
596.696367,-6511.811733,-4293.194464,13767.830521
596.696682,-5898.935335,-4071.132681,12805.562797
596.696998,-4826.401637,-3404.947333,12509.480420
596.697314,-3447.429741,-2738.761985,11621.233289
596.697629,-1838.629195,-1702.473667,10510.924376
596.697945,459.657299,-592.164754,9622.677246
596.698260,2834.553343,888.247130,7846.182985
596.698576,4903.011187,2294.638420,6883.915261
596.698892,7124.688131,3627.009116,5551.544565
596.699207,8427.050478,3923.091493,4589.276840
596.699523,8810.098227,4293.194464,4589.276840
596.699838,8197.221829,4071.132681,4811.338623
596.700154,6741.640382,3330.926739,5551.544565
596.700470,4443.353888,2294.638420,7031.956449
596.700785,1762.019645,444.123565,8956.491898
596.701101,-536.266849,-740.205942,10436.903782
596.701417,-3217.601092,-1998.556043,12065.356855
596.701732,-4903.011187,-2738.761985,13027.624579
596.702048,-5745.716235,-3775.050304,13545.768739
596.702363,-6358.592633,-3849.070898,13545.768739
596.702679,-6741.640382,-3182.885551,13249.686362
596.702995,-5362.668486,-3627.009116,12879.583391
596.703310,-4290.134789,-2960.823768,12361.439231
596.703626,-2987.772442,-2220.617826,11399.171507
596.703941,-1378.971896,-1258.350101,10732.986159
596.704257,1149.143247,-0.000000,9326.594869
596.704573,3294.210641,2368.659014,7476.080014
596.704888,5362.668486,3404.947333,6883.915261
596.705204,7201.297681,3849.070898,5329.482782
596.705519,7507.735880,4663.297435,4589.276840
596.705835,7660.954980,4811.338623,4811.338623
596.706151,7048.078582,3627.009116,5477.523971
596.706466,5132.839837,2812.782580,6735.874072
596.706782,3064.381992,1332.370696,8216.285956
596.707098,306.438199,-370.102971,9844.739029
596.707413,-2298.286494,-1998.556043,12213.398043
596.707729,-4519.963438,-2812.782580,13027.624579
596.708044,-5209.449386,-3775.050304,13619.789333
596.708360,-6435.202183,-4219.173869,13915.871710
596.708676,-6894.859482,-3923.091493,13693.809927
596.708991,-6052.154434,-3627.009116,13175.665768
596.709307,-4596.572988,-3478.967927,12509.480420
596.709622,-3447.429741,-2738.761985,11843.295072
596.709938,-1608.800546,-1702.473667,10955.047942
596.710254,689.485948,-518.144159,9770.718434
596.710569,2834.553343,1036.288319,8068.244768
596.710885,5286.058936,2960.823768,6809.894666
596.711200,7354.516781,3775.050304,5773.606348
596.711516,8503.660028,4441.235652,4515.256246
596.711832,8886.707777,4737.318029,4145.153275
596.712147,8273.831378,3923.091493,4885.359217
596.712463,7048.078582,3108.864956,5699.585753
596.712779,4596.572988,1998.556043,7254.018232
596.713094,1762.019645,592.164754,8512.368333
596.713410,-689.485948,-740.205942,11029.068536
596.713725,-3294.210641,-2220.617826,11843.295072
596.714041,-5056.230287,-2960.823768,12879.583391
596.714357,-6128.763984,-3701.029710,13323.706956
596.714672,-6818.249932,-3997.112087,13471.748144
596.714988,-6818.249932,-3552.988522,13545.768739
596.715303,-5669.106685,-3849.070898,13101.645173
596.715619,-4596.572988,-3330.926739,12065.356855
596.715935,-3447.429741,-2442.679609,11399.171507
596.716250,-1378.971896,-1554.432478,10807.006753
596.716566,842.705048,-0.000000,8660.409521
596.716881,3064.381992,1628.453072,7402.059420
596.717197,4903.011187,3330.926739,5995.668130
596.717513,7048.078582,4145.153275,5625.565159
596.717828,8120.612279,4145.153275,4441.235652
596.718144,7660.954980,4737.318029,4219.173869
596.718460,7048.078582,3997.112087,5033.400406
596.718775,5439.278036,2442.679609,6513.812290
596.719091,2834.553343,1406.391290,8068.244768
596.719406,0.000000,-370.102971,9770.718434
596.719722,-2298.286494,-1924.535449,11547.212695
596.720038,-4673.182538,-3478.967927,12731.542202
596.720353,-5745.716235,-3849.070898,14063.912898
596.720669,-6511.811733,-4293.194464,13619.789333
596.720984,-6894.859482,-3997.112087,13619.789333
596.721300,-5975.544884,-3775.050304,13471.748144
596.721616,-4903.011187,-3552.988522,12213.398043
596.721931,-3140.991542,-2664.741391,11769.274478
596.722247,-1838.629195,-1776.494261,11029.068536
596.722562,612.876398,-814.226536,9474.636058
596.722878,2834.553343,296.082377,7772.162391
596.723194,5132.839837,2220.617826,7105.977043
596.723509,6741.640382,3552.988522,5847.626942
596.723825,8733.488677,4071.132681,4589.276840
596.724141,8733.488677,4367.215058,4515.256246
596.724456,7890.783629,4367.215058,4737.318029
596.724772,6894.859482,3256.906145,5995.668130
596.725087,4903.011187,1924.535449,7254.018232
596.725403,1532.190996,296.082377,8882.471304
596.725719,-689.485948,-1036.288319,10955.047942
596.726034,-2757.943793,-2368.659014,12065.356855
596.726350,-5132.839837,-3552.988522,13249.686362
596.726665,-5975.544884,-3849.070898,13693.809927
596.726981,-6741.640382,-4219.173869,13619.789333
596.727297,-6894.859482,-3775.050304,13249.686362
596.727612,-5822.325785,-3701.029710,12953.603985
596.727928,-4290.134789,-3404.947333,12139.377449
596.728243,-2911.162892,-2294.638420,11177.109724
596.728559,-1072.533697,-962.267725,10066.800811
596.728875,1608.800546,-0.000000,8586.388927
596.729190,3677.258390,2072.576638,7105.977043
596.729506,5439.278036,3256.906145,6217.729913
596.729822,7048.078582,3775.050304,5181.441594
596.730137,8044.002729,4367.215058,4515.256246
596.730453,7660.954980,4219.173869,4663.297435
596.730768,6818.249932,3627.009116,5625.565159
596.731084,4673.182538,2590.720797,6883.915261
596.731400,2451.505594,888.247130,8142.265362
596.731715,0.000000,-370.102971,9918.759623
596.732031,-2834.553343,-1924.535449,11843.295072
596.732346,-4519.963438,-3182.885551,13101.645173
596.732662,-5515.887586,-3997.112087,13693.809927
596.732978,-6588.421283,-4145.153275,14063.912898
596.733293,-6588.421283,-4071.132681,13767.830521
596.733609,-5822.325785,-4145.153275,12879.583391
596.733924,-4443.353888,-3330.926739,12287.418637
596.734240,-3217.601092,-3330.926739,11843.295072
596.734556,-1302.362347,-1702.473667,10658.965565
596.734871,1225.752797,-74.020594,8808.450710
596.735187,3370.820191,1110.308913,7402.059420
596.735503,5745.716235,2590.720797,6661.853478
596.735818,7354.516781,3404.947333,5403.503377
596.736134,8197.221829,4367.215058,4367.215058
596.736449,8197.221829,4219.173869,4441.235652
596.736765,7431.126331,3775.050304,5033.400406
596.737081,6052.154434,2664.741391,6143.709319
596.737396,3294.210641,1258.350101,7698.141797
596.737712,842.705048,-0.000000,9696.697840
596.738027,-1838.629195,-1332.370696,11177.109724
596.738343,-4060.306139,-2590.720797,12287.418637
596.738659,-5592.497135,-3849.070898,13545.768739
596.738974,-6205.373534,-4219.173869,13693.809927
596.739290,-7201.297681,-4367.215058,13471.748144
596.739605,-6588.421283,-3775.050304,12953.603985
596.739921,-5362.668486,-3552.988522,12435.459826
596.740237,-3753.867940,-2738.761985,11843.295072
596.740552,-2374.896044,-1480.411884,10807.006753
596.740868,-383.047749,-518.144159,9696.697840
596.741184,2451.505594,740.205942,8290.306550
596.741499,4136.915689,2294.638420,7105.977043
596.741815,6205.373534,3552.988522,5995.668130
596.742130,7737.564530,4293.194464,4811.338623
596.742446,8120.612279,4515.256246,4515.256246
596.742762,7354.516781,4219.173869,4737.318029
596.743077,6435.202183,3552.988522,5847.626942
596.743393,4519.963438,1480.411884,7254.018232
596.743708,1532.190996,444.123565,8808.450710
596.744024,-842.705048,-1036.288319,10807.006753
596.744340,-3140.991542,-2368.659014,12213.398043
596.744655,-4903.011187,-3478.967927,13323.706956
596.744971,-5822.325785,-4367.215058,13989.892304
596.745286,-6818.249932,-4811.338623,13767.830521
596.745602,-6435.202183,-4145.153275,13619.789333
596.745918,-4903.011187,-3256.906145,12361.439231
596.746233,-3524.039291,-2812.782580,11695.253884
596.746549,-2068.457845,-2368.659014,11029.068536
596.746865,0.000000,-814.226536,9622.677246
596.747180,2374.896044,444.123565,8142.265362
596.747496,4366.744339,1702.473667,7105.977043
596.747811,6128.763984,2960.823768,6217.729913
596.748127,8350.440928,3849.070898,5107.421000
596.748443,8580.269578,3997.112087,4737.318029
596.748758,8427.050478,4367.215058,5107.421000
596.749074,7354.516781,3552.988522,5181.441594
596.749389,5132.839837,2220.617826,6587.832884
596.749705,2757.943793,1554.432478,8290.306550
596.750021,0.000000,-222.061783,10214.842000
596.750336,-2451.505594,-1480.411884,11399.171507
596.750652,-4596.572988,-2738.761985,12583.501014
596.750967,-5745.716235,-3330.926739,13619.789333
596.751283,-5898.935335,-3997.112087,13915.871710
596.751599,-7048.078582,-3775.050304,12953.603985
596.751914,-5898.935335,-3182.885551,12583.501014
596.752230,-4519.963438,-2812.782580,11917.315666
596.752546,-3064.381992,-2516.700203,11843.295072
596.752861,-1378.971896,-1332.370696,10510.924376
596.753177,536.266849,-0.000000,8882.471304
596.753492,2757.943793,1406.391290,7698.141797
596.753808,4596.572988,2738.761985,6809.894666
596.754124,6358.592633,3478.967927,6143.709319
596.754439,7201.297681,3923.091493,5107.421000
596.754755,7201.297681,4367.215058,4663.297435
596.755070,6818.249932,3775.050304,5255.462188
596.755386,5362.668486,2664.741391,6069.688724
596.755702,2911.162892,1850.514855,7624.121203
596.756017,383.047749,-74.020594,9622.677246
596.756333,-2298.286494,-1776.494261,11399.171507
596.756648,-4443.353888,-2812.782580,12435.459826
596.756964,-5898.935335,-4145.153275,13619.789333
596.757280,-6588.421283,-4367.215058,13915.871710
596.757595,-6741.640382,-4219.173869,13841.851115
596.757911,-5898.935335,-3775.050304,13397.727550
596.758226,-4903.011187,-3404.947333,12213.398043
596.758542,-3294.210641,-2590.720797,11473.192101
596.758858,-1378.971896,-1628.453072,10732.986159
596.759173,383.047749,-666.185348,9400.615463
596.759489,2528.115143,592.164754,8142.265362
596.759805,4596.572988,1628.453072,7105.977043
596.760120,6358.592633,2812.782580,6143.709319
596.760436,7814.174080,3404.947333,5477.523971
596.760751,8120.612279,4145.153275,4885.359217
596.761067,7507.735880,3923.091493,4885.359217
596.761383,7124.688131,2960.823768,6439.791695
596.761698,4903.011187,2590.720797,7105.977043
596.762014,2068.457845,814.226536,8808.450710
596.762329,0.000000,-518.144159,10362.883188
596.762645,-2757.943793,-1702.473667,11399.171507
596.762961,-4443.353888,-3108.864956,12509.480420
596.763276,-5592.497135,-3701.029710,13471.748144
596.763592,-6511.811733,-4293.194464,13693.809927
596.763907,-6511.811733,-3997.112087,13323.706956
596.764223,-5745.716235,-3627.009116,12731.542202
596.764539,-4213.525239,-3552.988522,12139.377449
596.764854,-3064.381992,-2516.700203,11251.130318
596.765170,-1225.752797,-1480.411884,10436.903782
596.765486,842.705048,-296.082377,8956.491898
596.765801,2987.772442,1628.453072,7698.141797
596.766117,4903.011187,2960.823768,6217.729913
596.766432,6665.030833,3256.906145,5995.668130
596.766748,7124.688131,4367.215058,4959.379811
596.767064,7201.297681,4367.215058,4367.215058
596.767379,6971.469032,3108.864956,5551.544565
596.767695,5132.839837,2294.638420,6439.791695
596.768010,2911.162892,1480.411884,7920.203579
596.768326,995.924147,-222.061783,9474.636058
596.768642,-1532.190996,-1628.453072,11177.109724
596.768957,-3370.820191,-2664.741391,12805.562797
596.769273,-5056.230287,-3404.947333,13249.686362
596.769588,-5975.544884,-3997.112087,13323.706956
596.769904,-6281.983084,-4071.132681,13471.748144
596.770220,-5975.544884,-3701.029710,13027.624579
596.770535,-4903.011187,-3775.050304,11991.336260
596.770851,-3370.820191,-2442.679609,11547.212695
596.771167,-1685.410096,-1628.453072,10658.965565
596.771482,459.657299,-814.226536,9622.677246
596.771798,2681.334243,592.164754,8142.265362
596.772113,4366.744339,1554.432478,7031.956449
596.772429,6358.592633,3034.844362,6291.750507
596.772745,7660.954980,3775.050304,5477.523971
596.773060,7660.954980,4367.215058,4737.318029
596.773376,7584.345430,4145.153275,4885.359217
596.773691,6588.421283,3478.967927,5847.626942
596.774007,4673.182538,2368.659014,6957.935855
596.774323,2451.505594,1110.308913,9030.512492
596.774638,-153.219100,-370.102971,10140.821405
596.774954,-2528.115143,-1480.411884,11177.109724
596.775269,-4443.353888,-2590.720797,12953.603985
596.775585,-5515.887586,-3404.947333,13397.727550
596.775901,-6205.373534,-3775.050304,13545.768739
596.776216,-6358.592633,-3404.947333,13471.748144
596.776532,-5592.497135,-3108.864956,12731.542202
596.776848,-4596.572988,-2886.803174,12213.398043
596.777163,-3447.429741,-2294.638420,11473.192101
596.777479,-1532.190996,-1332.370696,10658.965565
596.777794,689.485948,-592.164754,9696.697840
596.778110,2757.943793,1036.288319,8364.327145
596.778426,3983.696590,2738.761985,6957.935855
596.778741,6052.154434,3404.947333,6513.812290
596.779057,6971.469032,4515.256246,5033.400406
596.779373,7124.688131,4663.297435,4515.256246
596.779689,7431.126331,3552.988522,5477.523971
596.780004,5975.544884,2590.720797,6217.729913
596.780320,3140.991542,1554.432478,7698.141797
596.780636,1225.752797,-222.061783,9400.615463
596.780952,-995.924147,-1258.350101,10510.924376
596.781267,-3217.601092,-2368.659014,12435.459826
596.781583,-4903.011187,-3034.844362,13101.645173
596.781899,-5898.935335,-4071.132681,13471.748144
596.782215,-6128.763984,-3997.112087,13767.830521
596.782530,-6128.763984,-3997.112087,13101.645173
596.782846,-5286.058936,-3552.988522,12657.521608
596.783162,-3370.820191,-3034.844362,11843.295072
596.783478,-2145.067394,-2294.638420,10732.986159
596.783793,-383.047749,-1258.350101,10066.800811
596.784109,1685.410096,-370.102971,8438.347739
596.784425,3600.648841,1554.432478,7105.977043
596.784741,5592.497135,2664.741391,6661.853478
596.785056,7431.126331,3404.947333,5699.585753
596.785372,7890.783629,3997.112087,4663.297435
596.785688,8044.002729,4219.173869,4811.338623
596.786003,7354.516781,3256.906145,5477.523971
596.786319,5515.887586,2146.597232,6735.874072
596.786635,3064.381992,1406.391290,7994.224174
596.786951,689.485948,-148.041188,9548.656652
596.787266,-1838.629195,-1406.391290,11029.068536
596.787582,-3677.258390,-2442.679609,12435.459826
596.787898,-4979.620737,-3627.009116,12805.562797
596.788214,-6128.763984,-4219.173869,13323.706956
596.788529,-6281.983084,-3775.050304,13397.727550
596.788845,-5669.106685,-3627.009116,12731.542202
596.789161,-4749.792088,-3256.906145,11843.295072
596.789477,-3217.601092,-2590.720797,11621.233289
596.789792,-2298.286494,-1776.494261,10807.006753
596.790108,0.000000,-1184.329507,10066.800811
596.790424,1915.238745,222.061783,8142.265362
596.790740,3830.477490,2146.597232,6957.935855
596.791055,5975.544884,3330.926739,6513.812290
596.791371,6894.859482,3849.070898,4959.379811
596.791687,7584.345430,4293.194464,4441.235652
596.792003,7124.688131,4441.235652,4737.318029
596.792318,5898.935335,3034.844362,5921.647536
596.792634,3983.696590,1554.432478,7476.080014
596.792950,2221.676944,-0.000000,8956.491898
596.793266,-689.485948,-1184.329507,10288.862594
596.793581,-2987.772442,-2368.659014,11991.336260
596.793897,-4443.353888,-3182.885551,13101.645173
596.794213,-5745.716235,-3997.112087,13323.706956
596.794528,-6205.373534,-3923.091493,13693.809927
596.794844,-6205.373534,-3701.029710,13101.645173
596.795160,-5362.668486,-3034.844362,12435.459826
596.795476,-3907.087040,-2738.761985,11917.315666
596.795791,-2298.286494,-2220.617826,11325.150913
596.796107,-766.095498,-1406.391290,10732.986159
596.796423,1225.752797,-0.000000,9326.594869
596.796739,3524.039291,1924.535449,7698.141797
596.797054,5362.668486,2368.659014,6883.915261
596.797370,7048.078582,3627.009116,5699.585753
596.797686,7737.564530,4219.173869,4811.338623
596.798002,7584.345430,4441.235652,5107.421000
596.798317,7354.516781,3627.009116,5551.544565
596.798633,5592.497135,2590.720797,6513.812290
596.798949,3370.820191,1184.329507,7772.162391
596.799265,919.314598,-74.020594,9400.615463
596.799580,-1302.362347,-1184.329507,11103.089130
596.799896,-3370.820191,-2146.597232,11917.315666
596.800212,-4903.011187,-3256.906145,12953.603985
596.800528,-5515.887586,-3701.029710,13397.727550
596.800843,-6281.983084,-3923.091493,13323.706956
596.801159,-5898.935335,-3627.009116,12953.603985
596.801475,-5056.230287,-3404.947333,12435.459826
596.801790,-3830.477490,-2738.761985,11991.336260
596.802106,-2834.553343,-1998.556043,11251.130318
596.802422,-842.705048,-888.247130,10214.842000
596.802738,1455.581446,666.185348,8734.430116
596.803053,3294.210641,2368.659014,7105.977043
596.803369,5132.839837,3627.009116,6661.853478
596.803685,6894.859482,3923.091493,5181.441594
596.804001,7354.516781,4663.297435,4515.256246
596.804316,7124.688131,4367.215058,4885.359217
596.804632,6052.154434,3330.926739,5773.606348
596.804948,4596.572988,2294.638420,7179.997637
596.805264,2068.457845,814.226536,8438.347739
596.805579,-306.438199,-592.164754,10362.883188
596.805895,-2451.505594,-1554.432478,11843.295072
596.806211,-4366.744339,-3108.864956,12805.562797
596.806527,-5286.058936,-3701.029710,13471.748144
596.806842,-6358.592633,-4145.153275,13249.686362
596.807158,-6205.373534,-3849.070898,13101.645173
596.807474,-5439.278036,-3552.988522,12657.521608
596.807790,-4519.963438,-3182.885551,12139.377449
596.808105,-2604.724693,-2590.720797,11769.274478
596.808421,-1149.143247,-1776.494261,11029.068536
596.808737,919.314598,-444.123565,9178.553681
596.809052,3064.381992,1110.308913,7920.203579
596.809368,5286.058936,2516.700203,6957.935855
596.809684,7277.907231,3627.009116,5625.565159
596.810000,8427.050478,4219.173869,4515.256246
596.810315,8503.660028,4515.256246,4219.173869
596.810631,8120.612279,3849.070898,5255.462188
596.810947,6588.421283,2738.761985,6143.709319
596.811263,4136.915689,1776.494261,7698.141797
596.811578,1838.629195,148.041188,9104.533087
596.811894,-842.705048,-888.247130,10881.027347
596.812210,-3064.381992,-1776.494261,11917.315666
596.812526,-4673.182538,-3256.906145,13175.665768
596.812841,-5515.887586,-4145.153275,13841.851115
596.813157,-6435.202183,-3775.050304,13101.645173
596.813473,-6205.373534,-3775.050304,13397.727550
596.813789,-5209.449386,-3552.988522,13027.624579
596.814104,-4290.134789,-3256.906145,11917.315666
596.814420,-2911.162892,-2220.617826,11621.233289
596.814736,-1302.362347,-1332.370696,10881.027347
596.815052,995.924147,-0.000000,8882.471304
596.815367,3370.820191,1850.514855,7328.038826
596.815683,5132.839837,2886.803174,6365.771101
596.815999,6665.030833,3923.091493,5181.441594
596.816315,7354.516781,4219.173869,4441.235652
596.816630,7507.735880,4145.153275,4589.276840
596.816946,6435.202183,3182.885551,5551.544565
596.817262,4366.744339,2146.597232,7105.977043
596.817577,2374.896044,1036.288319,8660.409521
596.817893,0.000000,-592.164754,10362.883188
596.818209,-2451.505594,-2220.617826,11917.315666
596.818525,-4596.572988,-3330.926739,12953.603985
596.818840,-5209.449386,-3997.112087,13471.748144
596.819156,-6281.983084,-4293.194464,13767.830521
596.819472,-6128.763984,-4071.132681,13397.727550
596.819788,-5669.106685,-3849.070898,12731.542202
596.820103,-4596.572988,-3478.967927,12139.377449
596.820419,-3140.991542,-2886.803174,11917.315666
596.820735,-1608.800546,-1998.556043,10955.047942
596.821051,612.876398,-814.226536,9326.594869
596.821366,2834.553343,962.267725,7772.162391
596.821682,5132.839837,2294.638420,6957.935855
596.821998,7277.907231,3330.926739,5625.565159
596.822314,7967.393179,3923.091493,4515.256246
596.822629,8427.050478,4219.173869,4293.194464
596.822945,7967.393179,3923.091493,5107.421000
596.823261,6281.983084,2812.782580,6143.709319
596.823577,4673.182538,1480.411884,7254.018232
596.823892,1608.800546,-0.000000,8734.430116
596.824208,-919.314598,-1110.308913,10584.944971
596.824524,-3294.210641,-2146.597232,11843.295072
596.824839,-4903.011187,-3256.906145,12805.562797
596.825155,-6128.763984,-3701.029710,13249.686362
596.825471,-6588.421283,-3997.112087,13397.727550
596.825787,-6511.811733,-4071.132681,13175.665768
596.826102,-5592.497135,-3404.947333,12953.603985
596.826418,-4443.353888,-2590.720797,12361.439231
596.826734,-3217.601092,-2220.617826,11695.253884
596.827050,-995.924147,-666.185348,10510.924376
596.827365,1302.362347,518.144159,8660.409521
596.827681,4060.306139,2442.679609,7179.997637
596.827997,5515.887586,3627.009116,6217.729913
596.828313,7431.126331,4441.235652,5033.400406
596.828628,7967.393179,5107.421000,4145.153275
596.828944,7967.393179,4737.318029,4367.215058
596.829260,6971.469032,3552.988522,5699.585753
596.829576,4979.620737,2738.761985,6883.915261
596.829891,2681.334243,1702.473667,7994.224174
596.830207,153.219100,-296.082377,10214.842000
596.830523,-2298.286494,-1998.556043,11991.336260
596.830839,-4060.306139,-2812.782580,13175.665768
596.831154,-5515.887586,-3775.050304,13767.830521
596.831470,-6281.983084,-4071.132681,13915.871710
596.831786,-6511.811733,-3997.112087,13767.830521
596.832101,-5515.887586,-3775.050304,13249.686362
596.832417,-4673.182538,-3627.009116,12583.501014
596.832733,-2987.772442,-2516.700203,11991.336260
596.833049,-1532.190996,-1628.453072,10881.027347
596.833364,1149.143247,-0.000000,9178.553681
596.833680,3370.820191,1332.370696,7920.203579
596.833996,5592.497135,3330.926739,7031.956449
596.834312,7507.735880,4071.132681,5329.482782
596.834627,8503.660028,4589.276840,4515.256246
596.834943,8810.098227,4737.318029,4589.276840
596.835259,8427.050478,4071.132681,5255.462188
596.835575,6588.421283,2812.782580,6291.750507
596.835890,3983.696590,1850.514855,7698.141797
596.836206,1378.971896,592.164754,9178.553681
596.836522,-995.924147,-370.102971,11103.089130
596.836838,-3294.210641,-2220.617826,11991.336260
596.837153,-4903.011187,-2812.782580,13175.665768
596.837469,-5898.935335,-3701.029710,13619.789333
596.837785,-6665.030833,-4071.132681,13915.871710
596.838101,-6435.202183,-4071.132681,13471.748144
596.838416,-4979.620737,-4071.132681,12435.459826
596.838732,-4519.963438,-3256.906145,12361.439231
596.839048,-2987.772442,-2442.679609,11547.212695
596.839364,-1378.971896,-1184.329507,10214.842000
596.839679,1149.143247,740.205942,8734.430116
596.839995,4060.306139,2294.638420,7550.100608
596.840311,5745.716235,3701.029710,6143.709319
596.840626,7277.907231,4515.256246,4515.256246
596.840942,7737.564530,4515.256246,4293.194464
596.841258,7737.564530,4219.173869,4441.235652
596.841574,6665.030833,3034.844362,5255.462188
596.841889,4749.792088,1924.535449,6809.894666
596.842205,2298.286494,592.164754,8142.265362
596.842521,-153.219100,-740.205942,10140.821405
596.842837,-2451.505594,-2442.679609,11917.315666
596.843152,-4596.572988,-3478.967927,13101.645173
596.843468,-6052.154434,-4515.256246,13841.851115
596.843784,-6894.859482,-4811.338623,13841.851115
596.844100,-6511.811733,-4441.235652,13323.706956
596.844415,-5898.935335,-4145.153275,12953.603985
596.844731,-4366.744339,-3627.009116,12213.398043
596.845047,-3447.429741,-2738.761985,11621.233289
596.845363,-1455.581446,-1924.535449,10658.965565
596.845678,842.705048,-444.123565,9178.553681
596.845994,3064.381992,962.267725,7179.997637
596.846310,5592.497135,2368.659014,6661.853478
596.846626,7354.516781,3627.009116,5033.400406
596.846941,8427.050478,4219.173869,4293.194464
596.847257,8886.707777,4441.235652,4145.153275
596.847573,8120.612279,3849.070898,5033.400406
596.847888,6435.202183,2812.782580,6069.688724
596.848204,3983.696590,1702.473667,7550.100608
596.848520,1455.581446,222.061783,9252.574275
596.848836,-919.314598,-1332.370696,11029.068536
596.849151,-3600.648841,-2664.741391,12287.418637
596.849467,-4903.011187,-3478.967927,13323.706956
596.849783,-6281.983084,-4219.173869,13397.727550
596.850099,-6511.811733,-4071.132681,13619.789333
596.850414,-6052.154434,-3923.091493,13249.686362
596.850730,-4903.011187,-3701.029710,12583.501014
596.851046,-3907.087040,-2960.823768,11917.315666
596.851362,-2451.505594,-2220.617826,11251.130318
596.851677,-919.314598,-1036.288319,10214.842000
596.851993,1685.410096,888.247130,8660.409521
596.852309,3753.867940,2368.659014,7105.977043
596.852625,5898.935335,3849.070898,6069.688724
596.852940,7277.907231,4441.235652,4737.318029
596.853256,7967.393179,4811.338623,4219.173869
596.853572,8197.221829,4589.276840,4737.318029
596.853888,6741.640382,3552.988522,5773.606348
596.854203,4519.963438,2294.638420,7105.977043
596.854519,1991.848295,814.226536,8512.368333
596.854835,-842.705048,-666.185348,10732.986159
596.855151,-3140.991542,-2294.638420,12139.377449
596.855466,-5056.230287,-3108.864956,13249.686362
596.855782,-6052.154434,-3552.988522,13989.892304
596.856098,-6665.030833,-4145.153275,14063.912898
596.856413,-6665.030833,-3997.112087,13619.789333
596.856729,-5898.935335,-3701.029710,13175.665768
596.857045,-4673.182538,-3404.947333,12213.398043
596.857361,-2834.553343,-2590.720797,11843.295072
596.857676,-1149.143247,-1776.494261,10584.944971
596.857992,766.095498,-0.000000,9030.512492
596.858308,3447.429741,1628.453072,7624.121203
596.858624,5669.106685,2960.823768,6661.853478
596.858939,7507.735880,4145.153275,4737.318029
596.859255,8580.269578,4589.276840,4219.173869
596.859571,8656.879127,4737.318029,4589.276840
596.859887,7584.345430,3775.050304,5033.400406
596.860202,5975.544884,2738.761985,6217.729913
596.860518,3370.820191,1776.494261,7698.141797
596.860834,459.657299,-296.082377,9548.656652
596.861150,-1608.800546,-1036.288319,11103.089130
596.861465,-4060.306139,-2516.700203,12583.501014
596.861781,-5515.887586,-3404.947333,13471.748144
596.862097,-6205.373534,-4071.132681,13619.789333
596.862413,-6894.859482,-4589.276840,13323.706956
596.862728,-6281.983084,-3775.050304,13027.624579
596.863044,-5439.278036,-3627.009116,12953.603985
596.863360,-3753.867940,-2812.782580,11843.295072
596.863675,-2528.115143,-1998.556043,11103.089130
596.863991,-229.828649,-1184.329507,10140.821405
596.864307,1762.019645,1036.288319,8290.306550
596.864623,4213.525239,2294.638420,6883.915261
596.864938,6205.373534,3478.967927,5773.606348
596.865254,7354.516781,4219.173869,4589.276840
596.865570,8273.831378,4441.235652,4071.132681
596.865886,7890.783629,4145.153275,4441.235652
596.866201,6511.811733,3404.947333,5477.523971
596.866517,4213.525239,1850.514855,7105.977043
596.866833,1685.410096,518.144159,9030.512492
596.867149,-1225.752797,-1258.350101,10807.006753
596.867464,-3294.210641,-2738.761985,12213.398043
596.867780,-5286.058936,-3923.091493,13249.686362
596.868096,-5975.544884,-4515.256246,13989.892304
596.868412,-6511.811733,-4589.276840,13915.871710
596.868727,-6894.859482,-4515.256246,13249.686362
596.869043,-5515.887586,-3997.112087,13249.686362
596.869359,-3753.867940,-3552.988522,11991.336260
596.869675,-2528.115143,-2590.720797,11473.192101
596.869990,-1225.752797,-1628.453072,10288.862594
596.870306,1685.410096,-0.000000,8734.430116
596.870622,4060.306139,962.267725,7328.038826
596.870937,6358.592633,3108.864956,6439.791695
596.871253,7814.174080,3849.070898,4885.359217
596.871569,8886.707777,4219.173869,4441.235652
596.871885,8810.098227,4663.297435,4441.235652
596.872200,7737.564530,3775.050304,5181.441594
596.872516,6128.763984,2516.700203,6439.791695
596.872832,3447.429741,1184.329507,7846.182985
596.873148,766.095498,-370.102971,9548.656652
596.873463,-1762.019645,-1332.370696,11547.212695
596.873779,-4060.306139,-2590.720797,12361.439231
596.874095,-5439.278036,-3478.967927,13249.686362
596.874411,-6205.373534,-3923.091493,13545.768739
596.874726,-6894.859482,-4145.153275,13397.727550
596.875042,-6205.373534,-3478.967927,12805.562797
596.875358,-4749.792088,-3330.926739,12287.418637
596.875674,-3830.477490,-2590.720797,11917.315666
596.875989,-2221.676944,-1998.556043,11251.130318
596.876305,0.000000,-740.205942,9400.615463
596.876621,1991.848295,1110.308913,8142.265362
596.876937,4136.915689,2812.782580,7105.977043
596.877252,5975.544884,3849.070898,5625.565159
596.877568,7814.174080,4663.297435,4589.276840
596.877884,7890.783629,4737.318029,4441.235652
596.878200,7354.516781,4293.194464,4811.338623
596.878515,5822.325785,3182.885551,6069.688724
596.878831,3677.258390,1998.556043,7402.059420
596.879147,766.095498,444.123565,8882.471304
596.879462,-1532.190996,-814.226536,11029.068536
596.879778,-3447.429741,-2442.679609,12361.439231
596.880094,-5439.278036,-3404.947333,13175.665768
596.880410,-6205.373534,-4145.153275,13767.830521
596.880725,-7354.516781,-4367.215058,14137.933492
596.881041,-6511.811733,-3849.070898,12953.603985
596.881357,-5286.058936,-3701.029710,12879.583391
596.881672,-3600.648841,-2960.823768,11991.336260
596.881988,-2681.334243,-2294.638420,11177.109724
596.882304,-1072.533697,-1184.329507,10732.986159
596.882619,1762.019645,-0.000000,8586.388927
596.882935,4290.134789,1258.350101,7624.121203
596.883251,6205.373534,2886.803174,6291.750507
596.883566,7660.954980,4071.132681,5107.421000
596.883882,8656.879127,4441.235652,4441.235652
596.884198,8886.707777,4367.215058,4589.276840
596.884514,7737.564530,3923.091493,5181.441594
596.884829,6052.154434,2664.741391,6439.791695
596.885145,3140.991542,1702.473667,7994.224174
596.885461,536.266849,-0.000000,9844.739029
596.885776,-1838.629195,-1184.329507,11325.150913
596.886092,-3983.696590,-2886.803174,12435.459826
596.886408,-5439.278036,-3627.009116,13323.706956
596.886723,-6205.373534,-4145.153275,13471.748144
596.887039,-7354.516781,-3775.050304,13471.748144
596.887355,-5898.935335,-3849.070898,13175.665768
596.887671,-5286.058936,-3701.029710,12657.521608
596.887986,-4060.306139,-2590.720797,12139.377449
596.888302,-2528.115143,-1998.556043,11103.089130
596.888618,-383.047749,-666.185348,9770.718434
596.888933,2145.067394,962.267725,8142.265362
596.889249,4213.525239,2516.700203,7105.977043
596.889565,6128.763984,3775.050304,5995.668130
596.889880,7660.954980,4219.173869,4219.173869
596.890196,7890.783629,4589.276840,4293.194464
596.890512,7967.393179,4219.173869,4885.359217
596.890827,6281.983084,3182.885551,5847.626942
596.891143,3907.087040,1998.556043,7328.038826
596.891459,1608.800546,518.144159,8660.409521
596.891775,-919.314598,-814.226536,10510.924376
596.892090,-3370.820191,-2146.597232,12287.418637
596.892406,-4826.401637,-3478.967927,12805.562797
596.892722,-5592.497135,-4219.173869,13767.830521
596.893037,-6665.030833,-4811.338623,13989.892304
596.893353,-6281.983084,-4589.276840,13471.748144
596.893669,-5286.058936,-4071.132681,13027.624579
596.893984,-4136.915689,-3478.967927,12139.377449
596.894300,-2145.067394,-2442.679609,11547.212695
596.894616,-919.314598,-1702.473667,10510.924376
596.894932,1685.410096,148.041188,8660.409521
596.895247,3907.087040,1628.453072,7179.997637
596.895563,5975.544884,3182.885551,6217.729913
596.895879,7660.954980,3923.091493,5329.482782
596.896194,8503.660028,4071.132681,4441.235652
596.896510,8810.098227,4441.235652,4737.318029
596.896826,7737.564530,3701.029710,5403.503377
596.897141,6281.983084,2516.700203,6661.853478
596.897457,3447.429741,1628.453072,7772.162391
596.897773,536.266849,222.061783,9548.656652
596.898088,-1762.019645,-962.267725,11177.109724
596.898404,-3983.696590,-2368.659014,12805.562797
596.898720,-5209.449386,-3330.926739,13323.706956
596.899036,-6511.811733,-4071.132681,13545.768739
596.899351,-6894.859482,-4293.194464,13545.768739
596.899667,-6128.763984,-3997.112087,13101.645173
596.899983,-5286.058936,-3182.885551,12509.480420
596.900298,-4213.525239,-2664.741391,11843.295072
596.900614,-2374.896044,-1702.473667,11103.089130
596.900930,-766.095498,-148.041188,9622.677246
596.901245,2068.457845,1036.288319,8364.327145
596.901561,4290.134789,2738.761985,7179.997637
596.901877,5975.544884,3775.050304,5551.544565
596.902193,7277.907231,4811.338623,4663.297435
596.902508,7890.783629,4589.276840,4441.235652
596.902824,7507.735880,4293.194464,4811.338623
596.903140,5898.935335,3330.926739,5625.565159
596.903455,4136.915689,1924.535449,7254.018232
596.903771,1685.410096,740.205942,8808.450710
596.904087,-1072.533697,-814.226536,11029.068536
596.904402,-3447.429741,-2146.597232,12139.377449
596.904718,-4366.744339,-3108.864956,13175.665768
596.905034,-5975.544884,-3701.029710,13915.871710
596.905349,-6205.373534,-4145.153275,13915.871710
596.905665,-6205.373534,-3923.091493,13323.706956
596.905981,-5056.230287,-3627.009116,13175.665768
596.906297,-3907.087040,-3182.885551,12065.356855
596.906612,-2604.724693,-2516.700203,11621.233289
596.906928,-1149.143247,-1480.411884,10658.965565
596.907244,995.924147,-0.000000,8956.491898
596.907559,3524.039291,1850.514855,7920.203579
596.907875,5975.544884,2886.803174,6735.874072
596.908191,7431.126331,4071.132681,5107.421000
596.908506,8350.440928,4515.256246,4589.276840
596.908822,8580.269578,4219.173869,4293.194464
596.909138,7737.564530,3849.070898,5181.441594
596.909454,5745.716235,2812.782580,6513.812290
596.909769,3447.429741,1332.370696,7772.162391
596.910085,536.266849,-370.102971,9474.636058
596.910401,-1455.581446,-1110.308913,11251.130318
596.910716,-3753.867940,-2442.679609,12287.418637
596.911032,-4979.620737,-3552.988522,13027.624579
596.911348,-5822.325785,-3923.091493,13397.727550
596.911663,-6435.202183,-3849.070898,13619.789333
596.911979,-5975.544884,-3997.112087,13101.645173
596.912295,-5132.839837,-3552.988522,12879.583391
596.912610,-3983.696590,-2886.803174,12139.377449
596.912926,-2604.724693,-2294.638420,11325.150913
596.913242,-612.876398,-1110.308913,10066.800811
596.913558,1532.190996,592.164754,8438.347739
596.913873,3907.087040,2220.617826,7254.018232
596.914189,5822.325785,3701.029710,5477.523971
596.914505,6894.859482,4293.194464,4441.235652
596.914820,7584.345430,4441.235652,4293.194464
596.915136,7431.126331,3849.070898,4737.318029
596.915452,6358.592633,3034.844362,5403.503377
596.915767,3753.867940,1924.535449,7179.997637
596.916083,1991.848295,740.205942,9030.512492
596.916399,-229.828649,-814.226536,10436.903782
596.916715,-3140.991542,-2442.679609,11843.295072
596.917030,-4749.792088,-3701.029710,13175.665768
596.917346,-5822.325785,-4145.153275,13323.706956
596.917662,-6818.249932,-4589.276840,13397.727550
596.917977,-6358.592633,-4367.215058,13471.748144
596.918293,-5592.497135,-4441.235652,12805.562797
596.918609,-3983.696590,-3923.091493,12213.398043
596.918924,-2757.943793,-2886.803174,11547.212695
596.919240,-995.924147,-2072.576638,10362.883188
596.919556,1149.143247,-518.144159,8734.430116
596.919871,3294.210641,962.267725,7624.121203
596.920187,6281.983084,2664.741391,6587.832884
596.920503,7507.735880,3923.091493,5107.421000
596.920819,7967.393179,4293.194464,4663.297435
596.921134,8427.050478,4367.215058,4441.235652
596.921450,7584.345430,3552.988522,5107.421000
596.921766,6281.983084,2590.720797,6217.729913
596.922081,3907.087040,1628.453072,7476.080014
596.922397,1685.410096,-0.000000,9474.636058
596.922713,-1072.533697,-1110.308913,10881.027347
596.923028,-3524.039291,-2442.679609,12065.356855
596.923344,-4979.620737,-3404.947333,12953.603985
596.923660,-6205.373534,-3775.050304,13471.748144
596.923976,-6588.421283,-3849.070898,13545.768739
596.924291,-6281.983084,-3775.050304,13545.768739
596.924607,-5439.278036,-3330.926739,12953.603985
596.924923,-4213.525239,-2886.803174,12287.418637
596.925238,-2681.334243,-1924.535449,11251.130318
596.925554,-689.485948,-740.205942,9696.697840
596.925870,1455.581446,666.185348,8586.388927
596.926185,3524.039291,2294.638420,7846.182985
596.926501,5669.106685,3701.029710,5773.606348
596.926817,6971.469032,4589.276840,4589.276840
596.927132,7584.345430,4737.318029,4589.276840
596.927448,7277.907231,4219.173869,4441.235652
596.927764,6128.763984,3404.947333,5403.503377
596.928080,4366.744339,2516.700203,7254.018232
596.928395,2374.896044,814.226536,8364.327145
596.928711,-153.219100,-592.164754,10288.862594
596.929027,-2451.505594,-1850.514855,11769.274478
596.929342,-4290.134789,-2664.741391,13027.624579
596.929658,-5515.887586,-3627.009116,13471.748144
596.929974,-6281.983084,-4071.132681,13841.851115
596.930289,-6435.202183,-3775.050304,13397.727550
596.930605,-5669.106685,-4219.173869,13397.727550
596.930921,-4443.353888,-3330.926739,12509.480420
596.931237,-2911.162892,-2590.720797,11769.274478
596.931552,-1149.143247,-1702.473667,10658.965565
596.931868,1225.752797,-0.000000,9474.636058
596.932184,3753.867940,1258.350101,7772.162391
