#time,accel_x,accel_y,accel_z
710.657364,383.047749,-296.082377,9400.615463
710.657680,306.438199,-74.020594,9474.636058
710.657996,612.876398,-148.041188,9326.594869
710.658312,306.438199,-370.102971,9622.677246
710.658627,306.438199,-74.020594,9474.636058
710.658943,383.047749,-74.020594,9400.615463
710.659259,383.047749,-0.000000,9400.615463
710.659575,536.266849,-74.020594,9474.636058
710.659890,612.876398,148.041188,9252.574275
710.660206,306.438199,-148.041188,9622.677246
710.660522,383.047749,-296.082377,9622.677246
710.660838,536.266849,-222.061783,9622.677246
710.661153,306.438199,-296.082377,9770.718434
710.661469,383.047749,-444.123565,9400.615463
710.661785,229.828649,-0.000000,9548.656652
710.662101,306.438199,-0.000000,9474.636058
710.662416,612.876398,-0.000000,9400.615463
710.662732,383.047749,370.102971,9178.553681
710.663048,306.438199,148.041188,9400.615463
710.663364,76.609550,74.020594,9622.677246
710.663679,229.828649,-0.000000,9326.594869
710.663995,153.219100,-74.020594,9548.656652
710.664311,153.219100,-0.000000,9696.697840
710.664627,-306.438199,-222.061783,9918.759623
710.664943,153.219100,-296.082377,9696.697840
710.665258,153.219100,-222.061783,9696.697840
710.665574,306.438199,-74.020594,9400.615463
710.665890,766.095498,592.164754,9474.636058
710.666206,612.876398,296.082377,9030.512492
710.666521,1072.533697,814.226536,9178.553681
710.666837,842.705048,444.123565,9178.553681
710.667153,689.485948,740.205942,9400.615463
710.667469,536.266849,444.123565,9252.574275
710.667784,689.485948,444.123565,9770.718434
710.668100,459.657299,-0.000000,9548.656652
710.668416,689.485948,-0.000000,9770.718434
710.668732,459.657299,370.102971,9696.697840
710.669047,536.266849,518.144159,9622.677246
710.669363,842.705048,222.061783,9696.697840
710.669679,1149.143247,814.226536,9622.677246
710.669995,1762.019645,1332.370696,9326.594869
710.670310,1915.238745,1480.411884,9104.533087
710.670626,2145.067394,1184.329507,9178.553681
710.670942,2451.505594,1554.432478,8956.491898
710.671258,2451.505594,1776.494261,9104.533087
710.671573,2451.505594,1702.473667,9252.574275
710.671889,2528.115143,1702.473667,9400.615463
710.672205,2374.896044,1776.494261,9252.574275
710.672521,2604.724693,1850.514855,9400.615463
710.672836,2834.553343,2072.576638,9252.574275
710.673152,2528.115143,2146.597232,9474.636058
710.673468,2681.334243,2146.597232,9400.615463
710.673784,3217.601092,2294.638420,9178.553681
710.674099,2987.772442,2516.700203,9326.594869
710.674415,3140.991542,2738.761985,9252.574275
710.674731,3447.429741,2516.700203,9104.533087
710.675047,3753.867940,2664.741391,9178.553681
710.675363,3447.429741,2664.741391,9400.615463
710.675678,3294.210641,2812.782580,9474.636058
710.675994,3370.820191,2812.782580,9548.656652
710.676310,3140.991542,2886.803174,9400.615463
710.676626,2911.162892,2886.803174,9548.656652
710.676941,2834.553343,2960.823768,9696.697840
710.677257,2757.943793,2738.761985,9696.697840
710.677573,2604.724693,2664.741391,9696.697840
710.677889,2681.334243,2368.659014,9548.656652
710.678204,2374.896044,2368.659014,10288.862594
710.678520,2145.067394,2368.659014,10214.842000
710.678836,2451.505594,2368.659014,9918.759623
710.679152,2681.334243,2516.700203,9918.759623
710.679467,2451.505594,2812.782580,9844.739029
710.679783,2681.334243,2590.720797,10288.862594
710.680099,2834.553343,2368.659014,10140.821405
710.680415,2681.334243,2442.679609,9844.739029
710.680730,2604.724693,2294.638420,9696.697840
710.681046,2834.553343,2442.679609,9696.697840
710.681362,2681.334243,2368.659014,9696.697840
710.681678,2374.896044,2294.638420,9622.677246
710.681993,2374.896044,2294.638420,9548.656652
710.682309,1532.190996,1776.494261,9770.718434
710.682625,995.924147,1110.308913,9992.780217
710.682941,842.705048,740.205942,10436.903782
710.683256,689.485948,148.041188,10807.006753
710.683572,766.095498,-370.102971,10955.047942
710.683888,842.705048,-740.205942,10955.047942
710.684204,1149.143247,-296.082377,10807.006753
710.684519,1608.800546,-0.000000,10584.944971
710.684835,2145.067394,666.185348,9696.697840
710.685151,2911.162892,1480.411884,9252.574275
710.685467,3524.039291,2294.638420,8216.285956
710.685783,4213.525239,2738.761985,7550.100608
710.686098,4443.353888,2960.823768,7179.997637
710.686414,4596.572988,2442.679609,7179.997637
710.686730,4290.134789,1776.494261,7402.059420
710.687046,3677.258390,1184.329507,7698.141797
710.687361,2757.943793,444.123565,8290.306550
710.687677,1685.410096,296.082377,9178.553681
710.687993,766.095498,-0.000000,9622.677246
710.688309,0.000000,-148.041188,9992.780217
710.688624,-306.438199,-740.205942,10140.821405
710.688940,-919.314598,-962.267725,10732.986159
710.689256,-995.924147,-1184.329507,10881.027347
710.689572,-612.876398,-1332.370696,10881.027347
710.689887,0.000000,-814.226536,10362.883188
710.690203,995.924147,-0.000000,10140.821405
710.690519,2068.457845,888.247130,9474.636058
710.690835,3447.429741,1998.556043,8438.347739
710.691150,4519.963438,2812.782580,7624.121203
710.691466,5515.887586,3849.070898,7254.018232
710.691782,6128.763984,3923.091493,6809.894666
710.692098,6588.421283,4367.215058,6143.709319
710.692413,6665.030833,3997.112087,6439.791695
710.692729,5975.544884,4071.132681,7031.956449
710.693045,5132.839837,3478.967927,7698.141797
710.693361,3600.648841,2294.638420,8734.430116
710.693676,2451.505594,1110.308913,9992.780217
710.693992,919.314598,-148.041188,11399.171507
710.694308,-306.438199,-888.247130,12509.480420
710.694624,-1225.752797,-962.267725,13175.665768
710.694939,-1149.143247,-814.226536,13101.645173
710.695255,-459.657299,-0.000000,12731.542202
710.695571,306.438199,1332.370696,11695.253884
710.695887,1225.752797,2516.700203,10732.986159
710.696203,2757.943793,3997.112087,8956.491898
710.696518,4290.134789,4441.235652,7698.141797
710.696834,5745.716235,4737.318029,7179.997637
710.697150,6741.640382,4367.215058,7105.977043
710.697466,6971.469032,3923.091493,7105.977043
710.697781,6588.421283,3182.885551,7846.182985
710.698097,5286.058936,2516.700203,8586.388927
710.698413,4596.572988,2590.720797,10140.821405
710.698729,3524.039291,2590.720797,10732.986159
710.699044,2451.505594,2072.576638,11621.233289
710.699360,1608.800546,2146.597232,11843.295072
710.699676,536.266849,2664.741391,11251.130318
710.699992,536.266849,3034.844362,10658.965565
710.700307,536.266849,2738.761985,10807.006753
710.700623,1149.143247,2220.617826,10288.862594
710.700939,1072.533697,1776.494261,9474.636058
710.701255,766.095498,1850.514855,9252.574275
710.701570,842.705048,1110.308913,9548.656652
710.701886,1532.190996,1628.453072,9622.677246
710.702202,1762.019645,2146.597232,9474.636058
710.702518,1455.581446,2368.659014,9400.615463
710.702833,919.314598,2368.659014,9696.697840
710.703149,1225.752797,1480.411884,9992.780217
710.703465,1762.019645,1110.308913,10214.842000
710.703781,2374.896044,888.247130,10510.924376
710.704096,1762.019645,1258.350101,10436.903782
710.704412,1608.800546,1110.308913,10214.842000
710.704728,2298.286494,1258.350101,10140.821405
710.705044,3217.601092,1924.535449,9696.697840
710.705359,3600.648841,3182.885551,8512.368333
710.705675,3370.820191,3923.091493,7772.162391
710.705991,3830.477490,2738.761985,7105.977043
710.706307,4596.572988,1628.453072,7328.038826
710.706623,3983.696590,1258.350101,7476.080014
710.706938,3140.991542,370.102971,8216.285956
710.707254,2528.115143,-1110.308913,9770.718434
710.707570,1762.019645,-1628.453072,10140.821405
710.707886,842.705048,-1110.308913,10807.006753
710.708201,-536.266849,-0.000000,11251.130318
710.708517,-306.438199,518.144159,10658.965565
710.708833,76.609550,962.267725,9844.739029
710.709149,459.657299,518.144159,9252.574275
710.709464,842.705048,-0.000000,9474.636058
710.709780,842.705048,-370.102971,9178.553681
710.710096,1685.410096,-1110.308913,9252.574275
710.710412,2298.286494,-1036.288319,8882.471304
710.710727,1991.848295,-0.000000,8586.388927
710.711043,2068.457845,962.267725,8290.306550
710.711359,2604.724693,666.185348,8290.306550
710.711675,2757.943793,-222.061783,8586.388927
710.711990,2451.505594,296.082377,7994.224174
710.712306,1608.800546,518.144159,8512.368333
710.712622,1685.410096,-296.082377,9548.656652
710.712938,919.314598,-0.000000,9474.636058
710.713253,76.609550,888.247130,8956.491898
710.713569,0.000000,962.267725,9326.594869
710.713885,-229.828649,-74.020594,9992.780217
710.714201,-536.266849,-1850.514855,10214.842000
710.714516,-1378.971896,-2368.659014,10288.862594
710.714832,-1225.752797,-2146.597232,10288.862594
710.715148,0.000000,-2368.659014,11103.089130
710.715464,-153.219100,-1702.473667,10362.883188
710.715779,76.609550,-0.000000,9474.636058
710.716095,383.047749,814.226536,8660.409521
710.716411,1149.143247,592.164754,8660.409521
710.716727,1149.143247,296.082377,8808.450710
710.717042,612.876398,-0.000000,8956.491898
710.717358,383.047749,-296.082377,9474.636058
710.717674,459.657299,-666.185348,9474.636058
710.717989,153.219100,-0.000000,9622.677246
710.718305,-306.438199,444.123565,9400.615463
710.718621,-383.047749,888.247130,9992.780217
710.718937,306.438199,-222.061783,9844.739029
710.719252,0.000000,-888.247130,10214.842000
710.719568,-153.219100,-962.267725,10362.883188
710.719884,153.219100,-1332.370696,10807.006753
710.720199,76.609550,-740.205942,10658.965565
710.720515,153.219100,148.041188,10140.821405
710.720831,229.828649,1184.329507,8882.471304
710.721147,536.266849,1258.350101,9030.512492
710.721462,536.266849,962.267725,8956.491898
710.721778,0.000000,962.267725,8216.285956
710.722094,229.828649,370.102971,8956.491898
710.722410,306.438199,-0.000000,9474.636058
710.722725,306.438199,-0.000000,9474.636058
710.723041,-383.047749,888.247130,9326.594869
710.723357,-229.828649,370.102971,9326.594869
710.723672,-153.219100,-222.061783,9918.759623
710.723988,-153.219100,-740.205942,9918.759623
710.724304,-689.485948,-296.082377,9770.718434
710.724620,-383.047749,-888.247130,10436.903782
710.724935,-153.219100,-666.185348,10362.883188
710.725251,0.000000,592.164754,9696.697840
710.725567,459.657299,1998.556043,9178.553681
710.725882,689.485948,1924.535449,8290.306550
710.726198,1149.143247,1036.288319,8068.244768
710.726514,1072.533697,1258.350101,8290.306550
710.726830,1378.971896,444.123565,7698.141797
710.727145,1685.410096,148.041188,9030.512492
710.727461,1225.752797,296.082377,8882.471304
710.727777,459.657299,814.226536,9104.533087
710.728092,536.266849,1036.288319,9548.656652
710.728408,612.876398,444.123565,9400.615463
710.728724,0.000000,-0.000000,9918.759623
710.729040,0.000000,-666.185348,10510.924376
710.729355,76.609550,-1110.308913,10658.965565
710.729671,76.609550,-962.267725,10955.047942
710.729987,-383.047749,-296.082377,10140.821405
710.730303,383.047749,740.205942,9918.759623
710.730618,1225.752797,1036.288319,9178.553681
710.730934,1149.143247,1110.308913,8660.409521
710.731250,459.657299,1036.288319,8808.450710
710.731565,995.924147,-74.020594,8882.471304
710.731881,1302.362347,-0.000000,9622.677246
710.732197,1072.533697,-0.000000,9252.574275
710.732513,1762.019645,148.041188,9178.553681
710.732828,1762.019645,296.082377,9326.594869
710.733144,1455.581446,-0.000000,9696.697840
710.733460,459.657299,-296.082377,9622.677246
710.733775,459.657299,-888.247130,10140.821405
710.734091,306.438199,-1184.329507,10807.006753
710.734407,306.438199,-814.226536,10807.006753
710.734723,-383.047749,-148.041188,10362.883188
710.735038,0.000000,296.082377,9844.739029
710.735354,383.047749,-0.000000,9474.636058
710.735670,153.219100,-148.041188,9326.594869
710.735985,0.000000,-296.082377,9400.615463
710.736301,612.876398,-666.185348,8882.471304
710.736617,766.095498,-444.123565,8882.471304
710.736933,383.047749,-444.123565,8956.491898
710.737248,153.219100,-592.164754,9400.615463
710.737564,229.828649,-296.082377,9548.656652
710.737880,-153.219100,-666.185348,9474.636058
710.738196,-536.266849,-1554.432478,9770.718434
710.738511,-689.485948,-2072.576638,10436.903782
710.738827,-536.266849,-2368.659014,10362.883188
710.739143,-153.219100,-1480.411884,10288.862594
710.739458,-306.438199,-444.123565,9696.697840
710.739774,536.266849,-222.061783,9252.574275
710.740090,995.924147,148.041188,9030.512492
710.740406,1302.362347,-148.041188,8216.285956
710.740721,612.876398,-0.000000,7994.224174
710.741037,1149.143247,-148.041188,7994.224174
710.741353,1225.752797,-518.144159,7920.203579
710.741668,612.876398,-740.205942,8438.347739
710.741984,536.266849,-666.185348,8586.388927
710.742300,612.876398,-1776.494261,9178.553681
710.742616,0.000000,-2220.617826,9622.677246
710.742931,-842.705048,-1924.535449,9992.780217
710.743247,-1149.143247,-1554.432478,10436.903782
710.743563,-919.314598,-1702.473667,10807.006753
710.743879,-766.095498,-1258.350101,10288.862594
710.744194,-536.266849,148.041188,9844.739029
710.744510,383.047749,-74.020594,9400.615463
710.744826,1072.533697,-296.082377,9178.553681
710.745141,1072.533697,-74.020594,9474.636058
710.745457,1455.581446,296.082377,7920.203579
710.745773,1915.238745,444.123565,7698.141797
710.746089,2221.676944,518.144159,8068.244768
710.746404,1685.410096,592.164754,8364.327145
710.746720,1302.362347,814.226536,8364.327145
710.747036,1149.143247,-0.000000,8956.491898
710.747351,306.438199,-962.267725,9992.780217
710.747667,-229.828649,-1258.350101,10362.883188
710.747983,-842.705048,-1628.453072,11103.089130
710.748299,-1149.143247,-1258.350101,11325.150913
710.748614,-1225.752797,-592.164754,11103.089130
710.748930,-842.705048,222.061783,10362.883188
710.749246,-383.047749,444.123565,9992.780217
710.749561,689.485948,-0.000000,9918.759623
710.749877,1072.533697,444.123565,8882.471304
710.750193,1532.190996,814.226536,8364.327145
710.750509,2451.505594,740.205942,8290.306550
710.750824,2451.505594,1332.370696,7920.203579
710.751140,2298.286494,1998.556043,7772.162391
710.751456,1991.848295,2294.638420,8216.285956
710.751772,1532.190996,1036.288319,9178.553681
710.752087,383.047749,-0.000000,10214.842000
710.752403,-306.438199,-666.185348,10584.944971
710.752719,-995.924147,-1036.288319,11769.274478
710.753034,-842.705048,-1036.288319,11769.274478
710.753350,-1302.362347,-148.041188,11695.253884
710.753666,-766.095498,962.267725,10807.006753
710.753982,153.219100,962.267725,10362.883188
710.754297,766.095498,1110.308913,9918.759623
710.754613,1302.362347,1258.350101,9178.553681
710.754929,1991.848295,1406.391290,8142.265362
710.755244,1991.848295,1628.453072,7698.141797
710.755560,2987.772442,1332.370696,7846.182985
710.755876,2145.067394,962.267725,8068.244768
710.756192,1455.581446,1406.391290,8734.430116
710.756507,1225.752797,-0.000000,8808.450710
710.756823,459.657299,-518.144159,10436.903782
710.757139,-766.095498,-1184.329507,10362.883188
710.757454,-1762.019645,-1628.453072,11473.192101
710.757770,-995.924147,-1332.370696,11843.295072
710.758086,-1608.800546,-814.226536,11177.109724
710.758402,-1455.581446,592.164754,10658.965565
710.758717,-612.876398,592.164754,10436.903782
710.759033,612.876398,370.102971,9400.615463
710.759349,1378.971896,592.164754,8734.430116
710.759665,1455.581446,814.226536,7624.121203
710.759980,2681.334243,518.144159,8142.265362
710.760296,1991.848295,888.247130,7698.141797
710.760612,1608.800546,1480.411884,7179.997637
710.760927,1532.190996,592.164754,8512.368333
710.761243,766.095498,-148.041188,8586.388927
710.761559,153.219100,-814.226536,9770.718434
710.761875,-1378.971896,-1480.411884,10140.821405
710.762190,-1762.019645,-2072.576638,11473.192101
710.762506,-1991.848295,-2368.659014,11769.274478
710.762822,-2145.067394,-1628.453072,11103.089130
710.763137,-1455.581446,-666.185348,10362.883188
710.763453,-766.095498,-666.185348,10214.842000
710.763769,306.438199,-444.123565,9326.594869
710.764085,1378.971896,-814.226536,8290.306550
710.764400,2145.067394,-370.102971,7846.182985
710.764716,2451.505594,222.061783,6957.935855
710.765032,2681.334243,-0.000000,7105.977043
710.765348,2451.505594,222.061783,7698.141797
710.765663,1608.800546,-592.164754,8364.327145
710.765979,1225.752797,-1184.329507,9400.615463
710.766295,76.609550,-1924.535449,9474.636058
710.766610,-1378.971896,-2590.720797,10584.944971
710.766926,-1685.410096,-2516.700203,11843.295072
710.767242,-1532.190996,-2442.679609,11769.274478
710.767558,-1915.238745,-1332.370696,11251.130318
710.767873,-1302.362347,-666.185348,10436.903782
710.768189,-153.219100,-296.082377,10066.800811
710.768505,766.095498,-666.185348,9178.553681
710.768820,1302.362347,-370.102971,8142.265362
710.769136,2068.457845,-444.123565,7772.162391
710.769452,2834.553343,-74.020594,7624.121203
710.769768,2757.943793,370.102971,7328.038826
710.770083,2298.286494,518.144159,7179.997637
710.770399,1685.410096,-148.041188,8660.409521
710.770715,1455.581446,-1110.308913,9770.718434
710.771030,-229.828649,-1184.329507,9844.739029
710.771346,-1378.971896,-1406.391290,10362.883188
710.771662,-1915.238745,-1924.535449,11621.233289
710.771978,-1915.238745,-1998.556043,12213.398043
710.772293,-1838.629195,-962.267725,11991.336260
710.772609,-1838.629195,-0.000000,10436.903782
710.772925,-842.705048,-0.000000,10214.842000
710.773241,153.219100,-0.000000,9548.656652
710.773556,1302.362347,370.102971,8438.347739
710.773872,1455.581446,1110.308913,7698.141797
710.774188,2528.115143,1036.288319,7328.038826
710.774503,2374.896044,666.185348,7772.162391
710.774819,1762.019645,1406.391290,7994.224174
710.775135,1532.190996,666.185348,8734.430116
710.775451,919.314598,-370.102971,9474.636058
710.775766,0.000000,-666.185348,10288.862594
710.776082,-1225.752797,-1332.370696,10955.047942
710.776398,-1838.629195,-1184.329507,11399.171507
710.776713,-1762.019645,-1258.350101,11843.295072
710.777029,-1991.848295,-296.082377,11399.171507
710.777345,-1149.143247,814.226536,10881.027347
710.777661,-229.828649,888.247130,10066.800811
710.777976,919.314598,666.185348,9104.533087
710.778292,1762.019645,592.164754,8364.327145
710.778608,2451.505594,1480.411884,7476.080014
710.778923,2911.162892,1554.432478,7105.977043
710.779239,2757.943793,1554.432478,7328.038826
710.779555,2528.115143,1554.432478,7772.162391
710.779871,1991.848295,888.247130,7920.203579
710.780186,1225.752797,-0.000000,9474.636058
710.780502,76.609550,-592.164754,11029.068536
710.780818,-1302.362347,-1406.391290,11621.233289
710.781134,-1455.581446,-962.267725,11917.315666
710.781449,-2068.457845,-370.102971,12065.356855
710.781765,-1455.581446,-0.000000,11621.233289
710.782081,-536.266849,666.185348,11103.089130
710.782396,306.438199,962.267725,10066.800811
710.782712,1608.800546,1184.329507,9178.553681
710.783028,2374.896044,1628.453072,8068.244768
710.783344,2834.553343,1850.514855,7105.977043
710.783659,3983.696590,1702.473667,7031.956449
710.783975,3524.039291,1924.535449,6957.935855
710.784291,2987.772442,1258.350101,7624.121203
710.784606,2221.676944,370.102971,8290.306550
710.784922,1072.533697,-888.247130,9400.615463
710.785238,-612.876398,-1406.391290,10732.986159
710.785554,-1532.190996,-1850.514855,11251.130318
710.785869,-2374.896044,-2220.617826,11991.336260
710.786185,-2528.115143,-1702.473667,12065.356855
710.786501,-2298.286494,-740.205942,11843.295072
710.786817,-2068.457845,-296.082377,10732.986159
710.787132,-842.705048,-74.020594,10362.883188
710.787448,76.609550,-296.082377,9252.574275
710.787764,1149.143247,-148.041188,8216.285956
710.788079,2298.286494,-222.061783,7105.977043
710.788395,3294.210641,518.144159,7476.080014
710.788711,3140.991542,962.267725,6809.894666
710.789027,2451.505594,592.164754,7105.977043
710.789342,2145.067394,-0.000000,8216.285956
710.789658,766.095498,-814.226536,8956.491898
710.789974,-229.828649,-1480.411884,10436.903782
710.790289,-1302.362347,-2812.782580,11251.130318
710.790605,-2221.676944,-2368.659014,12287.418637
710.790921,-2451.505594,-2368.659014,12139.377449
710.791237,-2374.896044,-1924.535449,11917.315666
710.791552,-1838.629195,-296.082377,11251.130318
710.791868,-229.828649,-296.082377,9770.718434
710.792184,1225.752797,-0.000000,9178.553681
710.792499,1991.848295,-370.102971,8438.347739
710.792815,2451.505594,148.041188,7179.997637
710.793131,3447.429741,296.082377,6513.812290
710.793447,2681.334243,814.226536,6809.894666
710.793762,2451.505594,592.164754,7402.059420
710.794078,1838.629195,-296.082377,8068.244768
710.794394,612.876398,-1406.391290,9030.512492
710.794710,-995.924147,-2146.597232,10658.965565
710.795025,-2145.067394,-2812.782580,11103.089130
710.795341,-2604.724693,-3108.864956,12287.418637
710.795657,-2604.724693,-2294.638420,12583.501014
710.795972,-2528.115143,-962.267725,11473.192101
710.796288,-1685.410096,666.185348,10436.903782
710.796604,-383.047749,-0.000000,9622.677246
710.796920,995.924147,-296.082377,8660.409521
710.797235,1762.019645,-0.000000,7994.224174
710.797551,2604.724693,370.102971,6661.853478
710.797867,2757.943793,814.226536,7402.059420
710.798182,3140.991542,962.267725,6883.915261
710.798498,2451.505594,1628.453072,7105.977043
710.798814,1455.581446,666.185348,7920.203579
710.799130,766.095498,-666.185348,9474.636058
710.799445,-995.924147,-1776.494261,10732.986159
710.799761,-2604.724693,-1850.514855,11621.233289
710.800077,-2528.115143,-1776.494261,12879.583391
710.800392,-2604.724693,-1480.411884,12361.439231
710.800708,-2145.067394,-444.123565,12287.418637
710.801024,-1532.190996,518.144159,11103.089130
710.801340,76.609550,1036.288319,10140.821405
710.801655,1685.410096,814.226536,9252.574275
710.801971,1991.848295,1480.411884,7550.100608
710.802287,3830.477490,1924.535449,7402.059420
710.802603,4060.306139,1406.391290,6735.874072
710.802918,4060.306139,2220.617826,7105.977043
710.803234,3447.429741,2072.576638,7772.162391
710.803550,2757.943793,814.226536,8364.327145
710.803865,1762.019645,-0.000000,9104.533087
710.804181,-689.485948,-1110.308913,10658.965565
710.804497,-1532.190996,-1924.535449,12361.439231
710.804813,-2145.067394,-1554.432478,12731.542202
710.805128,-2528.115143,-814.226536,12953.603985
710.805444,-2374.896044,296.082377,12065.356855
710.805760,-1302.362347,1036.288319,11325.150913
710.806075,229.828649,814.226536,10140.821405
710.806391,1455.581446,370.102971,8808.450710
710.806707,2221.676944,370.102971,8290.306550
710.807023,3677.258390,962.267725,7328.038826
710.807338,4290.134789,1628.453072,6809.894666
710.807654,3753.867940,2146.597232,6735.874072
710.807970,2987.772442,1998.556043,7105.977043
710.808286,2528.115143,888.247130,7920.203579
710.808601,995.924147,-592.164754,9474.636058
710.808917,-612.876398,-1332.370696,10955.047942
710.809233,-1915.238745,-2146.597232,12065.356855
710.809548,-2681.334243,-1776.494261,12361.439231
710.809864,-2451.505594,-1332.370696,12657.521608
710.810180,-2681.334243,148.041188,11917.315666
710.810496,-1685.410096,888.247130,10807.006753
710.810811,-306.438199,296.082377,10214.842000
710.811127,766.095498,-296.082377,9400.615463
710.811443,1915.238745,74.020594,7994.224174
710.811758,2757.943793,-0.000000,7994.224174
710.812074,3600.648841,1406.391290,6291.750507
710.812390,3524.039291,2072.576638,6513.812290
710.812706,3064.381992,1480.411884,6661.853478
710.813021,2451.505594,370.102971,7994.224174
710.813337,919.314598,-962.267725,9030.512492
710.813653,-766.095498,-2146.597232,10288.862594
710.813968,-2298.286494,-2590.720797,11917.315666
710.814284,-2451.505594,-2664.741391,13175.665768
710.814600,-2068.457845,-1850.514855,12509.480420
710.814916,-2451.505594,-0.000000,11251.130318
710.815231,-1455.581446,962.267725,10658.965565
710.815547,76.609550,222.061783,9548.656652
710.815863,1072.533697,-666.185348,8586.388927
710.816179,1685.410096,-592.164754,7698.141797
710.816494,2681.334243,-296.082377,7179.997637
710.816810,3524.039291,370.102971,6883.915261
710.817126,2987.772442,888.247130,6439.791695
710.817442,2451.505594,518.144159,7179.997637
710.817757,1915.238745,-888.247130,8216.285956
710.818073,0.000000,-1998.556043,9548.656652
710.818389,-1915.238745,-2812.782580,10732.986159
710.818705,-3064.381992,-3256.906145,12065.356855
710.819020,-2987.772442,-2960.823768,12953.603985
710.819336,-3447.429741,-1702.473667,12213.398043
710.819652,-2987.772442,-222.061783,11029.068536
710.819968,-1608.800546,-0.000000,10510.924376
710.820284,-306.438199,-296.082377,9252.574275
710.820599,536.266849,-296.082377,8290.306550
710.820915,1378.971896,-370.102971,7846.182985
710.821231,2834.553343,148.041188,6883.915261
710.821547,3294.210641,1184.329507,5995.668130
710.821862,2757.943793,1184.329507,6587.832884
710.822178,2221.676944,296.082377,7846.182985
710.822494,1225.752797,-814.226536,8068.244768
710.822810,-383.047749,-1924.535449,9844.739029
710.823125,-2221.676944,-2590.720797,11177.109724
710.823441,-2911.162892,-2960.823768,12435.459826
710.823757,-2145.067394,-2220.617826,12953.603985
710.824073,-2834.553343,-888.247130,12287.418637
710.824389,-2451.505594,370.102971,11695.253884
710.824704,-995.924147,962.267725,10362.883188
710.825020,229.828649,370.102971,9474.636058
710.825336,1532.190996,962.267725,8734.430116
710.825652,2834.553343,666.185348,7179.997637
710.825967,3907.087040,888.247130,6883.915261
710.826283,4290.134789,2072.576638,6217.729913
710.826599,4290.134789,1702.473667,6809.894666
710.826915,3677.258390,1036.288319,7772.162391
710.827230,2451.505594,296.082377,8216.285956
710.827546,689.485948,-740.205942,9918.759623
710.827862,-612.876398,-888.247130,11103.089130
710.828178,-1072.533697,-1406.391290,12509.480420
710.828494,-1915.238745,-1036.288319,12805.562797
710.828809,-1915.238745,370.102971,12139.377449
710.829125,-1685.410096,1480.411884,10955.047942
710.829441,-459.657299,1480.411884,10658.965565
710.829757,536.266849,1258.350101,10066.800811
710.830072,2145.067394,814.226536,8438.347739
710.830388,2298.286494,666.185348,7476.080014
710.830704,3907.087040,1036.288319,7698.141797
710.831020,4290.134789,1924.535449,6513.812290
710.831335,3370.820191,2072.576638,7031.956449
710.831651,2528.115143,1480.411884,7624.121203
710.831967,1838.629195,370.102971,9326.594869
710.832283,383.047749,-296.082377,9770.718434
710.832598,-1225.752797,-814.226536,10584.944971
710.832914,-2451.505594,-1480.411884,12583.501014
710.833230,-2221.676944,-1628.453072,12879.583391
710.833546,-2528.115143,-370.102971,12287.418637
710.833862,-2451.505594,740.205942,11251.130318
710.834177,-536.266849,444.123565,11029.068536
710.834493,0.000000,-0.000000,9918.759623
710.834809,766.095498,592.164754,8734.430116
710.835125,1991.848295,518.144159,7698.141797
710.835440,3064.381992,888.247130,7105.977043
710.835756,3064.381992,1628.453072,6735.874072
710.836072,2604.724693,1184.329507,6735.874072
710.836388,1915.238745,740.205942,7846.182985
710.836703,1608.800546,-296.082377,8882.471304
710.837019,76.609550,-1554.432478,9770.718434
710.837335,-1455.581446,-2220.617826,11251.130318
710.837651,-2451.505594,-2368.659014,12139.377449
710.837967,-2451.505594,-1628.453072,12287.418637
710.838282,-2604.724693,-1184.329507,12139.377449
710.838598,-2451.505594,-148.041188,11547.212695
710.838914,-1455.581446,740.205942,10584.944971
710.839230,383.047749,-74.020594,8956.491898
710.839545,1149.143247,-222.061783,7846.182985
710.839861,1915.238745,-296.082377,7624.121203
710.840177,2911.162892,-0.000000,6439.791695
710.840493,3677.258390,962.267725,5995.668130
710.840808,2604.724693,666.185348,6809.894666
710.841124,1762.019645,-148.041188,7846.182985
710.841440,1225.752797,-1036.288319,8512.368333
710.841756,-689.485948,-2516.700203,10214.842000
710.842072,-2221.676944,-3182.885551,11325.150913
710.842387,-2528.115143,-3108.864956,12213.398043
710.842703,-2757.943793,-2368.659014,12139.377449
710.843019,-3064.381992,-1332.370696,11843.295072
710.843335,-2298.286494,-592.164754,11103.089130
710.843650,-766.095498,-370.102971,9770.718434
710.843966,76.609550,-666.185348,9178.553681
710.844282,1225.752797,-592.164754,8290.306550
710.844598,2451.505594,-444.123565,7328.038826
710.844913,3447.429741,-370.102971,6513.812290
710.845229,3524.039291,888.247130,5847.626942
710.845545,3064.381992,740.205942,6957.935855
710.845861,2374.896044,-74.020594,7328.038826
710.846176,1225.752797,-1332.370696,8512.368333
710.846492,0.000000,-2960.823768,10066.800811
710.846808,-1762.019645,-2886.803174,11325.150913
710.847124,-2374.896044,-2590.720797,12583.501014
710.847440,-2451.505594,-2072.576638,12731.542202
710.847755,-2374.896044,-888.247130,11843.295072
710.848071,-2145.067394,370.102971,11177.109724
710.848387,-229.828649,740.205942,10658.965565
710.848703,1149.143247,370.102971,9474.636058
710.849018,2145.067394,222.061783,8364.327145
710.849334,3064.381992,-0.000000,7254.018232
710.849650,4213.525239,1184.329507,6661.853478
710.849966,4443.353888,1702.473667,6735.874072
710.850281,3524.039291,1850.514855,7254.018232
710.850597,3140.991542,1036.288319,7698.141797
710.850913,2374.896044,-296.082377,8660.409521
710.851229,459.657299,-888.247130,10510.924376
710.851545,-919.314598,-1258.350101,11473.192101
710.851860,-1685.410096,-1406.391290,12583.501014
710.852176,-1762.019645,-740.205942,12435.459826
710.852492,-1762.019645,-0.000000,12731.542202
710.852808,-1149.143247,1258.350101,11695.253884
710.853123,-459.657299,1480.411884,10436.903782
710.853439,459.657299,1332.370696,9178.553681
710.853755,2528.115143,1184.329507,8438.347739
710.854071,3907.087040,-0.000000,7994.224174
710.854386,3600.648841,2294.638420,6587.832884
710.854702,3447.429741,2146.597232,6735.874072
710.855018,2834.553343,592.164754,8142.265362
710.855334,1991.848295,814.226536,8734.430116
710.855650,1378.971896,-814.226536,9178.553681
710.855965,-229.828649,-740.205942,10140.821405
710.856281,-1915.238745,-1480.411884,11399.171507
710.856597,-2451.505594,-1184.329507,12657.521608
710.856913,-2451.505594,-888.247130,12287.418637
710.857228,-2528.115143,-0.000000,11917.315666
710.857544,-2221.676944,1554.432478,10807.006753
710.857860,-689.485948,666.185348,10214.842000
710.858176,995.924147,-74.020594,9474.636058
710.858491,1149.143247,740.205942,8068.244768
710.858807,2528.115143,444.123565,7105.977043
710.859123,3140.991542,1036.288319,6291.750507
710.859439,2834.553343,1554.432478,7254.018232
710.859754,2451.505594,1258.350101,7179.997637
710.860070,1532.190996,-148.041188,8290.306550
710.860386,229.828649,-888.247130,9474.636058
710.860702,-1149.143247,-1776.494261,11029.068536
710.861018,-2528.115143,-1924.535449,11399.171507
710.861333,-2834.553343,-1702.473667,12361.439231
710.861649,-2911.162892,-1332.370696,12805.562797
710.861965,-2911.162892,-222.061783,12065.356855
710.862281,-1915.238745,444.123565,11029.068536
710.862596,-842.705048,370.102971,9844.739029
710.862912,612.876398,-0.000000,8956.491898
710.863228,2068.457845,-592.164754,8142.265362
710.863544,3447.429741,-0.000000,6883.915261
710.863859,4213.525239,1036.288319,6143.709319
710.864175,3600.648841,1332.370696,6291.750507
710.864491,3140.991542,518.144159,7031.956449
710.864807,2451.505594,-888.247130,8586.388927
710.865123,1072.533697,-1628.453072,9474.636058
710.865438,-459.657299,-2146.597232,10362.883188
710.865754,-2145.067394,-2590.720797,11399.171507
710.866070,-2451.505594,-2442.679609,12361.439231
710.866386,-2604.724693,-2220.617826,12509.480420
710.866701,-2681.334243,-666.185348,11473.192101
710.867017,-2145.067394,-518.144159,11103.089130
710.867333,-995.924147,-814.226536,10436.903782
710.867649,536.266849,-740.205942,9030.512492
710.867964,1915.238745,-370.102971,7920.203579
710.868280,3064.381992,-148.041188,6883.915261
710.868596,3753.867940,-0.000000,6365.771101
710.868912,3447.429741,1110.308913,6513.812290
710.869228,2834.553343,-222.061783,7105.977043
710.869543,2145.067394,-814.226536,8364.327145
710.869859,995.924147,-1850.514855,9252.574275
710.870175,-612.876398,-2294.638420,10140.821405
710.870491,-1685.410096,-2442.679609,11769.274478
710.870806,-1608.800546,-1998.556043,12287.418637
710.871122,-2298.286494,-962.267725,11991.336260
710.871438,-2451.505594,-74.020594,11251.130318
710.871754,-1225.752797,666.185348,10881.027347
710.872069,153.219100,-0.000000,9992.780217
710.872385,1072.533697,-0.000000,8660.409521
710.872701,1991.848295,-0.000000,7772.162391
710.873017,3447.429741,-0.000000,7179.997637
710.873332,4213.525239,1184.329507,6661.853478
710.873648,3830.477490,1332.370696,6735.874072
710.873964,2757.943793,1628.453072,7105.977043
710.874280,2068.457845,148.041188,8660.409521
710.874596,689.485948,-740.205942,9622.677246
710.874911,-766.095498,-1110.308913,10510.924376
710.875227,-1532.190996,-1554.432478,11843.295072
710.875543,-2145.067394,-1702.473667,12657.521608
710.875859,-2451.505594,-814.226536,12731.542202
710.876174,-2145.067394,740.205942,11843.295072
710.876490,-1608.800546,1406.391290,10881.027347
710.876806,229.828649,1110.308913,9696.697840
710.877122,1455.581446,962.267725,8956.491898
710.877437,2145.067394,1110.308913,7772.162391
710.877753,3064.381992,1332.370696,6809.894666
710.878069,3983.696590,1924.535449,6291.750507
710.878385,3140.991542,2220.617826,7031.956449
710.878701,2451.505594,1628.453072,7254.018232
710.879016,1455.581446,148.041188,8512.368333
710.879332,76.609550,-666.185348,10214.842000
710.879648,-1455.581446,-1258.350101,10955.047942
710.879964,-2757.943793,-1554.432478,12139.377449
710.880279,-2987.772442,-1332.370696,12805.562797
710.880595,-3294.210641,-666.185348,12731.542202
710.880911,-3064.381992,222.061783,11843.295072
710.881227,-2068.457845,1110.308913,11473.192101
710.881542,-689.485948,1332.370696,10214.842000
710.881858,689.485948,666.185348,9252.574275
710.882174,1532.190996,518.144159,7772.162391
710.882490,2834.553343,1406.391290,6957.935855
710.882806,3677.258390,1924.535449,6439.791695
710.883121,3064.381992,1554.432478,6735.874072
710.883437,2528.115143,1406.391290,7846.182985
710.883753,1302.362347,-444.123565,7994.224174
710.884069,536.266849,-1110.308913,9548.656652
710.884384,-1072.533697,-1924.535449,11251.130318
710.884700,-2068.457845,-2072.576638,12361.439231
710.885016,-2451.505594,-1480.411884,12509.480420
710.885332,-2145.067394,-888.247130,12509.480420
710.885647,-2068.457845,-0.000000,11843.295072
710.885963,-919.314598,740.205942,10732.986159
710.886279,0.000000,518.144159,9548.656652
710.886595,1378.971896,-148.041188,8586.388927
710.886910,2451.505594,-740.205942,8142.265362
710.887226,3677.258390,-0.000000,6661.853478
710.887542,4443.353888,1036.288319,5995.668130
710.887858,4136.915689,1184.329507,6439.791695
710.888174,3370.820191,148.041188,6809.894666
710.888489,2374.896044,-1406.391290,7846.182985
710.888805,689.485948,-2146.597232,9844.739029
710.889121,-1149.143247,-2664.741391,11103.089130
710.889437,-1838.629195,-2516.700203,11695.253884
710.889752,-2451.505594,-2368.659014,12287.418637
710.890068,-2451.505594,-1332.370696,12139.377449
710.890384,-2221.676944,-222.061783,11103.089130
710.890700,-1378.971896,-148.041188,10362.883188
710.891015,-306.438199,-518.144159,9326.594869
710.891331,995.924147,-592.164754,8216.285956
710.891647,2528.115143,-1406.391290,7624.121203
710.891963,3447.429741,-444.123565,6957.935855
710.892279,3217.601092,444.123565,6143.709319
710.892594,2987.772442,1036.288319,6291.750507
710.892910,2911.162892,-0.000000,7179.997637
710.893226,1532.190996,-1776.494261,8216.285956
710.893542,229.828649,-2294.638420,9548.656652
710.893857,-1532.190996,-2368.659014,11029.068536
710.894173,-2987.772442,-2812.782580,11843.295072
710.894489,-2528.115143,-2812.782580,12509.480420
710.894805,-3064.381992,-1184.329507,12287.418637
710.895120,-2681.334243,296.082377,11621.233289
710.895436,-1762.019645,1110.308913,10658.965565
710.895752,-153.219100,370.102971,9696.697840
710.896068,1532.190996,-296.082377,9030.512492
710.896384,2374.896044,-0.000000,7624.121203
710.896699,3830.477490,1258.350101,6439.791695
710.897015,3983.696590,1702.473667,5773.606348
710.897331,3370.820191,1850.514855,6587.832884
710.897647,2834.553343,666.185348,7994.224174
710.897962,1685.410096,-296.082377,8660.409521
710.898278,76.609550,-1702.473667,10362.883188
710.898594,-1455.581446,-1924.535449,11621.233289
710.898910,-2374.896044,-1628.453072,11991.336260
710.899225,-2145.067394,-962.267725,12731.542202
710.899541,-2374.896044,222.061783,12879.583391
710.899857,-1991.848295,1036.288319,11843.295072
710.900173,-1149.143247,1406.391290,10807.006753
710.900488,306.438199,740.205942,10140.821405
710.900804,1455.581446,518.144159,8586.388927
710.901120,2528.115143,740.205942,7994.224174
710.901436,3447.429741,1036.288319,7105.977043
710.901752,4060.306139,1924.535449,6217.729913
710.902067,3294.210641,2220.617826,6587.832884
710.902383,2451.505594,962.267725,7920.203579
710.902699,1608.800546,-518.144159,9104.533087
710.903015,0.000000,-1036.288319,9770.718434
710.903330,-1302.362347,-1110.308913,11399.171507
710.903646,-2451.505594,-1480.411884,11917.315666
710.903962,-2681.334243,-1036.288319,12435.459826
710.904278,-2451.505594,-444.123565,13175.665768
710.904593,-2757.943793,-0.000000,11843.295072
710.904909,-1149.143247,592.164754,11177.109724
710.905225,0.000000,592.164754,9918.759623
710.905541,1532.190996,370.102971,8216.285956
710.905857,2757.943793,296.082377,7550.100608
710.906172,3600.648841,1184.329507,6291.750507
710.906488,4443.353888,1850.514855,5699.585753
710.906804,3600.648841,1924.535449,6143.709319
710.907120,2681.334243,1110.308913,7402.059420
710.907435,1991.848295,-592.164754,8512.368333
710.907751,153.219100,-1554.432478,9548.656652
710.908067,-1685.410096,-1998.556043,11177.109724
710.908383,-2681.334243,-2664.741391,12435.459826
710.908698,-2528.115143,-2294.638420,13323.706956
710.909014,-2834.553343,-1110.308913,12731.542202
710.909330,-2451.505594,-0.000000,11843.295072
710.909646,-1072.533697,888.247130,11029.068536
710.909962,459.657299,296.082377,9770.718434
710.910277,1838.629195,666.185348,8142.265362
710.910593,3140.991542,888.247130,7254.018232
710.910909,4673.182538,962.267725,5995.668130
710.911225,4519.963438,1554.432478,5403.503377
710.911540,3524.039291,1406.391290,6143.709319
710.911856,2987.772442,-148.041188,7550.100608
710.912172,1532.190996,-1554.432478,8586.388927
710.912488,-459.657299,-2146.597232,9992.780217
710.912803,-1762.019645,-2590.720797,11769.274478
710.913119,-2451.505594,-2812.782580,12287.418637
710.913435,-3524.039291,-2220.617826,12657.521608
710.913751,-3370.820191,-1258.350101,12065.356855
710.914066,-2528.115143,-370.102971,11695.253884
710.914382,-1455.581446,-0.000000,10510.924376
710.914698,76.609550,-444.123565,9622.677246
710.915014,1455.581446,-444.123565,8216.285956
710.915330,2451.505594,-444.123565,6957.935855
710.915645,4443.353888,296.082377,6291.750507
710.915961,3753.867940,1332.370696,5477.523971
710.916277,3140.991542,1480.411884,6217.729913
710.916593,2528.115143,370.102971,7179.997637
710.916908,1302.362347,-1110.308913,8438.347739
710.917224,-229.828649,-2368.659014,9992.780217
710.917540,-1915.238745,-2886.803174,10658.965565
710.917855,-2681.334243,-2812.782580,12287.418637
710.918171,-2987.772442,-2442.679609,13249.686362
710.918486,-3294.210641,-1184.329507,12879.583391
710.918802,-2834.553343,-0.000000,12065.356855
710.919118,-2068.457845,296.082377,10732.986159
710.919433,0.000000,-74.020594,9696.697840
710.919749,1378.971896,-74.020594,8364.327145
710.920065,3370.820191,444.123565,7105.977043
710.920380,4366.744339,1110.308913,6587.832884
710.920696,4749.792088,2220.617826,5847.626942
710.921011,3830.477490,2072.576638,6439.791695
710.921327,3370.820191,666.185348,7550.100608
710.921643,1455.581446,-592.164754,9178.553681
710.921958,153.219100,-1924.535449,10066.800811
710.922274,-1455.581446,-1480.411884,11695.253884
710.922589,-2145.067394,-1628.453072,12657.521608
710.922905,-2451.505594,-1480.411884,13323.706956
710.923221,-2528.115143,-0.000000,12657.521608
710.923536,-2298.286494,1480.411884,11695.253884
710.923852,-766.095498,1406.391290,10436.903782
710.924167,689.485948,296.082377,9622.677246
710.924483,1991.848295,666.185348,8512.368333
710.924799,2681.334243,370.102971,7624.121203
710.925114,3753.867940,1332.370696,7031.956449
710.925430,3753.867940,2442.679609,6735.874072
710.925745,3524.039291,1998.556043,6809.894666
710.926061,2604.724693,814.226536,7550.100608
710.926377,1685.410096,-518.144159,9326.594869
710.926692,-536.266849,-1480.411884,10140.821405
710.927008,-1838.629195,-1924.535449,11695.253884
710.927324,-2604.724693,-1776.494261,12435.459826
710.927639,-2757.943793,-1480.411884,13397.727550
710.927955,-2987.772442,-444.123565,12583.501014
710.928270,-2451.505594,740.205942,11399.171507
710.928586,-1149.143247,962.267725,10807.006753
710.928902,76.609550,148.041188,9548.656652
710.929217,1455.581446,-0.000000,8216.285956
710.929533,2757.943793,-0.000000,7550.100608
710.929848,3677.258390,1184.329507,6365.771101
710.930164,3447.429741,2146.597232,5625.565159
710.930480,2911.162892,1702.473667,6513.812290
710.930795,2681.334243,518.144159,8290.306550
710.931111,1149.143247,-962.267725,9400.615463
710.931426,-383.047749,-1776.494261,9918.759623
710.931742,-1991.848295,-1924.535449,11325.150913
710.932058,-2528.115143,-2220.617826,12731.542202
710.932373,-2298.286494,-1924.535449,13175.665768
710.932689,-3064.381992,-444.123565,12139.377449
710.933005,-2528.115143,444.123565,11917.315666
710.933320,-995.924147,-0.000000,10436.903782
710.933636,459.657299,-0.000000,9252.574275
710.933951,1685.410096,-74.020594,8438.347739
710.934267,2757.943793,-296.082377,6883.915261
710.934583,3753.867940,740.205942,5625.565159
710.934898,4060.306139,1924.535449,5773.606348
710.935214,3600.648841,1258.350101,6883.915261
710.935529,2987.772442,-666.185348,7550.100608
710.935845,1455.581446,-1258.350101,8882.471304
710.936161,-306.438199,-2368.659014,10214.842000
710.936476,-1608.800546,-2442.679609,11103.089130
710.936792,-1991.848295,-2368.659014,12139.377449
710.937107,-2528.115143,-1850.514855,12731.542202
710.937423,-2528.115143,-518.144159,12509.480420
710.937739,-2145.067394,518.144159,10881.027347
710.938054,-1072.533697,666.185348,9696.697840
710.938370,766.095498,-74.020594,8808.450710
710.938686,1455.581446,-222.061783,7994.224174
710.939001,2604.724693,-0.000000,7105.977043
710.939317,3217.601092,-0.000000,6809.894666
710.939632,3064.381992,814.226536,6513.812290
710.939948,2757.943793,518.144159,7402.059420
710.940264,1991.848295,-296.082377,7920.203579
710.940579,1149.143247,-1258.350101,9400.615463
710.940895,-612.876398,-2220.617826,10214.842000
710.941210,-1532.190996,-1998.556043,11251.130318
710.941526,-1991.848295,-1702.473667,12139.377449
710.941842,-2451.505594,-962.267725,12657.521608
710.942157,-2068.457845,222.061783,11917.315666
710.942473,-1455.581446,1036.288319,11029.068536
710.942788,0.000000,592.164754,10288.862594
710.943104,383.047749,-0.000000,9326.594869
710.943420,1762.019645,-444.123565,8216.285956
710.943735,3140.991542,-0.000000,7476.080014
710.944051,3294.210641,888.247130,6883.915261
710.944367,3064.381992,2072.576638,7031.956449
710.944682,3140.991542,1480.411884,7105.977043
710.944998,2451.505594,148.041188,8438.347739
710.945313,1532.190996,-518.144159,9548.656652
710.945629,0.000000,-1258.350101,10362.883188
710.945945,-995.924147,-1628.453072,11103.089130
710.946260,-1685.410096,-1184.329507,12805.562797
710.946576,-1685.410096,-222.061783,12805.562797
710.946891,-1838.629195,1258.350101,11547.212695
710.947207,-1072.533697,1776.494261,10584.944971
710.947523,229.828649,740.205942,10362.883188
710.947838,1149.143247,-0.000000,9474.636058
710.948154,1915.238745,370.102971,8290.306550
710.948469,2987.772442,296.082377,7328.038826
710.948785,3830.477490,1036.288319,6809.894666
710.949101,3140.991542,1924.535449,6809.894666
710.949416,2834.553343,1406.391290,6957.935855
710.949732,2374.896044,592.164754,8142.265362
710.950048,536.266849,-888.247130,9252.574275
710.950363,-1455.581446,-1924.535449,10214.842000
710.950679,-2068.457845,-1998.556043,12213.398043
710.950994,-2681.334243,-1998.556043,12287.418637
710.951310,-2987.772442,-1258.350101,12361.439231
710.951626,-2681.334243,-74.020594,11695.253884
710.951941,-2145.067394,666.185348,11103.089130
710.952257,-536.266849,444.123565,10362.883188
710.952572,229.828649,-74.020594,9030.512492
710.952888,1378.971896,-74.020594,8068.244768
710.953204,2681.334243,148.041188,7105.977043
710.953519,2451.505594,1036.288319,6587.832884
710.953835,2834.553343,1258.350101,6735.874072
710.954150,2834.553343,888.247130,6883.915261
710.954466,1838.629195,-518.144159,7994.224174
710.954782,536.266849,-1850.514855,9770.718434
710.955097,-1685.410096,-2516.700203,10584.944971
710.955413,-2298.286494,-2072.576638,11473.192101
710.955728,-2528.115143,-1998.556043,12805.562797
710.956044,-2528.115143,-1258.350101,12361.439231
710.956360,-2374.896044,-0.000000,11843.295072
710.956675,-1838.629195,222.061783,11029.068536
710.956991,-383.047749,-0.000000,9844.739029
710.957307,995.924147,-0.000000,8734.430116
710.957622,2451.505594,-0.000000,7772.162391
710.957938,3294.210641,814.226536,6957.935855
710.958253,3524.039291,1776.494261,6143.709319
710.958569,3447.429741,1036.288319,6513.812290
710.958885,2987.772442,740.205942,7550.100608
710.959200,1608.800546,-1036.288319,8438.347739
710.959516,919.314598,-1776.494261,9918.759623
710.959831,-1149.143247,-2368.659014,11029.068536
710.960147,-2145.067394,-2368.659014,11399.171507
710.960463,-1838.629195,-2294.638420,12509.480420
710.960778,-2298.286494,-1480.411884,12139.377449
710.961094,-2145.067394,-74.020594,11473.192101
710.961409,-1608.800546,296.082377,11029.068536
710.961725,-306.438199,-74.020594,9696.697840
710.962041,1149.143247,-74.020594,8734.430116
710.962356,1991.848295,-74.020594,7550.100608
710.962672,3217.601092,-0.000000,6957.935855
710.962988,3907.087040,740.205942,6365.771101
710.963303,3217.601092,1110.308913,6143.709319
710.963619,3140.991542,518.144159,7105.977043
710.963934,1991.848295,-814.226536,8142.265362
710.964250,0.000000,-1998.556043,9770.718434
710.964566,-1072.533697,-2294.638420,10584.944971
710.964881,-2145.067394,-2072.576638,11843.295072
710.965197,-2451.505594,-1998.556043,12509.480420
710.965512,-2528.115143,-1036.288319,12361.439231
710.965828,-2451.505594,296.082377,11843.295072
710.966144,-1608.800546,740.205942,10658.965565
710.966459,153.219100,-0.000000,9844.739029
710.966775,995.924147,222.061783,8882.471304
710.967090,2068.457845,370.102971,7624.121203
710.967406,3064.381992,592.164754,7105.977043
710.967722,3217.601092,1554.432478,6513.812290
710.968037,3294.210641,1776.494261,7254.018232
710.968353,2834.553343,1110.308913,7772.162391
710.968669,2298.286494,-0.000000,8216.285956
710.968984,612.876398,-814.226536,9770.718434
710.969300,-842.705048,-1332.370696,10881.027347
710.969615,-1532.190996,-740.205942,11621.233289
710.969931,-1762.019645,-666.185348,12435.459826
710.970247,-2068.457845,148.041188,12139.377449
710.970562,-2145.067394,1110.308913,11547.212695
710.970878,-1378.971896,1332.370696,10732.986159
710.971193,153.219100,518.144159,10214.842000
710.971509,1149.143247,222.061783,9104.533087
710.971825,2374.896044,962.267725,7920.203579
710.972140,3294.210641,1184.329507,6957.935855
710.972456,3524.039291,1998.556043,6587.832884
710.972771,2911.162892,1776.494261,7105.977043
710.973087,2374.896044,592.164754,7846.182985
710.973403,1762.019645,-444.123565,8956.491898
710.973718,0.000000,-1258.350101,9696.697840
710.974034,-1378.971896,-1776.494261,10732.986159
710.974350,-2145.067394,-1702.473667,12139.377449
710.974665,-2145.067394,-1406.391290,12287.418637
710.974981,-2757.943793,-444.123565,11991.336260
710.975296,-2068.457845,296.082377,11177.109724
710.975612,-1149.143247,740.205942,10214.842000
710.975928,383.047749,-0.000000,9918.759623
710.976243,1072.533697,-0.000000,8290.306550
710.976559,2298.286494,-0.000000,7550.100608
710.976874,3140.991542,518.144159,7031.956449
710.977190,3140.991542,1332.370696,6587.832884
710.977506,2451.505594,666.185348,6587.832884
710.977821,1991.848295,-74.020594,7994.224174
710.978137,919.314598,-1184.329507,9252.574275
710.978452,-919.314598,-1998.556043,10214.842000
710.978768,-2145.067394,-2220.617826,11547.212695
710.979084,-2757.943793,-2294.638420,12509.480420
710.979399,-2757.943793,-1776.494261,12657.521608
710.979715,-2451.505594,-148.041188,11843.295072
710.980030,-2145.067394,444.123565,11177.109724
710.980346,0.000000,518.144159,10510.924376
710.980662,995.924147,-74.020594,9030.512492
710.980977,2221.676944,-0.000000,8290.306550
710.981293,3064.381992,592.164754,6957.935855
710.981609,4136.915689,1110.308913,5995.668130
710.981924,4366.744339,1554.432478,5995.668130
710.982240,3064.381992,1110.308913,7105.977043
710.982555,2604.724693,-370.102971,7550.100608
710.982871,1225.752797,-1850.514855,9178.553681
710.983187,-766.095498,-2442.679609,10066.800811
710.983502,-2068.457845,-3034.844362,11325.150913
710.983818,-2604.724693,-2886.803174,12361.439231
710.984133,-2911.162892,-2664.741391,12731.542202
710.984449,-3217.601092,-1332.370696,12287.418637
710.984765,-2834.553343,-74.020594,11251.130318
710.985080,-1072.533697,-74.020594,9992.780217
710.985396,229.828649,-666.185348,8956.491898
710.985711,1838.629195,-148.041188,8142.265362
710.986027,3447.429741,-0.000000,6957.935855
710.986343,4366.744339,444.123565,6143.709319
710.986658,3753.867940,1036.288319,5773.606348
710.986974,3217.601092,666.185348,6883.915261
710.987290,2528.115143,-370.102971,7772.162391
710.987605,1532.190996,-962.267725,9178.553681
710.987921,-383.047749,-1702.473667,9918.759623
710.988236,-1532.190996,-2146.597232,11029.068536
710.988552,-2298.286494,-2220.617826,12361.439231
710.988868,-2528.115143,-1924.535449,12805.562797
710.989183,-2604.724693,-888.247130,12139.377449
710.989499,-2451.505594,370.102971,11473.192101
710.989814,-1225.752797,222.061783,10436.903782
710.990130,612.876398,-0.000000,9178.553681
710.990446,1685.410096,296.082377,8438.347739
710.990761,2528.115143,814.226536,7550.100608
710.991077,3677.258390,1332.370696,6439.791695
710.991392,4213.525239,1702.473667,6809.894666
710.991708,3294.210641,1332.370696,7105.977043
710.992024,2604.724693,740.205942,7920.203579
710.992339,1838.629195,-370.102971,9326.594869
710.992655,153.219100,-740.205942,10362.883188
710.992971,-689.485948,-888.247130,11103.089130
710.993286,-1685.410096,-592.164754,12139.377449
710.993602,-2145.067394,-222.061783,13027.624579
710.993917,-2068.457845,888.247130,11769.274478
710.994233,-1608.800546,1332.370696,11103.089130
710.994549,-995.924147,1110.308913,10362.883188
710.994864,919.314598,666.185348,9844.739029
710.995180,1762.019645,962.267725,8734.430116
710.995495,2834.553343,1776.494261,7254.018232
710.995811,3294.210641,2072.576638,7031.956449
710.996127,3140.991542,2516.700203,6957.935855
710.996442,3064.381992,1924.535449,7105.977043
710.996758,1838.629195,592.164754,8068.244768
710.997073,1149.143247,-666.185348,9696.697840
710.997389,-306.438199,-1480.411884,10732.986159
710.997705,-1608.800546,-962.267725,11843.295072
710.998020,-2068.457845,-814.226536,12435.459826
710.998336,-2298.286494,-518.144159,12509.480420
710.998652,-2068.457845,666.185348,11769.274478
710.998967,-1685.410096,1036.288319,11547.212695
710.999283,-459.657299,-0.000000,10066.800811
710.999598,995.924147,-222.061783,9326.594869
710.999914,1991.848295,-0.000000,7846.182985
711.000230,2681.334243,-0.000000,7328.038826
711.000545,3294.210641,1110.308913,6809.894666
711.000861,2834.553343,1406.391290,6587.832884
711.001176,2757.943793,814.226536,6809.894666
711.001492,1762.019645,-444.123565,7846.182985
711.001808,459.657299,-2220.617826,9622.677246
711.002123,-995.924147,-2664.741391,10732.986159
711.002439,-2145.067394,-2960.823768,11917.315666
711.002754,-2451.505594,-2442.679609,12657.521608
711.003070,-2451.505594,-1628.453072,12287.418637
711.003386,-1685.410096,-296.082377,11547.212695
711.003701,-1608.800546,370.102971,10807.006753
711.004017,0.000000,592.164754,9696.697840
711.004332,1225.752797,-74.020594,8512.368333
711.004648,2298.286494,-0.000000,7105.977043
711.004964,3370.820191,222.061783,6735.874072
711.005279,3677.258390,666.185348,6365.771101
711.005595,3524.039291,666.185348,6513.812290
711.005911,2681.334243,-0.000000,7254.018232
711.006226,1838.629195,-518.144159,7920.203579
711.006542,153.219100,-1406.391290,9696.697840
711.006857,-1072.533697,-2220.617826,10510.924376
711.007173,-2221.676944,-2294.638420,11621.233289
711.007489,-2528.115143,-2294.638420,12583.501014
711.007804,-2451.505594,-1776.494261,12361.439231
711.008120,-2221.676944,-814.226536,11843.295072
711.008435,-1991.848295,-296.082377,11103.089130
711.008751,-383.047749,-592.164754,9844.739029
711.009067,842.705048,-370.102971,8586.388927
711.009382,1608.800546,-222.061783,7846.182985
711.009698,3294.210641,-0.000000,6809.894666
711.010013,3447.429741,666.185348,5921.647536
711.010329,3064.381992,1628.453072,6143.709319
711.010645,2604.724693,222.061783,7105.977043
711.010960,1838.629195,-1184.329507,8438.347739
711.011276,383.047749,-1850.514855,9548.656652
711.011592,-1149.143247,-2664.741391,10955.047942
711.011907,-2221.676944,-2516.700203,11547.212695
711.012223,-2451.505594,-1998.556043,12361.439231
711.012538,-2757.943793,-1702.473667,12287.418637
711.012854,-2451.505594,-444.123565,11843.295072
711.013170,-1838.629195,148.041188,11399.171507
711.013485,-383.047749,296.082377,10066.800811
711.013801,689.485948,-74.020594,8882.471304
711.014116,1991.848295,222.061783,7994.224174
711.014432,3370.820191,666.185348,6883.915261
711.014748,3447.429741,1406.391290,6217.729913
711.015063,2987.772442,1554.432478,6587.832884
711.015379,3217.601092,518.144159,7624.121203
711.015694,1838.629195,-0.000000,8364.327145
711.016010,76.609550,-740.205942,9918.759623
711.016326,-995.924147,-1554.432478,11029.068536
711.016641,-1608.800546,-1036.288319,11621.233289
711.016957,-2528.115143,-1184.329507,11843.295072
711.017273,-1991.848295,-74.020594,12361.439231
711.017588,-2374.896044,1036.288319,12139.377449
711.017904,-1302.362347,1480.411884,10732.986159
711.018219,0.000000,1480.411884,9918.759623
711.018535,1302.362347,592.164754,8956.491898
711.018851,2145.067394,1554.432478,8142.265362
711.019167,3064.381992,2072.576638,6661.853478
711.019482,3524.039291,2146.597232,6661.853478
711.019798,3294.210641,1998.556043,7402.059420
711.020114,2298.286494,1480.411884,7550.100608
711.020430,1762.019645,592.164754,8364.327145
711.020745,306.438199,-962.267725,9770.718434
711.021061,-1378.971896,-1554.432478,11473.192101
711.021377,-1838.629195,-1036.288319,11769.274478
711.021693,-2221.676944,-1110.308913,12287.418637
711.022008,-2298.286494,-148.041188,12583.501014
711.022324,-2374.896044,296.082377,11769.274478
711.022640,-995.924147,740.205942,10881.027347
711.022955,459.657299,148.041188,9918.759623
711.023271,1225.752797,370.102971,8660.409521
711.023587,2604.724693,592.164754,7402.059420
711.023903,3677.258390,888.247130,6143.709319
711.024218,4213.525239,1406.391290,6217.729913
711.024534,3447.429741,962.267725,6957.935855
711.024850,2528.115143,518.144159,7698.141797
711.025166,1532.190996,-444.123565,8734.430116
711.025481,-229.828649,-1776.494261,9548.656652
711.025797,-1455.581446,-2368.659014,11473.192101
711.026113,-2221.676944,-2516.700203,12509.480420
711.026428,-2374.896044,-2368.659014,12879.583391
711.026744,-2911.162892,-1258.350101,12583.501014
711.027060,-2528.115143,-0.000000,11843.295072
711.027376,-919.314598,222.061783,11103.089130
711.027691,536.266849,370.102971,9622.677246
711.028007,1762.019645,518.144159,8660.409521
711.028323,2757.943793,518.144159,7105.977043
711.028639,4366.744339,1332.370696,6217.729913
711.028954,4443.353888,1998.556043,5699.585753
711.029270,3677.258390,1480.411884,6513.812290
711.029586,2834.553343,518.144159,7698.141797
711.029902,2068.457845,-1036.288319,8512.368333
711.030217,153.219100,-1776.494261,9770.718434
711.030533,-1608.800546,-2960.823768,11177.109724
711.030849,-2528.115143,-3034.844362,12361.439231
711.031164,-2987.772442,-2368.659014,13027.624579
711.031480,-3294.210641,-1406.391290,12953.603985
711.031796,-3064.381992,-518.144159,11547.212695
711.032112,-1991.848295,-296.082377,10807.006753
711.032427,76.609550,-444.123565,9548.656652
711.032743,766.095498,-444.123565,8364.327145
711.033059,1915.238745,-148.041188,7179.997637
711.033375,3217.601092,222.061783,6143.709319
711.033690,3524.039291,666.185348,5773.606348
711.034006,3064.381992,518.144159,6439.791695
711.034322,2451.505594,-222.061783,7328.038826
711.034638,1072.533697,-1924.535449,8068.244768
711.034953,-536.266849,-2590.720797,9992.780217
711.035269,-1991.848295,-2738.761985,11029.068536
711.035585,-2451.505594,-2812.782580,11769.274478
711.035900,-2528.115143,-2072.576638,12509.480420
711.036216,-3064.381992,-1258.350101,12065.356855
711.036532,-2681.334243,148.041188,11103.089130
711.036848,-1302.362347,740.205942,10436.903782
711.037163,-153.219100,-74.020594,9622.677246
711.037479,1455.581446,-74.020594,8364.327145
711.037795,2528.115143,-0.000000,7476.080014
711.038111,3217.601092,1332.370696,5921.647536
711.038426,3524.039291,1850.514855,6365.771101
711.038742,3140.991542,1702.473667,6513.812290
711.039058,2451.505594,814.226536,7550.100608
711.039373,1149.143247,-444.123565,9178.553681
711.039689,0.000000,-1554.432478,10436.903782
711.040005,-1608.800546,-2072.576638,11917.315666
711.040321,-2221.676944,-1554.432478,12435.459826
711.040636,-2145.067394,-592.164754,12879.583391
711.040952,-2374.896044,666.185348,12657.521608
711.041268,-2298.286494,1850.514855,11769.274478
711.041584,-229.828649,2294.638420,10362.883188
711.041899,919.314598,1554.432478,9252.574275
711.042215,2298.286494,814.226536,8142.265362
711.042531,3217.601092,1036.288319,7402.059420
711.042847,4443.353888,1110.308913,6513.812290
711.043162,4366.744339,1998.556043,6365.771101
711.043478,3447.429741,1924.535449,7402.059420
711.043794,2451.505594,444.123565,7920.203579
711.044109,1072.533697,-444.123565,9474.636058
711.044425,-306.438199,-1554.432478,10288.862594
711.044741,-1608.800546,-1850.514855,11621.233289
711.045057,-2145.067394,-1776.494261,12731.542202
711.045372,-1991.848295,-1480.411884,13027.624579
711.045688,-2451.505594,-370.102971,12213.398043
711.046004,-2145.067394,1184.329507,11843.295072
711.046320,-612.876398,1406.391290,10288.862594
711.046635,919.314598,814.226536,9474.636058
711.046951,2145.067394,1036.288319,8068.244768
711.047267,3294.210641,1110.308913,6957.935855
711.047582,4136.915689,444.123565,6513.812290
711.047898,3830.477490,962.267725,6883.915261
711.048214,2987.772442,1110.308913,7772.162391
711.048530,2681.334243,-222.061783,7772.162391
711.048845,1378.971896,-222.061783,9104.533087
711.049161,-536.266849,-1406.391290,10288.862594
711.049477,-1608.800546,-1702.473667,11399.171507
711.049793,-2221.676944,-1776.494261,12361.439231
711.050108,-2834.553343,-1850.514855,13249.686362
711.050424,-2681.334243,-740.205942,12731.542202
711.050740,-2604.724693,-0.000000,11325.150913
711.051056,-919.314598,370.102971,10288.862594
711.051371,383.047749,-148.041188,9474.636058
711.051687,2374.896044,-370.102971,8364.327145
711.052003,2604.724693,592.164754,6957.935855
711.052318,3294.210641,1036.288319,6365.771101
711.052634,3524.039291,1258.350101,5847.626942
711.052950,2987.772442,888.247130,6735.874072
711.053266,1991.848295,-592.164754,7476.080014
711.053581,1149.143247,-1776.494261,9696.697840
711.053897,-766.095498,-2368.659014,10362.883188
711.054213,-2068.457845,-2886.803174,11103.089130
711.054529,-3217.601092,-2146.597232,12657.521608
711.054844,-2987.772442,-2072.576638,12657.521608
711.055160,-2987.772442,-814.226536,11917.315666
711.055476,-2604.724693,-0.000000,11103.089130
711.055792,-1072.533697,-148.041188,10436.903782
711.056107,383.047749,-666.185348,8586.388927
711.056423,1072.533697,-296.082377,7846.182985
711.056739,2604.724693,-0.000000,7105.977043
711.057054,3447.429741,444.123565,5847.626942
711.057370,3524.039291,1184.329507,5773.606348
711.057686,2911.162892,296.082377,6365.771101
711.058002,2221.676944,-592.164754,7624.121203
711.058317,689.485948,-1628.453072,9252.574275
711.058633,-842.705048,-2442.679609,9844.739029
711.058949,-2221.676944,-2442.679609,11325.150913
711.059265,-2145.067394,-2516.700203,12583.501014
711.059580,-2298.286494,-1406.391290,12139.377449
711.059896,-2298.286494,-0.000000,11695.253884
711.060212,-1838.629195,888.247130,11029.068536
711.060527,-459.657299,666.185348,9770.718434
711.060843,689.485948,444.123565,9030.512492
711.061159,2374.896044,-370.102971,7920.203579
711.061475,2911.162892,-0.000000,7179.997637
711.061790,3600.648841,1036.288319,6883.915261
711.062106,3600.648841,1702.473667,6883.915261
711.062422,3370.820191,1110.308913,7328.038826
711.062738,2298.286494,296.082377,8216.285956
711.063053,1225.752797,-518.144159,9400.615463
711.063369,-383.047749,-1036.288319,10807.006753
711.063685,-1532.190996,-1480.411884,11843.295072
711.064001,-1532.190996,-1554.432478,12287.418637
711.064316,-2298.286494,-444.123565,12583.501014
711.064632,-2145.067394,518.144159,11991.336260
711.064948,-1225.752797,1924.535449,11325.150913
711.065263,-229.828649,1480.411884,10510.924376
711.065579,995.924147,888.247130,9548.656652
711.065895,2451.505594,962.267725,8290.306550
711.066211,3677.258390,1184.329507,7031.956449
711.066526,3983.696590,1776.494261,6883.915261
711.066842,3600.648841,1702.473667,6883.915261
711.067158,2911.162892,740.205942,7846.182985
711.067474,1915.238745,-0.000000,8216.285956
711.067789,459.657299,-1110.308913,10214.842000
711.068105,-1149.143247,-1702.473667,10732.986159
711.068421,-2451.505594,-1776.494261,11843.295072
711.068736,-2681.334243,-1702.473667,12657.521608
711.069052,-2681.334243,-1184.329507,12657.521608
711.069368,-2681.334243,-0.000000,11991.336260
711.069684,-1838.629195,1110.308913,11251.130318
711.069999,-689.485948,518.144159,10362.883188
711.070315,919.314598,444.123565,8956.491898
711.070631,2374.896044,592.164754,7402.059420
711.070947,3447.429741,962.267725,6661.853478
711.071262,3830.477490,1332.370696,6217.729913
711.071578,3447.429741,1480.411884,6513.812290
711.071894,2987.772442,1036.288319,7105.977043
711.072210,2068.457845,-0.000000,7846.182985
711.072525,536.266849,-1258.350101,9400.615463
711.072841,-1149.143247,-2146.597232,10140.821405
711.073157,-1991.848295,-2516.700203,11843.295072
711.073472,-2834.553343,-2294.638420,12583.501014
711.073788,-3370.820191,-1702.473667,12213.398043
711.074104,-2987.772442,-222.061783,11843.295072
711.074420,-2068.457845,-0.000000,11251.130318
711.074735,-689.485948,-296.082377,9992.780217
711.075051,689.485948,-0.000000,9178.553681
711.075367,1762.019645,-0.000000,7254.018232
711.075683,2911.162892,370.102971,6439.791695
711.075998,3447.429741,1036.288319,5995.668130
711.076314,3370.820191,1036.288319,6217.729913
711.076630,2911.162892,296.082377,7031.956449
711.076946,2068.457845,-962.267725,7994.224174
711.077261,306.438199,-2146.597232,9918.759623
711.077577,-1225.752797,-3034.844362,10510.924376
711.077893,-2451.505594,-3108.864956,11917.315666
711.078208,-2987.772442,-2664.741391,12731.542202
711.078524,-3370.820191,-1702.473667,12879.583391
711.078840,-2834.553343,-222.061783,11843.295072
711.079156,-1608.800546,666.185348,10584.944971
711.079471,-612.876398,-148.041188,10066.800811
711.079787,995.924147,-370.102971,8808.450710
711.080103,1991.848295,-74.020594,7254.018232
711.080419,2834.553343,-0.000000,6587.832884
711.080734,3600.648841,370.102971,7105.977043
711.081050,3064.381992,740.205942,6513.812290
711.081366,2681.334243,444.123565,7105.977043
711.081681,1762.019645,-1258.350101,8364.327145
711.081997,383.047749,-2146.597232,9844.739029
711.082313,-1149.143247,-2442.679609,10955.047942
711.082629,-1915.238745,-2368.659014,11917.315666
711.082944,-1991.848295,-1924.535449,12583.501014
711.083260,-2145.067394,-888.247130,12435.459826
711.083576,-2298.286494,592.164754,11177.109724
711.083892,-919.314598,1036.288319,10066.800811
711.084207,536.266849,444.123565,10066.800811
711.084523,1915.238745,222.061783,8660.409521
711.084839,2834.553343,444.123565,7920.203579
711.085155,3830.477490,1110.308913,6587.832884
711.085470,4060.306139,1776.494261,6217.729913
711.085786,3753.867940,2072.576638,7031.956449
711.086102,2757.943793,740.205942,7328.038826
711.086417,1762.019645,-0.000000,9030.512492
711.086733,536.266849,-1184.329507,10881.027347
711.087049,-1225.752797,-1702.473667,11325.150913
711.087365,-1915.238745,-1628.453072,11991.336260
711.087680,-1915.238745,-888.247130,12953.603985
711.087996,-2145.067394,-0.000000,12657.521608
711.088312,-1991.848295,1702.473667,11695.253884
711.088628,-536.266849,2220.617826,10732.986159
711.088943,612.876398,1480.411884,9474.636058
711.089259,2221.676944,1184.329507,9104.533087
711.089575,3294.210641,1184.329507,7772.162391
711.089890,3524.039291,1628.453072,6143.709319
711.090206,4060.306139,2072.576638,6661.853478
711.090522,3677.258390,1406.391290,7105.977043
711.090838,2987.772442,1184.329507,7402.059420
711.091153,1225.752797,-222.061783,9178.553681
711.091469,0.000000,-1406.391290,10362.883188
711.091785,-1608.800546,-2220.617826,11103.089130
711.092101,-2757.943793,-2072.576638,12509.480420
711.092416,-2834.553343,-1406.391290,12805.562797
711.092732,-3064.381992,-518.144159,12213.398043
711.093048,-3140.991542,518.144159,11769.274478
711.093364,-1532.190996,1036.288319,10881.027347
711.093679,0.000000,370.102971,9844.739029
711.093995,1149.143247,370.102971,8290.306550
711.094311,2145.067394,-0.000000,7254.018232
711.094626,3217.601092,518.144159,6957.935855
711.094942,3370.820191,1258.350101,6735.874072
711.095258,3140.991542,1332.370696,6365.771101
711.095574,2987.772442,666.185348,7179.997637
711.095889,1455.581446,-518.144159,8586.388927
711.096205,-306.438199,-1850.514855,9844.739029
711.096521,-1608.800546,-2072.576638,10807.006753
711.096837,-2145.067394,-2368.659014,12435.459826
711.097152,-2298.286494,-2294.638420,12879.583391
711.097468,-2604.724693,-740.205942,12435.459826
711.097784,-2298.286494,370.102971,11029.068536
711.098099,-1225.752797,296.082377,10288.862594
711.098415,0.000000,-222.061783,10288.862594
711.098731,1532.190996,-518.144159,8882.471304
711.099047,2374.896044,-0.000000,7254.018232
711.099362,3217.601092,444.123565,6439.791695
711.099678,3600.648841,962.267725,6291.750507
711.099994,3217.601092,1110.308913,6513.812290
711.100310,2834.553343,-74.020594,7179.997637
711.100625,1762.019645,-1480.411884,8660.409521
711.100941,0.000000,-2146.597232,9844.739029
711.101257,-1378.971896,-2664.741391,10807.006753
711.101573,-1608.800546,-2442.679609,11991.336260
711.101888,-2298.286494,-2146.597232,12361.439231
711.102204,-2604.724693,-1036.288319,11843.295072
711.102520,-2604.724693,-0.000000,11695.253884
711.102835,-1378.971896,222.061783,10881.027347
711.103151,0.000000,148.041188,9178.553681
711.103467,1149.143247,-148.041188,8068.244768
711.103783,2145.067394,-222.061783,7402.059420
711.104098,3064.381992,-0.000000,6957.935855
711.104414,3370.820191,888.247130,6291.750507
711.104730,2451.505594,1036.288319,6661.853478
711.105046,1915.238745,-222.061783,8290.306550
711.105361,1149.143247,-962.267725,8882.471304
711.105677,-229.828649,-1776.494261,9548.656652
711.105993,-1685.410096,-2072.576638,11251.130318
711.106309,-2298.286494,-1998.556043,12583.501014
711.106624,-1991.848295,-1184.329507,12657.521608
711.106940,-1915.238745,-0.000000,11695.253884
711.107256,-1762.019645,740.205942,11473.192101
711.107571,-383.047749,666.185348,10584.944971
711.107887,1072.533697,370.102971,9474.636058
711.108203,1915.238745,444.123565,8290.306550
711.108519,3064.381992,814.226536,7254.018232
711.108834,3753.867940,1110.308913,6587.832884
711.109150,3677.258390,1332.370696,6143.709319
711.109466,3370.820191,1110.308913,7698.141797
711.109782,2068.457845,370.102971,7920.203579
711.110097,1608.800546,-740.205942,9178.553681
711.110413,0.000000,-1628.453072,10362.883188
711.110729,-1532.190996,-2516.700203,11769.274478
711.111044,-2145.067394,-2220.617826,12805.562797
711.111360,-2681.334243,-1406.391290,12805.562797
711.111676,-2604.724693,-444.123565,12361.439231
711.111992,-2145.067394,814.226536,11547.212695
711.112307,-689.485948,1406.391290,10436.903782
711.112623,766.095498,888.247130,9400.615463
711.112939,1225.752797,740.205942,8142.265362
711.113255,2604.724693,888.247130,7105.977043
711.113570,3600.648841,1480.411884,6217.729913
711.113886,3524.039291,1924.535449,7105.977043
711.114202,3140.991542,1628.453072,7254.018232
711.114518,1991.848295,518.144159,7624.121203
711.114833,689.485948,-740.205942,9030.512492
711.115149,-995.924147,-1554.432478,10510.924376
711.115465,-1915.238745,-1924.535449,11621.233289
711.115780,-2911.162892,-2146.597232,12731.542202
711.116096,-3140.991542,-1480.411884,12805.562797
711.116412,-2987.772442,-222.061783,12287.418637
711.116728,-2298.286494,296.082377,11251.130318
711.117043,-766.095498,222.061783,10066.800811
711.117359,459.657299,518.144159,8956.491898
711.117675,1685.410096,370.102971,7920.203579
711.117991,2911.162892,296.082377,7031.956449
711.118306,3447.429741,1258.350101,6513.812290
711.118622,3600.648841,1554.432478,6291.750507
711.118938,2987.772442,1184.329507,6661.853478
711.119254,2298.286494,-74.020594,7402.059420
711.119569,1302.362347,-1258.350101,9474.636058
711.119885,-536.266849,-2220.617826,10362.883188
711.120201,-1915.238745,-2442.679609,11399.171507
711.120517,-2068.457845,-2220.617826,12731.542202
711.120832,-1762.019645,-1480.411884,12583.501014
711.121148,-1991.848295,-592.164754,11917.315666
711.121464,-1685.410096,296.082377,11621.233289
711.121780,-229.828649,666.185348,10140.821405
711.122096,995.924147,-0.000000,9252.574275
711.122411,2145.067394,-0.000000,7772.162391
711.122727,3370.820191,296.082377,7105.977043
711.123043,3830.477490,666.185348,6439.791695
711.123359,3600.648841,1480.411884,5921.647536
711.123675,3294.210641,962.267725,7105.977043
711.123990,1991.848295,-74.020594,7846.182985
711.124306,383.047749,-1184.329507,8956.491898
711.124622,-919.314598,-2368.659014,10362.883188
711.124938,-2221.676944,-3182.885551,11917.315666
711.125254,-2757.943793,-2886.803174,13101.645173
711.125569,-2834.553343,-1998.556043,12731.542202
711.125885,-2528.115143,-962.267725,11473.192101
711.126201,-1991.848295,518.144159,10955.047942
711.126517,-1072.533697,296.082377,9918.759623
711.126832,459.657299,-74.020594,8882.471304
711.127148,1991.848295,-148.041188,8290.306550
711.127464,3064.381992,-0.000000,6513.812290
711.127780,3370.820191,518.144159,6069.688724
711.128096,3217.601092,814.226536,6735.874072
711.128411,2604.724693,666.185348,6809.894666
711.128727,1532.190996,-370.102971,8068.244768
711.129043,0.000000,-1776.494261,9400.615463
711.129359,-1378.971896,-2590.720797,10436.903782
711.129675,-2528.115143,-2812.782580,11695.253884
711.129990,-3064.381992,-2812.782580,12879.583391
711.130306,-2834.553343,-2294.638420,13397.727550
711.130622,-2528.115143,-296.082377,12361.439231
711.130938,-1762.019645,666.185348,11103.089130
711.131253,-306.438199,592.164754,9918.759623
711.131569,1302.362347,444.123565,8734.430116
711.131885,2681.334243,666.185348,7402.059420
711.132201,3064.381992,888.247130,6291.750507
711.132517,4366.744339,1110.308913,5921.647536
711.132832,4136.915689,1184.329507,6365.771101
711.133148,3370.820191,1480.411884,7105.977043
711.133464,2145.067394,-370.102971,8216.285956
711.133780,1072.533697,-1406.391290,9696.697840
711.134096,-766.095498,-2146.597232,10510.924376
711.134411,-1991.848295,-2442.679609,12139.377449
711.134727,-2451.505594,-1702.473667,13101.645173
711.135043,-2911.162892,-1184.329507,13249.686362
711.135359,-2681.334243,-0.000000,11769.274478
711.135674,-1455.581446,1184.329507,11843.295072
711.135990,-229.828649,1332.370696,10066.800811
711.136306,1762.019645,1110.308913,9030.512492
711.136622,2681.334243,1406.391290,7846.182985
711.136938,3983.696590,1406.391290,6291.750507
711.137253,4366.744339,1628.453072,5995.668130
711.137569,4213.525239,1702.473667,6513.812290
711.137885,3524.039291,1258.350101,7105.977043
711.138201,2221.676944,222.061783,7920.203579
711.138517,842.705048,-666.185348,9104.533087
711.138832,-1225.752797,-1702.473667,10436.903782
711.139148,-2451.505594,-2294.638420,12287.418637
711.139464,-2604.724693,-1850.514855,12583.501014
711.139780,-3294.210641,-1406.391290,12657.521608
711.140095,-3064.381992,-0.000000,12065.356855
711.140411,-2068.457845,962.267725,11547.212695
711.140727,-459.657299,740.205942,9992.780217
711.141043,1072.533697,444.123565,9104.533087
711.141359,2298.286494,-0.000000,7550.100608
711.141674,3370.820191,740.205942,6957.935855
711.141990,3907.087040,2294.638420,6217.729913
711.142306,3753.867940,2368.659014,5773.606348
711.142622,3447.429741,2220.617826,7105.977043
711.142938,2145.067394,518.144159,7772.162391
711.143253,536.266849,-1406.391290,9104.533087
711.143569,-995.924147,-1998.556043,10732.986159
711.143885,-2298.286494,-2146.597232,12065.356855
711.144201,-1915.238745,-2220.617826,13101.645173
711.144517,-2757.943793,-740.205942,12953.603985
711.144832,-2911.162892,592.164754,11621.233289
711.145148,-1685.410096,1554.432478,11547.212695
711.145464,0.000000,740.205942,10584.944971
711.145780,1225.752797,962.267725,8882.471304
711.146095,2451.505594,1036.288319,7550.100608
711.146411,3524.039291,888.247130,6513.812290
711.146727,4060.306139,1924.535449,6365.771101
711.147043,3677.258390,1924.535449,6513.812290
711.147359,3140.991542,1110.308913,7105.977043
711.147674,1991.848295,-74.020594,8438.347739
711.147990,153.219100,-1332.370696,9400.615463
711.148306,-1302.362347,-2368.659014,10732.986159
711.148622,-2528.115143,-2812.782580,12805.562797
711.148938,-2528.115143,-2812.782580,13249.686362
711.149253,-3064.381992,-1332.370696,12805.562797
711.149569,-2604.724693,-0.000000,11991.336260
711.149885,-1838.629195,666.185348,10955.047942
711.150201,-383.047749,-518.144159,9844.739029
711.150516,1302.362347,-444.123565,8882.471304
711.150832,2145.067394,-148.041188,7328.038826
711.151148,3524.039291,-74.020594,6587.832884
711.151464,3830.477490,444.123565,5773.606348
711.151780,3677.258390,740.205942,6217.729913
711.152095,2911.162892,370.102971,7105.977043
711.152411,1762.019645,-740.205942,7476.080014
711.152727,0.000000,-2294.638420,9474.636058
711.153043,-1838.629195,-2886.803174,10807.006753
711.153359,-2681.334243,-3478.967927,12213.398043
711.153674,-2987.772442,-3330.926739,12805.562797
711.153990,-3294.210641,-2146.597232,12953.603985
711.154306,-2834.553343,-888.247130,12065.356855
711.154622,-919.314598,-0.000000,11103.089130
711.154937,0.000000,370.102971,9770.718434
711.155253,1149.143247,296.082377,8734.430116
711.155569,2528.115143,518.144159,7254.018232
711.155885,3907.087040,888.247130,6365.771101
711.156201,4290.134789,1628.453072,6069.688724
711.156516,3907.087040,1776.494261,6217.729913
711.156832,3830.477490,962.267725,6883.915261
711.157148,2834.553343,-0.000000,7772.162391
711.157464,919.314598,-1110.308913,9400.615463
711.157780,-383.047749,-2368.659014,10881.027347
711.158095,-1455.581446,-1998.556043,11991.336260
711.158411,-2451.505594,-1850.514855,12583.501014
711.158727,-2451.505594,-1036.288319,12657.521608
711.159043,-2451.505594,296.082377,11917.315666
711.159358,-1532.190996,814.226536,11177.109724
711.159674,0.000000,592.164754,9992.780217
711.159990,1072.533697,444.123565,8882.471304
711.160306,2374.896044,592.164754,7105.977043
711.160622,3524.039291,518.144159,6513.812290
711.160937,3677.258390,962.267725,6365.771101
711.161253,2987.772442,1406.391290,6661.853478
711.161569,2451.505594,1332.370696,7254.018232
711.161885,1762.019645,-592.164754,8438.347739
711.162201,-459.657299,-1406.391290,10510.924376
711.162516,-1685.410096,-1554.432478,10658.965565
711.162832,-2451.505594,-2368.659014,12287.418637
711.163148,-2681.334243,-1998.556043,13101.645173
711.163464,-3217.601092,-518.144159,12287.418637
711.163780,-2757.943793,444.123565,12213.398043
711.164095,-1455.581446,1036.288319,11177.109724
711.164411,-306.438199,370.102971,9770.718434
711.164727,1149.143247,222.061783,9252.574275
711.165043,1762.019645,740.205942,7920.203579
711.165358,3140.991542,814.226536,6957.935855
711.165674,3064.381992,1776.494261,6217.729913
711.165990,2987.772442,1702.473667,6439.791695
711.166306,2068.457845,888.247130,8068.244768
711.166622,1608.800546,-444.123565,8660.409521
711.166937,76.609550,-1702.473667,9474.636058
711.167253,-1455.581446,-2368.659014,11325.150913
711.167569,-2298.286494,-2368.659014,12657.521608
711.167885,-2374.896044,-1924.535449,13249.686362
711.168201,-2681.334243,-740.205942,13175.665768
711.168516,-2451.505594,296.082377,12213.398043
711.168832,-1072.533697,1258.350101,10807.006753
711.169148,689.485948,888.247130,9548.656652
711.169464,1991.848295,888.247130,8142.265362
711.169779,2528.115143,518.144159,7772.162391
711.170095,3983.696590,962.267725,6365.771101
711.170411,4366.744339,1332.370696,6143.709319
711.170727,3753.867940,1332.370696,6957.935855
711.171043,3140.991542,666.185348,7254.018232
711.171358,2374.896044,-148.041188,8216.285956
711.171674,229.828649,-1406.391290,9474.636058
711.171990,-1532.190996,-2220.617826,10584.944971
711.172306,-1991.848295,-2442.679609,12065.356855
711.172622,-2451.505594,-2368.659014,12953.603985
711.172937,-2528.115143,-1554.432478,12731.542202
711.173253,-2374.896044,-0.000000,11547.212695
711.173569,-1608.800546,518.144159,10214.842000
711.173885,-459.657299,-0.000000,9622.677246
711.174200,1378.971896,-296.082377,8660.409521
711.174516,2145.067394,-370.102971,7254.018232
711.174832,2451.505594,222.061783,6661.853478
711.175148,2911.162892,74.020594,6587.832884
711.175464,2987.772442,222.061783,6661.853478
711.175779,2451.505594,-0.000000,6661.853478
711.176095,1455.581446,-1628.453072,8512.368333
711.176411,536.266849,-2590.720797,9992.780217
711.176727,-1378.971896,-2664.741391,10584.944971
711.177043,-2145.067394,-2664.741391,11695.253884
711.177358,-2068.457845,-2294.638420,12583.501014
711.177674,-2757.943793,-740.205942,11843.295072
711.177990,-2068.457845,296.082377,10658.965565
711.178306,-536.266849,296.082377,10140.821405
711.178621,306.438199,-444.123565,9770.718434
711.178937,1302.362347,-222.061783,8512.368333
711.179253,2145.067394,-74.020594,7772.162391
711.179569,3294.210641,222.061783,6587.832884
711.179885,3600.648841,1184.329507,6587.832884
711.180200,2911.162892,1776.494261,6661.853478
711.180516,2681.334243,740.205942,7328.038826
711.180832,1762.019645,-962.267725,8882.471304
711.181148,0.000000,-1554.432478,10066.800811
711.181464,-1532.190996,-1776.494261,11325.150913
711.181779,-1685.410096,-1184.329507,11843.295072
711.182095,-2298.286494,-666.185348,12805.562797
711.182411,-2374.896044,222.061783,12435.459826
711.182727,-1685.410096,888.247130,11325.150913
711.183043,-612.876398,962.267725,10436.903782
711.183358,536.266849,518.144159,9622.677246
711.183674,1762.019645,592.164754,8660.409521
711.183990,2451.505594,1184.329507,7772.162391
711.184306,4136.915689,1850.514855,6661.853478
711.184621,4060.306139,2664.741391,6069.688724
711.184937,3064.381992,2590.720797,6883.915261
711.185253,2451.505594,1184.329507,7328.038826
711.185569,1225.752797,-222.061783,8438.347739
711.185885,-459.657299,-1406.391290,10436.903782
711.186200,-1838.629195,-2220.617826,11917.315666
711.186516,-2757.943793,-2072.576638,12731.542202
711.186832,-3140.991542,-1480.411884,13027.624579
711.187148,-3140.991542,-296.082377,12583.501014
711.187464,-2604.724693,814.226536,11621.233289
711.187779,-1378.971896,962.267725,10584.944971
711.188095,0.000000,222.061783,9918.759623
711.188411,1225.752797,296.082377,8808.450710
711.188727,2451.505594,444.123565,7920.203579
711.189042,3447.429741,1184.329507,7105.977043
711.189358,3447.429741,1850.514855,6217.729913
711.189674,3217.601092,2368.659014,6883.915261
711.189990,2681.334243,1702.473667,7402.059420
711.190306,1685.410096,-0.000000,8734.430116
711.190621,76.609550,-1332.370696,10436.903782
711.190937,-1378.971896,-2072.576638,11177.109724
711.191253,-1838.629195,-2368.659014,12805.562797
711.191569,-2451.505594,-1850.514855,13027.624579
711.191885,-2068.457845,-592.164754,12435.459826
711.192200,-1225.752797,962.267725,11325.150913
711.192516,-612.876398,1184.329507,10066.800811
711.192832,919.314598,666.185348,9622.677246
711.193148,2068.457845,296.082377,8734.430116
711.193463,3294.210641,1036.288319,6883.915261
711.193779,3753.867940,962.267725,6439.791695
711.194095,3983.696590,1036.288319,6661.853478
711.194411,3524.039291,1258.350101,7254.018232
711.194727,2604.724693,-74.020594,7402.059420
711.195042,1302.362347,-518.144159,8290.306550
711.195358,-229.828649,-1554.432478,9844.739029
711.195674,-1455.581446,-2738.761985,11251.130318
711.195990,-2451.505594,-2442.679609,12213.398043
711.196306,-3064.381992,-2072.576638,12879.583391
711.196621,-2528.115143,-814.226536,11917.315666
711.196937,-1762.019645,-148.041188,11399.171507
711.197253,-766.095498,-0.000000,10066.800811
711.197569,306.438199,740.205942,8956.491898
711.197884,1762.019645,296.082377,7698.141797
711.198200,2911.162892,518.144159,6735.874072
711.198516,2987.772442,1184.329507,6809.894666
711.198832,3370.820191,814.226536,6439.791695
711.199148,2681.334243,740.205942,7105.977043
711.199463,1838.629195,-444.123565,7402.059420
711.199779,459.657299,-1480.411884,9252.574275
711.200095,-1302.362347,-2220.617826,10510.924376
711.200411,-1991.848295,-2516.700203,11029.068536
711.200727,-2451.505594,-2146.597232,12287.418637
711.201042,-2757.943793,-1850.514855,12583.501014
711.201358,-2834.553343,-518.144159,12435.459826
711.201674,-1608.800546,296.082377,11177.109724
711.201990,0.000000,370.102971,10140.821405
711.202306,1149.143247,148.041188,9400.615463
711.202621,2145.067394,222.061783,7920.203579
711.202937,3140.991542,740.205942,6735.874072
711.203253,4366.744339,962.267725,6587.832884
711.203569,3907.087040,1406.391290,6735.874072
711.203884,3294.210641,1036.288319,7328.038826
711.204200,2298.286494,-222.061783,8142.265362
711.204516,1455.581446,-1184.329507,9844.739029
711.204832,-612.876398,-1776.494261,10807.006753
711.205148,-1838.629195,-2146.597232,11547.212695
711.205463,-1915.238745,-1998.556043,12805.562797
711.205779,-2528.115143,-1184.329507,12583.501014
711.206095,-2604.724693,-148.041188,11843.295072
711.206411,-2068.457845,518.144159,11325.150913
711.206727,-536.266849,-0.000000,10658.965565
711.207042,459.657299,-0.000000,9252.574275
711.207358,1455.581446,-0.000000,8290.306550
711.207674,2681.334243,-0.000000,7550.100608
711.207990,3294.210641,666.185348,7328.038826
711.208305,3140.991542,1480.411884,6735.874072
711.208621,2681.334243,1110.308913,6809.894666
711.208937,2221.676944,-0.000000,7698.141797
711.209253,919.314598,-1406.391290,9252.574275
711.209569,-536.266849,-2220.617826,10214.842000
711.209884,-1838.629195,-2220.617826,11473.192101
711.210200,-1991.848295,-2146.597232,12213.398043
711.210516,-2451.505594,-1184.329507,12065.356855
711.210832,-2298.286494,-0.000000,11695.253884
711.211148,-1915.238745,740.205942,10881.027347
711.211463,-612.876398,518.144159,10288.862594
711.211779,689.485948,-148.041188,8882.471304
711.212095,1378.971896,-222.061783,8068.244768
711.212411,2451.505594,148.041188,7476.080014
711.212726,3140.991542,222.061783,6661.853478
711.213042,2757.943793,1184.329507,6809.894666
711.213358,2374.896044,740.205942,7254.018232
711.213674,2068.457845,-444.123565,8290.306550
711.213990,612.876398,-1332.370696,9844.739029
711.214305,-919.314598,-2072.576638,10732.986159
711.214621,-1685.410096,-1998.556043,11769.274478
711.214937,-1838.629195,-1406.391290,12361.439231
711.215253,-1608.800546,-370.102971,11473.192101
711.215569,-1149.143247,148.041188,11399.171507
711.215884,-536.266849,1036.288319,10436.903782
711.216200,459.657299,962.267725,9400.615463
711.216516,1302.362347,444.123565,8364.327145
711.216832,2298.286494,-0.000000,7846.182985
711.217147,2681.334243,444.123565,7402.059420
711.217463,2834.553343,740.205942,6883.915261
711.217779,2528.115143,962.267725,6735.874072
711.218095,2068.457845,444.123565,7550.100608
711.218411,1608.800546,-740.205942,8586.388927
711.218726,229.828649,-1554.432478,9474.636058
711.219042,-1608.800546,-2294.638420,10807.006753
711.219358,-2068.457845,-2220.617826,12065.356855
711.219674,-2451.505594,-1776.494261,12361.439231
711.219990,-2221.676944,-1036.288319,11695.253884
711.220305,-2528.115143,-0.000000,11695.253884
711.220621,-1378.971896,518.144159,11177.109724
711.220937,0.000000,518.144159,9474.636058
711.221252,689.485948,370.102971,8734.430116
711.221568,2145.067394,296.082377,8438.347739
711.221884,2987.772442,444.123565,6735.874072
711.222200,3677.258390,1628.453072,6809.894666
711.222515,3370.820191,1628.453072,7031.956449
711.222831,2451.505594,1036.288319,7254.018232
711.223147,1991.848295,518.144159,8512.368333
711.223463,536.266849,-814.226536,9696.697840
711.223778,-689.485948,-1850.514855,11473.192101
711.224094,-1685.410096,-2072.576638,11843.295072
711.224410,-1915.238745,-1924.535449,12583.501014
711.224726,-1532.190996,-1332.370696,13249.686362
711.225041,-1762.019645,-0.000000,11843.295072
711.225357,-842.705048,444.123565,10584.944971
711.225673,153.219100,962.267725,9992.780217
711.225988,1762.019645,518.144159,9178.553681
711.226304,2528.115143,592.164754,7328.038826
711.226620,2681.334243,1184.329507,6809.894666
711.226936,3447.429741,888.247130,6735.874072
711.227251,3140.991542,962.267725,7105.977043
711.227567,2221.676944,296.082377,7698.141797
711.227883,1762.019645,-1036.288319,8438.347739
711.228199,919.314598,-1480.411884,10140.821405
711.228514,-612.876398,-1924.535449,10658.965565
711.228830,-1685.410096,-1702.473667,11473.192101
711.229146,-1532.190996,-1702.473667,13027.624579
711.229461,-1685.410096,-1184.329507,12583.501014
711.229777,-1608.800546,592.164754,11177.109724
711.230093,-919.314598,962.267725,10510.924376
711.230409,536.266849,518.144159,9252.574275
711.230724,1225.752797,1036.288319,7772.162391
711.231040,2298.286494,814.226536,6883.915261
711.231356,2987.772442,962.267725,6661.853478
711.231672,3217.601092,888.247130,6809.894666
711.231987,2451.505594,740.205942,6883.915261
711.232303,1762.019645,296.082377,7550.100608
711.232619,842.705048,-666.185348,8660.409521
711.232935,-306.438199,-1184.329507,9770.718434
711.233250,-1455.581446,-1406.391290,10732.986159
711.233566,-1991.848295,-1258.350101,11103.089130
711.233882,-2451.505594,-1184.329507,11917.315666
711.234197,-2451.505594,-518.144159,12139.377449
711.234513,-2221.676944,-0.000000,11695.253884
711.234829,-1072.533697,-0.000000,10881.027347
711.235145,-229.828649,444.123565,9918.759623
711.235460,766.095498,148.041188,8512.368333
711.235776,1762.019645,518.144159,7698.141797
711.236092,3064.381992,814.226536,6661.853478
711.236408,2528.115143,1480.411884,6365.771101
711.236723,2757.943793,2368.659014,6809.894666
711.237039,2298.286494,888.247130,7402.059420
711.237355,1685.410096,-74.020594,8660.409521
711.237670,766.095498,-1184.329507,9918.759623
711.237986,-689.485948,-2220.617826,10732.986159
711.238302,-1378.971896,-1998.556043,12065.356855
711.238618,-2145.067394,-1702.473667,13175.665768
711.238933,-2221.676944,-1110.308913,12583.501014
711.239249,-2068.457845,148.041188,12139.377449
711.239565,-842.705048,888.247130,10732.986159
711.239881,383.047749,740.205942,9992.780217
711.240196,1149.143247,814.226536,8586.388927
711.240512,2221.676944,1036.288319,7402.059420
711.240828,3217.601092,666.185348,6809.894666
711.241144,3294.210641,888.247130,6439.791695
711.241459,2451.505594,740.205942,7846.182985
711.241775,2068.457845,148.041188,8216.285956
711.242091,1378.971896,-1258.350101,9104.533087
711.242406,153.219100,-1850.514855,10362.883188
711.242722,-1685.410096,-1924.535449,11399.171507
711.243038,-2145.067394,-2590.720797,12657.521608
711.243354,-2068.457845,-2146.597232,13175.665768
711.243669,-2451.505594,-444.123565,11621.233289
711.243985,-1838.629195,518.144159,11695.253884
711.244301,-842.705048,518.144159,10881.027347
711.244617,766.095498,-370.102971,9178.553681
711.244932,1608.800546,-0.000000,8216.285956
711.245248,2145.067394,518.144159,7031.956449
711.245564,2911.162892,-0.000000,6809.894666
711.245879,3447.429741,1036.288319,6661.853478
711.246195,2604.724693,1332.370696,6587.832884
711.246511,2068.457845,370.102971,7624.121203
711.246827,1378.971896,-962.267725,8808.450710
711.247142,-153.219100,-1998.556043,9696.697840
711.247458,-1532.190996,-2516.700203,11325.150913
711.247774,-2451.505594,-2442.679609,12213.398043
711.248090,-2221.676944,-2220.617826,12583.501014
711.248405,-1991.848295,-666.185348,11917.315666
711.248721,-1608.800546,296.082377,11251.130318
711.249037,-842.705048,296.082377,10955.047942
711.249353,612.876398,-0.000000,9474.636058
711.249668,1225.752797,592.164754,7994.224174
711.249984,2681.334243,592.164754,7328.038826
711.250300,3524.039291,1480.411884,6217.729913
711.250615,3830.477490,2664.741391,5477.523971
711.250931,3753.867940,1776.494261,6291.750507
711.251247,2911.162892,518.144159,7254.018232
711.251563,1762.019645,-962.267725,8734.430116
711.251878,306.438199,-1850.514855,10214.842000
711.252194,-1225.752797,-2220.617826,11325.150913
711.252510,-2298.286494,-2072.576638,12213.398043
711.252826,-2374.896044,-1184.329507,12953.603985
711.253141,-2451.505594,-0.000000,11917.315666
711.253457,-2068.457845,1036.288319,11473.192101
711.253773,-995.924147,814.226536,10732.986159
711.254088,0.000000,444.123565,9326.594869
711.254404,1378.971896,518.144159,7994.224174
711.254720,2068.457845,444.123565,7476.080014
711.255036,3064.381992,222.061783,7031.956449
711.255351,3064.381992,1332.370696,6439.791695
711.255667,2604.724693,1332.370696,6883.915261
711.255983,2145.067394,518.144159,7550.100608
711.256299,842.705048,-592.164754,9326.594869
711.256614,-229.828649,-1628.453072,10140.821405
711.256930,-1608.800546,-1998.556043,11177.109724
711.257246,-2221.676944,-1776.494261,12065.356855
711.257562,-1838.629195,-1406.391290,12731.542202
711.257877,-1915.238745,-0.000000,12139.377449
711.258193,-1838.629195,148.041188,11695.253884
711.258509,-842.705048,296.082377,10584.944971
711.258824,153.219100,-0.000000,9548.656652
711.259140,1149.143247,-148.041188,8808.450710
711.259456,2145.067394,-0.000000,7476.080014
711.259772,3140.991542,740.205942,6661.853478
711.260087,2834.553343,1406.391290,6439.791695
711.260403,2451.505594,740.205942,7179.997637
711.260719,2145.067394,-222.061783,8808.450710
711.261035,995.924147,-1332.370696,9400.615463
711.261350,0.000000,-2146.597232,10288.862594
711.261666,-1225.752797,-1998.556043,11621.233289
711.261982,-1608.800546,-2220.617826,12657.521608
711.262297,-1762.019645,-1332.370696,12805.562797
711.262613,-1608.800546,-148.041188,12287.418637
711.262929,-2068.457845,1110.308913,11177.109724
711.263245,-306.438199,1110.308913,10140.821405
711.263560,1225.752797,888.247130,9326.594869
711.263876,2298.286494,1110.308913,7772.162391
711.264192,3217.601092,962.267725,6735.874072
711.264508,3983.696590,740.205942,5921.647536
711.264823,3600.648841,1554.432478,6365.771101
711.265139,2451.505594,666.185348,7179.997637
711.265455,1838.629195,-814.226536,8364.327145
711.265771,306.438199,-1480.411884,9548.656652
711.266086,-1378.971896,-2368.659014,10955.047942
711.266402,-2298.286494,-2442.679609,11917.315666
711.266718,-2834.553343,-2516.700203,12435.459826
711.267033,-3294.210641,-2368.659014,12435.459826
711.267349,-2757.943793,-1036.288319,11917.315666
711.267665,-2221.676944,-0.000000,10955.047942
711.267981,-536.266849,-0.000000,10214.842000
711.268296,689.485948,-0.000000,8734.430116
711.268612,1991.848295,148.041188,7476.080014
711.268928,2681.334243,592.164754,6883.915261
711.269244,3600.648841,1110.308913,5625.565159
711.269559,3370.820191,1406.391290,5847.626942
711.269875,2757.943793,814.226536,6513.812290
711.270191,2145.067394,-666.185348,7772.162391
711.270506,612.876398,-2294.638420,9252.574275
711.270822,-1149.143247,-2442.679609,10732.986159
711.271138,-2068.457845,-2590.720797,11843.295072
711.271454,-2451.505594,-2220.617826,12583.501014
711.271769,-2681.334243,-1110.308913,12657.521608
711.272085,-2604.724693,-888.247130,11695.253884
711.272401,-1685.410096,962.267725,10510.924376
711.272717,-459.657299,1036.288319,9770.718434
711.273032,689.485948,-222.061783,9178.553681
711.273348,2374.896044,518.144159,8068.244768
711.273664,3370.820191,888.247130,6439.791695
711.273980,4136.915689,1702.473667,5995.668130
711.274295,3907.087040,1850.514855,6217.729913
711.274611,3217.601092,1406.391290,6883.915261
711.274927,2374.896044,296.082377,7772.162391
711.275242,1378.971896,-592.164754,9918.759623
711.275558,0.000000,-1332.370696,10807.006753
711.275874,-995.924147,-1480.411884,11695.253884
711.276190,-1762.019645,-1480.411884,12583.501014
711.276505,-2221.676944,-888.247130,13101.645173
711.276821,-2221.676944,222.061783,12657.521608
711.277137,-1608.800546,1332.370696,11547.212695
711.277453,-459.657299,1406.391290,10955.047942
711.277768,995.924147,1036.288319,9622.677246
711.278084,2068.457845,1258.350101,7920.203579
711.278400,2987.772442,1628.453072,7031.956449
711.278715,3524.039291,1480.411884,7105.977043
711.279031,3370.820191,1850.514855,7179.997637
711.279347,2604.724693,666.185348,7254.018232
711.279663,1608.800546,-740.205942,8660.409521
711.279978,536.266849,-1406.391290,10658.965565
711.280294,-1225.752797,-1776.494261,11029.068536
711.280610,-2221.676944,-2146.597232,11769.274478
711.280926,-2145.067394,-1628.453072,13027.624579
711.281241,-2451.505594,-814.226536,12509.480420
711.281557,-2145.067394,-0.000000,11843.295072
711.281873,-1378.971896,592.164754,11103.089130
711.282189,-612.876398,-74.020594,10436.903782
711.282504,536.266849,296.082377,8956.491898
711.282820,2221.676944,-0.000000,8216.285956
711.283136,2834.553343,222.061783,7105.977043
711.283451,3600.648841,1184.329507,6365.771101
711.283767,3140.991542,1258.350101,6069.688724
711.284083,2298.286494,518.144159,7105.977043
711.284399,1608.800546,-888.247130,8438.347739
711.284714,383.047749,-1628.453072,9770.718434
711.285030,-1378.971896,-2146.597232,10658.965565
711.285346,-1915.238745,-2146.597232,11399.171507
711.285662,-2068.457845,-1702.473667,12657.521608
711.285977,-2068.457845,-1110.308913,12583.501014
711.286293,-2068.457845,370.102971,11843.295072
711.286609,-1072.533697,666.185348,11029.068536
711.286924,306.438199,666.185348,9918.759623
711.287240,1838.629195,-222.061783,9178.553681
711.287556,2528.115143,370.102971,7920.203579
711.287872,3830.477490,1480.411884,6513.812290
711.288187,4673.182538,2516.700203,5033.400406
711.288503,4213.525239,2738.761985,4959.379811
711.288819,3140.991542,1480.411884,6217.729913
711.289135,1762.019645,-814.226536,7994.224174
711.289450,536.266849,-2294.638420,9622.677246
711.289766,-1608.800546,-2812.782580,11103.089130
711.290082,-2604.724693,-2812.782580,12065.356855
711.290398,-2604.724693,-2368.659014,12583.501014
711.290713,-3140.991542,-1554.432478,12509.480420
711.291029,-3217.601092,-518.144159,11843.295072
711.291345,-1915.238745,296.082377,10732.986159
711.291660,-612.876398,-296.082377,10140.821405
711.291976,383.047749,-0.000000,8364.327145
711.292292,1532.190996,296.082377,7254.018232
711.292608,3370.820191,-0.000000,6957.935855
711.292923,3370.820191,1184.329507,6143.709319
711.293239,3140.991542,1554.432478,5995.668130
711.293555,2604.724693,518.144159,6883.915261
711.293871,1532.190996,-888.247130,8142.265362
711.294186,383.047749,-2072.576638,9770.718434
711.294502,-995.924147,-2220.617826,11029.068536
711.294818,-1608.800546,-2146.597232,12065.356855
711.295133,-2145.067394,-1554.432478,13175.665768
711.295449,-2374.896044,-592.164754,12583.501014
711.295765,-2451.505594,-74.020594,11991.336260
711.296081,-1608.800546,740.205942,11029.068536
711.296396,-153.219100,518.144159,10140.821405
711.296712,995.924147,444.123565,9252.574275
711.297028,2374.896044,370.102971,8364.327145
711.297344,2911.162892,444.123565,7476.080014
711.297659,3600.648841,1406.391290,6809.894666
711.297975,3524.039291,1998.556043,7254.018232
711.298291,2834.553343,1258.350101,7402.059420
711.298607,2604.724693,-0.000000,8586.388927
711.298922,1149.143247,-1110.308913,10140.821405
711.299238,0.000000,-1628.453072,11325.150913
711.299554,-919.314598,-1628.453072,11843.295072
711.299869,-1149.143247,-1332.370696,12509.480420
711.300185,-1762.019645,-444.123565,12435.459826
711.300501,-1762.019645,370.102971,11399.171507
711.300817,-842.705048,1406.391290,10732.986159
711.301132,229.828649,962.267725,9770.718434
711.301448,1455.581446,1184.329507,8586.388927
711.301764,2068.457845,962.267725,7328.038826
711.302080,2834.553343,592.164754,6957.935855
711.302395,3064.381992,444.123565,7105.977043
711.302711,2451.505594,444.123565,7105.977043
711.303027,1762.019645,-0.000000,7772.162391
711.303342,842.705048,-1184.329507,9178.553681
711.303658,-536.266849,-1702.473667,10214.842000
711.303974,-1762.019645,-1850.514855,10288.862594
711.304290,-2528.115143,-2516.700203,12213.398043
711.304605,-2451.505594,-1998.556043,13323.706956
711.304921,-2451.505594,-740.205942,12139.377449
711.305237,-2145.067394,666.185348,10955.047942
711.305553,-612.876398,740.205942,10362.883188
711.305868,842.705048,370.102971,9326.594869
711.306184,1915.238745,740.205942,7994.224174
711.306500,2528.115143,1258.350101,6587.832884
711.306816,3753.867940,1184.329507,6291.750507
711.307131,3600.648841,1480.411884,6143.709319
711.307447,2681.334243,888.247130,6513.812290
711.307763,2298.286494,-0.000000,7550.100608
711.308078,1225.752797,-1258.350101,9104.533087
711.308394,-689.485948,-1924.535449,9992.780217
711.308710,-1762.019645,-2368.659014,11399.171507
711.309026,-2681.334243,-2220.617826,12509.480420
711.309341,-2374.896044,-1554.432478,12361.439231
711.309657,-2604.724693,-592.164754,11917.315666
711.309973,-2221.676944,-148.041188,11769.274478
711.310289,-1225.752797,-0.000000,10955.047942
711.310604,842.705048,-74.020594,9252.574275
711.310920,1838.629195,370.102971,7698.141797
711.311236,2757.943793,1036.288319,6883.915261
711.311551,4060.306139,1702.473667,5773.606348
711.311867,3983.696590,2220.617826,5773.606348
711.312183,3294.210641,1776.494261,6069.688724
711.312499,2757.943793,814.226536,7105.977043
711.312814,1532.190996,-814.226536,8660.409521
711.313130,0.000000,-2072.576638,10436.903782
711.313446,-1685.410096,-2590.720797,11547.212695
711.313762,-3217.601092,-2368.659014,12657.521608
711.314077,-3140.991542,-1850.514855,12879.583391
711.314393,-3447.429741,-888.247130,12361.439231
711.314709,-2757.943793,-0.000000,12065.356855
711.315025,-1762.019645,-0.000000,11029.068536
711.315340,-383.047749,-0.000000,9622.677246
711.315656,612.876398,-222.061783,8142.265362
711.315972,2145.067394,-148.041188,7550.100608
711.316287,3217.601092,222.061783,6957.935855
711.316603,3524.039291,814.226536,6217.729913
711.316919,3217.601092,1036.288319,6809.894666
711.317235,1915.238745,-74.020594,7698.141797
711.317550,1838.629195,-1406.391290,8882.471304
711.317866,76.609550,-2368.659014,10362.883188
711.318183,-766.095498,-2516.700203,11695.253884
711.318499,-1685.410096,-2220.617826,12213.398043
711.318815,-2068.457845,-1480.411884,12435.459826
711.319130,-1915.238745,-222.061783,11917.315666
711.319446,-1455.581446,222.061783,11473.192101
711.319762,-383.047749,148.041188,10732.986159
711.320077,919.314598,666.185348,9326.594869
711.320393,1915.238745,296.082377,8068.244768
711.320709,2757.943793,222.061783,7402.059420
711.321024,3600.648841,888.247130,6735.874072
711.321340,3294.210641,1110.308913,6957.935855
711.321656,3294.210641,962.267725,7105.977043
711.321972,2528.115143,370.102971,7846.182985
711.322287,1762.019645,-222.061783,8882.471304
711.322603,459.657299,-1406.391290,10658.965565
711.322919,-919.314598,-1628.453072,11251.130318
711.323234,-1149.143247,-1258.350101,11991.336260
711.323550,-1608.800546,-814.226536,11621.233289
711.323866,-1532.190996,518.144159,11695.253884
711.324181,-995.924147,1184.329507,11029.068536
711.324497,153.219100,1184.329507,9844.739029
711.324813,1302.362347,962.267725,8512.368333
711.325129,1991.848295,740.205942,7994.224174
711.325444,2911.162892,814.226536,7254.018232
711.325760,4060.306139,666.185348,6143.709319
711.326076,3064.381992,1110.308913,7179.997637
711.326391,2298.286494,740.205942,7179.997637
711.326707,1608.800546,-148.041188,8068.244768
711.327023,459.657299,-1702.473667,9474.636058
711.327338,-1302.362347,-2146.597232,10732.986159
711.327654,-2451.505594,-2368.659014,12213.398043
711.327970,-2528.115143,-2072.576638,12361.439231
711.328285,-2451.505594,-888.247130,12361.439231
711.328601,-2451.505594,-0.000000,11843.295072
711.328917,-1608.800546,592.164754,10658.965565
711.329233,-383.047749,592.164754,9622.677246
711.329548,842.705048,296.082377,9474.636058
711.329864,1915.238745,444.123565,8142.265362
711.330180,2987.772442,740.205942,6439.791695
711.330495,4596.572988,1998.556043,5625.565159
711.330811,3294.210641,962.267725,6439.791695
711.331127,2604.724693,814.226536,6883.915261
711.331442,1532.190996,-0.000000,7772.162391
711.331758,306.438199,-1258.350101,9622.677246
711.332074,-1225.752797,-2368.659014,11103.089130
711.332390,-2528.115143,-2664.741391,11917.315666
711.332705,-2911.162892,-2368.659014,13249.686362
711.333021,-3064.381992,-1554.432478,13249.686362
711.333337,-2987.772442,-444.123565,12435.459826
711.333652,-1915.238745,444.123565,11325.150913
711.333968,-612.876398,888.247130,10807.006753
711.334284,1072.533697,740.205942,9474.636058
711.334599,2298.286494,1110.308913,7550.100608
711.334915,3600.648841,1184.329507,6587.832884
711.335231,4366.744339,1628.453072,6587.832884
711.335547,3830.477490,1850.514855,6365.771101
711.335862,2987.772442,1480.411884,6883.915261
711.336178,2451.505594,222.061783,8290.306550
711.336494,1608.800546,-888.247130,9548.656652
711.336809,-612.876398,-1554.432478,10584.944971
711.337125,-1838.629195,-2368.659014,11769.274478
711.337441,-2451.505594,-2590.720797,13249.686362
711.337756,-2911.162892,-2072.576638,13027.624579
711.338072,-3370.820191,-1036.288319,13027.624579
711.338388,-2451.505594,-0.000000,11843.295072
711.338704,-1225.752797,-0.000000,10510.924376
711.339019,229.828649,-148.041188,9252.574275
711.339335,1072.533697,-370.102971,8068.244768
711.339651,2145.067394,222.061783,6809.894666
711.339966,3677.258390,592.164754,6069.688724
711.340282,3370.820191,370.102971,6217.729913
711.340598,2451.505594,1332.370696,6661.853478
711.340913,2374.896044,-444.123565,7550.100608
711.341229,1072.533697,-1776.494261,9326.594869
711.341545,-153.219100,-2146.597232,10362.883188
711.341860,-1532.190996,-2516.700203,11029.068536
711.342176,-1838.629195,-2516.700203,12065.356855
711.342492,-1991.848295,-1702.473667,12213.398043
711.342808,-1991.848295,-296.082377,11695.253884
711.343123,-689.485948,296.082377,11103.089130
711.343439,0.000000,888.247130,9844.739029
711.343755,1532.190996,1110.308913,8882.471304
711.344070,2528.115143,962.267725,7402.059420
711.344386,3677.258390,1184.329507,6661.853478
711.344702,3830.477490,1924.535449,5625.565159
711.345017,3370.820191,1702.473667,6069.688724
711.345333,2451.505594,592.164754,7105.977043
711.345649,2374.896044,-296.082377,8438.347739
711.345965,995.924147,-1332.370696,9696.697840
711.346280,-383.047749,-1554.432478,11029.068536
711.346596,-1455.581446,-1406.391290,11547.212695
711.346912,-1915.238745,-1332.370696,12435.459826
711.347227,-1762.019645,-148.041188,12731.542202
711.347543,-1762.019645,888.247130,11843.295072
711.347859,-1302.362347,1702.473667,10658.965565
711.348174,536.266849,1924.535449,9844.739029
711.348490,1685.410096,1406.391290,8808.450710
711.348806,2145.067394,962.267725,7476.080014
711.349122,3294.210641,740.205942,6883.915261
711.349437,3217.601092,962.267725,6365.771101
711.349753,2757.943793,1554.432478,7179.997637
711.350069,2221.676944,1406.391290,7550.100608
711.350384,1455.581446,-0.000000,8364.327145
711.350700,-153.219100,-962.267725,10436.903782
711.351016,-1762.019645,-1924.535449,11325.150913
711.351331,-2528.115143,-2294.638420,11843.295072
711.351647,-2451.505594,-2590.720797,13471.748144
711.351963,-3064.381992,-1332.370696,13101.645173
711.352279,-2604.724693,-148.041188,12435.459826
711.352594,-1685.410096,296.082377,11621.233289
711.352910,-229.828649,296.082377,10288.862594
711.353226,1225.752797,518.144159,9178.553681
711.353541,2145.067394,518.144159,7698.141797
711.353857,3140.991542,962.267725,6809.894666
711.354173,3294.210641,1480.411884,6735.874072
711.354488,2834.553343,1332.370696,6069.688724
711.354804,2681.334243,1036.288319,7328.038826
711.355120,1608.800546,-592.164754,8586.388927
711.355435,0.000000,-2072.576638,9992.780217
711.355751,-1455.581446,-3108.864956,11399.171507
711.356067,-2681.334243,-3182.885551,12509.480420
711.356383,-2604.724693,-2738.761985,13471.748144
711.356698,-2604.724693,-1406.391290,12583.501014
711.357014,-2298.286494,148.041188,11843.295072
711.357330,-1455.581446,592.164754,11177.109724
711.357645,229.828649,-0.000000,10066.800811
711.357961,1762.019645,888.247130,7772.162391
711.358277,2604.724693,666.185348,6883.915261
711.358592,3753.867940,888.247130,5995.668130
711.358908,4290.134789,1184.329507,5625.565159
711.359224,3753.867940,814.226536,6143.709319
711.359540,2757.943793,-148.041188,7254.018232
711.359855,1685.410096,-1406.391290,8290.306550
711.360171,306.438199,-1924.535449,9992.780217
711.360487,-1685.410096,-2294.638420,10881.027347
711.360802,-2221.676944,-2664.741391,11843.295072
711.361118,-3294.210641,-2368.659014,12731.542202
711.361434,-3064.381992,-1628.453072,12361.439231
711.361749,-2681.334243,-370.102971,11843.295072
711.362065,-1378.971896,74.020594,10288.862594
711.362381,-76.609550,-222.061783,9178.553681
711.362697,919.314598,-592.164754,8142.265362
711.363012,1762.019645,-666.185348,6957.935855
711.363328,2757.943793,-222.061783,5847.626942
711.363644,3064.381992,-0.000000,5773.606348
711.363959,2681.334243,-0.000000,6217.729913
711.364275,2145.067394,-74.020594,6883.915261
711.364591,1149.143247,-1406.391290,8290.306550
711.364906,-153.219100,-2442.679609,9844.739029
711.365222,-1762.019645,-3256.906145,11103.089130
711.365538,-2451.505594,-2812.782580,11843.295072
711.365854,-2298.286494,-2368.659014,12657.521608
711.366169,-2681.334243,-1184.329507,12287.418637
711.366485,-2221.676944,74.020594,11843.295072
711.366801,-842.705048,1184.329507,10584.944971
711.367116,689.485948,962.267725,9474.636058
711.367432,1991.848295,1036.288319,8142.265362
711.367748,2757.943793,1332.370696,7031.956449
711.368063,4290.134789,1776.494261,6069.688724
711.368379,4596.572988,2220.617826,6069.688724
711.368695,3677.258390,2294.638420,6587.832884
711.369010,2911.162892,1702.473667,7254.018232
711.369326,2145.067394,-74.020594,8808.450710
711.369642,536.266849,-666.185348,10658.965565
711.369958,-1302.362347,-1184.329507,11843.295072
711.370273,-1762.019645,-888.247130,12139.377449
711.370589,-2298.286494,-1110.308913,13027.624579
711.370905,-2298.286494,-0.000000,13323.706956
711.371220,-1762.019645,962.267725,12213.398043
711.371536,-766.095498,1998.556043,11029.068536
711.371852,919.314598,1850.514855,9918.759623
711.372167,2145.067394,1406.391290,8586.388927
711.372483,2987.772442,1850.514855,7624.121203
711.372799,3907.087040,2516.700203,6365.771101
711.373115,4136.915689,2294.638420,6069.688724
711.373430,3524.039291,1924.535449,6439.791695
711.373746,2604.724693,1036.288319,7994.224174
711.374062,1455.581446,-518.144159,9178.553681
711.374377,-459.657299,-1110.308913,10732.986159
711.374693,-1915.238745,-1924.535449,11843.295072
711.375009,-2757.943793,-2072.576638,12879.583391
711.375324,-2987.772442,-2072.576638,13841.851115
711.375640,-2681.334243,-666.185348,13027.624579
711.375956,-2451.505594,-0.000000,11843.295072
711.376272,-1225.752797,370.102971,11399.171507
711.376587,0.000000,222.061783,9918.759623
711.376903,1455.581446,222.061783,8290.306550
711.377219,2451.505594,740.205942,7179.997637
711.377534,3447.429741,962.267725,6439.791695
711.377850,3524.039291,1554.432478,6069.688724
711.378166,2834.553343,962.267725,6513.812290
711.378481,2221.676944,-74.020594,7402.059420
711.378797,1072.533697,-1628.453072,8882.471304
711.379113,-459.657299,-2590.720797,10140.821405
711.379429,-2298.286494,-3182.885551,11547.212695
711.379744,-2681.334243,-2960.823768,12657.521608
711.380060,-2757.943793,-2220.617826,12953.603985
711.380376,-2604.724693,-1036.288319,12139.377449
711.380691,-2221.676944,-74.020594,11917.315666
711.381007,-1149.143247,-0.000000,10436.903782
711.381323,612.876398,296.082377,9252.574275
711.381638,2145.067394,148.041188,7698.141797
711.381954,3370.820191,222.061783,6291.750507
711.382270,3983.696590,1332.370696,5625.565159
711.382585,4366.744339,1406.391290,5625.565159
711.382901,3140.991542,888.247130,5995.668130
711.383217,3064.381992,-0.000000,7179.997637
711.383533,1072.533697,-1332.370696,8660.409521
711.383848,-612.876398,-2368.659014,10140.821405
711.384164,-2221.676944,-2960.823768,11769.274478
711.384480,-2987.772442,-3182.885551,12805.562797
711.384795,-2834.553343,-2738.761985,12953.603985
711.385111,-3064.381992,-1036.288319,12065.356855
711.385427,-2374.896044,-0.000000,11103.089130
711.385742,-842.705048,222.061783,10214.842000
711.386058,612.876398,222.061783,8808.450710
711.386374,1915.238745,444.123565,8438.347739
711.386690,2987.772442,-0.000000,6661.853478
711.387005,3370.820191,592.164754,5995.668130
711.387321,3600.648841,888.247130,5551.544565
711.387637,3294.210641,1110.308913,6439.791695
711.387952,1991.848295,-0.000000,7402.059420
711.388268,459.657299,-1332.370696,8956.491898
711.388584,-1302.362347,-2590.720797,10362.883188
711.388899,-3064.381992,-3256.906145,11769.274478
711.389215,-3294.210641,-3478.967927,13323.706956
711.389531,-3524.039291,-2664.741391,13471.748144
711.389847,-3294.210641,-1406.391290,13175.665768
711.390162,-2451.505594,-0.000000,11917.315666
711.390478,-689.485948,592.164754,10510.924376
711.390794,1378.971896,814.226536,8956.491898
711.391109,2145.067394,1332.370696,7328.038826
711.391425,3753.867940,1702.473667,6365.771101
711.391741,5056.230287,1850.514855,5773.606348
711.392056,4749.792088,1998.556043,5921.647536
711.392372,4060.306139,2294.638420,7031.956449
711.392688,3294.210641,888.247130,7772.162391
711.393004,2068.457845,-222.061783,9400.615463
711.393319,153.219100,-592.164754,10732.986159
711.393635,-1149.143247,-1036.288319,11769.274478
711.393951,-1685.410096,-1628.453072,13249.686362
711.394266,-2451.505594,-592.164754,13693.809927
711.394582,-2298.286494,740.205942,13101.645173
711.394898,-1455.581446,1776.494261,11547.212695
711.395213,-536.266849,1702.473667,11177.109724
711.395529,1225.752797,1258.350101,9918.759623
711.395845,2374.896044,1406.391290,8142.265362
711.396160,2987.772442,1628.453072,6883.915261
711.396476,3907.087040,1332.370696,7105.977043
711.396792,3907.087040,1850.514855,6661.853478
711.397108,2911.162892,2368.659014,6883.915261
711.397423,2068.457845,740.205942,7846.182985
711.397739,1072.533697,-148.041188,9622.677246
711.398055,-995.924147,-1258.350101,10066.800811
711.398370,-1991.848295,-2220.617826,11399.171507
711.398686,-2451.505594,-2368.659014,13101.645173
711.399002,-3064.381992,-1554.432478,13249.686362
711.399317,-2911.162892,-592.164754,12361.439231
711.399633,-1991.848295,296.082377,11769.274478
711.399949,-612.876398,444.123565,10955.047942
711.400265,689.485948,222.061783,9252.574275
711.400580,1685.410096,666.185348,7402.059420
711.400896,2757.943793,296.082377,6883.915261
711.401212,3370.820191,740.205942,6365.771101
711.401527,3753.867940,1258.350101,6291.750507
711.401843,2681.334243,1036.288319,6291.750507
711.402159,1762.019645,-518.144159,7402.059420
711.402474,383.047749,-2146.597232,9400.615463
711.402790,-1072.533697,-2960.823768,11103.089130
711.403106,-2451.505594,-2886.803174,11991.336260
711.403422,-2834.553343,-2738.761985,12805.562797
711.403737,-2834.553343,-1554.432478,12583.501014
711.404053,-2374.896044,-296.082377,11843.295072
711.404369,-1225.752797,296.082377,11103.089130
711.404684,459.657299,740.205942,9696.697840
711.405000,1915.238745,370.102971,7920.203579
711.405316,2757.943793,518.144159,7179.997637
711.405631,3524.039291,518.144159,6217.729913
711.405947,4519.963438,1184.329507,5329.482782
711.406263,3907.087040,1332.370696,5921.647536
711.406579,2757.943793,296.082377,6439.791695
711.406894,1915.238745,-740.205942,7772.162391
711.407210,229.828649,-2294.638420,9548.656652
711.407526,-1685.410096,-3034.844362,11029.068536
711.407841,-2757.943793,-2886.803174,12287.418637
711.408157,-2604.724693,-2516.700203,12361.439231
711.408473,-3140.991542,-1184.329507,12435.459826
711.408788,-3140.991542,-518.144159,11843.295072
711.409104,-1915.238745,-222.061783,11251.130318
711.409420,-383.047749,-222.061783,10140.821405
711.409735,995.924147,-74.020594,8290.306550
711.410051,1991.848295,-296.082377,7402.059420
711.410367,3064.381992,-518.144159,6809.894666
711.410683,3600.648841,814.226536,5995.668130
711.410998,3217.601092,962.267725,5995.668130
711.411314,2451.505594,666.185348,7031.956449
711.411630,1762.019645,-666.185348,7920.203579
711.411945,76.609550,-1702.473667,9622.677246
711.412261,-1378.971896,-2664.741391,11177.109724
711.412577,-2451.505594,-3404.947333,11843.295072
711.412892,-2987.772442,-3108.864956,13027.624579
711.413208,-3370.820191,-1332.370696,13027.624579
711.413524,-3064.381992,-592.164754,12509.480420
711.413840,-1532.190996,592.164754,11695.253884
711.414155,0.000000,222.061783,10362.883188
711.414471,1302.362347,370.102971,9178.553681
711.414787,2451.505594,666.185348,7698.141797
711.415102,3753.867940,1480.411884,6439.791695
711.415418,4596.572988,1924.535449,6513.812290
711.415734,3983.696590,2146.597232,6439.791695
711.416049,3370.820191,1998.556043,7105.977043
711.416365,2451.505594,888.247130,8364.327145
711.416681,1072.533697,-444.123565,9770.718434
711.416997,-612.876398,-1110.308913,10881.027347
711.417312,-1532.190996,-1110.308913,11843.295072
711.417628,-1991.848295,-1036.288319,13027.624579
711.417944,-1838.629195,-222.061783,12805.562797
711.418259,-1532.190996,1110.308913,11843.295072
711.418575,-1149.143247,1702.473667,10881.027347
711.418891,383.047749,1480.411884,10436.903782
711.419206,1762.019645,1184.329507,9104.533087
711.419522,2374.896044,1110.308913,7624.121203
711.419838,3370.820191,1184.329507,6957.935855
711.420153,3907.087040,1850.514855,6439.791695
711.420469,3370.820191,2146.597232,6513.812290
711.420785,3217.601092,1776.494261,7254.018232
711.421100,1685.410096,-222.061783,8660.409521
711.421416,536.266849,-592.164754,9770.718434
711.421731,-1225.752797,-1036.288319,10584.944971
711.422047,-2298.286494,-1850.514855,11991.336260
711.422363,-2374.896044,-1702.473667,13027.624579
711.422678,-2757.943793,-740.205942,12657.521608
711.422994,-2834.553343,-0.000000,11843.295072
711.423310,-1149.143247,-0.000000,11177.109724
711.423625,76.609550,-148.041188,9548.656652
711.423941,1455.581446,518.144159,9104.533087
711.424257,2145.067394,-0.000000,7550.100608
711.424572,2987.772442,296.082377,6439.791695
711.424888,3524.039291,1110.308913,6291.750507
711.425203,2987.772442,962.267725,6365.771101
711.425519,2451.505594,-148.041188,7550.100608
711.425835,1455.581446,-1036.288319,8512.368333
711.426150,0.000000,-1776.494261,9474.636058
711.426466,-1455.581446,-2368.659014,11103.089130
711.426782,-2374.896044,-2590.720797,11917.315666
711.427097,-2298.286494,-1924.535449,12509.480420
711.427413,-3064.381992,-888.247130,12657.521608
711.427729,-2298.286494,-148.041188,11843.295072
711.428044,-995.924147,666.185348,10584.944971
711.428360,383.047749,518.144159,9474.636058
711.428675,1685.410096,222.061783,8364.327145
711.428991,2604.724693,444.123565,6957.935855
711.429307,3830.477490,518.144159,6661.853478
711.429622,3753.867940,888.247130,6217.729913
711.429938,3064.381992,518.144159,6513.812290
711.430254,2757.943793,-0.000000,7550.100608
711.430569,1072.533697,-296.082377,8734.430116
711.430885,-229.828649,-1480.411884,10436.903782
711.431201,-1762.019645,-1924.535449,10881.027347
711.431516,-2451.505594,-2442.679609,11991.336260
711.431832,-2757.943793,-2368.659014,13175.665768
711.432147,-2528.115143,-1702.473667,12731.542202
711.432463,-2451.505594,-222.061783,11547.212695
711.432779,-1225.752797,370.102971,10955.047942
711.433094,306.438199,148.041188,9400.615463
711.433410,1532.190996,148.041188,7994.224174
711.433726,1915.238745,370.102971,6809.894666
711.434041,2681.334243,296.082377,6809.894666
711.434357,2911.162892,-0.000000,6809.894666
711.434673,2374.896044,592.164754,6957.935855
711.434988,1762.019645,-148.041188,7698.141797
711.435304,766.095498,-1110.308913,8956.491898
711.435619,-229.828649,-2368.659014,10066.800811
711.435935,-2221.676944,-2590.720797,10955.047942
711.436251,-2451.505594,-2960.823768,12435.459826
711.436566,-2834.553343,-2738.761985,13175.665768
711.436882,-2604.724693,-1702.473667,12509.480420
711.437198,-2221.676944,-592.164754,11547.212695
711.437513,-612.876398,-0.000000,10807.006753
711.437829,995.924147,148.041188,9252.574275
711.438145,1608.800546,518.144159,7550.100608
711.438460,2987.772442,1184.329507,7105.977043
711.438776,3907.087040,1110.308913,6365.771101
711.439091,3830.477490,1702.473667,5329.482782
711.439407,3294.210641,1776.494261,7328.038826
711.439723,2834.553343,592.164754,8142.265362
711.440038,2298.286494,-0.000000,8808.450710
711.440354,766.095498,-444.123565,9696.697840
711.440670,-612.876398,-1406.391290,10362.883188
711.440985,-1072.533697,-1332.370696,12361.439231
711.441301,-1455.581446,-740.205942,12509.480420
711.441617,-1455.581446,370.102971,11917.315666
711.441932,-1378.971896,1406.391290,11103.089130
711.442248,0.000000,1406.391290,10288.862594
711.442563,1225.752797,1406.391290,9400.615463
711.442879,2145.067394,1480.411884,8364.327145
711.443195,2604.724693,1850.514855,7179.997637
711.443510,3600.648841,1628.453072,6883.915261
711.443826,3677.258390,1480.411884,7031.956449
711.444142,2451.505594,1850.514855,7476.080014
711.444457,1685.410096,740.205942,8068.244768
711.444773,842.705048,-222.061783,9474.636058
711.445089,-766.095498,-1258.350101,10881.027347
711.445404,-1838.629195,-1406.391290,11621.233289
711.445720,-2068.457845,-1850.514855,12139.377449
711.446035,-1991.848295,-962.267725,12731.542202
711.446351,-2298.286494,-148.041188,12139.377449
711.446667,-1302.362347,592.164754,10658.965565
711.446982,-306.438199,814.226536,10140.821405
711.447298,995.924147,370.102971,9474.636058
711.447614,1991.848295,222.061783,8438.347739
711.447929,2834.553343,370.102971,7254.018232
711.448245,2681.334243,814.226536,6883.915261
711.448561,2911.162892,296.082377,6883.915261
711.448876,2374.896044,518.144159,7698.141797
711.449192,1225.752797,-0.000000,8216.285956
711.449507,459.657299,-1406.391290,9104.533087
711.449823,-612.876398,-2072.576638,10510.924376
711.450139,-1991.848295,-2590.720797,11621.233289
711.450454,-2451.505594,-2516.700203,12879.583391
711.450770,-2451.505594,-1702.473667,12953.603985
711.451086,-2298.286494,-962.267725,11991.336260
711.451401,-1532.190996,-0.000000,11547.212695
711.451717,0.000000,518.144159,10066.800811
711.452033,1532.190996,666.185348,8660.409521
711.452348,2298.286494,666.185348,7846.182985
711.452664,3524.039291,666.185348,6439.791695
711.452979,4213.525239,1480.411884,5995.668130
711.453295,3753.867940,1332.370696,6143.709319
711.453611,2911.162892,666.185348,7179.997637
711.453926,1762.019645,-222.061783,8290.306550
711.454242,689.485948,-1554.432478,9252.574275
711.454558,-1072.533697,-2072.576638,10584.944971
711.454873,-1915.238745,-2516.700203,11547.212695
711.455189,-2298.286494,-2516.700203,12213.398043
711.455505,-2528.115143,-1702.473667,11917.315666
711.455820,-2528.115143,-740.205942,11621.233289
711.456136,-2145.067394,-148.041188,10807.006753
711.456451,-229.828649,-296.082377,9844.739029
711.456767,842.705048,-222.061783,8660.409521
