#time,accel_x,accel_y,accel_z
1195.688959,459.657299,-0.000000,9474.636058
1195.689275,459.657299,-74.020594,9474.636058
1195.689591,919.314598,-370.102971,9474.636058
1195.689907,306.438199,-148.041188,9400.615463
1195.690222,383.047749,-222.061783,9400.615463
1195.690538,459.657299,-0.000000,9474.636058
1195.690854,383.047749,-222.061783,9474.636058
1195.691170,536.266849,-444.123565,9474.636058
1195.691485,459.657299,-222.061783,9400.615463
1195.691801,306.438199,-222.061783,9474.636058
1195.692117,383.047749,-148.041188,9474.636058
1195.692433,459.657299,-74.020594,9474.636058
1195.692749,306.438199,-222.061783,9474.636058
1195.693064,536.266849,-148.041188,9548.656652
1195.693380,306.438199,-222.061783,9474.636058
1195.693696,306.438199,-148.041188,9474.636058
1195.694012,459.657299,-444.123565,9474.636058
1195.694328,536.266849,-222.061783,9696.697840
1195.694643,842.705048,-0.000000,9474.636058
1195.694959,383.047749,-74.020594,9474.636058
1195.695275,459.657299,296.082377,9474.636058
1195.695591,229.828649,370.102971,9548.656652
1195.695907,536.266849,444.123565,9252.574275
1195.696222,612.876398,518.144159,9400.615463
1195.696538,536.266849,370.102971,9400.615463
1195.696854,536.266849,740.205942,9252.574275
1195.697170,306.438199,-0.000000,9400.615463
1195.697486,689.485948,148.041188,9474.636058
1195.697801,842.705048,-0.000000,9474.636058
1195.698117,459.657299,296.082377,9548.656652
1195.698433,383.047749,666.185348,9696.697840
1195.698749,459.657299,222.061783,9548.656652
1195.699065,536.266849,592.164754,9474.636058
1195.699380,383.047749,888.247130,9178.553681
1195.699696,383.047749,1184.329507,9548.656652
1195.700012,306.438199,1036.288319,9474.636058
1195.700328,536.266849,1036.288319,9178.553681
1195.700644,306.438199,1036.288319,9178.553681
1195.700959,153.219100,666.185348,9400.615463
1195.701275,76.609550,518.144159,9696.697840
1195.701591,-306.438199,888.247130,9548.656652
1195.701907,0.000000,1258.350101,9548.656652
1195.702223,-306.438199,1036.288319,9474.636058
1195.702538,-536.266849,1332.370696,9474.636058
1195.702854,0.000000,1480.411884,9252.574275
1195.703170,-689.485948,1628.453072,9326.594869
1195.703486,-842.705048,1554.432478,9474.636058
1195.703801,-1302.362347,1554.432478,9474.636058
1195.704117,-1378.971896,1628.453072,9622.677246
1195.704433,-1532.190996,1702.473667,9770.718434
1195.704749,-2145.067394,1628.453072,9548.656652
1195.705065,-2145.067394,1258.350101,9548.656652
1195.705380,-2145.067394,1480.411884,9696.697840
1195.705696,-2451.505594,1702.473667,9548.656652
1195.706012,-2451.505594,1776.494261,9844.739029
1195.706328,-2221.676944,1998.556043,9474.636058
1195.706644,-1991.848295,1850.514855,9474.636058
1195.706959,-1991.848295,1776.494261,9622.677246
1195.707275,-2221.676944,1184.329507,9548.656652
1195.707591,-1608.800546,1702.473667,9770.718434
1195.707907,-1685.410096,1702.473667,9696.697840
1195.708223,-1608.800546,1776.494261,9548.656652
1195.708538,-1455.581446,1850.514855,9474.636058
1195.708854,-1225.752797,1998.556043,9474.636058
1195.709170,-1378.971896,2220.617826,9326.594869
1195.709486,-1378.971896,2442.679609,9252.574275
1195.709802,-1225.752797,2368.659014,9252.574275
1195.710117,-1455.581446,2368.659014,9474.636058
1195.710433,-1838.629195,1702.473667,9030.512492
1195.710749,-2068.457845,1258.350101,9548.656652
1195.711065,-2221.676944,1110.308913,9622.677246
1195.711381,-1915.238745,1184.329507,9696.697840
1195.711696,-2068.457845,1258.350101,9844.739029
1195.712012,-1762.019645,1184.329507,9548.656652
1195.712328,-2298.286494,1332.370696,9696.697840
1195.712644,-2298.286494,1406.391290,9548.656652
1195.712960,-2145.067394,1184.329507,9622.677246
1195.713275,-1991.848295,1406.391290,9622.677246
1195.713591,-1915.238745,1406.391290,9918.759623
1195.713907,-1838.629195,1036.288319,9400.615463
1195.714223,-2068.457845,1702.473667,9622.677246
1195.714539,-1915.238745,1554.432478,9030.512492
1195.714854,-1915.238745,2072.576638,8734.430116
1195.715170,-2068.457845,2368.659014,8882.471304
1195.715486,-2221.676944,2294.638420,8956.491898
1195.715802,-2221.676944,2294.638420,9104.533087
1195.716118,-2604.724693,1628.453072,9474.636058
1195.716433,-2298.286494,814.226536,9548.656652
1195.716749,-2681.334243,666.185348,9992.780217
1195.717065,-2451.505594,148.041188,10436.903782
1195.717381,-2068.457845,-0.000000,10436.903782
1195.717696,-1762.019645,296.082377,10214.842000
1195.718012,-689.485948,-0.000000,10066.800811
1195.718328,-536.266849,888.247130,9548.656652
1195.718644,0.000000,2442.679609,8882.471304
1195.718960,459.657299,2812.782580,8512.368333
1195.719275,383.047749,2590.720797,8290.306550
1195.719591,766.095498,3182.885551,7920.203579
1195.719907,689.485948,3034.844362,7994.224174
1195.720223,306.438199,2812.782580,7476.080014
1195.720539,-536.266849,2590.720797,8290.306550
1195.720854,-1378.971896,2368.659014,8734.430116
1195.721170,-2145.067394,2294.638420,9326.594869
1195.721486,-3064.381992,1406.391290,10140.821405
1195.721802,-3524.039291,814.226536,10510.924376
1195.722118,-3907.087040,592.164754,10807.006753
1195.722433,-4136.915689,-0.000000,11399.171507
1195.722749,-3140.991542,-0.000000,11177.109724
1195.723065,-2757.943793,-74.020594,10881.027347
1195.723381,-2145.067394,222.061783,10436.903782
1195.723697,-995.924147,1036.288319,9696.697840
1195.724012,0.000000,1332.370696,9474.636058
1195.724328,612.876398,2368.659014,8660.409521
1195.724644,1072.533697,3182.885551,8068.244768
1195.724960,995.924147,4145.153275,7772.162391
1195.725276,1225.752797,5033.400406,7550.100608
1195.725591,536.266849,4959.379811,7254.018232
1195.725907,0.000000,4737.318029,7476.080014
1195.726223,-1378.971896,3923.091493,7920.203579
1195.726539,-2757.943793,2738.761985,9104.533087
1195.726855,-3600.648841,1110.308913,10362.883188
1195.727170,-4443.353888,-0.000000,11547.212695
1195.727486,-5362.668486,-814.226536,11917.315666
1195.727802,-5669.106685,-1332.370696,12583.501014
1195.728118,-5362.668486,-1628.453072,12731.542202
1195.728434,-4673.182538,-1184.329507,12287.418637
1195.728749,-3524.039291,-74.020594,11399.171507
1195.729065,-2221.676944,1406.391290,10362.883188
1195.729381,-536.266849,2664.741391,8660.409521
1195.729697,995.924147,4367.215058,7031.956449
1195.730012,1532.190996,5477.523971,6217.729913
1195.730328,1378.971896,5995.668130,5995.668130
1195.730644,1225.752797,5699.585753,6439.791695
1195.730960,459.657299,5033.400406,7105.977043
1195.731276,-766.095498,3627.009116,7698.141797
1195.731591,-2221.676944,1776.494261,9548.656652
1195.731907,-3524.039291,-0.000000,10955.047942
1195.732223,-4213.525239,-888.247130,11991.336260
1195.732539,-4673.182538,-1184.329507,12657.521608
1195.732855,-4903.011187,-518.144159,12657.521608
1195.733170,-4673.182538,-0.000000,11547.212695
1195.733486,-4060.306139,888.247130,10732.986159
1195.733802,-2757.943793,1776.494261,9918.759623
1195.734118,-1455.581446,2812.782580,8808.450710
1195.734434,-766.095498,3923.091493,8438.347739
1195.734749,76.609550,3923.091493,7550.100608
1195.735065,76.609550,3330.926739,7698.141797
1195.735381,766.095498,3182.885551,8068.244768
1195.735697,842.705048,2368.659014,8068.244768
1195.736013,383.047749,2368.659014,8512.368333
1195.736328,0.000000,2516.700203,8586.388927
1195.736644,-995.924147,1924.535449,9252.574275
1195.736960,-1302.362347,1332.370696,10140.821405
1195.737276,-1915.238745,1110.308913,10362.883188
1195.737592,-2451.505594,1480.411884,9918.759623
1195.737907,-3524.039291,814.226536,10066.800811
1195.738223,-3447.429741,-0.000000,10510.924376
1195.738539,-2911.162892,296.082377,10436.903782
1195.738855,-2528.115143,1036.288319,9696.697840
1195.739171,-2757.943793,962.267725,9252.574275
1195.739486,-2451.505594,1184.329507,8882.471304
1195.739802,-1608.800546,1480.411884,8882.471304
1195.740118,-1838.629195,2146.597232,9326.594869
1195.740434,-1608.800546,2146.597232,9474.636058
1195.740750,-1302.362347,2072.576638,9474.636058
1195.741065,-1072.533697,1924.535449,9178.553681
1195.741381,-842.705048,1776.494261,9178.553681
1195.741697,-689.485948,1332.370696,9104.533087
1195.742013,-995.924147,888.247130,9178.553681
1195.742328,-306.438199,518.144159,9770.718434
1195.742644,-919.314598,962.267725,9326.594869
1195.742960,-1455.581446,1554.432478,9326.594869
1195.743276,-995.924147,1702.473667,9474.636058
1195.743592,-1072.533697,2442.679609,9474.636058
1195.743907,-995.924147,3108.864956,9030.512492
1195.744223,-1149.143247,3404.947333,8512.368333
1195.744539,-1378.971896,2590.720797,8882.471304
1195.744855,-1991.848295,2220.617826,9252.574275
1195.745171,-2145.067394,1628.453072,9918.759623
1195.745486,-2451.505594,888.247130,10658.965565
1195.745802,-2681.334243,518.144159,10955.047942
1195.746118,-2911.162892,888.247130,10732.986159
1195.746434,-2681.334243,740.205942,10362.883188
1195.746750,-2451.505594,296.082377,10807.006753
1195.747065,-1455.581446,1036.288319,9844.739029
1195.747381,-689.485948,2072.576638,9326.594869
1195.747697,0.000000,2590.720797,8882.471304
1195.748012,459.657299,2368.659014,8586.388927
1195.748328,383.047749,3330.926739,7772.162391
1195.748644,459.657299,3552.988522,7179.997637
1195.748959,0.000000,2590.720797,7328.038826
1195.749275,-612.876398,3182.885551,8438.347739
1195.749591,-1762.019645,3182.885551,8660.409521
1195.749906,-2298.286494,2368.659014,9326.594869
1195.750222,-3524.039291,1702.473667,10288.862594
1195.750538,-4213.525239,1184.329507,10732.986159
1195.750853,-4596.572988,1036.288319,10807.006753
1195.751169,-4903.011187,-148.041188,10881.027347
1195.751485,-5209.449386,444.123565,11769.274478
1195.751800,-4443.353888,222.061783,10807.006753
1195.752116,-3677.258390,-0.000000,11103.089130
1195.752432,-2987.772442,1110.308913,10732.986159
1195.752747,-1608.800546,1406.391290,8882.471304
1195.753063,-842.705048,1776.494261,8660.409521
1195.753379,-459.657299,2368.659014,8290.306550
1195.753694,383.047749,3775.050304,7846.182985
1195.754010,1378.971896,3997.112087,7402.059420
1195.754326,919.314598,3701.029710,7402.059420
1195.754641,536.266849,3404.947333,7624.121203
1195.754957,0.000000,2738.761985,7772.162391
1195.755273,-1378.971896,1998.556043,8808.450710
1195.755588,-1991.848295,1258.350101,10510.924376
1195.755904,-1915.238745,370.102971,11029.068536
1195.756220,-2451.505594,666.185348,10288.862594
1195.756535,-3447.429741,-0.000000,11251.130318
1195.756851,-3753.867940,-740.205942,11103.089130
1195.757167,-3370.820191,-296.082377,11029.068536
1195.757483,-2681.334243,962.267725,9992.780217
1195.757798,-1302.362347,1850.514855,10288.862594
1195.758114,-766.095498,2294.638420,8660.409521
1195.758430,-306.438199,2886.803174,8512.368333
1195.758745,-229.828649,3256.906145,7846.182985
1195.759061,306.438199,2960.823768,7994.224174
1195.759377,536.266849,2812.782580,8956.491898
1195.759692,459.657299,2442.679609,9030.512492
1195.760008,0.000000,1036.288319,9326.594869
1195.760324,-536.266849,1406.391290,9252.574275
1195.760639,-1225.752797,444.123565,10288.862594
1195.760955,-842.705048,444.123565,9918.759623
1195.761271,-766.095498,1628.453072,10510.924376
1195.761586,-1072.533697,1110.308913,8956.491898
1195.761902,-1915.238745,1258.350101,10214.842000
1195.762218,-2221.676944,666.185348,10584.944971
1195.762533,-2298.286494,592.164754,9252.574275
1195.762849,-1838.629195,1480.411884,9844.739029
1195.763165,-1915.238745,814.226536,9400.615463
1195.763480,-2374.896044,962.267725,8956.491898
1195.763796,-2451.505594,888.247130,9622.677246
1195.764112,-1762.019645,-0.000000,9474.636058
1195.764427,-1225.752797,888.247130,10140.821405
1195.764743,-1608.800546,296.082377,9844.739029
1195.765059,-1991.848295,-148.041188,9474.636058
1195.765374,-1685.410096,-0.000000,9622.677246
1195.765690,-995.924147,296.082377,10510.924376
1195.766006,229.828649,296.082377,9770.718434
1195.766321,76.609550,1332.370696,8586.388927
1195.766637,-229.828649,740.205942,9178.553681
1195.766953,76.609550,666.185348,9178.553681
1195.767268,1072.533697,370.102971,9252.574275
1195.767584,766.095498,2072.576638,8438.347739
1195.767900,766.095498,2516.700203,8512.368333
1195.768215,383.047749,1998.556043,7846.182985
1195.768531,-612.876398,2368.659014,8438.347739
1195.768847,-766.095498,1924.535449,8586.388927
1195.769163,-689.485948,1480.411884,9992.780217
1195.769478,-1685.410096,962.267725,9622.677246
1195.769794,-2374.896044,-148.041188,9622.677246
1195.770110,-1991.848295,-1776.494261,10584.944971
1195.770425,-2451.505594,-2072.576638,11843.295072
1195.770741,-1838.629195,-962.267725,11103.089130
1195.771057,-766.095498,-1554.432478,9696.697840
1195.771372,-459.657299,370.102971,9844.739029
1195.771688,153.219100,-0.000000,9178.553681
1195.772004,1532.190996,592.164754,8660.409521
1195.772319,3140.991542,1184.329507,8586.388927
1195.772635,1762.019645,592.164754,8068.244768
1195.772951,2451.505594,1480.411884,7328.038826
1195.773266,1838.629195,962.267725,7550.100608
1195.773582,1915.238745,148.041188,8882.471304
1195.773898,1378.971896,1110.308913,9622.677246
1195.774213,76.609550,888.247130,9030.512492
1195.774529,-689.485948,740.205942,9104.533087
1195.774845,-1302.362347,-962.267725,9992.780217
1195.775160,-1302.362347,-2072.576638,11621.233289
1195.775476,-1532.190996,-1998.556043,11769.274478
1195.775792,-2145.067394,-1998.556043,11473.192101
1195.776107,-1225.752797,-1998.556043,11621.233289
1195.776423,-459.657299,-2442.679609,10584.944971
1195.776739,842.705048,-1184.329507,10362.883188
1195.777054,2068.457845,-518.144159,9400.615463
1195.777370,2145.067394,518.144159,8734.430116
1195.777686,2757.943793,1554.432478,7846.182985
1195.778001,3907.087040,1258.350101,8808.450710
1195.778317,3830.477490,1850.514855,8068.244768
1195.778633,3447.429741,2368.659014,7254.018232
1195.778948,2528.115143,1258.350101,7994.224174
1195.779264,2528.115143,518.144159,8882.471304
1195.779580,1991.848295,-296.082377,9474.636058
1195.779896,1608.800546,-0.000000,9400.615463
1195.780211,76.609550,-518.144159,9770.718434
1195.780527,-995.924147,-1184.329507,10066.800811
1195.780843,-1149.143247,-1850.514855,11695.253884
1195.781158,-842.705048,-2146.597232,11473.192101
1195.781474,0.000000,-592.164754,10288.862594
1195.781790,-1149.143247,-148.041188,9918.759623
1195.782105,-766.095498,740.205942,8364.327145
1195.782421,1302.362347,-518.144159,9178.553681
1195.782737,2451.505594,1184.329507,9844.739029
1195.783052,1302.362347,1702.473667,7698.141797
1195.783368,766.095498,888.247130,8216.285956
1195.783684,1225.752797,370.102971,8142.265362
1195.783999,1302.362347,-0.000000,9400.615463
1195.784315,1532.190996,1258.350101,9104.533087
1195.784631,76.609550,1110.308913,9548.656652
1195.784946,-153.219100,-0.000000,8216.285956
1195.785262,0.000000,-1258.350101,9622.677246
1195.785578,0.000000,-1776.494261,11103.089130
1195.785893,-536.266849,-1628.453072,10066.800811
1195.786209,-766.095498,-888.247130,10066.800811
1195.786525,-1608.800546,-2072.576638,9992.780217
1195.786840,-153.219100,-2368.659014,10584.944971
1195.787156,0.000000,-1332.370696,9696.697840
1195.787472,76.609550,296.082377,9770.718434
1195.787787,0.000000,74.020594,9326.594869
1195.788103,536.266849,-370.102971,8882.471304
1195.788419,995.924147,-0.000000,8660.409521
1195.788734,1302.362347,-0.000000,8512.368333
1195.789050,1149.143247,-74.020594,9400.615463
1195.789366,306.438199,-518.144159,9104.533087
1195.789681,306.438199,-1702.473667,9696.697840
1195.789997,842.705048,-1184.329507,10510.924376
1195.790313,306.438199,-518.144159,9548.656652
1195.790628,0.000000,-296.082377,9474.636058
1195.790944,-612.876398,-592.164754,9844.739029
1195.791260,0.000000,-518.144159,9696.697840
1195.791576,459.657299,666.185348,8956.491898
1195.791891,0.000000,1184.329507,9252.574275
1195.792207,0.000000,148.041188,8808.450710
1195.792523,-153.219100,-0.000000,9252.574275
1195.792838,612.876398,-888.247130,9844.739029
1195.793154,153.219100,-370.102971,10066.800811
1195.793470,689.485948,296.082377,9770.718434
1195.793785,153.219100,-0.000000,9252.574275
1195.794101,383.047749,-148.041188,9326.594869
1195.794417,1378.971896,-666.185348,10436.903782
1195.794732,1608.800546,962.267725,9104.533087
1195.795048,1225.752797,1850.514855,8660.409521
1195.795364,1915.238745,370.102971,9104.533087
1195.795679,2681.334243,666.185348,8586.388927
1195.795995,2451.505594,1036.288319,8808.450710
1195.796311,2451.505594,962.267725,8216.285956
1195.796626,1378.971896,740.205942,9104.533087
1195.796942,842.705048,222.061783,8734.430116
1195.797258,766.095498,-296.082377,9622.677246
1195.797573,229.828649,-74.020594,9474.636058
1195.797889,-1149.143247,296.082377,9696.697840
1195.798205,-1455.581446,-296.082377,10362.883188
1195.798520,-1532.190996,-1332.370696,11251.130318
1195.798836,-842.705048,-1702.473667,11251.130318
1195.799152,-1225.752797,-666.185348,9844.739029
1195.799467,-842.705048,-518.144159,11103.089130
1195.799783,-689.485948,-666.185348,10066.800811
1195.800099,689.485948,-1110.308913,10807.006753
1195.800414,1532.190996,370.102971,9030.512492
1195.800730,1991.848295,1480.411884,9030.512492
1195.801046,1532.190996,1258.350101,8586.388927
1195.801361,1532.190996,-0.000000,8216.285956
1195.801677,2068.457845,-0.000000,9918.759623
1195.801993,2374.896044,1036.288319,9844.739029
1195.802309,1991.848295,1776.494261,8216.285956
1195.802624,919.314598,1258.350101,8216.285956
1195.802940,612.876398,-518.144159,9474.636058
1195.803256,536.266849,-1184.329507,10214.842000
1195.803571,-153.219100,-666.185348,10362.883188
1195.803887,-1762.019645,-740.205942,10955.047942
1195.804203,-1455.581446,-962.267725,9696.697840
1195.804518,-766.095498,-1702.473667,10807.006753
1195.804834,-766.095498,-2072.576638,10881.027347
1195.805150,-842.705048,-888.247130,10436.903782
1195.805465,-689.485948,-888.247130,9548.656652
1195.805781,-383.047749,-444.123565,8734.430116
1195.806097,1302.362347,-740.205942,9844.739029
1195.806412,1608.800546,-148.041188,8290.306550
1195.806728,1302.362347,1184.329507,8142.265362
1195.807044,612.876398,370.102971,8512.368333
1195.807359,1455.581446,-444.123565,9178.553681
1195.807675,2221.676944,-222.061783,9326.594869
1195.807991,1225.752797,1258.350101,7698.141797
1195.808306,919.314598,814.226536,8364.327145
1195.808622,1072.533697,-740.205942,8956.491898
1195.808938,612.876398,-1110.308913,9548.656652
1195.809253,306.438199,-1110.308913,9696.697840
1195.809569,-459.657299,148.041188,9326.594869
1195.809885,-689.485948,-74.020594,9400.615463
1195.810200,-766.095498,-1036.288319,9770.718434
1195.810516,-459.657299,-1184.329507,10214.842000
1195.810832,-536.266849,-370.102971,9918.759623
1195.811147,-612.876398,-0.000000,8956.491898
1195.811463,-689.485948,518.144159,8660.409521
1195.811779,229.828649,-518.144159,9030.512492
1195.812094,919.314598,-0.000000,8660.409521
1195.812410,459.657299,-0.000000,8808.450710
1195.812726,-229.828649,444.123565,8142.265362
1195.813041,383.047749,-740.205942,8808.450710
1195.813357,229.828649,-1702.473667,10066.800811
1195.813673,1072.533697,-370.102971,9622.677246
1195.813989,766.095498,148.041188,8808.450710
1195.814304,0.000000,-0.000000,8882.471304
1195.814620,76.609550,-814.226536,9474.636058
1195.814936,842.705048,-1702.473667,9918.759623
1195.815251,459.657299,-518.144159,10362.883188
1195.815567,0.000000,-0.000000,9474.636058
1195.815883,-153.219100,-296.082377,8882.471304
1195.816198,229.828649,-888.247130,9474.636058
1195.816514,689.485948,-1036.288319,10881.027347
1195.816830,459.657299,-444.123565,9992.780217
1195.817145,-306.438199,-0.000000,9770.718434
1195.817461,-153.219100,296.082377,8956.491898
1195.817777,1072.533697,-814.226536,10288.862594
1195.818092,1378.971896,-370.102971,10066.800811
1195.818408,919.314598,1036.288319,9030.512492
1195.818724,536.266849,592.164754,9474.636058
1195.819039,1225.752797,-666.185348,9622.677246
1195.819355,1378.971896,-888.247130,10066.800811
1195.819671,1532.190996,444.123565,9844.739029
1195.819986,1072.533697,592.164754,9104.533087
1195.820302,0.000000,814.226536,8882.471304
1195.820618,612.876398,-1036.288319,10658.965565
1195.820933,842.705048,-666.185348,11029.068536
1195.821249,383.047749,370.102971,9474.636058
1195.821565,0.000000,592.164754,9622.677246
1195.821880,306.438199,-296.082377,9696.697840
1195.822196,689.485948,-518.144159,10288.862594
1195.822512,842.705048,-0.000000,9918.759623
1195.822827,842.705048,-0.000000,9918.759623
1195.823143,306.438199,444.123565,9030.512492
1195.823459,919.314598,-222.061783,8882.471304
1195.823774,1608.800546,-740.205942,9696.697840
1195.824090,1455.581446,-370.102971,9918.759623
1195.824406,1149.143247,962.267725,9252.574275
1195.824722,229.828649,-74.020594,8882.471304
1195.825037,842.705048,-666.185348,10140.821405
1195.825353,1762.019645,-370.102971,9474.636058
1195.825669,1532.190996,888.247130,8512.368333
1195.825984,0.000000,666.185348,8586.388927
1195.826300,76.609550,-370.102971,9252.574275
1195.826616,229.828649,-1110.308913,9844.739029
1195.826931,229.828649,-518.144159,9622.677246
1195.827247,-383.047749,296.082377,8808.450710
1195.827563,-459.657299,296.082377,8586.388927
1195.827878,-689.485948,-1332.370696,9770.718434
1195.828194,-306.438199,-1628.453072,10214.842000
1195.828510,-766.095498,-740.205942,9918.759623
1195.828825,-995.924147,-148.041188,8586.388927
1195.829141,-995.924147,-222.061783,9030.512492
1195.829457,0.000000,-1850.514855,10214.842000
1195.829772,459.657299,-814.226536,10214.842000
1195.830088,306.438199,222.061783,7920.203579
1195.830404,459.657299,-74.020594,9400.615463
1195.830719,229.828649,-370.102971,8956.491898
1195.831035,1685.410096,-148.041188,9252.574275
1195.831351,1455.581446,518.144159,8142.265362
1195.831666,383.047749,888.247130,8512.368333
1195.831982,76.609550,-148.041188,9844.739029
1195.832298,689.485948,-222.061783,9326.594869
1195.832613,689.485948,-740.205942,10288.862594
1195.832929,0.000000,-148.041188,9918.759623
1195.833245,0.000000,444.123565,8882.471304
1195.833560,-1072.533697,-666.185348,9474.636058
1195.833876,-536.266849,-1480.411884,11547.212695
1195.834192,229.828649,-1258.350101,10140.821405
1195.834507,-153.219100,-74.020594,9696.697840
1195.834823,-766.095498,222.061783,9918.759623
1195.835139,0.000000,-74.020594,8734.430116
1195.835454,919.314598,-0.000000,9474.636058
1195.835770,1455.581446,-0.000000,9918.759623
1195.836086,536.266849,518.144159,9252.574275
1195.836402,1072.533697,296.082377,9696.697840
1195.836717,842.705048,222.061783,9252.574275
1195.837033,1455.581446,-148.041188,10066.800811
1195.837349,2221.676944,-74.020594,9770.718434
1195.837664,1225.752797,1850.514855,8808.450710
1195.837980,459.657299,592.164754,9622.677246
1195.838296,919.314598,-1036.288319,9918.759623
1195.838611,1072.533697,-370.102971,9622.677246
1195.838927,459.657299,296.082377,9326.594869
1195.839243,766.095498,-0.000000,9622.677246
1195.839558,0.000000,222.061783,9548.656652
1195.839874,229.828649,-888.247130,10214.842000
1195.840190,1225.752797,-370.102971,9474.636058
1195.840505,0.000000,370.102971,9622.677246
1195.840821,-459.657299,444.123565,9400.615463
1195.841137,0.000000,-222.061783,8882.471304
1195.841452,459.657299,-666.185348,9696.697840
1195.841768,536.266849,296.082377,9326.594869
1195.842084,0.000000,740.205942,9178.553681
1195.842399,-229.828649,-0.000000,8882.471304
1195.842715,-383.047749,-962.267725,9252.574275
1195.843031,306.438199,-962.267725,10510.924376
1195.843346,536.266849,-74.020594,8512.368333
1195.843662,0.000000,-0.000000,8956.491898
1195.843978,-153.219100,-814.226536,9252.574275
1195.844293,919.314598,-740.205942,9474.636058
1195.844609,995.924147,-370.102971,9252.574275
1195.844925,766.095498,444.123565,9178.553681
1195.845240,612.876398,592.164754,8512.368333
1195.845556,842.705048,-444.123565,8438.347739
1195.845872,995.924147,-962.267725,9548.656652
1195.846187,1072.533697,-296.082377,9696.697840
1195.846503,1072.533697,-518.144159,8586.388927
1195.846819,0.000000,-1036.288319,8586.388927
1195.847135,536.266849,-1776.494261,9992.780217
1195.847450,689.485948,-1702.473667,10288.862594
1195.847766,459.657299,-518.144159,9326.594869
1195.848082,76.609550,370.102971,8734.430116
1195.848397,229.828649,-592.164754,9326.594869
1195.848713,612.876398,-1702.473667,9844.739029
1195.849029,995.924147,-0.000000,9622.677246
1195.849345,229.828649,296.082377,9104.533087
1195.849660,229.828649,-370.102971,9918.759623
1195.849976,0.000000,-666.185348,9400.615463
1195.850292,1072.533697,-666.185348,9918.759623
1195.850608,536.266849,-222.061783,9326.594869
1195.850924,229.828649,444.123565,9696.697840
1195.851239,0.000000,-666.185348,9918.759623
1195.851555,383.047749,-74.020594,9622.677246
1195.851871,766.095498,-740.205942,9844.739029
1195.852187,1072.533697,296.082377,9548.656652
1195.852502,766.095498,370.102971,9400.615463
1195.852818,-153.219100,-222.061783,9474.636058
1195.853134,1072.533697,-814.226536,10510.924376
1195.853450,1149.143247,-0.000000,9548.656652
1195.853766,1072.533697,518.144159,8956.491898
1195.854081,536.266849,444.123565,9252.574275
1195.854397,766.095498,-0.000000,9992.780217
1195.854713,919.314598,-222.061783,9696.697840
1195.855029,919.314598,296.082377,9252.574275
1195.855344,459.657299,1110.308913,9252.574275
1195.855660,153.219100,1036.288319,8660.409521
1195.855976,229.828649,-666.185348,9548.656652
1195.856292,459.657299,-740.205942,10881.027347
1195.856607,-229.828649,-296.082377,9548.656652
1195.856923,-536.266849,-0.000000,9548.656652
1195.857239,-612.876398,-518.144159,9474.636058
1195.857555,383.047749,-1036.288319,10436.903782
1195.857871,229.828649,-370.102971,10066.800811
1195.858186,0.000000,1406.391290,8808.450710
1195.858502,229.828649,444.123565,9178.553681
1195.858818,0.000000,-296.082377,9104.533087
1195.859134,842.705048,-592.164754,10140.821405
1195.859449,1072.533697,592.164754,8660.409521
1195.859765,536.266849,222.061783,8882.471304
1195.860081,76.609550,-518.144159,8586.388927
1195.860397,306.438199,-592.164754,9918.759623
1195.860712,1762.019645,-740.205942,10140.821405
1195.861028,536.266849,-148.041188,9326.594869
1195.861344,0.000000,518.144159,9252.574275
1195.861660,0.000000,-222.061783,8882.471304
1195.861976,1378.971896,-740.205942,9770.718434
1195.862291,1608.800546,-222.061783,10066.800811
1195.862607,842.705048,-0.000000,8660.409521
1195.862923,0.000000,592.164754,8734.430116
1195.863239,76.609550,-814.226536,9844.739029
1195.863554,459.657299,-1036.288319,10066.800811
1195.863870,536.266849,-370.102971,10214.842000
1195.864186,-459.657299,222.061783,9326.594869
1195.864502,-459.657299,-148.041188,8956.491898
1195.864818,0.000000,-1184.329507,9992.780217
1195.865133,1072.533697,-814.226536,10140.821405
1195.865449,689.485948,222.061783,9178.553681
1195.865765,536.266849,888.247130,9696.697840
1195.866081,153.219100,518.144159,8290.306550
1195.866396,995.924147,-370.102971,9918.759623
1195.866712,1149.143247,-74.020594,9474.636058
1195.867028,689.485948,296.082377,9326.594869
1195.867344,536.266849,-0.000000,8660.409521
1195.867659,842.705048,-814.226536,9400.615463
1195.867975,919.314598,-1258.350101,10658.965565
1195.868291,1149.143247,-296.082377,9992.780217
1195.868607,1149.143247,1036.288319,8586.388927
1195.868923,229.828649,1184.329507,8660.409521
1195.869238,536.266849,-0.000000,9696.697840
1195.869554,1455.581446,-0.000000,9252.574275
1195.869870,536.266849,-0.000000,9030.512492
1195.870186,-229.828649,222.061783,9326.594869
1195.870501,-306.438199,-814.226536,9918.759623
1195.870817,229.828649,-1258.350101,9326.594869
1195.871133,0.000000,-74.020594,9918.759623
1195.871449,-153.219100,-0.000000,9696.697840
1195.871765,-536.266849,-0.000000,9030.512492
1195.872080,0.000000,-666.185348,9252.574275
1195.872396,459.657299,-1406.391290,10362.883188
1195.872712,842.705048,148.041188,9178.553681
1195.873028,76.609550,296.082377,8734.430116
1195.873343,0.000000,-0.000000,9030.512492
1195.873659,995.924147,-962.267725,9696.697840
1195.873975,995.924147,-962.267725,9326.594869
1195.874291,229.828649,-0.000000,8956.491898
1195.874606,76.609550,-148.041188,9030.512492
1195.874922,0.000000,-962.267725,9400.615463
1195.875238,766.095498,-1850.514855,10658.965565
1195.875554,842.705048,-1480.411884,10140.821405
1195.875870,766.095498,-592.164754,9104.533087
1195.876185,0.000000,-592.164754,8586.388927
1195.876501,229.828649,-1406.391290,9474.636058
1195.876817,842.705048,-1628.453072,10436.903782
1195.877133,612.876398,-370.102971,8956.491898
1195.877448,536.266849,962.267725,8290.306550
1195.877764,76.609550,-518.144159,8882.471304
1195.878080,153.219100,-1776.494261,9696.697840
1195.878396,229.828649,-666.185348,9844.739029
1195.878711,-229.828649,-74.020594,9622.677246
1195.879027,-229.828649,-370.102971,9622.677246
1195.879343,-766.095498,-666.185348,9622.677246
1195.879659,459.657299,-814.226536,10436.903782
1195.879975,459.657299,-222.061783,9548.656652
1195.880290,0.000000,740.205942,9252.574275
1195.880606,306.438199,148.041188,9178.553681
1195.880922,153.219100,-592.164754,9548.656652
1195.881238,1302.362347,-444.123565,10807.006753
1195.881553,1455.581446,1036.288319,9030.512492
1195.881869,842.705048,1184.329507,8660.409521
1195.882185,1302.362347,592.164754,9326.594869
1195.882501,1072.533697,-0.000000,8882.471304
1195.882817,2374.896044,-0.000000,9992.780217
1195.883132,1302.362347,740.205942,9400.615463
1195.883448,995.924147,1036.288319,9400.615463
1195.883764,536.266849,518.144159,9400.615463
1195.884080,1149.143247,-518.144159,10066.800811
1195.884395,995.924147,-296.082377,9770.718434
1195.884711,383.047749,666.185348,9474.636058
1195.885027,0.000000,296.082377,9400.615463
1195.885343,153.219100,-370.102971,8956.491898
1195.885658,995.924147,-1110.308913,10807.006753
1195.885974,919.314598,-222.061783,9104.533087
1195.886290,0.000000,888.247130,8734.430116
1195.886606,0.000000,-0.000000,9030.512492
1195.886922,0.000000,-666.185348,10362.883188
1195.887237,536.266849,-666.185348,10140.821405
1195.887553,612.876398,370.102971,9030.512492
1195.887869,76.609550,296.082377,8512.368333
1195.888185,-229.828649,-370.102971,8882.471304
1195.888500,0.000000,-1554.432478,10066.800811
1195.888816,766.095498,-1036.288319,9918.759623
1195.889132,-229.828649,-222.061783,9474.636058
1195.889448,-459.657299,-370.102971,9844.739029
1195.889763,-383.047749,-1184.329507,9474.636058
1195.890079,842.705048,-1554.432478,10732.986159
1195.890395,689.485948,-518.144159,9326.594869
1195.890711,153.219100,444.123565,9104.533087
1195.891027,383.047749,222.061783,9400.615463
1195.891342,766.095498,-1036.288319,9252.574275
1195.891658,995.924147,-666.185348,9696.697840
1195.891974,536.266849,444.123565,9696.697840
1195.892290,229.828649,518.144159,8438.347739
1195.892605,76.609550,-296.082377,9696.697840
1195.892921,153.219100,-814.226536,11103.089130
1195.893237,919.314598,-814.226536,10214.842000
1195.893553,153.219100,740.205942,8586.388927
1195.893869,-306.438199,444.123565,9474.636058
1195.894184,459.657299,-1850.514855,9696.697840
1195.894500,1225.752797,-888.247130,10658.965565
1195.894816,842.705048,222.061783,9326.594869
1195.895132,76.609550,370.102971,9474.636058
1195.895447,153.219100,-666.185348,9918.759623
1195.895763,306.438199,-444.123565,9844.739029
1195.896079,995.924147,-518.144159,10140.821405
1195.896395,995.924147,666.185348,9548.656652
1195.896710,842.705048,1332.370696,8438.347739
1195.897026,536.266849,370.102971,8512.368333
1195.897342,1072.533697,-740.205942,10584.944971
1195.897658,1532.190996,-592.164754,10362.883188
1195.897974,766.095498,962.267725,8068.244768
1195.898289,76.609550,222.061783,8734.430116
1195.898605,536.266849,-370.102971,9992.780217
1195.898921,1302.362347,-370.102971,9844.739029
1195.899237,612.876398,222.061783,8142.265362
1195.899552,76.609550,518.144159,9104.533087
1195.899868,-306.438199,-740.205942,8290.306550
1195.900184,0.000000,-1184.329507,9622.677246
1195.900500,306.438199,-1480.411884,9918.759623
1195.900816,0.000000,-148.041188,8882.471304
1195.901131,0.000000,444.123565,8586.388927
1195.901447,-459.657299,-1332.370696,9178.553681
1195.901763,0.000000,-1036.288319,9696.697840
1195.902079,0.000000,-1036.288319,9696.697840
1195.902394,-229.828649,296.082377,8808.450710
1195.902710,-229.828649,-0.000000,9252.574275
1195.903026,-306.438199,-370.102971,9400.615463
1195.903342,1072.533697,296.082377,9178.553681
1195.903657,1072.533697,-0.000000,9326.594869
1195.903973,459.657299,222.061783,9104.533087
1195.904289,153.219100,-222.061783,9400.615463
1195.904605,995.924147,-1332.370696,10140.821405
1195.904921,1532.190996,-740.205942,10436.903782
1195.905236,1378.971896,-0.000000,9918.759623
1195.905552,1072.533697,1036.288319,8216.285956
1195.905868,1072.533697,-0.000000,9252.574275
1195.906184,1225.752797,-296.082377,10584.944971
1195.906499,1149.143247,-148.041188,9770.718434
1195.906815,229.828649,518.144159,8142.265362
1195.907131,-229.828649,666.185348,9030.512492
1195.907447,153.219100,-962.267725,10288.862594
1195.907762,689.485948,-1480.411884,11177.109724
1195.908078,612.876398,-518.144159,10288.862594
1195.908394,-229.828649,-222.061783,10140.821405
1195.908710,-459.657299,-444.123565,9326.594869
1195.909026,0.000000,-1406.391290,10214.842000
1195.909341,536.266849,-962.267725,10362.883188
1195.909657,995.924147,222.061783,10214.842000
1195.909973,383.047749,-74.020594,8734.430116
1195.910289,229.828649,296.082377,9326.594869
1195.910604,1225.752797,-1036.288319,10510.924376
1195.910920,1685.410096,-222.061783,8956.491898
1195.911236,689.485948,1702.473667,9252.574275
1195.911552,0.000000,962.267725,8660.409521
1195.911868,612.876398,-592.164754,9104.533087
1195.912183,766.095498,-1332.370696,10140.821405
1195.912499,383.047749,-74.020594,9992.780217
1195.912815,153.219100,518.144159,9326.594869
1195.913131,-1685.410096,-444.123565,9548.656652
1195.913446,-306.438199,-666.185348,10658.965565
1195.913762,459.657299,-814.226536,10066.800811
1195.914078,153.219100,1332.370696,8438.347739
1195.914394,-383.047749,1036.288319,8882.471304
1195.914709,-536.266849,-666.185348,9400.615463
1195.915025,76.609550,-666.185348,9474.636058
1195.915341,306.438199,-370.102971,9474.636058
1195.915657,0.000000,814.226536,8734.430116
1195.915973,-383.047749,296.082377,8364.327145
1195.916288,-383.047749,-814.226536,9252.574275
1195.916604,76.609550,-814.226536,9918.759623
1195.916920,76.609550,-0.000000,8216.285956
1195.917236,0.000000,518.144159,8660.409521
1195.917551,-153.219100,-296.082377,9400.615463
1195.917867,0.000000,-1480.411884,10214.842000
1195.918183,842.705048,-888.247130,9400.615463
1195.918499,76.609550,-0.000000,8068.244768
1195.918814,-153.219100,222.061783,9400.615463
1195.919130,153.219100,-888.247130,9252.574275
1195.919446,1532.190996,-1406.391290,9548.656652
1195.919762,842.705048,-0.000000,9252.574275
1195.920078,612.876398,-0.000000,9696.697840
1195.920393,766.095498,222.061783,8142.265362
1195.920709,919.314598,-666.185348,9622.677246
1195.921025,1608.800546,-1036.288319,10288.862594
1195.921341,1225.752797,148.041188,9696.697840
1195.921656,689.485948,962.267725,8808.450710
1195.921972,306.438199,444.123565,8438.347739
1195.922288,383.047749,-1036.288319,11103.089130
1195.922604,1225.752797,-666.185348,9770.718434
1195.922920,76.609550,222.061783,9400.615463
1195.923235,0.000000,296.082377,9474.636058
1195.923551,0.000000,-1184.329507,10955.047942
1195.923867,383.047749,-1480.411884,11251.130318
1195.924183,766.095498,-74.020594,9474.636058
1195.924498,383.047749,888.247130,8660.409521
1195.924814,0.000000,-0.000000,10436.903782
1195.925130,689.485948,-222.061783,10658.965565
1195.925446,1762.019645,-148.041188,10214.842000
1195.925761,842.705048,740.205942,9326.594869
1195.926077,842.705048,1332.370696,8808.450710
1195.926393,842.705048,518.144159,9030.512492
1195.926709,1072.533697,-148.041188,9548.656652
1195.927025,1149.143247,-148.041188,10362.883188
1195.927340,842.705048,222.061783,9474.636058
1195.927656,383.047749,-0.000000,9178.553681
1195.927972,-306.438199,-518.144159,9918.759623
1195.928288,459.657299,-814.226536,10807.006753
1195.928603,1225.752797,-444.123565,9696.697840
1195.928919,229.828649,666.185348,9844.739029
1195.929235,-76.609550,1332.370696,8734.430116
1195.929551,-229.828649,148.041188,8586.388927
1195.929867,536.266849,-888.247130,10140.821405
1195.930182,0.000000,-148.041188,9474.636058
1195.930498,0.000000,296.082377,8660.409521
1195.930814,-536.266849,-0.000000,8882.471304
1195.931130,-306.438199,-1924.535449,9918.759623
1195.931445,766.095498,-1924.535449,10214.842000
1195.931761,76.609550,-370.102971,9030.512492
1195.932077,-689.485948,666.185348,9178.553681
1195.932393,-229.828649,370.102971,8512.368333
1195.932708,536.266849,-740.205942,9104.533087
1195.933024,536.266849,-592.164754,9104.533087
1195.933340,0.000000,-148.041188,8734.430116
1195.933656,76.609550,-370.102971,8734.430116
1195.933972,306.438199,-1776.494261,9178.553681
1195.934287,536.266849,-2294.638420,9918.759623
1195.934603,306.438199,-592.164754,9104.533087
1195.934919,919.314598,-0.000000,8512.368333
1195.935235,153.219100,-0.000000,8216.285956
1195.935550,306.438199,-740.205942,9992.780217
1195.935866,1149.143247,-1332.370696,9918.759623
1195.936182,612.876398,-0.000000,8068.244768
1195.936498,0.000000,370.102971,9104.533087
1195.936813,153.219100,-444.123565,9548.656652
1195.937129,689.485948,-1110.308913,9474.636058
1195.937445,383.047749,-444.123565,10288.862594
1195.937761,0.000000,-222.061783,9918.759623
1195.938077,-536.266849,-370.102971,9474.636058
1195.938392,0.000000,-444.123565,10288.862594
1195.938708,612.876398,-296.082377,10362.883188
1195.939024,1149.143247,518.144159,9474.636058
1195.939340,1225.752797,1480.411884,8734.430116
1195.939655,919.314598,666.185348,8586.388927
1195.939971,1225.752797,-222.061783,10807.006753
1195.940287,1838.629195,-962.267725,10214.842000
1195.940603,1225.752797,962.267725,9104.533087
1195.940919,1072.533697,518.144159,9548.656652
1195.941234,995.924147,-592.164754,9400.615463
1195.941550,1762.019645,-518.144159,10288.862594
1195.941866,1762.019645,-370.102971,10214.842000
1195.942182,919.314598,1036.288319,9178.553681
1195.942497,459.657299,1184.329507,9474.636058
1195.942813,689.485948,-0.000000,9178.553681
1195.943129,1378.971896,-592.164754,10732.986159
1195.943445,1225.752797,1184.329507,9474.636058
1195.943760,1225.752797,888.247130,8438.347739
1195.944076,-459.657299,-666.185348,9992.780217
1195.944392,0.000000,-1776.494261,10584.944971
1195.944708,536.266849,-1036.288319,10732.986159
1195.945024,306.438199,518.144159,9104.533087
1195.945339,0.000000,1110.308913,9104.533087
1195.945655,76.609550,222.061783,9918.759623
1195.945971,612.876398,-296.082377,8882.471304
1195.946287,689.485948,-74.020594,9696.697840
1195.946602,0.000000,148.041188,9400.615463
1195.946918,76.609550,-74.020594,8364.327145
1195.947234,0.000000,-962.267725,9696.697840
1195.947550,689.485948,-1110.308913,9770.718434
1195.947865,536.266849,-814.226536,9474.636058
1195.948181,0.000000,-0.000000,9030.512492
1195.948497,-689.485948,-518.144159,9770.718434
1195.948813,0.000000,-1258.350101,9918.759623
1195.949129,919.314598,-814.226536,10288.862594
1195.949444,383.047749,444.123565,8586.388927
1195.949760,229.828649,518.144159,8660.409521
1195.950076,383.047749,-296.082377,9104.533087
1195.950391,1149.143247,-814.226536,9326.594869
1195.950707,612.876398,-740.205942,9178.553681
1195.951023,0.000000,222.061783,8808.450710
1195.951338,-306.438199,296.082377,9622.677246
1195.951654,-306.438199,-518.144159,8660.409521
1195.951970,-76.609550,-370.102971,10510.924376
1195.952285,0.000000,-814.226536,9992.780217
1195.952601,-306.438199,296.082377,9326.594869
1195.952917,-766.095498,-0.000000,9104.533087
1195.953232,-229.828649,-740.205942,9918.759623
1195.953548,306.438199,-888.247130,9474.636058
1195.953864,383.047749,148.041188,8586.388927
1195.954180,0.000000,1258.350101,9252.574275
1195.954495,-459.657299,-592.164754,9474.636058
1195.954811,76.609550,-1480.411884,9548.656652
1195.955127,612.876398,-74.020594,9326.594869
1195.955442,383.047749,666.185348,9104.533087
1195.955758,536.266849,222.061783,9326.594869
1195.956074,229.828649,-518.144159,9326.594869
1195.956389,1302.362347,-666.185348,9918.759623
1195.956705,1149.143247,370.102971,9400.615463
1195.957021,919.314598,888.247130,8586.388927
1195.957336,766.095498,592.164754,8216.285956
1195.957652,995.924147,-222.061783,9696.697840
1195.957968,1455.581446,-592.164754,9548.656652
1195.958283,383.047749,740.205942,9252.574275
1195.958599,0.000000,666.185348,8956.491898
1195.958915,0.000000,-222.061783,9326.594869
1195.959231,229.828649,-444.123565,10362.883188
1195.959546,536.266849,-370.102971,10362.883188
1195.959862,459.657299,444.123565,9992.780217
1195.960178,0.000000,740.205942,8438.347739
1195.960493,153.219100,-518.144159,9770.718434
1195.960809,612.876398,-1406.391290,10881.027347
1195.961125,536.266849,-222.061783,9844.739029
1195.961440,-229.828649,888.247130,9770.718434
1195.961756,-536.266849,444.123565,9622.677246
1195.962072,919.314598,-444.123565,9622.677246
1195.962387,1532.190996,-74.020594,9844.739029
1195.962703,689.485948,1110.308913,9104.533087
1195.963019,766.095498,296.082377,9548.656652
1195.963334,459.657299,-222.061783,9030.512492
1195.963650,1532.190996,-1332.370696,10288.862594
1195.963966,1762.019645,-592.164754,10955.047942
1195.964282,1225.752797,-0.000000,9622.677246
1195.964597,459.657299,592.164754,8734.430116
1195.964913,229.828649,-518.144159,9474.636058
1195.965229,1455.581446,-1628.453072,10658.965565
1195.965544,842.705048,-370.102971,9844.739029
1195.965860,0.000000,296.082377,8956.491898
1195.966176,0.000000,-814.226536,9326.594869
1195.966491,383.047749,-1554.432478,10288.862594
1195.966807,612.876398,-518.144159,10288.862594
1195.967123,919.314598,-0.000000,8882.471304
1195.967438,-229.828649,-74.020594,9030.512492
1195.967754,-153.219100,-1258.350101,9326.594869
1195.968070,536.266849,-1406.391290,9992.780217
1195.968386,1302.362347,-518.144159,10214.842000
1195.968701,383.047749,222.061783,8216.285956
1195.969017,306.438199,-0.000000,8956.491898
1195.969333,1225.752797,-888.247130,9104.533087
1195.969648,1455.581446,-666.185348,9326.594869
1195.969964,1302.362347,444.123565,9104.533087
1195.970280,612.876398,222.061783,8512.368333
1195.970595,306.438199,-296.082377,8808.450710
1195.970911,689.485948,-814.226536,9178.553681
1195.971227,1149.143247,-740.205942,9992.780217
1195.971542,229.828649,-296.082377,9178.553681
1195.971858,-459.657299,-518.144159,10140.821405
1195.972174,-459.657299,-444.123565,9400.615463
1195.972489,229.828649,-1036.288319,8882.471304
1195.972805,536.266849,-518.144159,9548.656652
1195.973121,76.609550,-222.061783,9030.512492
1195.973437,0.000000,-0.000000,8438.347739
1195.973752,0.000000,-296.082377,9326.594869
1195.974068,536.266849,-666.185348,9918.759623
1195.974384,1302.362347,-0.000000,8512.368333
1195.974699,0.000000,1110.308913,8216.285956
1195.975015,-689.485948,-592.164754,9474.636058
1195.975331,76.609550,-1628.453072,10066.800811
1195.975646,766.095498,-1406.391290,9918.759623
1195.975962,536.266849,-296.082377,9474.636058
1195.976278,306.438199,888.247130,9474.636058
1195.976593,229.828649,-296.082377,8734.430116
1195.976909,459.657299,-518.144159,9474.636058
1195.977225,536.266849,-222.061783,9918.759623
1195.977540,1378.971896,518.144159,9252.574275
1195.977856,0.000000,592.164754,8586.388927
1195.978172,0.000000,-814.226536,9696.697840
1195.978488,459.657299,-1184.329507,10658.965565
1195.978803,919.314598,-74.020594,9622.677246
1195.979119,0.000000,1332.370696,9030.512492
1195.979435,76.609550,-0.000000,9548.656652
1195.979750,536.266849,-518.144159,9696.697840
1195.980066,612.876398,-222.061783,9992.780217
1195.980382,383.047749,1036.288319,9844.739029
1195.980697,0.000000,-0.000000,9326.594869
1195.981013,-459.657299,-370.102971,9918.759623
1195.981329,229.828649,-1554.432478,11251.130318
1195.981644,612.876398,-666.185348,9770.718434
1195.981960,76.609550,962.267725,9548.656652
1195.982276,-612.876398,592.164754,9622.677246
1195.982591,76.609550,-222.061783,9474.636058
1195.982907,919.314598,-222.061783,10214.842000
1195.983223,536.266849,888.247130,9178.553681
1195.983539,612.876398,888.247130,9918.759623
1195.983854,0.000000,222.061783,9326.594869
1195.984170,766.095498,-370.102971,10066.800811
1195.984486,1302.362347,74.020594,9770.718434
1195.984801,995.924147,1332.370696,9326.594869
1195.985117,229.828649,962.267725,9178.553681
1195.985433,0.000000,-296.082377,9992.780217
1195.985748,1302.362347,-592.164754,10362.883188
1195.986064,689.485948,-0.000000,9030.512492
1195.986380,842.705048,1480.411884,9030.512492
1195.986695,459.657299,296.082377,9178.553681
1195.987011,153.219100,-0.000000,9844.739029
1195.987327,842.705048,-296.082377,9844.739029
1195.987643,536.266849,962.267725,8808.450710
1195.987958,459.657299,1406.391290,8882.471304
1195.988274,0.000000,-370.102971,8882.471304
1195.988590,-229.828649,-666.185348,9326.594869
1195.988905,153.219100,-1554.432478,10436.903782
1195.989221,-459.657299,-444.123565,9030.512492
1195.989537,-383.047749,518.144159,9474.636058
1195.989852,-536.266849,-148.041188,9104.533087
1195.990168,153.219100,-740.205942,9548.656652
1195.990484,536.266849,-518.144159,9622.677246
1195.990799,612.876398,222.061783,9104.533087
1195.991115,459.657299,740.205942,9400.615463
1195.991431,153.219100,-962.267725,9104.533087
1195.991746,1378.971896,-740.205942,9326.594869
1195.992062,1302.362347,-74.020594,8956.491898
1195.992378,536.266849,-0.000000,9104.533087
1195.992694,995.924147,148.041188,9474.636058
1195.993009,459.657299,-740.205942,9400.615463
1195.993325,1072.533697,-518.144159,10214.842000
1195.993641,766.095498,-74.020594,9252.574275
1195.993956,536.266849,296.082377,8660.409521
1195.994272,153.219100,-518.144159,9696.697840
1195.994588,306.438199,-1850.514855,10436.903782
1195.994903,995.924147,-1184.329507,9548.656652
1195.995219,76.609550,-444.123565,9474.636058
1195.995535,0.000000,-592.164754,9696.697840
1195.995850,306.438199,-1258.350101,9474.636058
1195.996166,842.705048,-1184.329507,10510.924376
1195.996482,766.095498,-0.000000,9474.636058
1195.996797,536.266849,370.102971,9326.594869
1195.997113,153.219100,-370.102971,8586.388927
1195.997429,383.047749,-2072.576638,9474.636058
1195.997745,1455.581446,-1924.535449,11325.150913
1195.998060,536.266849,-0.000000,9326.594869
1195.998376,0.000000,814.226536,8586.388927
1195.998692,1072.533697,-740.205942,9178.553681
1195.999007,766.095498,-740.205942,9770.718434
1195.999323,1072.533697,-370.102971,9696.697840
1195.999639,306.438199,962.267725,8808.450710
1195.999954,0.000000,-592.164754,9696.697840
1196.000270,229.828649,-1036.288319,9770.718434
1196.000586,919.314598,-740.205942,10436.903782
1196.000901,383.047749,-296.082377,9622.677246
1196.001217,153.219100,296.082377,9770.718434
1196.001533,-383.047749,444.123565,8512.368333
1196.001848,536.266849,-592.164754,9770.718434
1196.002164,689.485948,-0.000000,9474.636058
1196.002480,383.047749,962.267725,8882.471304
1196.002796,229.828649,740.205942,8956.491898
1196.003111,0.000000,-148.041188,9104.533087
1196.003427,383.047749,-518.144159,9474.636058
1196.003743,1149.143247,-296.082377,9104.533087
1196.004058,-153.219100,296.082377,8882.471304
1196.004374,0.000000,-74.020594,9918.759623
1196.004690,0.000000,-222.061783,9474.636058
1196.005005,153.219100,-592.164754,9844.739029
1196.005321,153.219100,370.102971,9622.677246
1196.005637,-383.047749,666.185348,9030.512492
1196.005952,0.000000,-740.205942,9326.594869
1196.006268,76.609550,-1036.288319,10288.862594
1196.006584,919.314598,-0.000000,10140.821405
1196.006900,1072.533697,1036.288319,8734.430116
1196.007215,0.000000,666.185348,8438.347739
1196.007531,76.609550,-666.185348,10140.821405
1196.007847,1302.362347,-1406.391290,10658.965565
1196.008162,1225.752797,-370.102971,9104.533087
1196.008478,612.876398,1110.308913,9178.553681
1196.008794,689.485948,222.061783,8882.471304
1196.009109,919.314598,-1184.329507,9844.739029
1196.009425,1915.238745,-592.164754,10510.924376
1196.009741,1149.143247,1332.370696,8364.327145
1196.010056,995.924147,1036.288319,8068.244768
1196.010372,459.657299,-0.000000,9400.615463
1196.010688,1072.533697,-740.205942,10732.986159
1196.011003,612.876398,-518.144159,9548.656652
1196.011319,0.000000,74.020594,9326.594869
1196.011635,-459.657299,-0.000000,10288.862594
1196.011951,0.000000,-1110.308913,10066.800811
1196.012266,76.609550,-1036.288319,9992.780217
1196.012582,76.609550,-296.082377,9770.718434
1196.012898,-153.219100,-0.000000,9770.718434
1196.013213,0.000000,-0.000000,9326.594869
1196.013529,0.000000,-296.082377,9770.718434
1196.013845,1608.800546,-888.247130,10658.965565
1196.014160,689.485948,-0.000000,8734.430116
1196.014476,459.657299,1036.288319,8660.409521
1196.014792,229.828649,-0.000000,8734.430116
1196.015107,1532.190996,-1258.350101,9992.780217
1196.015423,1762.019645,-740.205942,9622.677246
1196.015739,689.485948,518.144159,9474.636058
1196.016054,536.266849,962.267725,8660.409521
1196.016370,459.657299,370.102971,9104.533087
1196.016686,1302.362347,-296.082377,9548.656652
1196.017002,1302.362347,-0.000000,9474.636058
1196.017317,0.000000,592.164754,10066.800811
1196.017633,-153.219100,296.082377,8734.430116
1196.017949,-229.828649,-814.226536,9400.615463
1196.018264,383.047749,-1258.350101,10881.027347
1196.018580,76.609550,-370.102971,9252.574275
1196.018896,-612.876398,666.185348,9400.615463
1196.019211,-766.095498,-148.041188,9252.574275
1196.019527,-383.047749,-962.267725,9918.759623
1196.019843,76.609550,-296.082377,10510.924376
1196.020158,229.828649,296.082377,8882.471304
1196.020474,-229.828649,444.123565,8808.450710
1196.020790,-383.047749,-592.164754,9548.656652
1196.021105,459.657299,-1480.411884,10436.903782
1196.021421,1149.143247,-1110.308913,9474.636058
1196.021737,153.219100,296.082377,9400.615463
1196.022053,229.828649,-222.061783,9326.594869
1196.022368,459.657299,-1554.432478,9474.636058
1196.022684,995.924147,-1332.370696,10066.800811
1196.023000,1225.752797,-444.123565,9770.718434
1196.023315,919.314598,-222.061783,9104.533087
1196.023631,459.657299,-222.061783,8586.388927
1196.023947,766.095498,-1110.308913,9696.697840
1196.024262,1838.629195,-888.247130,9548.656652
1196.024578,1532.190996,370.102971,9178.553681
1196.024894,459.657299,222.061783,8734.430116
1196.025209,0.000000,-518.144159,8956.491898
1196.025525,229.828649,-1702.473667,10436.903782
1196.025841,306.438199,-1036.288319,10140.821405
1196.026157,229.828649,-0.000000,9474.636058
1196.026472,-306.438199,-740.205942,9474.636058
1196.026788,-229.828649,-1998.556043,10214.842000
1196.027104,689.485948,-1702.473667,10288.862594
1196.027419,919.314598,-370.102971,9030.512492
1196.027735,919.314598,-0.000000,8956.491898
1196.028051,459.657299,222.061783,9178.553681
1196.028366,1225.752797,-740.205942,9178.553681
1196.028682,1991.848295,-444.123565,9918.759623
1196.028998,1685.410096,888.247130,8734.430116
1196.029313,1225.752797,814.226536,8142.265362
1196.029629,1149.143247,222.061783,8734.430116
1196.029945,1225.752797,-740.205942,9844.739029
1196.030260,1685.410096,-0.000000,9622.677246
1196.030576,1225.752797,814.226536,8660.409521
1196.030892,0.000000,222.061783,8882.471304
1196.031208,459.657299,-444.123565,9844.739029
1196.031523,612.876398,-592.164754,9844.739029
1196.031839,306.438199,296.082377,9326.594869
1196.032155,306.438199,592.164754,9844.739029
1196.032470,-383.047749,-0.000000,9030.512492
1196.032786,0.000000,-888.247130,9400.615463
1196.033102,995.924147,-444.123565,10584.944971
1196.033417,306.438199,592.164754,8882.471304
1196.033733,-459.657299,370.102971,9400.615463
1196.034049,-306.438199,-0.000000,9696.697840
1196.034364,383.047749,-814.226536,10362.883188
1196.034680,766.095498,148.041188,10140.821405
1196.034996,0.000000,1184.329507,8956.491898
1196.035311,-459.657299,666.185348,8734.430116
1196.035627,-306.438199,-74.020594,9992.780217
1196.035943,612.876398,-888.247130,10288.862594
1196.036259,153.219100,-0.000000,9622.677246
1196.036574,0.000000,592.164754,9548.656652
1196.036890,0.000000,-148.041188,9030.512492
1196.037206,306.438199,-1554.432478,10214.842000
1196.037521,612.876398,-1258.350101,10881.027347
1196.037837,306.438199,-74.020594,9548.656652
1196.038153,612.876398,-74.020594,9622.677246
1196.038468,689.485948,-74.020594,8882.471304
1196.038784,1149.143247,-370.102971,9548.656652
1196.039100,1149.143247,444.123565,8586.388927
1196.039415,306.438199,592.164754,8882.471304
1196.039731,76.609550,-0.000000,9474.636058
1196.040047,0.000000,-814.226536,10066.800811
1196.040362,459.657299,-962.267725,11029.068536
1196.040678,0.000000,-296.082377,9326.594869
1196.040994,0.000000,-0.000000,9622.677246
1196.041310,-153.219100,-666.185348,9252.574275
1196.041625,459.657299,-1184.329507,10362.883188
1196.041941,1149.143247,-222.061783,10510.924376
1196.042257,919.314598,-0.000000,8586.388927
1196.042572,689.485948,1110.308913,9474.636058
1196.042888,919.314598,-518.144159,9400.615463
1196.043204,1378.971896,-888.247130,10066.800811
1196.043519,1838.629195,-148.041188,10362.883188
1196.043835,1072.533697,518.144159,8882.471304
1196.044151,536.266849,444.123565,9326.594869
1196.044466,1838.629195,-74.020594,9548.656652
1196.044782,2068.457845,-370.102971,9104.533087
1196.045098,1608.800546,740.205942,8882.471304
1196.045414,536.266849,444.123565,9326.594869
1196.045729,229.828649,-0.000000,8882.471304
1196.046045,919.314598,-740.205942,9474.636058
1196.046361,995.924147,-1036.288319,9844.739029
1196.046676,229.828649,370.102971,9104.533087
1196.046992,-536.266849,370.102971,8216.285956
1196.047308,-229.828649,-888.247130,9178.553681
1196.047623,229.828649,-962.267725,10510.924376
1196.047939,0.000000,-1110.308913,9474.636058
1196.048255,-1072.533697,-148.041188,8438.347739
1196.048570,-1532.190996,-518.144159,9400.615463
1196.048886,-995.924147,-1776.494261,10288.862594
1196.049202,-76.609550,-666.185348,10510.924376
1196.049517,-459.657299,962.267725,8364.327145
1196.049833,-842.705048,962.267725,8660.409521
1196.050149,-229.828649,-0.000000,9326.594869
1196.050464,0.000000,-1036.288319,9178.553681
1196.050780,459.657299,-740.205942,9918.759623
1196.051096,229.828649,296.082377,9400.615463
1196.051411,0.000000,-74.020594,8438.347739
1196.051727,306.438199,-74.020594,9178.553681
1196.052043,995.924147,-1184.329507,10140.821405
1196.052358,1072.533697,-0.000000,9030.512492
1196.052674,919.314598,1110.308913,9178.553681
1196.052990,306.438199,444.123565,8808.450710
1196.053305,842.705048,-222.061783,9918.759623
1196.053621,1455.581446,-962.267725,10362.883188
1196.053937,1378.971896,-0.000000,8956.491898
1196.054252,0.000000,1554.432478,8438.347739
1196.054568,-153.219100,-444.123565,9696.697840
1196.054883,153.219100,-1258.350101,10584.944971
1196.055199,459.657299,-1110.308913,10881.027347
1196.055515,0.000000,-74.020594,9918.759623
1196.055830,-689.485948,740.205942,9252.574275
1196.056146,-459.657299,-740.205942,9770.718434
1196.056462,536.266849,-1776.494261,10955.047942
1196.056777,689.485948,-0.000000,10214.842000
1196.057093,842.705048,1480.411884,9252.574275
1196.057409,383.047749,1184.329507,8142.265362
1196.057724,1072.533697,-0.000000,9178.553681
1196.058040,1915.238745,-666.185348,10362.883188
1196.058356,1302.362347,592.164754,10066.800811
1196.058671,842.705048,1332.370696,8586.388927
1196.058987,689.485948,148.041188,8882.471304
1196.059303,919.314598,-814.226536,10288.862594
1196.059618,1532.190996,-444.123565,9918.759623
1196.059934,919.314598,814.226536,9326.594869
1196.060249,306.438199,814.226536,9178.553681
1196.060565,0.000000,-296.082377,9474.636058
1196.060881,1072.533697,-962.267725,9844.739029
1196.061196,919.314598,-0.000000,9474.636058
1196.061512,0.000000,518.144159,9770.718434
1196.061828,0.000000,-0.000000,9030.512492
1196.062143,0.000000,-148.041188,8438.347739
1196.062459,459.657299,-814.226536,10214.842000
1196.062775,766.095498,-666.185348,9548.656652
1196.063090,-306.438199,666.185348,8660.409521
1196.063406,0.000000,-0.000000,8660.409521
1196.063722,766.095498,-1110.308913,9770.718434
1196.064037,919.314598,-888.247130,9696.697840
1196.064353,306.438199,888.247130,9178.553681
1196.064668,0.000000,296.082377,8216.285956
1196.064984,76.609550,-1110.308913,9030.512492
1196.065300,842.705048,-1110.308913,10066.800811
1196.065615,842.705048,-1110.308913,9770.718434
1196.065931,229.828649,-222.061783,8882.471304
1196.066247,-229.828649,-222.061783,9474.636058
1196.066562,0.000000,-1110.308913,9548.656652
1196.066878,766.095498,-814.226536,10288.862594
1196.067194,383.047749,-0.000000,9474.636058
1196.067509,0.000000,-0.000000,8734.430116
1196.067825,0.000000,-222.061783,8956.491898
1196.068141,383.047749,-1776.494261,9474.636058
1196.068456,612.876398,-1258.350101,10288.862594
1196.068772,229.828649,-0.000000,9326.594869
1196.069088,-459.657299,-0.000000,8586.388927
1196.069403,-383.047749,-592.164754,9104.533087
1196.069719,459.657299,-1628.453072,10955.047942
1196.070034,612.876398,-888.247130,9918.759623
1196.070350,76.609550,-0.000000,9252.574275
1196.070666,-383.047749,-888.247130,9252.574275
1196.070981,229.828649,-1258.350101,9918.759623
1196.071297,995.924147,-962.267725,10510.924376
1196.071613,689.485948,592.164754,9104.533087
1196.071928,76.609550,1702.473667,8512.368333
1196.072244,76.609550,-296.082377,9030.512492
1196.072560,383.047749,-1184.329507,9844.739029
1196.072875,1072.533697,-666.185348,10658.965565
1196.073191,612.876398,592.164754,9326.594869
1196.073507,-229.828649,518.144159,8956.491898
1196.073822,459.657299,-592.164754,9622.677246
1196.074138,842.705048,-1110.308913,9770.718434
1196.074454,919.314598,-74.020594,10436.903782
1196.074769,153.219100,666.185348,9326.594869
1196.075085,229.828649,814.226536,8882.471304
1196.075400,536.266849,370.102971,9474.636058
1196.075716,1455.581446,-444.123565,9622.677246
1196.076032,1455.581446,296.082377,9252.574275
1196.076347,1072.533697,296.082377,8734.430116
1196.076663,0.000000,-148.041188,9178.553681
1196.076979,766.095498,-1184.329507,9770.718434
1196.077294,1225.752797,-1036.288319,10807.006753
1196.077610,383.047749,1406.391290,8586.388927
1196.077926,-229.828649,1184.329507,8364.327145
1196.078241,306.438199,-0.000000,8882.471304
1196.078557,153.219100,-888.247130,9918.759623
1196.078873,229.828649,-370.102971,10436.903782
1196.079188,0.000000,296.082377,8956.491898
1196.079504,-383.047749,-0.000000,9252.574275
1196.079819,153.219100,-296.082377,9474.636058
1196.080135,919.314598,-814.226536,9844.739029
1196.080451,995.924147,-666.185348,9474.636058
1196.080766,766.095498,740.205942,8660.409521
1196.081082,536.266849,-148.041188,9104.533087
1196.081398,1149.143247,-1110.308913,10066.800811
1196.081713,1838.629195,-814.226536,10362.883188
1196.082029,1225.752797,222.061783,8216.285956
1196.082345,919.314598,962.267725,8956.491898
1196.082660,1149.143247,-0.000000,8586.388927
1196.082976,1378.971896,-296.082377,9844.739029
1196.083292,1149.143247,518.144159,9474.636058
1196.083607,383.047749,962.267725,8882.471304
1196.083923,0.000000,740.205942,8586.388927
1196.084239,-612.876398,-666.185348,9326.594869
1196.084554,459.657299,-1258.350101,11251.130318
1196.084870,0.000000,-1110.308913,10140.821405
1196.085185,-919.314598,-296.082377,10066.800811
1196.085501,-995.924147,-888.247130,10214.842000
1196.085817,-536.266849,-1184.329507,10288.862594
1196.086132,153.219100,-0.000000,10436.903782
1196.086448,-459.657299,1332.370696,9104.533087
1196.086764,0.000000,1036.288319,8660.409521
1196.087079,-306.438199,-74.020594,9252.574275
1196.087395,229.828649,-666.185348,10140.821405
1196.087711,536.266849,-222.061783,9548.656652
1196.088026,612.876398,444.123565,9696.697840
1196.088342,153.219100,962.267725,8364.327145
1196.088658,536.266849,222.061783,9326.594869
1196.088973,1685.410096,-666.185348,10510.924376
1196.089289,459.657299,-0.000000,9326.594869
1196.089604,153.219100,148.041188,8438.347739
1196.089920,0.000000,-518.144159,9622.677246
1196.090236,842.705048,-1184.329507,10732.986159
1196.090551,1455.581446,-444.123565,9770.718434
1196.090867,766.095498,1332.370696,7994.224174
1196.091183,0.000000,1036.288319,8438.347739
1196.091498,0.000000,-666.185348,9252.574275
1196.091814,689.485948,-1110.308913,9770.718434
1196.092130,76.609550,-74.020594,9696.697840
1196.092445,-612.876398,148.041188,8956.491898
1196.092761,-1149.143247,-1036.288319,9104.533087
1196.093077,-612.876398,-1258.350101,10214.842000
1196.093392,76.609550,-1184.329507,10066.800811
1196.093708,-306.438199,-296.082377,9844.739029
1196.094024,-459.657299,444.123565,8956.491898
1196.094339,-306.438199,-888.247130,8512.368333
1196.094655,383.047749,-888.247130,9474.636058
1196.094970,1149.143247,-1258.350101,10362.883188
1196.095286,689.485948,-148.041188,8660.409521
1196.095602,76.609550,-666.185348,8956.491898
1196.095917,536.266849,-740.205942,9400.615463
1196.096233,1608.800546,-592.164754,9622.677246
1196.096549,1685.410096,370.102971,9030.512492
1196.096864,919.314598,1776.494261,7994.224174
1196.097180,459.657299,-0.000000,9178.553681
1196.097496,1072.533697,-1036.288319,9474.636058
1196.097811,1685.410096,-888.247130,10288.862594
1196.098127,842.705048,-148.041188,9326.594869
1196.098443,229.828649,592.164754,8956.491898
1196.098758,0.000000,-296.082377,9844.739029
1196.099074,76.609550,-1924.535449,10584.944971
1196.099389,383.047749,-740.205942,11177.109724
1196.099705,76.609550,148.041188,9696.697840
1196.100021,306.438199,-518.144159,9400.615463
1196.100336,383.047749,-592.164754,9770.718434
1196.100652,1149.143247,-666.185348,9770.718434
1196.100968,1302.362347,296.082377,9548.656652
1196.101283,612.876398,814.226536,9326.594869
1196.101599,612.876398,296.082377,9548.656652
1196.101915,689.485948,-222.061783,9548.656652
1196.102230,995.924147,-444.123565,10140.821405
1196.102546,1608.800546,-0.000000,9622.677246
1196.102862,842.705048,444.123565,9178.553681
1196.103177,383.047749,-592.164754,9918.759623
1196.103493,1225.752797,-1184.329507,10732.986159
1196.103809,1608.800546,-0.000000,9252.574275
1196.104124,689.485948,740.205942,8512.368333
1196.104440,229.828649,1110.308913,9252.574275
1196.104755,689.485948,-444.123565,9252.574275
1196.105071,919.314598,-814.226536,10362.883188
1196.105387,842.705048,666.185348,9252.574275
1196.105702,0.000000,518.144159,8512.368333
1196.106018,0.000000,296.082377,8882.471304
1196.106334,-153.219100,-888.247130,8956.491898
1196.106649,76.609550,-1036.288319,10066.800811
1196.106965,0.000000,-0.000000,9770.718434
1196.107281,-1072.533697,-222.061783,9918.759623
1196.107596,-995.924147,-74.020594,9178.553681
1196.107912,-536.266849,-1776.494261,9622.677246
1196.108228,76.609550,-740.205942,9770.718434
1196.108543,-459.657299,666.185348,9178.553681
1196.108859,-1072.533697,222.061783,9178.553681
1196.109175,76.609550,-370.102971,9326.594869
1196.109490,229.828649,-1184.329507,10214.842000
1196.109806,995.924147,-148.041188,8734.430116
1196.110121,153.219100,1036.288319,8586.388927
1196.110437,76.609550,-592.164754,8290.306550
1196.110753,612.876398,-814.226536,9474.636058
1196.111068,842.705048,-1036.288319,10214.842000
1196.111384,995.924147,222.061783,9178.553681
1196.111700,306.438199,1480.411884,8660.409521
1196.112015,-383.047749,-518.144159,8438.347739
1196.112331,536.266849,-1036.288319,9622.677246
1196.112647,1149.143247,-1258.350101,10436.903782
1196.112962,612.876398,-518.144159,9474.636058
1196.113278,-229.828649,-296.082377,9178.553681
1196.113594,-153.219100,-1480.411884,9992.780217
1196.113909,919.314598,-1480.411884,10584.944971
1196.114225,689.485948,370.102971,9844.739029
1196.114540,306.438199,1258.350101,9326.594869
1196.114856,229.828649,592.164754,8808.450710
1196.115172,536.266849,-148.041188,9622.677246
1196.115487,1302.362347,-592.164754,10214.842000
1196.115803,1149.143247,148.041188,9696.697840
1196.116119,459.657299,518.144159,9030.512492
1196.116434,383.047749,-888.247130,9844.739029
1196.116750,1072.533697,-1036.288319,10584.944971
1196.117066,919.314598,-962.267725,10510.924376
1196.117381,306.438199,592.164754,9770.718434
1196.117697,306.438199,666.185348,9400.615463
1196.118013,919.314598,-0.000000,9548.656652
1196.118328,1455.581446,-0.000000,10732.986159
1196.118644,1302.362347,370.102971,9326.594869
1196.118960,1149.143247,888.247130,9326.594869
1196.119275,1072.533697,222.061783,8956.491898
1196.119591,1532.190996,-370.102971,9474.636058
1196.119906,2068.457845,-0.000000,9992.780217
1196.120222,1608.800546,740.205942,8438.347739
1196.120538,459.657299,1110.308913,8734.430116
1196.120853,536.266849,-0.000000,9770.718434
1196.121169,459.657299,-814.226536,9326.594869
1196.121485,919.314598,-0.000000,9178.553681
1196.121800,-306.438199,296.082377,9104.533087
1196.122116,-766.095498,-518.144159,9622.677246
1196.122432,-766.095498,-1036.288319,9696.697840
1196.122747,0.000000,-1480.411884,11103.089130
1196.123063,76.609550,-666.185348,9770.718434
1196.123379,-689.485948,444.123565,8956.491898
1196.123694,-383.047749,-222.061783,8956.491898
1196.124010,-229.828649,-1184.329507,9918.759623
1196.124325,689.485948,-1036.288319,9992.780217
1196.124641,229.828649,74.020594,9252.574275
1196.124957,306.438199,444.123565,8882.471304
1196.125272,229.828649,-0.000000,8808.450710
1196.125588,842.705048,-148.041188,8956.491898
1196.125904,1532.190996,-518.144159,9252.574275
1196.126219,459.657299,-74.020594,9400.615463
1196.126535,0.000000,592.164754,8438.347739
1196.126851,76.609550,-666.185348,8438.347739
1196.127166,383.047749,-1554.432478,10436.903782
1196.127482,612.876398,-888.247130,10436.903782
1196.127798,-229.828649,444.123565,9030.512492
1196.128113,-306.438199,-444.123565,9030.512492
1196.128429,-459.657299,-1628.453072,9992.780217
1196.128745,153.219100,-1776.494261,11547.212695
1196.129060,536.266849,-444.123565,8956.491898
1196.129376,0.000000,222.061783,8734.430116
1196.129691,-306.438199,-0.000000,8808.450710
1196.130007,76.609550,-1184.329507,10066.800811
1196.130323,1225.752797,-444.123565,10066.800811
1196.130638,459.657299,370.102971,8734.430116
1196.130954,-229.828649,888.247130,8438.347739
1196.131270,153.219100,-814.226536,9844.739029
1196.131585,1072.533697,-1332.370696,10510.924376
1196.131901,1378.971896,370.102971,9326.594869
1196.132217,919.314598,666.185348,9474.636058
1196.132532,842.705048,-148.041188,9400.615463
1196.132848,1072.533697,-1258.350101,9918.759623
1196.133164,1685.410096,-74.020594,9770.718434
1196.133479,2068.457845,1406.391290,9030.512492
1196.133795,842.705048,1110.308913,9770.718434
1196.134110,536.266849,1406.391290,8142.265362
1196.134426,842.705048,1036.288319,9474.636058
1196.134742,1302.362347,592.164754,9474.636058
1196.135057,536.266849,666.185348,8586.388927
1196.135373,-536.266849,-370.102971,9178.553681
1196.135689,-229.828649,-814.226536,10732.986159
1196.136004,0.000000,-1628.453072,10881.027347
1196.136320,-153.219100,-74.020594,9548.656652
1196.136636,-689.485948,1110.308913,9474.636058
1196.136951,-689.485948,370.102971,9622.677246
1196.137267,153.219100,444.123565,9474.636058
1196.137583,536.266849,-296.082377,9696.697840
1196.137898,919.314598,222.061783,9474.636058
1196.138214,612.876398,222.061783,8882.471304
1196.138530,306.438199,148.041188,8068.244768
1196.138845,1455.581446,-888.247130,9622.677246
1196.139161,1378.971896,-814.226536,9474.636058
1196.139476,689.485948,1184.329507,9030.512492
1196.139792,229.828649,666.185348,8956.491898
1196.140108,76.609550,-370.102971,9252.574275
1196.140423,842.705048,-666.185348,10807.006753
1196.140739,612.876398,-296.082377,9474.636058
1196.141055,153.219100,222.061783,8660.409521
1196.141370,0.000000,-444.123565,10066.800811
1196.141686,0.000000,-1480.411884,10362.883188
1196.142002,689.485948,-1332.370696,9622.677246
1196.142317,153.219100,518.144159,8438.347739
1196.142633,153.219100,370.102971,9104.533087
1196.142949,76.609550,-740.205942,9474.636058
1196.143264,536.266849,-592.164754,9992.780217
1196.143580,919.314598,-444.123565,10140.821405
1196.143896,306.438199,888.247130,8586.388927
1196.144211,153.219100,444.123565,8512.368333
1196.144527,76.609550,-592.164754,9252.574275
1196.144842,995.924147,-888.247130,10140.821405
1196.145158,1225.752797,296.082377,9992.780217
1196.145474,0.000000,592.164754,7772.162391
1196.145789,-229.828649,-518.144159,9326.594869
1196.146105,0.000000,-1776.494261,10436.903782
1196.146421,153.219100,-1776.494261,10214.842000
1196.146736,0.000000,222.061783,9178.553681
1196.147052,-153.219100,592.164754,8882.471304
1196.147368,0.000000,-888.247130,9844.739029
1196.147683,612.876398,-962.267725,10288.862594
1196.147999,1225.752797,-814.226536,9474.636058
1196.148315,536.266849,-0.000000,9178.553681
1196.148630,689.485948,222.061783,9178.553681
1196.148946,612.876398,-666.185348,9622.677246
1196.149261,1762.019645,-0.000000,9770.718434
1196.149577,995.924147,74.020594,8956.491898
1196.149893,689.485948,888.247130,8364.327145
1196.150208,76.609550,592.164754,9104.533087
1196.150524,919.314598,148.041188,10288.862594
1196.150840,919.314598,-296.082377,9178.553681
1196.151155,536.266849,296.082377,9474.636058
1196.151471,76.609550,-370.102971,9696.697840
1196.151787,0.000000,-1184.329507,9696.697840
1196.152103,76.609550,-1406.391290,10362.883188
1196.152418,459.657299,-0.000000,9992.780217
1196.152734,-153.219100,444.123565,9474.636058
1196.153050,0.000000,666.185348,8808.450710
1196.153366,-459.657299,-74.020594,9474.636058
1196.153681,842.705048,-1332.370696,10214.842000
1196.153997,383.047749,-518.144159,9770.718434
1196.154313,0.000000,888.247130,7994.224174
1196.154628,76.609550,-1332.370696,9474.636058
1196.154944,459.657299,-1850.514855,10288.862594
1196.155260,995.924147,-888.247130,10140.821405
1196.155576,995.924147,370.102971,8956.491898
1196.155891,0.000000,-74.020594,9030.512492
1196.156207,153.219100,-1110.308913,10288.862594
1196.156523,1072.533697,-814.226536,9844.739029
1196.156839,1608.800546,-0.000000,9030.512492
1196.157154,842.705048,888.247130,8512.368333
1196.157470,919.314598,-0.000000,8142.265362
1196.157786,1378.971896,-1258.350101,10066.800811
1196.158101,1072.533697,-1036.288319,9770.718434
1196.158417,689.485948,148.041188,9548.656652
1196.158733,0.000000,444.123565,8956.491898
1196.159049,-689.485948,-74.020594,9474.636058
1196.159364,0.000000,-962.267725,10510.924376
1196.159680,76.609550,-740.205942,10066.800811
1196.159996,76.609550,-148.041188,9030.512492
1196.160311,-995.924147,-296.082377,9844.739029
1196.160627,-766.095498,-888.247130,8956.491898
1196.160943,0.000000,-1258.350101,10066.800811
1196.161259,995.924147,-814.226536,10288.862594
1196.161574,306.438199,370.102971,9178.553681
1196.161890,459.657299,370.102971,8956.491898
1196.162206,689.485948,-518.144159,8660.409521
1196.162522,1225.752797,-1036.288319,10066.800811
1196.162837,1225.752797,296.082377,9474.636058
1196.163153,1455.581446,1480.411884,8290.306550
1196.163469,842.705048,1702.473667,8586.388927
1196.163784,1455.581446,-0.000000,9992.780217
1196.164100,1762.019645,-296.082377,9474.636058
1196.164416,919.314598,666.185348,8068.244768
1196.164732,0.000000,222.061783,9252.574275
1196.165047,0.000000,-1258.350101,9770.718434
1196.165363,689.485948,-1406.391290,10955.047942
1196.165679,0.000000,-518.144159,9918.759623
1196.165995,-536.266849,1110.308913,9770.718434
1196.166310,-1072.533697,1406.391290,8438.347739
1196.166626,-306.438199,-592.164754,9696.697840
1196.166942,-459.657299,-1702.473667,10732.986159
1196.167257,76.609550,-814.226536,10807.006753
1196.167573,229.828649,-0.000000,9696.697840
1196.167889,-383.047749,-444.123565,8290.306550
1196.168205,766.095498,-1036.288319,10510.924376
1196.168520,1915.238745,-592.164754,9918.759623
1196.168836,1149.143247,1258.350101,8364.327145
1196.169152,536.266849,1184.329507,9474.636058
1196.169468,995.924147,-296.082377,8808.450710
1196.169783,1072.533697,-592.164754,9474.636058
1196.170099,1685.410096,-444.123565,9770.718434
1196.170415,995.924147,-148.041188,9326.594869
1196.170730,459.657299,-962.267725,9474.636058
1196.171046,689.485948,-666.185348,9844.739029
1196.171362,1838.629195,-1406.391290,10066.800811
1196.171678,766.095498,-296.082377,9178.553681
1196.171993,-76.609550,888.247130,8364.327145
1196.172309,0.000000,-0.000000,9474.636058
1196.172625,0.000000,-814.226536,9548.656652
1196.172941,229.828649,-888.247130,10436.903782
1196.173256,-153.219100,-296.082377,9622.677246
1196.173572,0.000000,-888.247130,9252.574275
1196.173888,-229.828649,-518.144159,8956.491898
1196.174203,153.219100,-1406.391290,9474.636058
1196.174519,459.657299,-592.164754,9918.759623
1196.174835,842.705048,814.226536,9104.533087
1196.175151,536.266849,814.226536,8438.347739
1196.175466,0.000000,148.041188,9474.636058
1196.175782,1149.143247,-1110.308913,10436.903782
1196.176098,766.095498,296.082377,9178.553681
1196.176414,383.047749,1258.350101,8734.430116
1196.176729,536.266849,-222.061783,9252.574275
1196.177045,766.095498,-1036.288319,9474.636058
1196.177361,1762.019645,-1036.288319,9252.574275
1196.177676,612.876398,296.082377,9030.512492
1196.177992,76.609550,-0.000000,8882.471304
1196.178308,0.000000,-370.102971,9548.656652
1196.178624,459.657299,-666.185348,10732.986159
1196.178939,459.657299,-814.226536,9844.739029
1196.179255,536.266849,1628.453072,8586.388927
1196.179571,0.000000,740.205942,8586.388927
1196.179887,306.438199,-518.144159,9326.594869
1196.180202,842.705048,-1110.308913,10214.842000
1196.180518,689.485948,-518.144159,9622.677246
1196.180834,536.266849,518.144159,8882.471304
1196.181149,-306.438199,-148.041188,9326.594869
1196.181465,0.000000,-1258.350101,9918.759623
1196.181781,766.095498,-1110.308913,10732.986159
1196.182097,0.000000,740.205942,9326.594869
1196.182412,0.000000,1406.391290,8438.347739
1196.182728,-383.047749,-0.000000,8512.368333
1196.183044,459.657299,-814.226536,9548.656652
1196.183360,1532.190996,-74.020594,10066.800811
1196.183675,766.095498,-0.000000,8882.471304
1196.183991,0.000000,-222.061783,9252.574275
1196.184307,153.219100,-1184.329507,10362.883188
1196.184622,842.705048,-1480.411884,9844.739029
1196.184938,766.095498,-0.000000,9696.697840
1196.185254,229.828649,888.247130,9252.574275
1196.185570,612.876398,592.164754,8660.409521
1196.185885,536.266849,-0.000000,9548.656652
1196.186201,1072.533697,-370.102971,10140.821405
1196.186517,766.095498,222.061783,8808.450710
1196.186833,536.266849,222.061783,9030.512492
1196.187148,153.219100,-518.144159,8734.430116
1196.187464,459.657299,-1258.350101,10362.883188
1196.187780,1149.143247,-1184.329507,10807.006753
1196.188095,0.000000,-518.144159,9400.615463
1196.188411,-459.657299,444.123565,9474.636058
1196.188727,306.438199,-370.102971,9474.636058
1196.189043,612.876398,-666.185348,10140.821405
1196.189358,1302.362347,-296.082377,9844.739029
1196.189674,229.828649,-0.000000,8808.450710
1196.189990,153.219100,-148.041188,9400.615463
1196.190305,842.705048,-962.267725,10140.821405
1196.190621,1532.190996,-1406.391290,9770.718434
1196.190937,1991.848295,148.041188,10066.800811
1196.191253,995.924147,740.205942,8956.491898
1196.191568,1302.362347,-0.000000,7920.203579
1196.191884,1532.190996,-0.000000,9474.636058
1196.192200,1915.238745,-222.061783,10288.862594
1196.192516,1072.533697,1110.308913,8808.450710
1196.192831,153.219100,1110.308913,8290.306550
1196.193147,229.828649,-370.102971,9030.512492
1196.193463,842.705048,-1554.432478,10510.924376
1196.193778,229.828649,-666.185348,10140.821405
1196.194094,-229.828649,-0.000000,9474.636058
1196.194410,-1225.752797,-370.102971,8956.491898
1196.194726,-689.485948,-1702.473667,9992.780217
1196.195041,-459.657299,-888.247130,10436.903782
1196.195357,-536.266849,370.102971,9474.636058
1196.195673,-1302.362347,-0.000000,9252.574275
1196.195989,-612.876398,-74.020594,9400.615463
1196.196304,536.266849,-74.020594,9252.574275
1196.196620,919.314598,148.041188,8586.388927
1196.196936,-76.609550,666.185348,7994.224174
1196.197251,229.828649,-0.000000,10066.800811
1196.197567,459.657299,-370.102971,8956.491898
1196.197883,766.095498,-1036.288319,9992.780217
1196.198199,229.828649,222.061783,9474.636058
1196.198514,306.438199,518.144159,9548.656652
1196.198830,153.219100,518.144159,8734.430116
1196.199146,153.219100,-74.020594,9992.780217
1196.199462,1149.143247,-666.185348,11029.068536
1196.199777,383.047749,666.185348,8660.409521
1196.200093,76.609550,740.205942,9622.677246
1196.200409,459.657299,-888.247130,9252.574275
1196.200724,612.876398,-1332.370696,9400.615463
1196.201040,612.876398,-962.267725,10732.986159
1196.201356,-306.438199,148.041188,9918.759623
1196.201672,-229.828649,296.082377,10140.821405
1196.201987,0.000000,-666.185348,9474.636058
1196.202303,536.266849,-518.144159,10436.903782
1196.202619,612.876398,-370.102971,9474.636058
1196.202935,383.047749,-74.020594,9104.533087
1196.203250,306.438199,-518.144159,9622.677246
1196.203566,766.095498,-1702.473667,9770.718434
1196.203882,1762.019645,-1036.288319,10214.842000
1196.204197,919.314598,592.164754,8956.491898
1196.204513,536.266849,814.226536,8660.409521
1196.204829,612.876398,-74.020594,8956.491898
1196.205145,1072.533697,-666.185348,10362.883188
1196.205460,1685.410096,-0.000000,10510.924376
1196.205776,766.095498,1110.308913,8734.430116
1196.206092,383.047749,-0.000000,8364.327145
1196.206408,612.876398,-1258.350101,9474.636058
1196.206723,1149.143247,-1184.329507,10288.862594
1196.207039,1838.629195,-222.061783,9918.759623
1196.207355,0.000000,148.041188,9252.574275
1196.207670,-536.266849,-0.000000,9474.636058
1196.207986,306.438199,-1184.329507,10288.862594
1196.208302,1225.752797,-370.102971,9696.697840
1196.208618,229.828649,1036.288319,8438.347739
1196.208933,-229.828649,296.082377,8660.409521
1196.209249,459.657299,-74.020594,9326.594869
1196.209565,1149.143247,-1554.432478,9326.594869
1196.209881,1302.362347,-518.144159,9474.636058
1196.210196,459.657299,814.226536,8586.388927
1196.210512,-306.438199,-0.000000,7994.224174
1196.210828,536.266849,-148.041188,9400.615463
1196.211143,229.828649,-1480.411884,10807.006753
1196.211459,383.047749,-0.000000,10140.821405
1196.211775,-229.828649,666.185348,8512.368333
1196.212091,-689.485948,-0.000000,8364.327145
1196.212406,459.657299,-592.164754,10066.800811
1196.212722,919.314598,-2072.576638,10140.821405
1196.213038,1225.752797,148.041188,9622.677246
1196.213354,153.219100,-0.000000,9104.533087
1196.213669,229.828649,-1554.432478,8882.471304
1196.213985,1378.971896,-1702.473667,10140.821405
1196.214301,1838.629195,-1406.391290,10436.903782
1196.214616,1762.019645,-0.000000,9178.553681
1196.214932,842.705048,370.102971,9474.636058
1196.215248,1378.971896,-0.000000,8808.450710
1196.215564,1991.848295,-0.000000,9474.636058
1196.215879,536.266849,-0.000000,9474.636058
1196.216195,459.657299,444.123565,9030.512492
1196.216511,76.609550,-518.144159,8438.347739
1196.216827,-153.219100,-2220.617826,9770.718434
1196.217142,0.000000,-2368.659014,11399.171507
1196.217458,-919.314598,-2220.617826,10584.944971
1196.217774,-1302.362347,-1406.391290,9400.615463
1196.218089,-2068.457845,-1406.391290,10362.883188
1196.218405,-1378.971896,-2738.761985,11695.253884
1196.218721,-383.047749,-1554.432478,10362.883188
1196.219037,-536.266849,-444.123565,9252.574275
1196.219352,-229.828649,-518.144159,9474.636058
1196.219668,383.047749,-1776.494261,9326.594869
1196.219984,1149.143247,-2072.576638,9992.780217
1196.220299,1378.971896,-962.267725,9844.739029
1196.220615,1302.362347,296.082377,8364.327145
1196.220931,1532.190996,-0.000000,8068.244768
1196.221247,1455.581446,-1110.308913,9104.533087
1196.221562,2068.457845,-2220.617826,10140.821405
1196.221878,2221.676944,-888.247130,9178.553681
1196.222194,1302.362347,222.061783,8660.409521
1196.222510,689.485948,-1184.329507,9030.512492
1196.222825,1455.581446,-2368.659014,10436.903782
1196.223141,1608.800546,-1628.453072,10436.903782
1196.223457,1762.019645,-296.082377,9400.615463
1196.223772,689.485948,-740.205942,8882.471304
1196.224088,383.047749,-2220.617826,9400.615463
1196.224404,1302.362347,-3404.947333,10288.862594
1196.224720,1991.848295,-2738.761985,10807.006753
1196.225035,1838.629195,-1184.329507,8660.409521
1196.225351,1608.800546,-1924.535449,8660.409521
1196.225667,2834.553343,-1924.535449,9030.512492
1196.225983,3677.258390,-1850.514855,9252.574275
1196.226298,4673.182538,-518.144159,8882.471304
1196.226614,2987.772442,444.123565,7402.059420
1196.226930,2681.334243,-740.205942,7328.038826
1196.227245,3140.991542,-1924.535449,9178.553681
1196.227561,3600.648841,-2368.659014,10140.821405
1196.227877,2834.553343,-1332.370696,9918.759623
1196.228193,1991.848295,-592.164754,8512.368333
1196.228508,1149.143247,-1776.494261,9252.574275
1196.228824,1378.971896,-3182.885551,10214.842000
1196.229140,2145.067394,-2886.803174,11103.089130
1196.229456,2145.067394,-1554.432478,10881.027347
1196.229771,1685.410096,-1480.411884,9770.718434
1196.230087,1455.581446,-2220.617826,9474.636058
1196.230403,2145.067394,-2368.659014,9696.697840
1196.230718,2834.553343,-1850.514855,10214.842000
1196.231034,3370.820191,-962.267725,9474.636058
1196.231350,2911.162892,-592.164754,8956.491898
1196.231666,3064.381992,-1628.453072,9252.574275
1196.231981,3294.210641,-2516.700203,10288.862594
1196.232297,3677.258390,-2294.638420,9474.636058
1196.232613,4596.572988,-1480.411884,9548.656652
1196.232929,4366.744339,-888.247130,8956.491898
1196.233244,4060.306139,-1850.514855,9326.594869
1196.233560,3753.867940,-1702.473667,9918.759623
1196.233876,3600.648841,-1924.535449,9474.636058
1196.234191,3370.820191,-1332.370696,9252.574275
1196.234507,2987.772442,-666.185348,8660.409521
1196.234823,2987.772442,-1258.350101,8882.471304
1196.235139,2145.067394,-2368.659014,9548.656652
1196.235454,1532.190996,-2368.659014,9770.718434
1196.235770,1991.848295,-2294.638420,9252.574275
1196.236086,1762.019645,-2886.803174,10066.800811
1196.236402,1455.581446,-2812.782580,9992.780217
1196.236717,1608.800546,-3478.967927,10732.986159
1196.237033,1685.410096,-2664.741391,10658.965565
1196.237349,1608.800546,-2368.659014,9844.739029
1196.237664,2528.115143,-1776.494261,10214.842000
1196.237980,3524.039291,-1110.308913,8586.388927
1196.238296,3064.381992,-814.226536,8364.327145
1196.238612,3677.258390,-1258.350101,9030.512492
1196.238927,4213.525239,-2220.617826,8586.388927
1196.239243,3983.696590,-1850.514855,8068.244768
1196.239559,4213.525239,-1332.370696,9104.533087
1196.239875,3753.867940,-1628.453072,8068.244768
1196.240190,3217.601092,-1924.535449,8882.471304
1196.240506,2451.505594,-2220.617826,9252.574275
1196.240822,1302.362347,-2664.741391,8808.450710
1196.241137,995.924147,-2368.659014,9844.739029
1196.241453,0.000000,-3182.885551,10288.862594
1196.241769,0.000000,-3775.050304,10658.965565
1196.242085,0.000000,-3330.926739,10436.903782
1196.242400,0.000000,-2812.782580,10140.821405
1196.242716,153.219100,-3330.926739,9918.759623
1196.243032,766.095498,-4071.132681,10510.924376
1196.243348,919.314598,-2960.823768,9770.718434
1196.243663,1378.971896,-2516.700203,9548.656652
1196.243979,2911.162892,-2368.659014,9400.615463
1196.244295,3217.601092,-1628.453072,9252.574275
1196.244610,3294.210641,-1702.473667,8956.491898
1196.244926,4213.525239,-2368.659014,8882.471304
1196.245242,3907.087040,-2072.576638,8364.327145
1196.245558,3907.087040,-1406.391290,8956.491898
1196.245873,3600.648841,-1776.494261,9474.636058
1196.246189,3677.258390,-2220.617826,10066.800811
1196.246505,3600.648841,-1776.494261,9400.615463
1196.246821,2681.334243,-1998.556043,8808.450710
1196.247136,2528.115143,-2590.720797,9770.718434
1196.247452,2221.676944,-2590.720797,9770.718434
1196.247768,2068.457845,-2738.761985,10362.883188
1196.248083,1838.629195,-3330.926739,10362.883188
1196.248399,1991.848295,-3108.864956,10807.006753
1196.248715,1915.238745,-2886.803174,10214.842000
1196.249031,1915.238745,-3256.906145,9548.656652
1196.249346,2374.896044,-3256.906145,10066.800811
1196.249662,2987.772442,-2664.741391,9548.656652
1196.249978,3294.210641,-1628.453072,8808.450710
1196.250294,3217.601092,-1628.453072,8808.450710
1196.250609,3064.381992,-1702.473667,8660.409521
1196.250925,3294.210641,-2220.617826,9400.615463
1196.251241,3753.867940,-2072.576638,9178.553681
1196.251557,3753.867940,-1480.411884,8586.388927
1196.251872,3753.867940,-1924.535449,9030.512492
1196.252188,3983.696590,-2590.720797,9400.615463
1196.252504,3907.087040,-2738.761985,9844.739029
1196.252820,3064.381992,-2368.659014,9474.636058
1196.253135,2834.553343,-1998.556043,9252.574275
1196.253451,2604.724693,-1924.535449,9696.697840
1196.253767,2834.553343,-2220.617826,9770.718434
1196.254083,2451.505594,-1924.535449,10140.821405
1196.254398,2068.457845,-1776.494261,9548.656652
1196.254714,2298.286494,-2220.617826,9252.574275
1196.255030,2374.896044,-1924.535449,9252.574275
1196.255346,2451.505594,-2220.617826,9326.594869
1196.255661,1455.581446,-2294.638420,9548.656652
1196.255977,1685.410096,-2812.782580,10362.883188
1196.256293,1762.019645,-3108.864956,10288.862594
1196.256609,2145.067394,-2516.700203,9992.780217
1196.256924,2451.505594,-1924.535449,9252.574275
1196.257240,2451.505594,-1554.432478,8660.409521
1196.257556,2757.943793,-1332.370696,8882.471304
1196.257872,3140.991542,-1406.391290,8956.491898
1196.258187,3140.991542,-1554.432478,9030.512492
1196.258503,2987.772442,-2072.576638,9104.533087
1196.258819,2451.505594,-2516.700203,9622.677246
1196.259135,2298.286494,-2812.782580,10066.800811
1196.259450,2757.943793,-2960.823768,9918.759623
1196.259766,2834.553343,-2516.700203,9622.677246
1196.260082,2451.505594,-1776.494261,9400.615463
1196.260397,2068.457845,-1406.391290,9326.594869
1196.260713,2374.896044,-962.267725,9030.512492
1196.261029,2298.286494,-666.185348,9178.553681
1196.261345,2145.067394,-592.164754,9178.553681
1196.261660,1608.800546,-1258.350101,10066.800811
1196.261976,1149.143247,-2590.720797,9918.759623
1196.262292,1455.581446,-3478.967927,10362.883188
1196.262608,1455.581446,-3552.988522,10510.924376
1196.262923,2298.286494,-2664.741391,10066.800811
1196.263239,2451.505594,-1554.432478,9474.636058
1196.263555,2374.896044,-1628.453072,9696.697840
1196.263871,2528.115143,-962.267725,9326.594869
1196.264186,2451.505594,-592.164754,9104.533087
1196.264502,2451.505594,-370.102971,8956.491898
1196.264818,2451.505594,-370.102971,9252.574275
1196.265134,2757.943793,-1924.535449,9178.553681
1196.265449,2987.772442,-3182.885551,10066.800811
1196.265765,3217.601092,-3701.029710,10288.862594
1196.266081,3064.381992,-4367.215058,10362.883188
1196.266397,2834.553343,-4145.153275,10214.842000
1196.266712,3064.381992,-3552.988522,10288.862594
1196.267028,3294.210641,-2812.782580,9918.759623
1196.267344,3447.429741,-1554.432478,9030.512492
1196.267660,3294.210641,-814.226536,8586.388927
1196.267975,2987.772442,-592.164754,8364.327145
1196.268291,3217.601092,-370.102971,7920.203579
1196.268607,2604.724693,-740.205942,8438.347739
1196.268923,2221.676944,-1776.494261,8808.450710
1196.269238,1762.019645,-3034.844362,9474.636058
1196.269554,1225.752797,-4441.235652,10066.800811
1196.269870,842.705048,-5255.462188,11251.130318
1196.270186,536.266849,-5847.626942,11621.233289
1196.270501,919.314598,-5255.462188,11843.295072
1196.270817,2145.067394,-4145.153275,11251.130318
1196.271133,2604.724693,-2738.761985,10362.883188
1196.271449,3600.648841,-2072.576638,9326.594869
1196.271764,4596.572988,-1184.329507,8438.347739
1196.272080,5592.497135,-740.205942,7254.018232
1196.272396,5669.106685,-0.000000,6809.894666
1196.272712,5439.278036,370.102971,6365.771101
1196.273027,4443.353888,-296.082377,6809.894666
1196.273343,3983.696590,-740.205942,7698.141797
1196.273659,2374.896044,-1184.329507,8438.347739
1196.273975,1072.533697,-1998.556043,9252.574275
1196.274290,0.000000,-3256.906145,10510.924376
1196.274606,-689.485948,-4219.173869,11103.089130
1196.274922,-995.924147,-4663.297435,12287.418637
1196.275238,-459.657299,-5033.400406,11917.315666
1196.275553,-229.828649,-4959.379811,11621.233289
1196.275869,536.266849,-4737.318029,10807.006753
1196.276185,1915.238745,-4071.132681,10362.883188
1196.276501,3140.991542,-2960.823768,9622.677246
1196.276816,4213.525239,-1480.411884,8290.306550
1196.277132,5209.449386,-74.020594,7254.018232
1196.277448,5515.887586,1258.350101,6661.853478
1196.277764,5898.935335,1258.350101,6735.874072
1196.278079,5898.935335,592.164754,7105.977043
1196.278395,5056.230287,-296.082377,7846.182985
1196.278711,4136.915689,-1554.432478,8512.368333
1196.279027,2604.724693,-3182.885551,10066.800811
1196.279342,1685.410096,-4219.173869,11177.109724
1196.279658,689.485948,-4293.194464,11473.192101
1196.279974,229.828649,-4219.173869,11695.253884
1196.280290,-459.657299,-3478.967927,11547.212695
1196.280605,-766.095498,-3034.844362,11325.150913
1196.280921,0.000000,-3034.844362,10881.027347
1196.281237,459.657299,-2368.659014,10140.821405
1196.281553,1532.190996,-1628.453072,9400.615463
1196.281868,2451.505594,-888.247130,8956.491898
1196.282184,3294.210641,-666.185348,8734.430116
1196.282500,3524.039291,-1184.329507,8216.285956
1196.282816,3677.258390,-1480.411884,8808.450710
1196.283131,3370.820191,-1924.535449,8882.471304
1196.283447,3217.601092,-1924.535449,9400.615463
1196.283763,2757.943793,-1998.556043,9622.677246
1196.284078,2528.115143,-1628.453072,9548.656652
1196.284394,2145.067394,-1406.391290,10214.842000
1196.284710,2221.676944,-814.226536,9548.656652
1196.285026,2221.676944,-1628.453072,9622.677246
1196.285341,2298.286494,-1850.514855,9992.780217
1196.285657,2145.067394,-2368.659014,9770.718434
1196.285973,2374.896044,-2368.659014,9548.656652
1196.286289,2451.505594,-1998.556043,9474.636058
1196.286604,2451.505594,-1776.494261,9400.615463
1196.286920,2451.505594,-1924.535449,9474.636058
1196.287236,2528.115143,-1554.432478,9548.656652
1196.287552,1608.800546,-1776.494261,9548.656652
1196.287867,1991.848295,-2220.617826,9696.697840
1196.288183,1838.629195,-1998.556043,9696.697840
1196.288499,2145.067394,-1554.432478,9474.636058
1196.288815,1915.238745,-888.247130,9326.594869
1196.289130,2145.067394,-444.123565,8512.368333
1196.289446,1991.848295,-592.164754,8512.368333
1196.289762,1838.629195,-888.247130,8512.368333
1196.290078,1608.800546,-962.267725,8882.471304
1196.290393,1532.190996,-1628.453072,9770.718434
1196.290709,1455.581446,-1998.556043,9474.636058
1196.291025,1762.019645,-2294.638420,9844.739029
1196.291341,1991.848295,-2368.659014,10066.800811
1196.291656,1915.238745,-2812.782580,9992.780217
1196.291972,2221.676944,-2738.761985,9918.759623
1196.292288,2604.724693,-1998.556043,9696.697840
1196.292604,2911.162892,-2146.597232,9548.656652
1196.292919,2528.115143,-1850.514855,9622.677246
1196.293235,2987.772442,-1480.411884,9400.615463
1196.293551,2911.162892,-1258.350101,9326.594869
1196.293867,3294.210641,-1480.411884,9104.533087
1196.294182,3294.210641,-1554.432478,9400.615463
1196.294498,3677.258390,-1776.494261,9400.615463
1196.294814,3217.601092,-2220.617826,9252.574275
1196.295130,3983.696590,-2738.761985,9474.636058
1196.295445,4060.306139,-2886.803174,9696.697840
1196.295761,4213.525239,-3330.926739,9844.739029
1196.296077,3983.696590,-3404.947333,10288.862594
1196.296393,3830.477490,-3256.906145,10436.903782
1196.296708,3294.210641,-3182.885551,10214.842000
1196.297024,3217.601092,-2886.803174,9918.759623
1196.297340,2911.162892,-2516.700203,10066.800811
1196.297656,2681.334243,-2442.679609,9622.677246
1196.297971,2911.162892,-2812.782580,9400.615463
1196.298287,2757.943793,-3256.906145,8734.430116
1196.298603,2757.943793,-3256.906145,9030.512492
1196.298919,2681.334243,-3701.029710,9400.615463
1196.299234,2604.724693,-3923.091493,9844.739029
1196.299550,2604.724693,-3997.112087,9622.677246
1196.299866,2528.115143,-4071.132681,10066.800811
1196.300182,2451.505594,-4441.235652,9918.759623
1196.300497,2528.115143,-4293.194464,10066.800811
1196.300813,2604.724693,-3997.112087,9696.697840
1196.301129,2451.505594,-3701.029710,9474.636058
1196.301445,2834.553343,-3478.967927,9030.512492
1196.301760,2987.772442,-2590.720797,8586.388927
1196.302076,3140.991542,-2368.659014,8512.368333
1196.302392,2987.772442,-2368.659014,8438.347739
1196.302708,3064.381992,-2738.761985,8734.430116
1196.303023,2987.772442,-3478.967927,9326.594869
1196.303339,2834.553343,-3849.070898,9696.697840
1196.303655,2757.943793,-4071.132681,9918.759623
1196.303971,2451.505594,-4293.194464,9696.697840
1196.304286,2451.505594,-4071.132681,9770.718434
1196.304602,3140.991542,-3404.947333,9474.636058
1196.304918,3140.991542,-2220.617826,9030.512492
1196.305234,2834.553343,-1480.411884,8364.327145
1196.305549,2604.724693,-962.267725,7920.203579
1196.305865,3064.381992,-814.226536,7994.224174
1196.306181,2451.505594,-592.164754,7920.203579
1196.306497,1225.752797,-592.164754,7846.182985
1196.306812,689.485948,-1406.391290,8438.347739
1196.307128,76.609550,-2590.720797,9400.615463
1196.307444,229.828649,-3627.009116,10288.862594
1196.307759,229.828649,-4071.132681,10658.965565
1196.308075,306.438199,-4589.276840,10955.047942
1196.308391,842.705048,-4663.297435,11325.150913
1196.308707,1532.190996,-4071.132681,10881.027347
1196.309022,2451.505594,-3108.864956,10436.903782
1196.309338,3217.601092,-1406.391290,9474.636058
1196.309654,4213.525239,-370.102971,8364.327145
1196.309970,4366.744339,814.226536,7624.121203
1196.310285,4596.572988,1332.370696,7105.977043
1196.310601,4366.744339,1628.453072,6809.894666
1196.310917,3600.648841,1702.473667,7476.080014
1196.311233,3064.381992,1258.350101,8142.265362
1196.311548,1915.238745,148.041188,8956.491898
1196.311864,689.485948,-1332.370696,9918.759623
1196.312180,0.000000,-2590.720797,11177.109724
1196.312496,-1072.533697,-3849.070898,12287.418637
1196.312811,-1072.533697,-4589.276840,13175.665768
1196.313127,-842.705048,-4293.194464,13175.665768
1196.313443,76.609550,-3997.112087,12583.501014
1196.313759,1378.971896,-3182.885551,12065.356855
1196.314074,2451.505594,-1702.473667,10658.965565
1196.314390,3524.039291,-962.267725,9474.636058
1196.314706,4979.620737,666.185348,8438.347739
1196.315022,6435.202183,1702.473667,7402.059420
1196.315337,6511.811733,2442.679609,7105.977043
1196.315653,6435.202183,2368.659014,7105.977043
1196.315969,6128.763984,1332.370696,7550.100608
1196.316285,4903.011187,-74.020594,8586.388927
1196.316600,3830.477490,-1850.514855,9770.718434
1196.316916,2911.162892,-3627.009116,11177.109724
1196.317232,1532.190996,-4145.153275,12065.356855
1196.317548,536.266849,-4219.173869,12139.377449
1196.317863,0.000000,-3923.091493,11991.336260
1196.318179,766.095498,-3627.009116,11917.315666
1196.318495,919.314598,-2886.803174,10955.047942
1196.318811,1378.971896,-2146.597232,9918.759623
1196.319126,1838.629195,-1776.494261,9474.636058
1196.319442,2681.334243,-2146.597232,9178.553681
1196.319758,3753.867940,-1998.556043,8882.471304
1196.320074,4519.963438,-2294.638420,8956.491898
1196.320389,4673.182538,-2368.659014,8586.388927
1196.320705,4749.792088,-3108.864956,8808.450710
1196.321021,4749.792088,-3182.885551,8808.450710
1196.321337,4596.572988,-2590.720797,9030.512492
1196.321652,4903.011187,-2590.720797,8956.491898
1196.321968,3983.696590,-1776.494261,8216.285956
1196.322284,2987.772442,-1332.370696,8142.265362
1196.322600,2911.162892,-2812.782580,9178.553681
1196.322915,2451.505594,-3108.864956,9400.615463
1196.323231,1302.362347,-3478.967927,8882.471304
1196.323547,1072.533697,-3849.070898,9252.574275
1196.323863,995.924147,-4737.318029,9252.574275
1196.324178,1072.533697,-4367.215058,9178.553681
1196.324494,1838.629195,-3552.988522,8956.491898
1196.324810,536.266849,-3404.947333,8808.450710
1196.325126,842.705048,-4071.132681,10066.800811
1196.325441,1149.143247,-4663.297435,10066.800811
1196.325757,1378.971896,-4293.194464,9622.677246
1196.326073,1915.238745,-3552.988522,9696.697840
1196.326389,2374.896044,-3330.926739,8956.491898
1196.326704,2987.772442,-2812.782580,8586.388927
1196.327020,3600.648841,-2664.741391,8438.347739
1196.327336,3753.867940,-2812.782580,8142.265362
1196.327652,3294.210641,-1776.494261,8216.285956
1196.327967,3294.210641,-1776.494261,8586.388927
1196.328283,2987.772442,-1850.514855,8364.327145
1196.328599,3064.381992,-1480.411884,8734.430116
1196.328915,2681.334243,-1406.391290,8660.409521
1196.329230,2451.505594,-1850.514855,8068.244768
1196.329546,1455.581446,-2368.659014,9400.615463
1196.329862,995.924147,-2886.803174,9622.677246
1196.330178,689.485948,-3923.091493,10658.965565
1196.330493,153.219100,-3404.947333,11399.171507
1196.330809,-229.828649,-3552.988522,11029.068536
1196.331125,-306.438199,-3627.009116,11399.171507
1196.331440,995.924147,-3108.864956,11399.171507
1196.331756,1532.190996,-2886.803174,10510.924376
1196.332072,2374.896044,-1850.514855,9770.718434
1196.332388,3753.867940,-1406.391290,9548.656652
1196.332703,4979.620737,-370.102971,8216.285956
1196.333019,5822.325785,-444.123565,7846.182985
1196.333335,6435.202183,-740.205942,8142.265362
1196.333651,5898.935335,-370.102971,8142.265362
1196.333966,5286.058936,-0.000000,8364.327145
1196.334282,4213.525239,-444.123565,8734.430116
1196.334598,4290.134789,-222.061783,9474.636058
1196.334914,2451.505594,-518.144159,10658.965565
1196.335229,1532.190996,-666.185348,10658.965565
1196.335545,842.705048,-1554.432478,10807.006753
1196.335861,229.828649,-2590.720797,11769.274478
1196.336177,-306.438199,-3108.864956,11843.295072
1196.336492,0.000000,-3034.844362,11843.295072
1196.336808,536.266849,-2368.659014,11547.212695
1196.337124,1302.362347,-2812.782580,11325.150913
1196.337440,2145.067394,-2886.803174,10955.047942
1196.337755,3064.381992,-740.205942,9548.656652
1196.338071,3907.087040,-666.185348,8808.450710
1196.338387,4979.620737,-148.041188,8586.388927
1196.338703,4903.011187,962.267725,8438.347739
1196.339018,5592.497135,-222.061783,7846.182985
1196.339334,5592.497135,-222.061783,7846.182985
1196.339650,4213.525239,-222.061783,7994.224174
1196.339966,3064.381992,-1184.329507,8660.409521
1196.340281,2757.943793,-1406.391290,9326.594869
1196.340597,1378.971896,-1184.329507,9696.697840
1196.340913,1072.533697,-1924.535449,10362.883188
1196.341229,-306.438199,-3256.906145,10288.862594
1196.341544,-689.485948,-3849.070898,10881.027347
1196.341860,-536.266849,-4737.318029,10881.027347
1196.342176,0.000000,-4663.297435,10140.821405
1196.342492,1685.410096,-3256.906145,11695.253884
1196.342807,1991.848295,-3330.926739,9992.780217
1196.343123,2528.115143,-2368.659014,8808.450710
1196.343439,3370.820191,-3108.864956,8512.368333
1196.343755,4060.306139,-2294.638420,8438.347739
1196.344070,4903.011187,-666.185348,7254.018232
1196.344386,4903.011187,-0.000000,6735.874072
1196.344702,4979.620737,-0.000000,6735.874072
1196.345018,3677.258390,-666.185348,7328.038826
1196.345333,3370.820191,-1184.329507,8068.244768
1196.345649,2987.772442,-1702.473667,8290.306550
1196.345965,2145.067394,-1480.411884,9178.553681
1196.346281,1915.238745,-2590.720797,9844.739029
1196.346596,1072.533697,-3182.885551,9030.512492
1196.346912,153.219100,-4219.173869,10658.965565
1196.347228,383.047749,-4145.153275,11547.212695
1196.347544,306.438199,-3478.967927,10288.862594
1196.347859,919.314598,-2368.659014,10362.883188
1196.348175,459.657299,-1850.514855,9326.594869
1196.348491,1608.800546,-2220.617826,9770.718434
1196.348807,2451.505594,-1776.494261,9696.697840
1196.349122,3294.210641,-1184.329507,8956.491898
1196.349438,3830.477490,-370.102971,8290.306550
1196.349754,4060.306139,222.061783,8512.368333
1196.350070,3600.648841,-222.061783,7698.141797
1196.350385,3600.648841,-1110.308913,8956.491898
1196.350701,4060.306139,-1184.329507,9178.553681
1196.351017,2757.943793,148.041188,8586.388927
1196.351333,1838.629195,148.041188,8882.471304
1196.351648,1149.143247,-1258.350101,9400.615463
1196.351964,689.485948,-1258.350101,10510.924376
1196.352280,842.705048,-888.247130,11029.068536
1196.352596,-383.047749,-1924.535449,10658.965565
1196.352911,-995.924147,-2368.659014,11325.150913
1196.353227,-842.705048,-2886.803174,11325.150913
1196.353543,-612.876398,-3330.926739,11695.253884
1196.353859,-612.876398,-1554.432478,11103.089130
1196.354174,153.219100,-962.267725,10955.047942
1196.354490,-153.219100,-592.164754,10140.821405
1196.354806,612.876398,-444.123565,10066.800811
1196.355122,1225.752797,-296.082377,9844.739029
1196.355437,2528.115143,814.226536,9104.533087
1196.355753,2451.505594,1480.411884,7550.100608
1196.356069,1915.238745,1554.432478,7920.203579
1196.356384,1685.410096,592.164754,8068.244768
1196.356700,1915.238745,-296.082377,9474.636058
1196.357016,1455.581446,370.102971,9326.594869
1196.357332,306.438199,592.164754,8956.491898
1196.357647,-995.924147,-0.000000,9474.636058
1196.357963,-1915.238745,-1480.411884,10658.965565
1196.358279,-459.657299,-1998.556043,12065.356855
1196.358595,-153.219100,-1480.411884,10732.986159
1196.358910,-612.876398,-444.123565,9918.759623
1196.359226,-612.876398,-592.164754,9178.553681
1196.359542,766.095498,-1998.556043,10436.903782
1196.359858,1149.143247,-296.082377,8882.471304
1196.360173,1378.971896,1036.288319,9400.615463
1196.360489,1378.971896,740.205942,7698.141797
1196.360805,76.609550,1332.370696,7254.018232
1196.361121,689.485948,-222.061783,9400.615463
1196.361436,995.924147,888.247130,8290.306550
1196.361752,766.095498,1702.473667,8512.368333
1196.362068,-229.828649,1258.350101,9030.512492
1196.362384,-383.047749,148.041188,7772.162391
1196.362699,-459.657299,-1258.350101,9696.697840
1196.363015,-459.657299,-1332.370696,10436.903782
1196.363331,-1072.533697,-740.205942,10066.800811
1196.363647,-1608.800546,-1110.308913,10436.903782
1196.363962,-1685.410096,-1998.556043,10807.006753
1196.364278,-919.314598,-2072.576638,11917.315666
1196.364594,0.000000,222.061783,9844.739029
1196.364910,0.000000,1332.370696,8808.450710
1196.365225,0.000000,1110.308913,8290.306550
1196.365541,1762.019645,296.082377,9178.553681
1196.365857,2374.896044,814.226536,8734.430116
1196.366173,2298.286494,1036.288319,8216.285956
1196.366488,1915.238745,1258.350101,7994.224174
1196.366804,383.047749,814.226536,7994.224174
1196.367120,995.924147,-592.164754,9770.718434
1196.367436,842.705048,-666.185348,11473.192101
1196.367751,612.876398,222.061783,9844.739029
1196.368067,-459.657299,518.144159,8364.327145
1196.368383,-459.657299,-1258.350101,10288.862594
1196.368699,612.876398,-2590.720797,10881.027347
1196.369014,766.095498,-888.247130,10510.924376
1196.369330,306.438199,-0.000000,9770.718434
1196.369646,-153.219100,-370.102971,9252.574275
1196.369962,612.876398,-592.164754,10436.903782
1196.370277,1225.752797,-518.144159,9696.697840
1196.370593,1149.143247,444.123565,8882.471304
1196.370909,842.705048,1110.308913,9252.574275
1196.371225,459.657299,-0.000000,9178.553681
1196.371540,1378.971896,-444.123565,9400.615463
1196.371856,1302.362347,-0.000000,9400.615463
1196.372172,766.095498,-74.020594,9326.594869
1196.372488,229.828649,-0.000000,8956.491898
1196.372803,842.705048,-1036.288319,10214.842000
1196.373119,229.828649,-1850.514855,10732.986159
1196.373435,76.609550,-740.205942,10807.006753
1196.373751,-153.219100,-962.267725,9474.636058
1196.374066,-612.876398,-518.144159,9474.636058
1196.374382,229.828649,-1924.535449,9992.780217
1196.374698,1225.752797,-518.144159,9474.636058
1196.375014,689.485948,-666.185348,8660.409521
1196.375329,459.657299,222.061783,8956.491898
1196.375645,153.219100,-0.000000,8364.327145
1196.375961,689.485948,-1702.473667,9548.656652
1196.376277,153.219100,-1184.329507,9992.780217
1196.376592,689.485948,-740.205942,9548.656652
1196.376908,-229.828649,-666.185348,8068.244768
1196.377224,-612.876398,-1184.329507,9400.615463
1196.377540,-153.219100,-1998.556043,10436.903782
1196.377855,919.314598,-740.205942,9400.615463
1196.378171,153.219100,962.267725,8290.306550
1196.378487,0.000000,1184.329507,7698.141797
1196.378803,76.609550,-370.102971,9326.594869
1196.379118,1608.800546,-1184.329507,9770.718434
1196.379434,1072.533697,-222.061783,9326.594869
1196.379750,383.047749,-0.000000,9104.533087
1196.380066,-689.485948,-444.123565,8956.491898
1196.380381,383.047749,-1406.391290,9992.780217
1196.380697,995.924147,-296.082377,10214.842000
1196.381013,306.438199,888.247130,9474.636058
1196.381329,-919.314598,888.247130,8438.347739
1196.381644,-536.266849,-370.102971,9622.677246
1196.381960,0.000000,-1036.288319,10066.800811
1196.382276,919.314598,-370.102971,10658.965565
1196.382592,383.047749,740.205942,8734.430116
1196.382907,-153.219100,444.123565,7698.141797
1196.383223,153.219100,-1036.288319,9770.718434
1196.383539,1378.971896,-1184.329507,9622.677246
1196.383855,1072.533697,-0.000000,8734.430116
1196.384170,0.000000,888.247130,9474.636058
1196.384486,-229.828649,296.082377,9104.533087
1196.384802,1225.752797,-74.020594,9474.636058
1196.385118,842.705048,1036.288319,9252.574275
1196.385433,153.219100,814.226536,9178.553681
1196.385749,-459.657299,-74.020594,9548.656652
1196.386065,-153.219100,-148.041188,9178.553681
1196.386380,-229.828649,-1184.329507,10214.842000
1196.386696,153.219100,-1480.411884,11177.109724
1196.387012,-383.047749,-370.102971,10362.883188
1196.387328,-842.705048,962.267725,9548.656652
1196.387643,-536.266849,-592.164754,10436.903782
1196.387959,536.266849,-1184.329507,11251.130318
1196.388275,689.485948,148.041188,9622.677246
1196.388591,0.000000,1924.535449,8808.450710
1196.388906,1149.143247,518.144159,8808.450710
1196.389222,1915.238745,-592.164754,9992.780217
1196.389538,1915.238745,-0.000000,9770.718434
1196.389854,1378.971896,1110.308913,9178.553681
1196.390169,766.095498,1702.473667,8364.327145
1196.390485,536.266849,1110.308913,8586.388927
1196.390801,383.047749,-0.000000,9770.718434
1196.391117,1149.143247,814.226536,10436.903782
1196.391432,0.000000,-148.041188,10658.965565
1196.391748,-612.876398,296.082377,8956.491898
1196.392064,-306.438199,-740.205942,9548.656652
1196.392380,612.876398,-2220.617826,10732.986159
1196.392695,995.924147,-222.061783,10066.800811
1196.393011,-459.657299,222.061783,9326.594869
1196.393327,76.609550,592.164754,9326.594869
1196.393643,459.657299,-1406.391290,9770.718434
1196.393958,919.314598,-370.102971,9400.615463
1196.394274,1991.848295,296.082377,9400.615463
1196.394590,612.876398,296.082377,7698.141797
1196.394906,1378.971896,-0.000000,9474.636058
1196.395221,2145.067394,-0.000000,9474.636058
1196.395537,2528.115143,-0.000000,9104.533087
1196.395853,1838.629195,1110.308913,7994.224174
1196.396169,995.924147,-0.000000,8290.306550
1196.396484,1455.581446,-962.267725,9474.636058
1196.396800,1532.190996,-1628.453072,9844.739029
1196.397116,612.876398,-1184.329507,10214.842000
1196.397432,0.000000,-518.144159,10362.883188
1196.397747,-459.657299,-962.267725,9474.636058
1196.398063,153.219100,-1110.308913,9178.553681
1196.398379,306.438199,-0.000000,9178.553681
1196.398695,1225.752797,296.082377,9696.697840
1196.399010,-689.485948,-0.000000,9326.594869
1196.399326,0.000000,-592.164754,9474.636058
1196.399642,459.657299,-2146.597232,9400.615463
1196.399958,153.219100,-518.144159,9030.512492
1196.400273,0.000000,-518.144159,9178.553681
1196.400589,-612.876398,-740.205942,9474.636058
1196.400905,-536.266849,-962.267725,10140.821405
1196.401221,689.485948,-1258.350101,9548.656652
1196.401536,459.657299,-74.020594,9178.553681
1196.401852,-229.828649,-222.061783,9252.574275
1196.402168,76.609550,-592.164754,9474.636058
1196.402484,919.314598,-962.267725,8882.471304
1196.402799,995.924147,-740.205942,9178.553681
1196.403115,995.924147,222.061783,9104.533087
1196.403431,383.047749,-0.000000,8216.285956
1196.403747,0.000000,-1184.329507,9474.636058
1196.404062,153.219100,-1628.453072,10214.842000
1196.404378,842.705048,-888.247130,9548.656652
1196.404694,612.876398,-0.000000,9104.533087
1196.405010,-229.828649,-0.000000,9030.512492
1196.405325,0.000000,-1924.535449,10214.842000
1196.405641,1149.143247,-1628.453072,10362.883188
1196.405957,383.047749,-370.102971,9252.574275
1196.406273,0.000000,-0.000000,9326.594869
1196.406588,153.219100,-222.061783,9178.553681
1196.406904,919.314598,-1406.391290,9622.677246
1196.407220,1302.362347,296.082377,10066.800811
1196.407536,1302.362347,740.205942,9548.656652
1196.407851,689.485948,1258.350101,7846.182985
1196.408167,919.314598,740.205942,9104.533087
1196.408483,1225.752797,-148.041188,9474.636058
1196.408799,1378.971896,370.102971,9696.697840
1196.409114,1149.143247,666.185348,9696.697840
1196.409430,229.828649,666.185348,9326.594869
1196.409746,612.876398,-222.061783,9770.718434
1196.410062,536.266849,-666.185348,10362.883188
1196.410377,766.095498,222.061783,10066.800811
1196.410693,0.000000,1480.411884,9030.512492
1196.411009,-306.438199,888.247130,8882.471304
1196.411325,612.876398,-888.247130,10288.862594
1196.411640,229.828649,-1184.329507,10658.965565
1196.411956,536.266849,296.082377,9918.759623
1196.412272,153.219100,666.185348,8882.471304
1196.412588,459.657299,222.061783,9030.512492
1196.412903,842.705048,-222.061783,9178.553681
1196.413219,1455.581446,296.082377,10214.842000
1196.413535,612.876398,1110.308913,8882.471304
1196.413851,-612.876398,888.247130,9030.512492
1196.414166,-229.828649,-222.061783,10214.842000
1196.414482,153.219100,-444.123565,10140.821405
1196.414798,76.609550,740.205942,10288.862594
1196.415114,-153.219100,666.185348,9992.780217
1196.415429,-1149.143247,-74.020594,8808.450710
1196.415745,-306.438199,-1110.308913,10732.986159
1196.416061,153.219100,-1406.391290,10807.006753
1196.416377,0.000000,-148.041188,9770.718434
1196.416692,-229.828649,222.061783,9696.697840
1196.417008,-229.828649,-518.144159,9326.594869
1196.417324,919.314598,-962.267725,9992.780217
1196.417639,1378.971896,888.247130,9474.636058
1196.417955,766.095498,1406.391290,7920.203579
1196.418271,153.219100,1406.391290,7920.203579
1196.418587,919.314598,222.061783,8956.491898
1196.418902,1608.800546,-592.164754,9326.594869
1196.419218,1378.971896,-740.205942,9770.718434
1196.419534,76.609550,-592.164754,9030.512492
1196.419850,-689.485948,-1258.350101,8808.450710
1196.420165,459.657299,-1998.556043,10584.944971
1196.420481,306.438199,-1036.288319,10140.821405
1196.420797,-459.657299,222.061783,9400.615463
1196.421113,-842.705048,592.164754,8734.430116
1196.421428,-459.657299,-592.164754,9326.594869
1196.421744,459.657299,-814.226536,9844.739029
1196.422060,689.485948,-740.205942,9178.553681
1196.422376,229.828649,222.061783,8808.450710
1196.422691,153.219100,370.102971,9030.512492
1196.423007,766.095498,-814.226536,8586.388927
1196.423323,1149.143247,-444.123565,9844.739029
1196.423639,1225.752797,518.144159,9474.636058
1196.423954,383.047749,666.185348,8808.450710
1196.424270,76.609550,370.102971,9178.553681
1196.424586,1455.581446,-740.205942,10214.842000
1196.424902,1608.800546,-518.144159,9400.615463
1196.425217,1149.143247,444.123565,9178.553681
1196.425533,536.266849,888.247130,7772.162391
1196.425849,766.095498,-740.205942,9844.739029
1196.426165,1225.752797,-1036.288319,9844.739029
1196.426480,612.876398,-1110.308913,10140.821405
1196.426796,153.219100,-0.000000,9474.636058
1196.427112,0.000000,-666.185348,9326.594869
1196.427428,76.609550,-1480.411884,9548.656652
1196.427743,1149.143247,-1554.432478,10881.027347
1196.428059,842.705048,-0.000000,9770.718434
1196.428375,383.047749,1332.370696,8956.491898
1196.428691,-383.047749,-0.000000,8586.388927
1196.429006,766.095498,-1554.432478,10140.821405
1196.429322,1225.752797,-1258.350101,9696.697840
1196.429638,766.095498,-148.041188,9696.697840
1196.429954,-229.828649,-0.000000,9104.533087
1196.430269,0.000000,-518.144159,9548.656652
1196.430585,612.876398,-1110.308913,10214.842000
1196.430901,766.095498,-74.020594,9844.739029
1196.431217,612.876398,740.205942,9474.636058
1196.431532,-153.219100,444.123565,8586.388927
1196.431848,229.828649,-1628.453072,9770.718434
1196.432164,1225.752797,-814.226536,11029.068536
1196.432480,766.095498,-0.000000,9400.615463
1196.432795,76.609550,666.185348,9030.512492
1196.433111,76.609550,518.144159,9104.533087
1196.433427,306.438199,-296.082377,9548.656652
1196.433743,612.876398,444.123565,9622.677246
1196.434058,229.828649,962.267725,9252.574275
1196.434374,-612.876398,-518.144159,8956.491898
1196.434690,0.000000,-740.205942,10066.800811
1196.435006,-76.609550,-1258.350101,9696.697840
1196.435321,766.095498,-1332.370696,10362.883188
1196.435637,612.876398,592.164754,9770.718434
1196.435953,76.609550,1332.370696,7476.080014
1196.436269,0.000000,-0.000000,9178.553681
1196.436584,1149.143247,-370.102971,10288.862594
1196.436900,919.314598,518.144159,9252.574275
1196.437216,153.219100,1628.453072,8216.285956
1196.437532,-689.485948,-0.000000,9252.574275
1196.437847,689.485948,-1776.494261,9474.636058
1196.438163,1072.533697,-1184.329507,9992.780217
1196.438479,1149.143247,-0.000000,9326.594869
1196.438795,-919.314598,222.061783,8882.471304
1196.439110,153.219100,-370.102971,9696.697840
1196.439426,689.485948,-592.164754,10288.862594
1196.439742,766.095498,-0.000000,9918.759623
1196.440058,383.047749,1258.350101,8364.327145
1196.440373,0.000000,740.205942,8586.388927
1196.440689,383.047749,-1110.308913,10066.800811
1196.441005,919.314598,-1406.391290,10584.944971
1196.441321,995.924147,296.082377,8956.491898
1196.441636,306.438199,518.144159,8956.491898
1196.441952,229.828649,-148.041188,9104.533087
1196.442268,1455.581446,-518.144159,10362.883188
1196.442584,1455.581446,-0.000000,9696.697840
1196.442899,689.485948,592.164754,9548.656652
1196.443215,0.000000,1184.329507,8364.327145
1196.443531,536.266849,-0.000000,8956.491898
1196.443847,1302.362347,-370.102971,9770.718434
1196.444162,919.314598,-0.000000,9696.697840
1196.444478,76.609550,74.020594,9548.656652
1196.444794,-153.219100,-666.185348,8734.430116
1196.445110,-306.438199,-1702.473667,10436.903782
1196.445425,383.047749,-1628.453072,10955.047942
1196.445741,612.876398,-666.185348,9548.656652
1196.446057,153.219100,1036.288319,8660.409521
1196.446373,-153.219100,-814.226536,8956.491898
1196.446688,536.266849,-1258.350101,9918.759623
1196.447004,766.095498,-888.247130,10436.903782
1196.447320,459.657299,-0.000000,9030.512492
1196.447635,-383.047749,370.102971,8734.430116
1196.447951,306.438199,-740.205942,10510.924376
1196.448267,995.924147,-666.185348,9400.615463
1196.448583,1455.581446,-0.000000,9178.553681
1196.448898,76.609550,296.082377,8808.450710
1196.449214,-383.047749,-296.082377,9252.574275
1196.449530,306.438199,-1406.391290,9622.677246
1196.449846,383.047749,-1406.391290,10140.821405
1196.450161,229.828649,-0.000000,9844.739029
1196.450477,0.000000,666.185348,9252.574275
1196.450793,-153.219100,370.102971,8364.327145
1196.451109,-153.219100,-1332.370696,10140.821405
1196.451424,766.095498,-1036.288319,10066.800811
1196.451740,689.485948,222.061783,9474.636058
1196.452056,-459.657299,740.205942,8142.265362
1196.452371,-229.828649,-1110.308913,9770.718434
1196.452687,1072.533697,-1480.411884,10658.965565
1196.453003,842.705048,-148.041188,9622.677246
1196.453318,306.438199,1332.370696,8734.430116
1196.453634,-383.047749,1036.288319,7994.224174
1196.453950,0.000000,-370.102971,9474.636058
1196.454266,995.924147,-814.226536,10214.842000
1196.454581,1378.971896,296.082377,9400.615463
1196.454897,1072.533697,1406.391290,8216.285956
1196.455213,536.266849,-740.205942,8142.265362
1196.455528,1378.971896,-1406.391290,10732.986159
1196.455844,1072.533697,-444.123565,9992.780217
1196.456160,919.314598,-0.000000,9696.697840
1196.456475,0.000000,1628.453072,8512.368333
1196.456791,76.609550,-0.000000,9992.780217
1196.457107,1149.143247,-444.123565,9178.553681
1196.457422,842.705048,-370.102971,9474.636058
1196.457738,76.609550,-222.061783,9696.697840
1196.458054,153.219100,-296.082377,9030.512492
1196.458369,-229.828649,-1554.432478,9844.739029
1196.458685,536.266849,-1406.391290,11103.089130
1196.459001,612.876398,-814.226536,9474.636058
1196.459316,383.047749,592.164754,8290.306550
1196.459632,76.609550,148.041188,9696.697840
1196.459948,612.876398,-1702.473667,10658.965565
1196.460264,1685.410096,-1110.308913,9770.718434
1196.460579,1378.971896,-0.000000,9474.636058
1196.460895,766.095498,222.061783,8882.471304
1196.461211,1378.971896,-222.061783,8660.409521
1196.461526,1838.629195,-1332.370696,9622.677246
1196.461842,1302.362347,-518.144159,10066.800811
1196.462158,842.705048,-0.000000,9400.615463
1196.462473,459.657299,518.144159,9178.553681
1196.462789,459.657299,-518.144159,9696.697840
1196.463105,842.705048,-444.123565,9918.759623
1196.463420,612.876398,222.061783,9252.574275
1196.463736,-459.657299,222.061783,9030.512492
1196.464052,-383.047749,-74.020594,9326.594869
1196.464367,306.438199,-1184.329507,9770.718434
1196.464683,306.438199,-1184.329507,10066.800811
1196.464999,153.219100,222.061783,9844.739029
1196.465315,-612.876398,-0.000000,8882.471304
1196.465630,0.000000,-74.020594,9178.553681
1196.465946,383.047749,-370.102971,10140.821405
1196.466262,766.095498,370.102971,8734.430116
1196.466577,612.876398,1480.411884,8808.450710
1196.466893,-229.828649,962.267725,8364.327145
1196.467209,612.876398,-592.164754,9918.759623
1196.467524,919.314598,-518.144159,9104.533087
1196.467840,459.657299,740.205942,9622.677246
1196.468156,0.000000,1924.535449,9104.533087
1196.468471,-383.047749,370.102971,8808.450710
1196.468787,153.219100,-740.205942,9770.718434
1196.469103,0.000000,-296.082377,10881.027347
1196.469418,76.609550,222.061783,9622.677246
1196.469734,-612.876398,518.144159,8734.430116
1196.470050,-306.438199,-148.041188,10288.862594
1196.470366,459.657299,-814.226536,10510.924376
1196.470681,383.047749,-74.020594,9474.636058
1196.470997,383.047749,444.123565,9400.615463
1196.471313,0.000000,-0.000000,9326.594869
1196.471628,76.609550,-1036.288319,9474.636058
1196.471944,919.314598,-0.000000,9770.718434
1196.472260,995.924147,-0.000000,9400.615463
1196.472575,229.828649,592.164754,8808.450710
1196.472891,229.828649,296.082377,8734.430116
1196.473207,76.609550,-1036.288319,10066.800811
1196.473522,536.266849,-1258.350101,11177.109724
1196.473838,153.219100,-74.020594,9178.553681
1196.474154,-459.657299,-0.000000,8438.347739
1196.474469,0.000000,-1184.329507,10288.862594
1196.474785,536.266849,-1554.432478,10955.047942
1196.475101,1149.143247,-0.000000,9844.739029
1196.475416,0.000000,592.164754,9252.574275
1196.475732,-536.266849,444.123565,8512.368333
1196.476048,383.047749,-518.144159,10584.944971
1196.476364,1072.533697,-814.226536,9178.553681
1196.476679,689.485948,518.144159,9548.656652
1196.476995,306.438199,370.102971,9548.656652
1196.477311,229.828649,-814.226536,8734.430116
1196.477626,1149.143247,-1258.350101,9474.636058
1196.477942,1378.971896,-888.247130,9474.636058
1196.478258,919.314598,-0.000000,9030.512492
1196.478573,536.266849,370.102971,8586.388927
1196.478889,459.657299,-740.205942,9326.594869
1196.479205,536.266849,-1332.370696,10066.800811
1196.479520,842.705048,-444.123565,9844.739029
1196.479836,536.266849,814.226536,9030.512492
1196.480152,0.000000,666.185348,8586.388927
1196.480467,919.314598,-1480.411884,9696.697840
1196.480783,1302.362347,-888.247130,9252.574275
1196.481099,919.314598,-222.061783,9326.594869
1196.481415,306.438199,-592.164754,8882.471304
1196.481730,689.485948,-0.000000,9178.553681
1196.482046,1072.533697,-592.164754,9992.780217
1196.482362,1149.143247,-518.144159,10214.842000
1196.482677,1225.752797,370.102971,9474.636058
1196.482993,229.828649,-0.000000,8512.368333
1196.483309,689.485948,-148.041188,10066.800811
1196.483624,1302.362347,-1036.288319,10436.903782
1196.483940,1532.190996,-0.000000,8956.491898
1196.484256,1149.143247,1332.370696,8734.430116
1196.484571,689.485948,-0.000000,8142.265362
1196.484887,766.095498,-962.267725,9548.656652
1196.485203,842.705048,-1036.288319,10362.883188
1196.485518,383.047749,-148.041188,9918.759623
1196.485834,-459.657299,-0.000000,9474.636058
1196.486150,-842.705048,-222.061783,9548.656652
1196.486466,76.609550,-1554.432478,10214.842000
1196.486781,306.438199,-1480.411884,10288.862594
1196.487097,0.000000,-444.123565,9844.739029
1196.487413,-766.095498,-296.082377,8734.430116
