#time,accel_x,accel_y,accel_z
530.018592,1685.410096,1998.556043,9770.718434
530.018907,1302.362347,1258.350101,9696.697840
530.019223,612.876398,1554.432478,9918.759623
530.019539,0.000000,1480.411884,9474.636058
530.019855,0.000000,592.164754,10066.800811
530.020171,0.000000,814.226536,10066.800811
530.020487,-842.705048,888.247130,9992.780217
530.020803,-842.705048,1184.329507,9918.759623
530.021119,-383.047749,962.267725,10214.842000
530.021435,-612.876398,962.267725,9992.780217
530.021751,-153.219100,370.102971,9918.759623
530.022067,-229.828649,814.226536,9548.656652
530.022383,229.828649,1036.288319,10362.883188
530.022699,766.095498,1406.391290,9918.759623
530.023015,919.314598,1332.370696,9548.656652
530.023330,1225.752797,1628.453072,9770.718434
530.023646,1378.971896,1480.411884,9104.533087
530.023962,1532.190996,1480.411884,8882.471304
530.024278,1762.019645,1184.329507,9030.512492
530.024594,1762.019645,518.144159,9030.512492
530.024910,1532.190996,-74.020594,9326.594869
530.025226,1455.581446,-592.164754,9992.780217
530.025542,842.705048,-814.226536,10214.842000
530.025858,383.047749,-814.226536,10288.862594
530.026174,0.000000,-888.247130,10584.944971
530.026490,229.828649,-740.205942,10436.903782
530.026806,306.438199,-222.061783,10066.800811
530.027122,842.705048,-148.041188,9474.636058
530.027438,1302.362347,370.102971,8734.430116
530.027753,1838.629195,148.041188,8882.471304
530.028069,2374.896044,-74.020594,8734.430116
530.028385,2451.505594,-370.102971,8734.430116
530.028701,2528.115143,-444.123565,8956.491898
530.029017,2451.505594,-518.144159,8734.430116
530.029333,1991.848295,-518.144159,9178.553681
530.029649,2145.067394,-1110.308913,9400.615463
530.029965,2145.067394,-740.205942,9474.636058
530.030281,1685.410096,-518.144159,9696.697840
530.030597,1608.800546,-296.082377,9252.574275
530.030913,1378.971896,-148.041188,9474.636058
530.031229,1378.971896,518.144159,8882.471304
530.031545,1378.971896,444.123565,8808.450710
530.031861,1149.143247,370.102971,8734.430116
530.032176,1072.533697,296.082377,8882.471304
530.032492,995.924147,-296.082377,8882.471304
530.032808,842.705048,-518.144159,8956.491898
530.033124,919.314598,-74.020594,9030.512492
530.033440,766.095498,-222.061783,9400.615463
530.033756,995.924147,-222.061783,9548.656652
530.034072,766.095498,-222.061783,9474.636058
530.034388,766.095498,222.061783,9770.718434
530.034704,536.266849,592.164754,9474.636058
530.035020,766.095498,1184.329507,9548.656652
530.035336,1302.362347,1480.411884,9326.594869
530.035652,919.314598,2072.576638,9252.574275
530.035968,1149.143247,1702.473667,8808.450710
530.036284,995.924147,1924.535449,8660.409521
530.036599,995.924147,1702.473667,8586.388927
530.036915,1455.581446,1406.391290,9104.533087
530.037231,1072.533697,1258.350101,9178.553681
530.037547,842.705048,1184.329507,9474.636058
530.037863,612.876398,592.164754,9770.718434
530.038179,306.438199,592.164754,9844.739029
530.038495,459.657299,370.102971,10140.821405
530.038811,229.828649,1036.288319,10214.842000
530.039127,76.609550,814.226536,9770.718434
530.039443,-459.657299,888.247130,9992.780217
530.039759,-459.657299,1110.308913,9918.759623
530.040075,-842.705048,148.041188,10066.800811
530.040391,-536.266849,740.205942,10214.842000
530.040707,-536.266849,814.226536,9992.780217
530.041022,-306.438199,444.123565,9844.739029
530.041338,-229.828649,-0.000000,9992.780217
530.041654,0.000000,-0.000000,9844.739029
530.041970,306.438199,-0.000000,9770.718434
530.042286,76.609550,-74.020594,9696.697840
530.042602,383.047749,-0.000000,9770.718434
530.042918,612.876398,-0.000000,9770.718434
530.043234,76.609550,222.061783,9844.739029
530.043550,0.000000,444.123565,9844.739029
530.043865,76.609550,296.082377,9622.677246
530.044181,0.000000,-0.000000,9696.697840
530.044497,-306.438199,-444.123565,9918.759623
530.044812,-459.657299,-444.123565,9918.759623
530.045128,-383.047749,-370.102971,9696.697840
530.045443,-689.485948,-740.205942,9696.697840
530.045759,0.000000,-1110.308913,9992.780217
530.046074,-229.828649,-962.267725,10066.800811
530.046390,-153.219100,-962.267725,9844.739029
530.046706,153.219100,-740.205942,9474.636058
530.047021,306.438199,-370.102971,9178.553681
530.047337,766.095498,-222.061783,9326.594869
530.047652,1072.533697,-74.020594,8586.388927
530.047968,1149.143247,-296.082377,8290.306550
530.048283,766.095498,-296.082377,8290.306550
530.048599,842.705048,-888.247130,8364.327145
530.048914,76.609550,-1110.308913,8660.409521
530.049230,0.000000,-1628.453072,8808.450710
530.049546,-306.438199,-2072.576638,9252.574275
530.049861,-536.266849,-2368.659014,9622.677246
530.050177,-689.485948,-2590.720797,9918.759623
530.050492,-995.924147,-2886.803174,10140.821405
530.050808,-689.485948,-2294.638420,9844.739029
530.051123,-383.047749,-1850.514855,9548.656652
530.051439,-459.657299,-1628.453072,9326.594869
530.051755,76.609550,-1776.494261,9104.533087
530.052070,1225.752797,-1480.411884,8512.368333
530.052386,919.314598,-888.247130,8290.306550
530.052701,1225.752797,-1110.308913,8290.306550
530.053017,1455.581446,-1184.329507,8512.368333
530.053332,1455.581446,-1184.329507,8734.430116
530.053648,1838.629195,-1332.370696,8734.430116
530.053963,1455.581446,-1258.350101,8956.491898
530.054279,1455.581446,-1036.288319,9400.615463
530.054595,1302.362347,-1110.308913,9474.636058
530.054910,1149.143247,-814.226536,9696.697840
530.055226,919.314598,-888.247130,9622.677246
530.055541,842.705048,-296.082377,9474.636058
530.055857,842.705048,-296.082377,9400.615463
530.056172,919.314598,-296.082377,9474.636058
530.056488,766.095498,-0.000000,9400.615463
530.056803,842.705048,-0.000000,9326.594869
530.057119,919.314598,-0.000000,9252.574275
530.057435,995.924147,222.061783,9326.594869
530.057750,842.705048,222.061783,9178.553681
530.058066,919.314598,518.144159,9326.594869
530.058381,919.314598,592.164754,9104.533087
530.058697,995.924147,1258.350101,9252.574275
530.059012,536.266849,1184.329507,9400.615463
530.059328,459.657299,1332.370696,9474.636058
530.059644,0.000000,1406.391290,9622.677246
530.059959,0.000000,814.226536,10066.800811
530.060275,-612.876398,814.226536,10288.862594
530.060590,-612.876398,888.247130,10436.903782
530.060906,-612.876398,1110.308913,10362.883188
530.061221,-842.705048,1036.288319,10288.862594
530.061537,-536.266849,1184.329507,10140.821405
530.061852,-919.314598,1258.350101,9992.780217
530.062168,-459.657299,1258.350101,9918.759623
530.062484,-229.828649,1332.370696,10066.800811
530.062799,-153.219100,1036.288319,9844.739029
530.063115,76.609550,962.267725,9696.697840
530.063430,76.609550,888.247130,9622.677246
530.063746,229.828649,962.267725,9918.759623
530.064061,536.266849,962.267725,9918.759623
530.064377,689.485948,962.267725,10066.800811
530.064693,842.705048,1036.288319,9844.739029
530.065008,689.485948,666.185348,9548.656652
530.065324,766.095498,814.226536,9696.697840
530.065639,766.095498,666.185348,9770.718434
530.065955,842.705048,444.123565,9548.656652
530.066270,995.924147,370.102971,9770.718434
530.066586,995.924147,370.102971,9548.656652
530.066901,919.314598,148.041188,9474.636058
530.067217,766.095498,222.061783,9622.677246
530.067533,1149.143247,-74.020594,9326.594869
530.067848,1072.533697,-0.000000,9178.553681
530.068164,689.485948,-0.000000,9030.512492
530.068479,612.876398,-0.000000,9178.553681
530.068795,76.609550,148.041188,9104.533087
530.069110,229.828649,-370.102971,9104.533087
530.069426,153.219100,-592.164754,9474.636058
530.069741,0.000000,-1036.288319,9474.636058
530.070057,-459.657299,-1258.350101,9770.718434
530.070373,-842.705048,-1702.473667,9844.739029
530.070688,-536.266849,-1480.411884,9992.780217
530.071004,-536.266849,-1332.370696,9918.759623
530.071319,-536.266849,-1406.391290,9326.594869
530.071635,-229.828649,-1110.308913,9326.594869
530.071950,0.000000,-1258.350101,8882.471304
530.072266,0.000000,-962.267725,8882.471304
530.072582,229.828649,-1184.329507,8660.409521
530.072897,306.438199,-1406.391290,8660.409521
530.073213,459.657299,-1480.411884,8660.409521
530.073528,-76.609550,-1776.494261,8882.471304
530.073844,459.657299,-1776.494261,9104.533087
530.074159,612.876398,-1702.473667,9104.533087
530.074475,459.657299,-1776.494261,9252.574275
530.074790,612.876398,-1850.514855,9474.636058
530.075106,766.095498,-1998.556043,9326.594869
530.075422,689.485948,-1850.514855,9474.636058
530.075737,842.705048,-1702.473667,9326.594869
530.076053,1225.752797,-1406.391290,9400.615463
530.076368,1455.581446,-1406.391290,8956.491898
530.076684,1608.800546,-1406.391290,9104.533087
530.076999,1455.581446,-962.267725,8956.491898
530.077315,1991.848295,-518.144159,8882.471304
530.077631,1991.848295,-592.164754,8956.491898
530.077946,2145.067394,-296.082377,8882.471304
530.078262,1991.848295,-148.041188,9104.533087
530.078577,1838.629195,-0.000000,8956.491898
530.078893,1762.019645,148.041188,9030.512492
530.079208,1685.410096,-0.000000,9326.594869
530.079524,1378.971896,-74.020594,9474.636058
530.079839,766.095498,-0.000000,9770.718434
530.080155,766.095498,-0.000000,9992.780217
530.080471,612.876398,-0.000000,9918.759623
530.080786,612.876398,-222.061783,10214.842000
530.081102,383.047749,222.061783,9844.739029
530.081417,153.219100,592.164754,9992.780217
530.081733,229.828649,962.267725,9844.739029
530.082048,229.828649,1036.288319,9400.615463
530.082364,689.485948,1184.329507,9548.656652
530.082679,0.000000,1184.329507,9548.656652
530.082995,229.828649,1184.329507,9622.677246
530.083311,689.485948,1184.329507,9474.636058
530.083626,306.438199,1036.288319,9622.677246
530.083942,153.219100,814.226536,9696.697840
530.084257,383.047749,814.226536,9696.697840
530.084573,153.219100,1036.288319,10066.800811
530.084888,0.000000,814.226536,9992.780217
530.085204,0.000000,962.267725,10066.800811
530.085520,153.219100,1036.288319,10066.800811
530.085835,-383.047749,740.205942,9992.780217
530.086151,0.000000,814.226536,10066.800811
530.086466,0.000000,888.247130,10066.800811
530.086782,-383.047749,518.144159,9696.697840
530.087097,0.000000,814.226536,9622.677246
530.087413,153.219100,814.226536,9474.636058
530.087728,383.047749,814.226536,9178.553681
530.088044,459.657299,740.205942,9252.574275
530.088360,153.219100,666.185348,9326.594869
530.088675,306.438199,1036.288319,9252.574275
530.088991,0.000000,666.185348,9326.594869
530.089306,153.219100,592.164754,9474.636058
530.089622,0.000000,148.041188,9770.718434
530.089937,-383.047749,-518.144159,9770.718434
530.090253,-459.657299,-518.144159,10214.842000
530.090569,-766.095498,-740.205942,10140.821405
530.090884,-842.705048,-814.226536,10214.842000
530.091200,-995.924147,-814.226536,10214.842000
530.091515,-612.876398,-666.185348,9770.718434
530.091831,-536.266849,-518.144159,9548.656652
530.092146,-383.047749,-296.082377,9474.636058
530.092462,0.000000,-222.061783,9252.574275
530.092777,306.438199,-296.082377,8882.471304
530.093093,995.924147,-814.226536,8808.450710
530.093409,919.314598,-592.164754,8882.471304
530.093724,612.876398,-592.164754,9030.512492
530.094040,995.924147,-814.226536,9326.594869
530.094355,842.705048,-1184.329507,9252.574275
530.094671,919.314598,-1110.308913,9252.574275
530.094986,842.705048,-1332.370696,9326.594869
530.095302,842.705048,-1332.370696,9474.636058
530.095618,612.876398,-1480.411884,9548.656652
530.095933,612.876398,-1628.453072,9548.656652
530.096249,842.705048,-1406.391290,9548.656652
530.096564,919.314598,-1554.432478,9178.553681
530.096880,919.314598,-1332.370696,9178.553681
530.097195,1072.533697,-1184.329507,8882.471304
530.097511,1608.800546,-962.267725,8956.491898
530.097826,1532.190996,-814.226536,8882.471304
530.098142,1685.410096,-592.164754,8734.430116
530.098458,1685.410096,-592.164754,8660.409521
530.098773,1838.629195,-592.164754,8364.327145
530.099089,1608.800546,-222.061783,8660.409521
530.099404,1608.800546,-518.144159,8882.471304
530.099720,1378.971896,-740.205942,9030.512492
530.100035,995.924147,-518.144159,9474.636058
530.100351,612.876398,-1036.288319,9474.636058
530.100666,536.266849,-1110.308913,9844.739029
530.100982,383.047749,-814.226536,9992.780217
530.101298,0.000000,-518.144159,9844.739029
530.101613,0.000000,-444.123565,9844.739029
530.101929,0.000000,-148.041188,9548.656652
530.102244,306.438199,-0.000000,9548.656652
530.102560,0.000000,-74.020594,9400.615463
530.102875,0.000000,444.123565,9622.677246
530.103191,153.219100,296.082377,9400.615463
530.103507,306.438199,296.082377,9548.656652
530.103822,153.219100,-74.020594,9696.697840
530.104138,383.047749,148.041188,9622.677246
530.104453,306.438199,296.082377,9918.759623
530.104769,153.219100,296.082377,9992.780217
530.105084,0.000000,222.061783,9696.697840
530.105400,153.219100,296.082377,9992.780217
530.105715,76.609550,666.185348,9770.718434
530.106031,459.657299,814.226536,9918.759623
530.106347,0.000000,740.205942,9696.697840
530.106662,0.000000,518.144159,9696.697840
530.106978,-229.828649,888.247130,9474.636058
530.107293,0.000000,666.185348,9548.656652
530.107609,0.000000,740.205942,9474.636058
530.107924,0.000000,888.247130,9548.656652
530.108240,0.000000,592.164754,9548.656652
530.108556,153.219100,740.205942,9030.512492
530.108871,-536.266849,592.164754,9474.636058
530.109187,-536.266849,592.164754,9548.656652
530.109502,-842.705048,518.144159,9622.677246
530.109818,-842.705048,370.102971,9918.759623
530.110133,-766.095498,-0.000000,9992.780217
530.110449,-1149.143247,-370.102971,10066.800811
530.110764,-1072.533697,-666.185348,10140.821405
530.111080,-1149.143247,-666.185348,10214.842000
530.111396,-1225.752797,-518.144159,9918.759623
530.111711,-689.485948,-444.123565,9992.780217
530.112027,-459.657299,-222.061783,9474.636058
530.112342,-153.219100,-148.041188,9400.615463
530.112658,-153.219100,-0.000000,9326.594869
530.112973,612.876398,-0.000000,9030.512492
530.113289,536.266849,-0.000000,9178.553681
530.113604,612.876398,-222.061783,9030.512492
530.113920,995.924147,-444.123565,9252.574275
530.114236,766.095498,-666.185348,9400.615463
530.114551,766.095498,-962.267725,9326.594869
530.114867,1072.533697,-518.144159,9696.697840
530.115182,1072.533697,-666.185348,9474.636058
530.115498,919.314598,-962.267725,9622.677246
530.115813,1149.143247,-740.205942,9548.656652
530.116129,1455.581446,-592.164754,9770.718434
530.116445,1532.190996,-666.185348,9474.636058
530.116760,1762.019645,-814.226536,9326.594869
530.117076,1838.629195,-666.185348,9104.533087
530.117391,2068.457845,-444.123565,9178.553681
530.117707,2528.115143,-518.144159,8808.450710
530.118022,2528.115143,-222.061783,8586.388927
530.118338,2451.505594,-444.123565,8364.327145
530.118653,2298.286494,-0.000000,8808.450710
530.118969,2374.896044,-0.000000,8512.368333
530.119285,2145.067394,222.061783,8734.430116
530.119600,2068.457845,-0.000000,8586.388927
530.119916,1762.019645,-222.061783,9030.512492
530.120231,1378.971896,-370.102971,9326.594869
530.120547,689.485948,-814.226536,9474.636058
530.120862,919.314598,-740.205942,10214.842000
530.121178,459.657299,-740.205942,9992.780217
530.121494,306.438199,-518.144159,10140.821405
530.121809,153.219100,-0.000000,9844.739029
530.122125,383.047749,-0.000000,9474.636058
530.122440,76.609550,-0.000000,9326.594869
530.122756,76.609550,148.041188,9178.553681
530.123071,153.219100,296.082377,9104.533087
530.123387,306.438199,148.041188,9178.553681
530.123702,153.219100,-0.000000,9474.636058
530.124018,383.047749,-0.000000,9474.636058
530.124334,383.047749,296.082377,9474.636058
530.124649,0.000000,-148.041188,9622.677246
530.124965,0.000000,-148.041188,9770.718434
530.125280,0.000000,-222.061783,10066.800811
530.125596,-229.828649,-0.000000,10066.800811
530.125911,0.000000,-0.000000,10066.800811
530.126227,-229.828649,-0.000000,9918.759623
530.126542,0.000000,-0.000000,9992.780217
530.126858,-153.219100,-0.000000,9918.759623
530.127174,-306.438199,148.041188,9770.718434
530.127489,-459.657299,444.123565,9918.759623
530.127805,76.609550,296.082377,9548.656652
530.128120,229.828649,370.102971,9474.636058
530.128436,153.219100,296.082377,9400.615463
530.128751,306.438199,444.123565,9326.594869
530.129067,76.609550,518.144159,9400.615463
530.129383,0.000000,444.123565,9252.574275
530.129698,0.000000,296.082377,9252.574275
530.130014,0.000000,-0.000000,9696.697840
530.130329,-383.047749,-74.020594,9770.718434
530.130645,-459.657299,-370.102971,10140.821405
530.130960,-842.705048,-740.205942,10288.862594
530.131276,-919.314598,-888.247130,10362.883188
530.131591,-995.924147,-444.123565,10214.842000
530.131907,-766.095498,-518.144159,9992.780217
530.132223,-536.266849,-222.061783,9622.677246
530.132538,-612.876398,-296.082377,9252.574275
530.132854,0.000000,-74.020594,9030.512492
530.133169,0.000000,-148.041188,8956.491898
530.133485,459.657299,-0.000000,8956.491898
530.133800,689.485948,-296.082377,9030.512492
530.134116,919.314598,-518.144159,9104.533087
530.134432,689.485948,-740.205942,9326.594869
530.134747,995.924147,-592.164754,9104.533087
530.135063,919.314598,-444.123565,9400.615463
530.135378,995.924147,-592.164754,9474.636058
530.135694,1225.752797,-814.226536,9474.636058
530.136009,1149.143247,-666.185348,9548.656652
530.136325,1378.971896,-740.205942,9400.615463
530.136640,1302.362347,-814.226536,9400.615463
530.136956,1608.800546,-666.185348,9474.636058
530.137272,1685.410096,-1036.288319,9178.553681
530.137587,1762.019645,-296.082377,9104.533087
530.137903,1915.238745,-296.082377,9030.512492
530.138218,1838.629195,-148.041188,8660.409521
530.138534,2145.067394,-0.000000,8734.430116
530.138849,2374.896044,-0.000000,9178.553681
530.139165,2374.896044,370.102971,8734.430116
530.139480,2298.286494,592.164754,8956.491898
530.139796,1838.629195,-0.000000,8660.409521
530.140112,2068.457845,-296.082377,9252.574275
530.140427,1532.190996,-592.164754,9252.574275
530.140743,1149.143247,-222.061783,9696.697840
530.141058,995.924147,-444.123565,9770.718434
530.141374,612.876398,-444.123565,9844.739029
530.141689,459.657299,-148.041188,9844.739029
530.142005,153.219100,222.061783,9770.718434
530.142321,0.000000,-0.000000,9622.677246
530.142636,153.219100,370.102971,9474.636058
530.142952,0.000000,444.123565,9326.594869
530.143267,153.219100,518.144159,9326.594869
530.143583,229.828649,-0.000000,9474.636058
530.143898,0.000000,-0.000000,9400.615463
530.144214,0.000000,-0.000000,9474.636058
530.144529,0.000000,-0.000000,9696.697840
530.144845,-153.219100,-148.041188,9622.677246
530.145160,0.000000,-0.000000,10140.821405
530.145476,-383.047749,-222.061783,9844.739029
530.145791,-459.657299,-0.000000,10066.800811
530.146107,-383.047749,-74.020594,9918.759623
530.146422,-919.314598,-74.020594,10066.800811
530.146738,-306.438199,-0.000000,10362.883188
530.147053,-153.219100,-74.020594,9770.718434
530.147369,-383.047749,-0.000000,9696.697840
530.147684,-536.266849,-148.041188,9474.636058
530.148000,-229.828649,-0.000000,9622.677246
530.148315,-153.219100,-444.123565,9104.533087
530.148631,0.000000,-74.020594,9326.594869
530.148946,-229.828649,-74.020594,9326.594869
530.149262,-153.219100,-0.000000,9252.574275
530.149577,-383.047749,-222.061783,9252.574275
530.149893,-689.485948,-592.164754,9326.594869
530.150208,-536.266849,-592.164754,9326.594869
530.150523,-1225.752797,-962.267725,9918.759623
530.150839,-1225.752797,-1110.308913,10066.800811
530.151154,-1225.752797,-1332.370696,10066.800811
530.151470,-1302.362347,-1184.329507,10510.924376
530.151785,-1225.752797,-1110.308913,9918.759623
530.152101,-842.705048,-740.205942,9844.739029
530.152416,-689.485948,-592.164754,9548.656652
530.152732,-229.828649,-592.164754,9326.594869
530.153047,-536.266849,-444.123565,8956.491898
530.153363,229.828649,-296.082377,8882.471304
530.153678,536.266849,-518.144159,8734.430116
530.153994,612.876398,-370.102971,8882.471304
530.154309,1225.752797,-370.102971,8882.471304
530.154625,1149.143247,-740.205942,9326.594869
530.154940,1302.362347,-740.205942,9252.574275
530.155256,1072.533697,-592.164754,9400.615463
530.155571,1225.752797,-740.205942,9400.615463
530.155887,995.924147,-444.123565,9548.656652
530.156202,1225.752797,-814.226536,9696.697840
530.156518,1302.362347,-666.185348,9622.677246
530.156833,1302.362347,-740.205942,9252.574275
530.157148,1378.971896,-592.164754,9326.594869
530.157464,2068.457845,-592.164754,9178.553681
530.157779,1685.410096,-518.144159,9178.553681
530.158095,1685.410096,-148.041188,9030.512492
530.158410,1915.238745,-74.020594,8808.450710
530.158726,2374.896044,-0.000000,8808.450710
530.159041,1991.848295,370.102971,8734.430116
530.159357,1838.629195,-0.000000,8808.450710
530.159672,2145.067394,370.102971,8956.491898
530.159988,2145.067394,444.123565,9030.512492
530.160303,1991.848295,296.082377,9178.553681
530.160619,1838.629195,-74.020594,9474.636058
530.160934,995.924147,-222.061783,9622.677246
530.161250,842.705048,-148.041188,9992.780217
530.161565,536.266849,-370.102971,10140.821405
530.161881,229.828649,-0.000000,10214.842000
530.162196,0.000000,592.164754,10214.842000
530.162512,153.219100,740.205942,10140.821405
530.162827,153.219100,666.185348,9696.697840
530.163143,229.828649,888.247130,9474.636058
530.163458,153.219100,888.247130,9474.636058
530.163773,76.609550,740.205942,9548.656652
530.164089,0.000000,740.205942,9696.697840
530.164404,153.219100,740.205942,9770.718434
530.164720,229.828649,592.164754,9548.656652
530.165035,76.609550,592.164754,9696.697840
530.165351,229.828649,444.123565,9918.759623
530.165666,0.000000,518.144159,10140.821405
530.165982,0.000000,518.144159,10066.800811
530.166297,-153.219100,444.123565,10140.821405
530.166613,-383.047749,518.144159,9992.780217
530.166928,-612.876398,-0.000000,10214.842000
530.167244,-306.438199,-0.000000,9844.739029
530.167559,-383.047749,222.061783,9622.677246
530.167875,-229.828649,222.061783,9548.656652
530.168190,0.000000,370.102971,9474.636058
530.168506,0.000000,740.205942,9474.636058
530.168821,229.828649,444.123565,9030.512492
530.169137,229.828649,444.123565,9104.533087
530.169452,0.000000,296.082377,9400.615463
530.169767,-229.828649,370.102971,9326.594869
530.170083,0.000000,-0.000000,9474.636058
530.170398,-612.876398,-444.123565,9400.615463
530.170714,-612.876398,-740.205942,9696.697840
530.171029,-1072.533697,-1110.308913,9918.759623
530.171345,-1149.143247,-1480.411884,10066.800811
530.171660,-612.876398,-2072.576638,10362.883188
530.171976,-1302.362347,-1332.370696,10436.903782
530.172291,-689.485948,-814.226536,9992.780217
530.172607,-1072.533697,-888.247130,9696.697840
530.172922,-536.266849,-814.226536,9400.615463
530.173238,0.000000,-666.185348,9548.656652
530.173553,229.828649,-592.164754,8882.471304
530.173869,153.219100,-592.164754,8882.471304
530.174184,459.657299,-962.267725,8882.471304
530.174500,1302.362347,-1258.350101,9104.533087
530.174815,459.657299,-1258.350101,9400.615463
530.175131,1149.143247,-1110.308913,9178.553681
530.175446,1149.143247,-1110.308913,9178.553681
530.175762,1225.752797,-1110.308913,9326.594869
530.176077,1302.362347,-1110.308913,9400.615463
530.176392,1455.581446,-1184.329507,9474.636058
530.176708,1378.971896,-1184.329507,9548.656652
530.177023,1608.800546,-1036.288319,9474.636058
530.177339,1762.019645,-1036.288319,9326.594869
530.177654,1991.848295,-888.247130,9030.512492
530.177970,2221.676944,-666.185348,9104.533087
530.178285,2145.067394,-444.123565,9030.512492
530.178601,2374.896044,-518.144159,8882.471304
530.178916,2298.286494,-74.020594,8882.471304
530.179232,2145.067394,-148.041188,8734.430116
530.179547,2298.286494,-0.000000,8734.430116
530.179863,2298.286494,-0.000000,8808.450710
530.180178,2298.286494,148.041188,8808.450710
530.180494,1991.848295,-0.000000,9326.594869
530.180809,1838.629195,-148.041188,9400.615463
530.181125,1225.752797,-666.185348,9548.656652
530.181440,842.705048,-518.144159,9992.780217
530.181756,766.095498,-296.082377,10066.800811
530.182071,459.657299,-148.041188,9992.780217
530.182386,306.438199,-0.000000,9992.780217
530.182702,306.438199,444.123565,9696.697840
530.183017,153.219100,666.185348,9548.656652
530.183333,229.828649,518.144159,9326.594869
530.183648,76.609550,222.061783,9400.615463
530.183964,76.609550,740.205942,9548.656652
530.184279,0.000000,444.123565,9474.636058
530.184595,0.000000,-0.000000,9474.636058
530.184910,0.000000,222.061783,9548.656652
530.185226,-229.828649,296.082377,9992.780217
530.185541,-459.657299,370.102971,9918.759623
530.185857,-459.657299,370.102971,9992.780217
530.186172,-536.266849,444.123565,10140.821405
530.186488,-306.438199,444.123565,9992.780217
530.186803,0.000000,518.144159,10214.842000
530.187119,-306.438199,370.102971,9770.718434
530.187434,-612.876398,296.082377,9844.739029
530.187750,-383.047749,740.205942,9770.718434
530.188065,-229.828649,666.185348,9474.636058
530.188381,0.000000,148.041188,9400.615463
530.188696,306.438199,592.164754,9474.636058
530.189011,76.609550,740.205942,9326.594869
530.189327,0.000000,444.123565,9474.636058
530.189642,0.000000,444.123565,9326.594869
530.189958,-153.219100,518.144159,9474.636058
530.190273,-153.219100,444.123565,9474.636058
530.190589,-612.876398,-0.000000,9770.718434
530.190904,-689.485948,-592.164754,9844.739029
530.191220,-1149.143247,-666.185348,10140.821405
530.191535,-1072.533697,-962.267725,10288.862594
530.191851,-1149.143247,-962.267725,10288.862594
530.192166,-1072.533697,-814.226536,10288.862594
530.192482,-842.705048,-518.144159,9918.759623
530.192797,-459.657299,-518.144159,9548.656652
530.193113,-153.219100,-296.082377,9252.574275
530.193428,0.000000,-370.102971,8956.491898
530.193744,153.219100,-444.123565,8808.450710
530.194059,306.438199,-518.144159,8808.450710
530.194375,919.314598,-740.205942,8956.491898
530.194690,689.485948,-814.226536,8956.491898
530.195006,919.314598,-1036.288319,9104.533087
530.195321,995.924147,-1036.288319,9252.574275
530.195636,1072.533697,-1184.329507,9400.615463
530.195952,842.705048,-1184.329507,9400.615463
530.196267,1149.143247,-1184.329507,9474.636058
530.196583,766.095498,-1110.308913,9400.615463
530.196898,1149.143247,-1406.391290,9326.594869
530.197214,919.314598,-1480.411884,9326.594869
530.197529,1149.143247,-1332.370696,9326.594869
530.197845,1762.019645,-1110.308913,9104.533087
530.198160,1532.190996,-888.247130,8734.430116
530.198476,1915.238745,-666.185348,8882.471304
530.198791,1685.410096,-1184.329507,8734.430116
530.199107,2221.676944,-296.082377,8660.409521
530.199422,2374.896044,-74.020594,8586.388927
530.199738,2298.286494,-0.000000,8734.430116
530.200053,1838.629195,-0.000000,8512.368333
530.200369,1838.629195,-148.041188,8808.450710
530.200684,2068.457845,-74.020594,8882.471304
530.201000,1378.971896,-518.144159,9326.594869
530.201315,1149.143247,-370.102971,9474.636058
530.201630,689.485948,-444.123565,9622.677246
530.201946,459.657299,-296.082377,9918.759623
530.202261,383.047749,-296.082377,9992.780217
530.202577,76.609550,296.082377,9844.739029
530.202892,153.219100,296.082377,9548.656652
530.203208,0.000000,666.185348,9474.636058
530.203523,229.828649,666.185348,9548.656652
530.203839,76.609550,740.205942,9252.574275
530.204154,76.609550,518.144159,9548.656652
530.204470,153.219100,518.144159,9252.574275
530.204785,76.609550,518.144159,9474.636058
530.205101,306.438199,666.185348,9918.759623
530.205416,0.000000,444.123565,9770.718434
530.205732,0.000000,518.144159,9844.739029
530.206047,-229.828649,444.123565,9992.780217
530.206363,76.609550,740.205942,10362.883188
530.206678,0.000000,-0.000000,10288.862594
530.206994,0.000000,518.144159,10066.800811
530.207309,-536.266849,444.123565,9992.780217
530.207625,-229.828649,592.164754,9918.759623
530.207940,-459.657299,740.205942,9992.780217
530.208255,-536.266849,740.205942,9918.759623
530.208571,-229.828649,814.226536,9622.677246
530.208886,0.000000,592.164754,9400.615463
530.209202,0.000000,814.226536,9474.636058
530.209517,153.219100,592.164754,9474.636058
530.209833,-306.438199,740.205942,9474.636058
530.210148,-459.657299,666.185348,9474.636058
530.210464,-536.266849,296.082377,9622.677246
530.210779,-536.266849,-0.000000,9696.697840
530.211095,-919.314598,-148.041188,10066.800811
530.211410,-1225.752797,-740.205942,10066.800811
530.211726,-1225.752797,-740.205942,10362.883188
530.212041,-1149.143247,-888.247130,10288.862594
530.212357,-1072.533697,-740.205942,10288.862594
530.212672,-1149.143247,-1036.288319,9992.780217
530.212988,-536.266849,-370.102971,10362.883188
530.213303,-459.657299,-444.123565,9548.656652
530.213619,-306.438199,-592.164754,9104.533087
530.213934,0.000000,-148.041188,9104.533087
530.214249,383.047749,-518.144159,8882.471304
530.214565,536.266849,-814.226536,8734.430116
530.214880,842.705048,-740.205942,9030.512492
530.215196,995.924147,-962.267725,8956.491898
530.215511,1072.533697,-1184.329507,9252.574275
530.215827,842.705048,-814.226536,9252.574275
530.216142,995.924147,-962.267725,9030.512492
530.216458,1302.362347,-1036.288319,9400.615463
530.216773,1378.971896,-1184.329507,9326.594869
530.217089,1225.752797,-1036.288319,9400.615463
530.217404,1838.629195,-1406.391290,9326.594869
530.217720,1532.190996,-1258.350101,9326.594869
530.218035,1608.800546,-1110.308913,8808.450710
530.218351,1608.800546,-888.247130,8956.491898
530.218666,1838.629195,-666.185348,8882.471304
530.218982,2221.676944,-518.144159,8734.430116
530.219297,1915.238745,-666.185348,8660.409521
530.219613,2221.676944,-444.123565,8734.430116
530.219928,2145.067394,-370.102971,8660.409521
530.220244,2068.457845,-222.061783,8660.409521
530.220559,2987.772442,-74.020594,8808.450710
530.220874,1991.848295,-444.123565,9104.533087
530.221190,1455.581446,-666.185348,9252.574275
530.221505,995.924147,-592.164754,9770.718434
530.221821,919.314598,-962.267725,9696.697840
530.222136,76.609550,-814.226536,9844.739029
530.222452,383.047749,-592.164754,9696.697840
530.222767,76.609550,-74.020594,9844.739029
530.223083,76.609550,-0.000000,9696.697840
530.223398,153.219100,148.041188,9474.636058
530.223714,0.000000,148.041188,9326.594869
530.224029,229.828649,148.041188,9474.636058
530.224345,153.219100,-0.000000,9400.615463
530.224660,153.219100,222.061783,9548.656652
530.224976,459.657299,-0.000000,9474.636058
530.225291,153.219100,-222.061783,9770.718434
530.225607,0.000000,74.020594,10066.800811
530.225922,0.000000,222.061783,10066.800811
530.226238,0.000000,222.061783,10066.800811
530.226553,0.000000,592.164754,9918.759623
530.226868,0.000000,444.123565,10214.842000
530.227184,0.000000,370.102971,10066.800811
530.227499,0.000000,518.144159,10066.800811
530.227815,0.000000,592.164754,10066.800811
530.228130,306.438199,592.164754,10066.800811
530.228446,306.438199,444.123565,9622.677246
530.228761,0.000000,444.123565,9474.636058
530.229077,76.609550,444.123565,9474.636058
530.229392,229.828649,666.185348,9400.615463
530.229708,229.828649,518.144159,9400.615463
530.230023,0.000000,592.164754,9474.636058
530.230339,0.000000,444.123565,9548.656652
530.230654,-306.438199,370.102971,9474.636058
530.230970,-383.047749,-0.000000,9622.677246
530.231285,-612.876398,-296.082377,9992.780217
530.231601,-766.095498,-444.123565,10288.862594
530.231916,-612.876398,-814.226536,10214.842000
530.232232,-1149.143247,-962.267725,10362.883188
530.232547,-1072.533697,-814.226536,10140.821405
530.232863,0.000000,-666.185348,9992.780217
530.233178,-689.485948,-148.041188,9696.697840
530.233493,-459.657299,-148.041188,9474.636058
530.233809,-229.828649,-370.102971,9178.553681
530.234124,229.828649,-148.041188,8734.430116
530.234440,919.314598,-0.000000,8882.471304
530.234755,536.266849,-592.164754,9030.512492
530.235071,919.314598,-740.205942,9178.553681
530.235386,842.705048,-888.247130,9252.574275
530.235702,842.705048,-888.247130,9326.594869
530.236017,1149.143247,-666.185348,9252.574275
530.236333,1149.143247,-962.267725,9400.615463
530.236648,1072.533697,-962.267725,9400.615463
530.236964,1149.143247,-1036.288319,9326.594869
530.237279,1685.410096,-814.226536,9622.677246
530.237595,842.705048,-962.267725,9474.636058
530.237910,1302.362347,-740.205942,9104.533087
530.238226,1762.019645,-666.185348,9104.533087
530.238541,1608.800546,-666.185348,9104.533087
530.238857,2221.676944,-518.144159,8808.450710
530.239172,2374.896044,-444.123565,8660.409521
530.239488,2145.067394,-296.082377,8660.409521
530.239803,2298.286494,-0.000000,8734.430116
530.240118,2145.067394,148.041188,8660.409521
530.240434,2145.067394,-74.020594,8734.430116
530.240749,1991.848295,-0.000000,8808.450710
530.241065,1915.238745,-222.061783,9030.512492
530.241380,1608.800546,-222.061783,9400.615463
530.241696,1149.143247,-592.164754,9326.594869
530.242011,1072.533697,-592.164754,10214.842000
530.242327,689.485948,-444.123565,9918.759623
530.242642,612.876398,-222.061783,9992.780217
530.242958,459.657299,-74.020594,9696.697840
530.243273,76.609550,-0.000000,9622.677246
530.243589,306.438199,-0.000000,9474.636058
530.243904,0.000000,444.123565,9326.594869
530.244220,153.219100,444.123565,9548.656652
530.244535,76.609550,296.082377,9400.615463
530.244851,0.000000,296.082377,9400.615463
530.245166,153.219100,222.061783,9622.677246
530.245482,0.000000,148.041188,9622.677246
530.245796,0.000000,-0.000000,9844.739029
530.246112,-153.219100,222.061783,10140.821405
530.246427,-306.438199,-0.000000,10066.800811
530.246743,-306.438199,370.102971,9918.759623
530.247058,-153.219100,370.102971,9770.718434
530.247374,-306.438199,444.123565,9918.759623
530.247689,-153.219100,222.061783,9992.780217
530.248005,-153.219100,148.041188,9844.739029
530.248320,0.000000,444.123565,9696.697840
530.248636,0.000000,370.102971,9548.656652
530.248952,0.000000,518.144159,9622.677246
530.249267,0.000000,518.144159,9696.697840
530.249583,0.000000,444.123565,9400.615463
530.249898,0.000000,444.123565,9400.615463
530.250214,-153.219100,444.123565,9474.636058
530.250529,-306.438199,444.123565,9400.615463
530.250845,-459.657299,148.041188,9622.677246
530.251160,-306.438199,-0.000000,9770.718434
530.251476,-536.266849,-296.082377,9770.718434
530.251792,-1072.533697,-592.164754,9992.780217
530.252107,-1378.971896,-1036.288319,10214.842000
530.252423,-1762.019645,-1184.329507,10140.821405
530.252738,-1149.143247,-1036.288319,10066.800811
530.253054,-995.924147,-518.144159,10214.842000
530.253369,-766.095498,-370.102971,9844.739029
530.253685,-842.705048,-444.123565,9400.615463
530.254000,76.609550,-296.082377,9252.574275
530.254316,153.219100,-666.185348,9252.574275
530.254632,306.438199,-444.123565,8956.491898
530.254947,689.485948,-666.185348,8882.471304
530.255263,842.705048,-740.205942,9104.533087
530.255578,842.705048,-962.267725,9178.553681
530.255894,1149.143247,-666.185348,9178.553681
530.256209,919.314598,-888.247130,9252.574275
530.256525,1225.752797,-1036.288319,9252.574275
530.256840,1532.190996,-962.267725,9178.553681
530.257156,1225.752797,-1258.350101,9178.553681
530.257472,1149.143247,-1258.350101,9474.636058
530.257787,1302.362347,-814.226536,9400.615463
530.258103,1378.971896,-1036.288319,9252.574275
530.258418,1532.190996,-888.247130,9178.553681
530.258734,1608.800546,-888.247130,9326.594869
530.259049,1762.019645,-740.205942,8956.491898
530.259365,1915.238745,-592.164754,8734.430116
530.259680,2145.067394,-296.082377,8734.430116
530.259996,2068.457845,-148.041188,8734.430116
530.260311,2221.676944,-0.000000,8808.450710
530.260627,1915.238745,-0.000000,8660.409521
530.260943,2145.067394,-0.000000,8660.409521
530.261258,1762.019645,-0.000000,9104.533087
530.261574,919.314598,-222.061783,9326.594869
530.261889,1225.752797,-370.102971,9548.656652
530.262205,995.924147,-592.164754,9622.677246
530.262520,995.924147,-518.144159,9844.739029
530.262836,459.657299,-74.020594,9844.739029
530.263151,766.095498,222.061783,9844.739029
530.263467,383.047749,-0.000000,9918.759623
530.263783,76.609550,444.123565,9622.677246
530.264098,0.000000,370.102971,9474.636058
530.264414,153.219100,592.164754,9400.615463
530.264729,536.266849,-0.000000,9326.594869
530.265045,153.219100,370.102971,9548.656652
530.265360,76.609550,222.061783,9696.697840
530.265676,0.000000,-0.000000,9696.697840
530.265991,0.000000,222.061783,9844.739029
530.266307,229.828649,-74.020594,9992.780217
530.266623,0.000000,148.041188,9844.739029
530.266938,0.000000,444.123565,10288.862594
530.267254,-383.047749,444.123565,10066.800811
530.267569,0.000000,444.123565,10214.842000
530.267885,229.828649,-0.000000,9918.759623
530.268200,-229.828649,370.102971,9844.739029
530.268516,0.000000,370.102971,9918.759623
530.268831,0.000000,518.144159,9918.759623
530.269147,0.000000,296.082377,9548.656652
530.269463,0.000000,370.102971,9252.574275
530.269778,0.000000,370.102971,9474.636058
530.270094,0.000000,370.102971,9326.594869
530.270409,0.000000,296.082377,9326.594869
530.270725,-383.047749,444.123565,9474.636058
530.271040,-383.047749,370.102971,9548.656652
530.271356,-383.047749,-74.020594,9622.677246
530.271671,-689.485948,-444.123565,9844.739029
530.271987,-1149.143247,-888.247130,10066.800811
530.272302,-842.705048,-1110.308913,10362.883188
530.272618,-842.705048,-1628.453072,10140.821405
530.272934,-1072.533697,-962.267725,9918.759623
530.273249,-842.705048,-888.247130,9992.780217
530.273565,-612.876398,-222.061783,9548.656652
530.273880,-229.828649,-0.000000,9474.636058
530.274196,0.000000,-518.144159,9030.512492
530.274511,229.828649,-74.020594,8808.450710
530.274827,306.438199,-444.123565,8956.491898
530.275142,612.876398,-666.185348,9030.512492
530.275458,536.266849,-814.226536,9104.533087
530.275774,919.314598,-1036.288319,9400.615463
530.276089,1072.533697,-962.267725,9030.512492
530.276405,919.314598,-666.185348,9326.594869
530.276720,1225.752797,-888.247130,9326.594869
530.277036,1225.752797,-962.267725,9474.636058
530.277351,1072.533697,-888.247130,9474.636058
530.277667,1378.971896,-814.226536,9252.574275
530.277982,1455.581446,-814.226536,9326.594869
530.278298,1608.800546,-888.247130,9104.533087
530.278614,1685.410096,-370.102971,9178.553681
530.278929,1915.238745,-814.226536,8882.471304
530.279245,2451.505594,-444.123565,8734.430116
530.279560,2298.286494,-518.144159,8808.450710
530.279876,2451.505594,-296.082377,8808.450710
530.280191,2451.505594,-222.061783,8216.285956
530.280507,2528.115143,-0.000000,8734.430116
530.280822,2528.115143,-0.000000,8586.388927
530.281138,2221.676944,-0.000000,8882.471304
530.281454,1915.238745,-74.020594,9104.533087
530.281769,1455.581446,-370.102971,9474.636058
530.282085,1532.190996,-296.082377,9326.594869
530.282400,1072.533697,-740.205942,9696.697840
530.282716,919.314598,-666.185348,9992.780217
530.283031,383.047749,-222.061783,9992.780217
530.283347,0.000000,-148.041188,9548.656652
530.283662,306.438199,148.041188,9918.759623
530.283978,306.438199,296.082377,9474.636058
530.284293,383.047749,444.123565,9474.636058
530.284609,383.047749,-0.000000,9178.553681
530.284925,0.000000,370.102971,9622.677246
530.285240,0.000000,-0.000000,9474.636058
530.285556,-229.828649,-148.041188,9622.677246
530.285871,-229.828649,-0.000000,9622.677246
530.286187,0.000000,-74.020594,9918.759623
530.286502,-153.219100,-0.000000,9992.780217
530.286818,0.000000,148.041188,10066.800811
530.287133,-229.828649,296.082377,10140.821405
530.287449,-383.047749,222.061783,9992.780217
530.287765,-306.438199,518.144159,9992.780217
530.288080,-229.828649,296.082377,9696.697840
530.288396,-229.828649,222.061783,9770.718434
530.288711,-306.438199,370.102971,9844.739029
530.289027,-306.438199,370.102971,9548.656652
530.289342,76.609550,296.082377,9770.718434
530.289658,-153.219100,370.102971,9326.594869
530.289973,0.000000,296.082377,9326.594869
530.290289,0.000000,518.144159,9400.615463
530.290605,0.000000,370.102971,9400.615463
530.290920,-229.828649,296.082377,9400.615463
530.291236,-306.438199,222.061783,9252.574275
530.291551,-612.876398,-74.020594,9474.636058
530.291867,-842.705048,-518.144159,9548.656652
530.292182,-1072.533697,-740.205942,9844.739029
530.292498,-1072.533697,-1184.329507,10288.862594
530.292813,-1072.533697,-1036.288319,10066.800811
530.293129,-1149.143247,-888.247130,10066.800811
530.293445,-1072.533697,-888.247130,9992.780217
530.293760,-459.657299,-0.000000,9918.759623
530.294076,-459.657299,-148.041188,9548.656652
530.294391,0.000000,-148.041188,9178.553681
530.294707,0.000000,-296.082377,8882.471304
530.295022,612.876398,-444.123565,8882.471304
530.295338,383.047749,-592.164754,8956.491898
530.295653,689.485948,-666.185348,9030.512492
530.295969,689.485948,-740.205942,9104.533087
530.296284,842.705048,-740.205942,9178.553681
530.296600,919.314598,-1184.329507,9548.656652
530.296916,919.314598,-814.226536,9252.574275
530.297231,1072.533697,-962.267725,9474.636058
530.297547,1225.752797,-1110.308913,9474.636058
530.297862,1149.143247,-1184.329507,9326.594869
530.298178,1072.533697,-444.123565,9622.677246
530.298493,1378.971896,-666.185348,9030.512492
530.298809,1532.190996,-592.164754,9252.574275
530.299124,1608.800546,-444.123565,9252.574275
530.299440,1838.629195,-370.102971,8882.471304
530.299756,2145.067394,-444.123565,8660.409521
530.300071,1991.848295,-148.041188,8660.409521
530.300387,2298.286494,-0.000000,8734.430116
530.300702,2221.676944,-0.000000,8586.388927
530.301018,2221.676944,148.041188,8882.471304
530.301333,1838.629195,370.102971,9104.533087
530.301649,1762.019645,-0.000000,9400.615463
530.301964,1532.190996,-148.041188,9474.636058
530.302280,995.924147,-444.123565,9548.656652
530.302596,1149.143247,-370.102971,9770.718434
530.302911,842.705048,-592.164754,9844.739029
530.303227,536.266849,-148.041188,9992.780217
530.303542,459.657299,-0.000000,9844.739029
530.303858,229.828649,296.082377,9696.697840
530.304173,306.438199,444.123565,9548.656652
530.304489,383.047749,592.164754,9770.718434
530.304804,459.657299,518.144159,9474.636058
530.305120,0.000000,370.102971,9326.594869
530.305436,76.609550,148.041188,9474.636058
530.305751,229.828649,222.061783,9548.656652
530.306067,-153.219100,-0.000000,9918.759623
530.306382,-153.219100,-0.000000,9696.697840
530.306698,0.000000,222.061783,10140.821405
530.307013,-306.438199,-0.000000,9992.780217
530.307329,-383.047749,-0.000000,9844.739029
530.307644,-612.876398,148.041188,10214.842000
530.307960,0.000000,-0.000000,9770.718434
530.308275,-229.828649,148.041188,9770.718434
530.308591,-383.047749,370.102971,9992.780217
530.308907,-306.438199,296.082377,9622.677246
530.309222,-306.438199,518.144159,9622.677246
530.309538,-229.828649,592.164754,9474.636058
530.309853,0.000000,222.061783,9474.636058
530.310169,0.000000,222.061783,9400.615463
530.310484,0.000000,444.123565,9252.574275
530.310800,-153.219100,296.082377,9474.636058
530.311115,-536.266849,-74.020594,9326.594869
530.311431,-459.657299,148.041188,9326.594869
530.311747,-612.876398,-370.102971,9474.636058
530.312062,-612.876398,-518.144159,9992.780217
530.312378,-1072.533697,-814.226536,10140.821405
530.312693,-1149.143247,-1036.288319,10140.821405
530.313009,-1378.971896,-1258.350101,10066.800811
530.313324,-1072.533697,-666.185348,10214.842000
530.313640,-459.657299,-740.205942,9918.759623
530.313955,-306.438199,-740.205942,9474.636058
530.314271,-306.438199,-296.082377,9326.594869
530.314587,0.000000,-296.082377,9104.533087
530.314902,153.219100,-148.041188,8808.450710
530.315218,383.047749,-518.144159,8660.409521
530.315533,689.485948,-518.144159,8808.450710
530.315849,1072.533697,-814.226536,9178.553681
530.316164,919.314598,-962.267725,9252.574275
530.316480,1225.752797,-666.185348,9326.594869
530.316795,1455.581446,-1184.329507,9326.594869
530.317111,1302.362347,-666.185348,9400.615463
530.317427,1225.752797,-814.226536,9474.636058
530.317742,1225.752797,-740.205942,9474.636058
530.318058,1378.971896,-1036.288319,9400.615463
530.318373,1072.533697,-1036.288319,9326.594869
530.318689,1608.800546,-740.205942,9326.594869
530.319004,1608.800546,-814.226536,9252.574275
530.319320,1838.629195,-518.144159,9252.574275
530.319635,2068.457845,-0.000000,9474.636058
530.319951,2451.505594,-370.102971,8734.430116
530.320266,2374.896044,-0.000000,8956.491898
530.320582,2221.676944,-74.020594,8808.450710
530.320898,2451.505594,370.102971,8808.450710
530.321213,2145.067394,370.102971,8882.471304
530.321529,2298.286494,148.041188,8882.471304
530.321844,1915.238745,-0.000000,9104.533087
530.322160,1685.410096,-0.000000,9474.636058
530.322475,1149.143247,-296.082377,9622.677246
530.322791,919.314598,-370.102971,9696.697840
530.323106,612.876398,-370.102971,9992.780217
530.323422,536.266849,296.082377,9918.759623
530.323738,306.438199,-0.000000,9770.718434
530.324053,306.438199,444.123565,9844.739029
530.324369,766.095498,666.185348,9844.739029
530.324684,229.828649,518.144159,9474.636058
530.325000,229.828649,666.185348,9400.615463
530.325315,0.000000,444.123565,9178.553681
530.325631,153.219100,444.123565,9474.636058
530.325946,0.000000,370.102971,9548.656652
530.326262,0.000000,74.020594,9770.718434
530.326578,0.000000,444.123565,9770.718434
530.326893,0.000000,74.020594,9844.739029
530.327209,0.000000,222.061783,9918.759623
530.327524,76.609550,296.082377,9918.759623
530.327840,0.000000,222.061783,9918.759623
530.328155,0.000000,370.102971,10066.800811
530.328471,-229.828649,296.082377,9844.739029
530.328786,153.219100,370.102971,9844.739029
530.329102,0.000000,-0.000000,9400.615463
530.329418,0.000000,222.061783,9474.636058
530.329733,0.000000,296.082377,9178.553681
530.330049,-306.438199,370.102971,9400.615463
530.330364,-153.219100,296.082377,9474.636058
530.330680,0.000000,-0.000000,9178.553681
530.330995,-383.047749,148.041188,9400.615463
530.331311,-536.266849,-0.000000,9178.553681
530.331626,-612.876398,-74.020594,9474.636058
530.331942,-536.266849,-370.102971,9474.636058
530.332257,-842.705048,-814.226536,9696.697840
530.332573,-1225.752797,-740.205942,9918.759623
530.332889,-1302.362347,-1258.350101,9992.780217
530.333204,-1149.143247,-1184.329507,9992.780217
530.333520,-766.095498,-1332.370696,10140.821405
530.333835,-919.314598,-592.164754,10066.800811
530.334151,-766.095498,-518.144159,9696.697840
530.334466,-153.219100,-296.082377,9400.615463
530.334782,-153.219100,-518.144159,9178.553681
530.335097,0.000000,-444.123565,8808.450710
530.335413,229.828649,-666.185348,8808.450710
530.335729,459.657299,-814.226536,8882.471304
530.336044,689.485948,-666.185348,9104.533087
530.336360,919.314598,-888.247130,9178.553681
530.336675,842.705048,-888.247130,9474.636058
530.336991,995.924147,-962.267725,9326.594869
530.337306,1072.533697,-888.247130,9252.574275
530.337622,1378.971896,-962.267725,9474.636058
530.337937,1378.971896,-1110.308913,9178.553681
530.338253,1455.581446,-740.205942,9844.739029
530.338569,1608.800546,-740.205942,9326.594869
530.338884,1532.190996,-962.267725,9104.533087
530.339200,1762.019645,-666.185348,9178.553681
530.339515,2298.286494,-518.144159,9104.533087
530.339831,2145.067394,-518.144159,8956.491898
530.340146,1991.848295,-222.061783,8808.450710
530.340462,2451.505594,-296.082377,8512.368333
530.340777,2451.505594,-148.041188,8808.450710
530.341093,2145.067394,-0.000000,8660.409521
530.341409,2221.676944,-0.000000,8808.450710
530.341724,1608.800546,-0.000000,9178.553681
530.342040,1762.019645,-0.000000,9178.553681
530.342355,1149.143247,-370.102971,9474.636058
530.342671,1072.533697,-518.144159,9622.677246
530.342986,689.485948,-444.123565,9844.739029
530.343302,842.705048,-518.144159,9844.739029
530.343617,459.657299,-0.000000,9844.739029
530.343933,383.047749,-0.000000,9770.718434
530.344248,0.000000,148.041188,9548.656652
530.344564,306.438199,370.102971,9548.656652
530.344880,0.000000,740.205942,9474.636058
530.345195,153.219100,888.247130,9474.636058
530.345511,383.047749,592.164754,9622.677246
530.345826,-229.828649,370.102971,9548.656652
530.346142,153.219100,518.144159,9548.656652
530.346457,0.000000,370.102971,9474.636058
530.346773,-306.438199,296.082377,9918.759623
530.347089,-383.047749,296.082377,9918.759623
530.347404,-459.657299,370.102971,9992.780217
530.347720,-306.438199,444.123565,10066.800811
530.348035,-383.047749,444.123565,9992.780217
530.348351,-383.047749,666.185348,10066.800811
530.348667,0.000000,1110.308913,10288.862594
530.348982,-306.438199,592.164754,9770.718434
530.349298,-153.219100,740.205942,9770.718434
530.349613,-536.266849,666.185348,9622.677246
530.349929,-383.047749,518.144159,9474.636058
530.350245,-153.219100,518.144159,9400.615463
530.350560,0.000000,444.123565,9326.594869
530.350876,-229.828649,370.102971,9326.594869
530.351191,0.000000,296.082377,9474.636058
530.351507,-153.219100,296.082377,9252.574275
530.351823,-229.828649,-0.000000,9474.636058
530.352138,-536.266849,-0.000000,9474.636058
530.352454,-766.095498,-370.102971,9844.739029
530.352770,-995.924147,-888.247130,9918.759623
530.353085,-1302.362347,-888.247130,10436.903782
530.353401,-1225.752797,-962.267725,10288.862594
530.353716,-1072.533697,-888.247130,10214.842000
530.354032,-995.924147,-592.164754,9844.739029
530.354348,-766.095498,-666.185348,9696.697840
530.354663,-536.266849,-74.020594,9474.636058
530.354979,-306.438199,-370.102971,8956.491898
530.355294,306.438199,-296.082377,9178.553681
530.355610,459.657299,-592.164754,8808.450710
530.355926,612.876398,-666.185348,9104.533087
530.356241,995.924147,-1258.350101,9030.512492
530.356557,919.314598,-740.205942,9030.512492
530.356872,919.314598,-962.267725,9178.553681
530.357188,842.705048,-888.247130,9326.594869
530.357504,842.705048,-814.226536,9474.636058
530.357819,766.095498,-1110.308913,9326.594869
530.358135,1225.752797,-1110.308913,9252.574275
530.358450,1302.362347,-1332.370696,9548.656652
530.358766,1455.581446,-814.226536,9400.615463
530.359082,1455.581446,-962.267725,9252.574275
530.359397,1608.800546,-1332.370696,9104.533087
530.359713,1608.800546,-814.226536,8956.491898
530.360029,1915.238745,-518.144159,9030.512492
530.360344,2298.286494,-444.123565,8808.450710
530.360660,2451.505594,-444.123565,8734.430116
530.360975,2451.505594,-444.123565,9030.512492
530.361291,2374.896044,-0.000000,8586.388927
530.361607,2298.286494,-0.000000,8734.430116
530.361922,2145.067394,-0.000000,8882.471304
530.362238,2221.676944,-222.061783,8956.491898
530.362553,1838.629195,-222.061783,9400.615463
530.362869,1225.752797,-444.123565,9474.636058
530.363185,995.924147,-518.144159,9622.677246
530.363500,842.705048,-740.205942,9844.739029
530.363816,689.485948,-222.061783,9548.656652
530.364131,153.219100,-222.061783,9770.718434
530.364447,306.438199,148.041188,9622.677246
530.364763,76.609550,296.082377,9400.615463
530.365078,229.828649,592.164754,9326.594869
530.365394,459.657299,518.144159,9400.615463
530.365709,0.000000,592.164754,9548.656652
530.366025,153.219100,370.102971,9548.656652
530.366341,76.609550,296.082377,9622.677246
530.366656,153.219100,296.082377,9696.697840
530.366972,0.000000,222.061783,9770.718434
530.367288,-306.438199,-0.000000,9992.780217
530.367603,-306.438199,296.082377,9992.780217
530.367919,-306.438199,444.123565,9770.718434
530.368234,-306.438199,370.102971,9992.780217
530.368550,-306.438199,592.164754,10214.842000
530.368866,-306.438199,592.164754,9992.780217
530.369181,-459.657299,518.144159,9992.780217
530.369497,0.000000,370.102971,9770.718434
530.369812,-536.266849,-74.020594,9622.677246
530.370128,0.000000,296.082377,9326.594869
530.370444,-383.047749,518.144159,9474.636058
530.370759,-153.219100,592.164754,9400.615463
530.371075,-153.219100,518.144159,9474.636058
530.371390,0.000000,518.144159,9474.636058
530.371706,-306.438199,222.061783,9622.677246
530.372022,-766.095498,222.061783,9400.615463
530.372337,-612.876398,-0.000000,9622.677246
530.372653,-919.314598,-222.061783,9844.739029
530.372968,-1072.533697,-888.247130,9992.780217
530.373284,-919.314598,-888.247130,10140.821405
530.373600,-1072.533697,-1110.308913,10214.842000
530.373915,-1302.362347,-888.247130,10288.862594
530.374231,-842.705048,-592.164754,10066.800811
530.374547,-995.924147,-740.205942,9622.677246
530.374862,-536.266849,-444.123565,9548.656652
530.375178,-153.219100,-222.061783,9252.574275
530.375493,306.438199,-74.020594,9104.533087
530.375809,919.314598,-296.082377,8882.471304
530.376125,766.095498,-740.205942,8882.471304
530.376440,1072.533697,-444.123565,8956.491898
530.376756,1225.752797,-740.205942,8882.471304
530.377071,1072.533697,-888.247130,9030.512492
530.377387,1378.971896,-962.267725,9326.594869
530.377703,1455.581446,-962.267725,9178.553681
530.378018,1225.752797,-814.226536,9474.636058
530.378334,1455.581446,-888.247130,9474.636058
530.378649,1455.581446,-1036.288319,9400.615463
530.378965,1225.752797,-962.267725,9548.656652
530.379281,1532.190996,-814.226536,9252.574275
530.379596,1532.190996,-962.267725,9104.533087
530.379912,1838.629195,-962.267725,9178.553681
530.380228,2068.457845,-814.226536,8882.471304
530.380543,1915.238745,-444.123565,8734.430116
530.380859,2374.896044,-222.061783,8956.491898
530.381174,2221.676944,-296.082377,8660.409521
530.381490,2298.286494,-0.000000,8586.388927
530.381806,2374.896044,-148.041188,8882.471304
530.382121,2145.067394,-0.000000,8586.388927
530.382437,1915.238745,-148.041188,9030.512492
530.382752,1455.581446,-370.102971,9252.574275
530.383068,1532.190996,-444.123565,9474.636058
530.383384,919.314598,-518.144159,9918.759623
530.383699,995.924147,-444.123565,9918.759623
530.384015,536.266849,-222.061783,9844.739029
530.384330,153.219100,148.041188,9918.759623
530.384646,76.609550,-0.000000,9548.656652
530.384962,-229.828649,-0.000000,9696.697840
530.385277,0.000000,296.082377,9252.574275
530.385593,76.609550,518.144159,9326.594869
530.385908,0.000000,444.123565,9474.636058
530.386224,-153.219100,222.061783,9474.636058
530.386540,-153.219100,444.123565,9844.739029
530.386855,153.219100,222.061783,9474.636058
530.387171,0.000000,222.061783,9992.780217
530.387487,-306.438199,296.082377,9992.780217
530.387802,-153.219100,148.041188,9918.759623
530.388118,-383.047749,-0.000000,9844.739029
530.388433,-306.438199,444.123565,10140.821405
530.388749,-306.438199,370.102971,10140.821405
530.389065,-229.828649,370.102971,9770.718434
530.389380,-229.828649,370.102971,9918.759623
530.389696,0.000000,-0.000000,9696.697840
530.390011,0.000000,444.123565,9474.636058
530.390327,-306.438199,296.082377,9400.615463
530.390643,-229.828649,370.102971,9474.636058
530.390958,0.000000,444.123565,9474.636058
530.391274,0.000000,370.102971,9252.574275
530.391589,-153.219100,296.082377,9474.636058
530.391905,-306.438199,370.102971,9474.636058
530.392221,-536.266849,-0.000000,9326.594869
530.392536,-383.047749,-0.000000,9474.636058
530.392852,-536.266849,-518.144159,9844.739029
530.393167,-1149.143247,-740.205942,10066.800811
530.393483,-1149.143247,-962.267725,10066.800811
530.393799,-1072.533697,-814.226536,10140.821405
530.394114,-1225.752797,-444.123565,10288.862594
530.394430,-842.705048,-592.164754,9992.780217
530.394746,-689.485948,-444.123565,9696.697840
530.395061,-536.266849,-296.082377,9252.574275
530.395377,-229.828649,-148.041188,9178.553681
530.395692,229.828649,-74.020594,9030.512492
530.396008,536.266849,-148.041188,8956.491898
530.396324,689.485948,-370.102971,8586.388927
530.396639,766.095498,-518.144159,9252.574275
530.396955,689.485948,-592.164754,9104.533087
530.397270,383.047749,-962.267725,9326.594869
530.397586,919.314598,-592.164754,9326.594869
530.397902,842.705048,-592.164754,9474.636058
530.398217,1225.752797,-666.185348,9400.615463
530.398533,1225.752797,-962.267725,9548.656652
530.398848,1149.143247,-592.164754,9622.677246
530.399164,1378.971896,-814.226536,9474.636058
530.399480,1455.581446,-814.226536,9252.574275
530.399795,1762.019645,-814.226536,9104.533087
530.400111,1838.629195,-592.164754,9178.553681
530.400426,1455.581446,-518.144159,8956.491898
530.400742,2298.286494,-296.082377,8660.409521
530.401058,2451.505594,-74.020594,8660.409521
530.401373,2451.505594,-0.000000,8808.450710
530.401689,2374.896044,-0.000000,8882.471304
530.402005,2221.676944,-0.000000,8734.430116
530.402320,1991.848295,-148.041188,8956.491898
530.402636,2068.457845,-0.000000,9252.574275
530.402951,1762.019645,-296.082377,9326.594869
530.403267,1149.143247,-370.102971,9696.697840
530.403583,919.314598,-518.144159,9844.739029
530.403898,612.876398,-592.164754,9918.759623
530.404214,306.438199,-444.123565,9844.739029
530.404529,229.828649,-148.041188,9844.739029
530.404845,0.000000,-0.000000,9770.718434
530.405161,383.047749,-0.000000,9474.636058
530.405476,153.219100,296.082377,9622.677246
530.405792,306.438199,592.164754,9474.636058
530.406107,76.609550,296.082377,9400.615463
530.406423,0.000000,148.041188,9400.615463
530.406739,76.609550,296.082377,9622.677246
530.407054,0.000000,148.041188,9622.677246
530.407370,-306.438199,148.041188,9918.759623
530.407685,-229.828649,148.041188,10140.821405
530.408001,-459.657299,148.041188,10066.800811
530.408317,-995.924147,-74.020594,10140.821405
530.408632,-76.609550,370.102971,9918.759623
530.408948,-459.657299,370.102971,9770.718434
530.409264,-383.047749,148.041188,9992.780217
530.409579,-766.095498,-0.000000,9770.718434
530.409895,-689.485948,148.041188,9844.739029
530.410210,-459.657299,296.082377,9622.677246
530.410526,-306.438199,222.061783,9474.636058
530.410842,-153.219100,444.123565,9400.615463
530.411157,-383.047749,592.164754,9548.656652
530.411473,229.828649,296.082377,9548.656652
530.411788,0.000000,222.061783,9400.615463
530.412104,-76.609550,296.082377,9400.615463
530.412420,-229.828649,-0.000000,9178.553681
530.412735,-383.047749,-74.020594,9474.636058
530.413051,-689.485948,-444.123565,9770.718434
530.413366,-766.095498,-814.226536,10140.821405
530.413682,-995.924147,-1036.288319,10214.842000
530.413998,-1072.533697,-1036.288319,10066.800811
530.414313,-766.095498,-888.247130,10140.821405
530.414629,-919.314598,-814.226536,9918.759623
530.414944,-536.266849,-296.082377,9622.677246
530.415260,-153.219100,-370.102971,9326.594869
530.415576,0.000000,-222.061783,9104.533087
530.415891,459.657299,-592.164754,8956.491898
530.416207,459.657299,-444.123565,8882.471304
530.416523,612.876398,-592.164754,8882.471304
530.416838,766.095498,-592.164754,9030.512492
530.417154,1072.533697,-518.144159,9178.553681
530.417469,1455.581446,-740.205942,9178.553681
530.417785,1225.752797,-888.247130,9400.615463
530.418101,1149.143247,-666.185348,9400.615463
530.418416,1149.143247,-740.205942,9474.636058
530.418732,1302.362347,-666.185348,9474.636058
530.419047,1532.190996,-740.205942,9178.553681
530.419363,1455.581446,-740.205942,9474.636058
530.419679,1685.410096,-740.205942,9252.574275
530.419994,1608.800546,-518.144159,9252.574275
530.420310,1762.019645,-370.102971,9104.533087
530.420625,1991.848295,-148.041188,9104.533087
530.420941,1838.629195,-370.102971,8882.471304
530.421257,2068.457845,148.041188,9252.574275
530.421572,2298.286494,-0.000000,8734.430116
530.421888,2374.896044,-0.000000,9030.512492
530.422203,2068.457845,-0.000000,8660.409521
530.422519,2145.067394,-0.000000,8882.471304
530.422835,1915.238745,-0.000000,9252.574275
530.423150,1455.581446,-222.061783,9548.656652
530.423466,1455.581446,-222.061783,9770.718434
530.423782,842.705048,-592.164754,9844.739029
530.424097,612.876398,-592.164754,9844.739029
530.424413,459.657299,-74.020594,9844.739029
530.424728,229.828649,-74.020594,9992.780217
530.425044,76.609550,-0.000000,9696.697840
530.425360,76.609550,370.102971,9474.636058
530.425675,0.000000,296.082377,9326.594869
530.425991,76.609550,666.185348,9474.636058
530.426306,0.000000,592.164754,9696.697840
530.426622,0.000000,-0.000000,9622.677246
530.426938,229.828649,-0.000000,9474.636058
530.427253,153.219100,-0.000000,9474.636058
530.427569,0.000000,148.041188,9992.780217
530.427884,0.000000,-74.020594,9992.780217
530.428200,0.000000,148.041188,9918.759623
530.428516,-306.438199,-0.000000,9992.780217
530.428831,-306.438199,148.041188,9918.759623
530.429147,-459.657299,222.061783,9918.759623
530.429462,-306.438199,296.082377,9770.718434
530.429778,-459.657299,-0.000000,9548.656652
530.430094,-612.876398,222.061783,9992.780217
530.430409,-153.219100,444.123565,9548.656652
530.430725,-383.047749,370.102971,9548.656652
530.431041,-229.828649,148.041188,9104.533087
530.431356,76.609550,370.102971,9326.594869
530.431672,0.000000,444.123565,9252.574275
530.431987,0.000000,296.082377,9326.594869
530.432303,-153.219100,296.082377,9252.574275
530.432619,-306.438199,-0.000000,9400.615463
530.432934,-383.047749,-148.041188,9548.656652
530.433250,-842.705048,-444.123565,9844.739029
530.433565,-919.314598,-666.185348,10066.800811
530.433881,-995.924147,-962.267725,10288.862594
530.434197,-1225.752797,-1184.329507,10140.821405
530.434512,-1149.143247,-740.205942,10140.821405
530.434828,-919.314598,-592.164754,9918.759623
530.435143,-612.876398,-444.123565,9622.677246
530.435459,0.000000,-518.144159,9178.553681
530.435775,0.000000,-296.082377,9030.512492
530.436090,76.609550,-222.061783,9030.512492
530.436406,612.876398,-222.061783,8882.471304
530.436722,919.314598,-666.185348,8808.450710
530.437037,919.314598,-888.247130,9104.533087
530.437353,995.924147,-962.267725,9252.574275
530.437668,1072.533697,-888.247130,9400.615463
530.437984,1225.752797,-740.205942,9252.574275
530.438300,1532.190996,-1036.288319,9474.636058
530.438615,919.314598,-740.205942,9622.677246
530.438931,1149.143247,-814.226536,9474.636058
530.439246,1302.362347,-814.226536,9474.636058
530.439562,1455.581446,-962.267725,9400.615463
530.439878,1608.800546,-666.185348,9474.636058
530.440193,1915.238745,-518.144159,9104.533087
530.440509,1915.238745,-518.144159,8956.491898
530.440824,2068.457845,-296.082377,8956.491898
530.441140,2145.067394,-296.082377,8882.471304
530.441456,2221.676944,-148.041188,9104.533087
530.441771,2221.676944,-0.000000,8734.430116
530.442087,2451.505594,296.082377,8808.450710
530.442402,2298.286494,370.102971,8734.430116
530.442718,1991.848295,222.061783,9252.574275
530.443034,1991.848295,-0.000000,9252.574275
530.443349,1455.581446,-222.061783,9326.594869
530.443665,1149.143247,-296.082377,9474.636058
530.443981,689.485948,-444.123565,9770.718434
530.444296,612.876398,-370.102971,9918.759623
530.444612,76.609550,-0.000000,10066.800811
530.444927,229.828649,148.041188,9992.780217
530.445243,0.000000,148.041188,9696.697840
530.445559,-153.219100,444.123565,9474.636058
530.445874,229.828649,518.144159,9178.553681
530.446190,76.609550,518.144159,9030.512492
530.446505,-76.609550,592.164754,9178.553681
530.446821,76.609550,296.082377,9326.594869
530.447137,0.000000,444.123565,9474.636058
530.447452,0.000000,296.082377,9696.697840
530.447768,0.000000,222.061783,9918.759623
530.448084,0.000000,222.061783,10140.821405
530.448399,-229.828649,222.061783,9918.759623
530.448715,0.000000,370.102971,9918.759623
530.449031,0.000000,370.102971,10214.842000
530.449346,-153.219100,-222.061783,9918.759623
530.449662,-229.828649,370.102971,9696.697840
530.449978,-306.438199,518.144159,9770.718434
530.450293,-459.657299,222.061783,9696.697840
530.450609,-229.828649,222.061783,9622.677246
530.450925,0.000000,370.102971,9474.636058
530.451241,0.000000,296.082377,9326.594869
530.451556,-383.047749,296.082377,9400.615463
530.451872,0.000000,296.082377,9400.615463
530.452188,0.000000,444.123565,9548.656652
530.452503,76.609550,370.102971,9548.656652
530.452819,-306.438199,-0.000000,9474.636058
530.453135,-536.266849,-148.041188,9548.656652
530.453450,-612.876398,-444.123565,9770.718434
530.453766,-766.095498,-1184.329507,9992.780217
530.454082,-995.924147,-1110.308913,10140.821405
530.454397,-995.924147,-1184.329507,10140.821405
530.454713,-1072.533697,-1110.308913,10066.800811
530.455029,-842.705048,-814.226536,9992.780217
530.455345,-383.047749,-592.164754,9548.656652
530.455660,-383.047749,-370.102971,9178.553681
530.455976,-229.828649,-444.123565,9104.533087
530.456292,153.219100,-666.185348,8882.471304
530.456607,306.438199,-666.185348,8882.471304
530.456923,536.266849,-592.164754,9178.553681
530.457239,536.266849,-814.226536,9178.553681
530.457554,766.095498,-1036.288319,9178.553681
530.457870,842.705048,-962.267725,9400.615463
530.458186,536.266849,-814.226536,9400.615463
530.458501,1455.581446,-1258.350101,9474.636058
530.458817,1225.752797,-1036.288319,9474.636058
530.459133,1225.752797,-1258.350101,9400.615463
530.459448,1378.971896,-1110.308913,9178.553681
530.459764,1455.581446,-1036.288319,9474.636058
530.460080,1532.190996,-888.247130,9400.615463
530.460396,1838.629195,-814.226536,9178.553681
530.460711,1762.019645,-666.185348,9104.533087
530.461027,1915.238745,-592.164754,8882.471304
530.461343,2221.676944,-666.185348,8660.409521
530.461658,2145.067394,-222.061783,8734.430116
530.461974,2145.067394,-148.041188,8734.430116
530.462290,2298.286494,148.041188,8956.491898
530.462605,2145.067394,-0.000000,8512.368333
530.462921,1991.848295,-222.061783,8882.471304
530.463237,1915.238745,-148.041188,9030.512492
530.463552,1838.629195,-370.102971,9326.594869
530.463868,1378.971896,-518.144159,9548.656652
530.464184,919.314598,-444.123565,9770.718434
530.464500,1149.143247,-666.185348,9992.780217
530.464815,689.485948,-222.061783,9770.718434
530.465131,229.828649,-74.020594,9474.636058
530.465447,306.438199,296.082377,9474.636058
530.465762,306.438199,518.144159,9474.636058
530.466078,229.828649,444.123565,9400.615463
530.466394,0.000000,444.123565,9474.636058
530.466709,0.000000,518.144159,9326.594869
530.467025,0.000000,370.102971,9474.636058
530.467341,76.609550,370.102971,9622.677246
530.467656,153.219100,296.082377,9548.656652
530.467972,-153.219100,222.061783,9696.697840
530.468288,-383.047749,148.041188,10214.842000
530.468604,-383.047749,296.082377,9918.759623
530.468919,-229.828649,444.123565,10436.903782
530.469235,-306.438199,222.061783,9992.780217
530.469551,-383.047749,370.102971,9992.780217
530.469866,-229.828649,518.144159,9844.739029
530.470182,-153.219100,666.185348,10066.800811
530.470498,0.000000,370.102971,9992.780217
530.470813,0.000000,814.226536,9622.677246
530.471129,153.219100,592.164754,9400.615463
530.471445,0.000000,666.185348,9474.636058
530.471760,0.000000,666.185348,9548.656652
530.472076,0.000000,740.205942,9548.656652
530.472392,-153.219100,592.164754,9474.636058
530.472708,-153.219100,296.082377,9474.636058
530.473023,-306.438199,370.102971,9474.636058
530.473339,-306.438199,-74.020594,9474.636058
530.473655,-612.876398,-296.082377,10066.800811
530.473970,-842.705048,-666.185348,10140.821405
530.474286,-919.314598,-814.226536,10362.883188
530.474602,-995.924147,-888.247130,10362.883188
530.474917,-842.705048,-962.267725,10140.821405
530.475233,-612.876398,-518.144159,9918.759623
530.475549,-612.876398,-296.082377,9696.697840
530.475864,-153.219100,-296.082377,9400.615463
530.476180,153.219100,-74.020594,8956.491898
530.476496,229.828649,-74.020594,8956.491898
530.476812,612.876398,-370.102971,8808.450710
530.477127,842.705048,-740.205942,8734.430116
530.477443,995.924147,-740.205942,9030.512492
530.477759,1302.362347,-888.247130,9326.594869
530.478074,995.924147,-740.205942,9400.615463
530.478390,1072.533697,-1036.288319,9474.636058
530.478706,1225.752797,-1110.308913,9326.594869
530.479021,1378.971896,-814.226536,9400.615463
530.479337,1302.362347,-1258.350101,9400.615463
530.479653,1149.143247,-1184.329507,9622.677246
530.479968,1455.581446,-1184.329507,9252.574275
530.480284,1455.581446,-1332.370696,9178.553681
530.480600,1608.800546,-962.267725,9252.574275
530.480916,1762.019645,-1184.329507,9252.574275
530.481231,1838.629195,-888.247130,8808.450710
530.481547,1991.848295,-296.082377,8734.430116
530.481863,2298.286494,-518.144159,8660.409521
530.482178,2145.067394,-222.061783,8734.430116
530.482494,2451.505594,-222.061783,8660.409521
530.482810,2068.457845,-0.000000,8586.388927
530.483125,2145.067394,-148.041188,8808.450710
530.483441,1608.800546,-296.082377,9030.512492
530.483757,1455.581446,-370.102971,9252.574275
530.484072,1225.752797,-888.247130,9770.718434
530.484388,995.924147,-814.226536,9770.718434
530.484704,229.828649,-740.205942,9770.718434
530.485020,536.266849,-296.082377,9844.739029
530.485335,76.609550,-222.061783,9474.636058
530.485651,229.828649,666.185348,9770.718434
530.485967,306.438199,444.123565,9400.615463
530.486282,229.828649,592.164754,9400.615463
530.486598,229.828649,592.164754,9474.636058
530.486914,229.828649,444.123565,9400.615463
530.487229,536.266849,-222.061783,9252.574275
530.487545,153.219100,370.102971,9474.636058
530.487861,153.219100,-0.000000,9548.656652
530.488176,0.000000,74.020594,9770.718434
530.488492,-306.438199,148.041188,9992.780217
530.488808,-536.266849,222.061783,9918.759623
530.489124,-153.219100,222.061783,9992.780217
530.489439,-306.438199,370.102971,10140.821405
530.489755,-612.876398,370.102971,10066.800811
530.490071,-383.047749,444.123565,10066.800811
530.490386,-842.705048,296.082377,9992.780217
530.490702,-153.219100,444.123565,9770.718434
530.491018,-612.876398,296.082377,9548.656652
530.491333,-229.828649,518.144159,9548.656652
530.491649,76.609550,814.226536,9474.636058
530.491965,0.000000,666.185348,9400.615463
530.492280,76.609550,518.144159,9326.594869
530.492596,-229.828649,296.082377,9400.615463
530.492912,0.000000,370.102971,9474.636058
530.493228,-153.219100,296.082377,9400.615463
530.493543,-536.266849,-0.000000,9622.677246
530.493859,-689.485948,-148.041188,9918.759623
530.494175,-766.095498,-666.185348,9992.780217
530.494490,-1072.533697,-814.226536,10214.842000
530.494806,-1685.410096,-1036.288319,10584.944971
530.495122,-1302.362347,-814.226536,10288.862594
530.495437,-995.924147,-518.144159,10066.800811
530.495753,-919.314598,-370.102971,9696.697840
530.496069,-536.266849,-0.000000,9696.697840
530.496384,76.609550,-222.061783,9252.574275
530.496700,0.000000,-148.041188,9104.533087
530.497016,229.828649,-74.020594,9030.512492
530.497332,459.657299,-370.102971,9104.533087
530.497647,612.876398,-444.123565,9178.553681
530.497963,766.095498,-814.226536,9252.574275
530.498279,842.705048,-740.205942,9178.553681
530.498594,1072.533697,-814.226536,9326.594869
530.498910,1225.752797,-814.226536,9326.594869
530.499226,1072.533697,-888.247130,9326.594869
530.499541,1302.362347,-962.267725,9474.636058
530.499857,1532.190996,-888.247130,9400.615463
530.500173,1608.800546,-962.267725,9326.594869
530.500488,1455.581446,-740.205942,9104.533087
530.500804,1532.190996,-740.205942,9252.574275
530.501120,1838.629195,-740.205942,8956.491898
530.501436,1991.848295,-296.082377,9030.512492
530.501751,2298.286494,-296.082377,8586.388927
530.502067,2145.067394,-296.082377,8734.430116
530.502383,2451.505594,-74.020594,8660.409521
530.502698,2145.067394,-74.020594,8512.368333
530.503014,2068.457845,222.061783,9104.533087
530.503330,2068.457845,-74.020594,8808.450710
530.503645,1532.190996,-148.041188,9252.574275
530.503961,1302.362347,-444.123565,9326.594869
530.504277,1149.143247,-740.205942,9622.677246
530.504592,919.314598,-666.185348,9844.739029
530.504908,612.876398,-740.205942,9844.739029
530.505224,229.828649,-444.123565,9770.718434
530.505540,153.219100,-148.041188,9918.759623
530.505855,229.828649,-0.000000,9696.697840
530.506171,0.000000,-0.000000,9474.636058
530.506487,0.000000,370.102971,9326.594869
530.506802,383.047749,296.082377,9326.594869
530.507118,76.609550,222.061783,9252.574275
530.507434,0.000000,-0.000000,9326.594869
530.507749,0.000000,-148.041188,9696.697840
530.508065,0.000000,296.082377,9548.656652
530.508381,0.000000,-0.000000,9770.718434
530.508696,0.000000,-0.000000,9844.739029
530.509012,-306.438199,222.061783,9918.759623
530.509328,-383.047749,-0.000000,9992.780217
530.509644,-612.876398,222.061783,9992.780217
530.509959,-229.828649,-0.000000,10066.800811
530.510275,-459.657299,-74.020594,9918.759623
530.510591,0.000000,-0.000000,9918.759623
530.510906,-306.438199,222.061783,9918.759623
530.511222,0.000000,740.205942,9992.780217
530.511538,0.000000,592.164754,9622.677246
530.511853,76.609550,444.123565,9474.636058
530.512169,0.000000,444.123565,9474.636058
530.512485,229.828649,592.164754,9400.615463
530.512800,-306.438199,444.123565,9252.574275
530.513116,-229.828649,370.102971,9474.636058
530.513432,-229.828649,-0.000000,9548.656652
530.513748,-306.438199,-0.000000,9474.636058
530.514063,-536.266849,-444.123565,9696.697840
530.514379,-1225.752797,-888.247130,10436.903782
530.514695,-919.314598,-1184.329507,10214.842000
530.515010,-1225.752797,-962.267725,10362.883188
530.515326,-919.314598,-740.205942,10288.862594
530.515642,-919.314598,-444.123565,10066.800811
530.515957,0.000000,-666.185348,9548.656652
530.516273,-383.047749,-444.123565,9326.594869
530.516589,0.000000,-222.061783,9400.615463
530.516904,76.609550,-0.000000,8956.491898
530.517220,766.095498,-296.082377,8808.450710
530.517536,612.876398,-148.041188,8882.471304
530.517852,919.314598,-296.082377,9252.574275
530.518167,689.485948,-592.164754,9326.594869
530.518483,766.095498,-666.185348,9178.553681
530.518799,766.095498,-814.226536,9252.574275
530.519114,1072.533697,-740.205942,9548.656652
530.519430,1149.143247,-888.247130,9252.574275
530.519746,1532.190996,-518.144159,9474.636058
530.520061,1225.752797,-1036.288319,9474.636058
530.520377,1072.533697,-740.205942,9474.636058
530.520693,1225.752797,-740.205942,9548.656652
530.521008,1532.190996,-444.123565,9252.574275
530.521324,1915.238745,-592.164754,9104.533087
530.521640,1838.629195,-444.123565,9104.533087
530.521956,1991.848295,-74.020594,8808.450710
530.522271,1915.238745,-296.082377,8882.471304
530.522587,2145.067394,-0.000000,8808.450710
530.522903,2374.896044,74.020594,8956.491898
530.523218,2145.067394,370.102971,8734.430116
530.523534,1915.238745,296.082377,8956.491898
530.523850,2068.457845,-0.000000,9252.574275
530.524165,1685.410096,-222.061783,9326.594869
530.524481,1149.143247,-370.102971,9622.677246
530.524797,842.705048,-444.123565,9770.718434
530.525112,459.657299,-444.123565,10066.800811
530.525428,536.266849,-148.041188,9844.739029
530.525744,383.047749,-0.000000,10066.800811
530.526059,306.438199,-0.000000,9696.697840
530.526375,153.219100,444.123565,9474.636058
530.526691,995.924147,444.123565,9326.594869
530.527007,536.266849,592.164754,9474.636058
530.527322,306.438199,370.102971,9400.615463
530.527638,76.609550,296.082377,9400.615463
530.527954,153.219100,148.041188,9474.636058
530.528269,0.000000,148.041188,9474.636058
530.528585,76.609550,-0.000000,9918.759623
530.528901,0.000000,296.082377,9696.697840
530.529216,-229.828649,-0.000000,10140.821405
530.529532,-383.047749,148.041188,10214.842000
530.529848,-459.657299,518.144159,9992.780217
530.530163,-459.657299,222.061783,10066.800811
530.530479,-612.876398,148.041188,10066.800811
530.530795,-459.657299,148.041188,9992.780217
530.531111,-383.047749,222.061783,9918.759623
530.531426,0.000000,518.144159,9696.697840
530.531742,-536.266849,148.041188,9474.636058
530.532058,-306.438199,222.061783,9400.615463
530.532373,0.000000,296.082377,9326.594869
530.532689,0.000000,444.123565,9252.574275
530.533005,-766.095498,-0.000000,9622.677246
530.533320,-153.219100,296.082377,9326.594869
530.533636,-153.219100,-0.000000,9400.615463
530.533952,-536.266849,-222.061783,9622.677246
530.534267,-612.876398,-370.102971,9844.739029
530.534583,-766.095498,-1036.288319,9918.759623
530.534899,-1378.971896,-1258.350101,9918.759623
530.535215,-1378.971896,-1332.370696,10214.842000
530.535530,-1072.533697,-1036.288319,9918.759623
530.535846,-612.876398,-740.205942,9770.718434
530.536162,-306.438199,-592.164754,9474.636058
530.536477,-306.438199,-444.123565,9474.636058
530.536793,0.000000,-296.082377,9030.512492
530.537109,383.047749,-296.082377,8882.471304
530.537424,1072.533697,-370.102971,8882.471304
530.537740,766.095498,-666.185348,8808.450710
530.538056,1072.533697,-814.226536,8882.471304
530.538371,689.485948,-1332.370696,8956.491898
530.538687,995.924147,-1110.308913,9400.615463
530.539003,995.924147,-962.267725,9252.574275
530.539319,1302.362347,-888.247130,9252.574275
530.539634,995.924147,-1036.288319,9326.594869
530.539950,1378.971896,-962.267725,9326.594869
530.540266,1225.752797,-888.247130,9474.636058
530.540581,1378.971896,-1258.350101,9400.615463
530.540897,1685.410096,-814.226536,9326.594869
530.541213,1685.410096,-666.185348,9030.512492
530.541528,1685.410096,-666.185348,8882.471304
530.541844,1915.238745,-296.082377,8956.491898
530.542160,2681.334243,-0.000000,8808.450710
530.542475,2068.457845,-0.000000,8586.388927
530.542791,2221.676944,-0.000000,8808.450710
530.543107,2298.286494,-0.000000,8734.430116
530.543423,2221.676944,-0.000000,8734.430116
530.543738,2451.505594,-0.000000,8956.491898
530.544054,1838.629195,-74.020594,9030.512492
530.544370,1225.752797,-370.102971,9474.636058
530.544685,842.705048,-296.082377,9770.718434
530.545001,536.266849,-370.102971,9992.780217
530.545317,0.000000,-666.185348,10214.842000
530.545632,229.828649,-222.061783,9918.759623
530.545948,0.000000,-0.000000,9918.759623
530.546264,229.828649,148.041188,9548.656652
530.546579,306.438199,222.061783,9400.615463
530.546895,0.000000,-0.000000,9104.533087
530.547211,306.438199,666.185348,9400.615463
530.547527,0.000000,296.082377,9326.594869
530.547842,153.219100,444.123565,9252.574275
530.548158,229.828649,444.123565,9474.636058
530.548474,76.609550,370.102971,9548.656652
530.548789,0.000000,444.123565,9918.759623
530.549105,-153.219100,148.041188,9844.739029
530.549421,-229.828649,370.102971,10214.842000
530.549737,0.000000,296.082377,10066.800811
530.550052,-459.657299,296.082377,10510.924376
530.550368,-306.438199,-0.000000,10140.821405
530.550684,-306.438199,296.082377,9992.780217
530.550999,-306.438199,296.082377,10140.821405
530.551315,-766.095498,-0.000000,9918.759623
530.551631,-459.657299,444.123565,9622.677246
530.551947,-229.828649,370.102971,9400.615463
530.552262,-229.828649,592.164754,9474.636058
530.552578,76.609550,592.164754,9474.636058
530.552894,229.828649,740.205942,9178.553681
530.553210,0.000000,518.144159,9474.636058
530.553525,-229.828649,592.164754,9474.636058
530.553841,-306.438199,222.061783,9474.636058
530.554157,-306.438199,-148.041188,9622.677246
530.554473,-459.657299,-518.144159,9992.780217
530.554788,-919.314598,-592.164754,10214.842000
530.555104,-995.924147,-1110.308913,10140.821405
530.555420,-1072.533697,-1110.308913,10214.842000
530.555735,-1149.143247,-1036.288319,10140.821405
530.556051,-842.705048,-1184.329507,9918.759623
530.556367,-306.438199,-296.082377,9474.636058
530.556683,-306.438199,-222.061783,9474.636058
530.556998,229.828649,-222.061783,9030.512492
530.557314,459.657299,-444.123565,8882.471304
530.557630,459.657299,-592.164754,8734.430116
530.557946,919.314598,-592.164754,8882.471304
530.558261,766.095498,-740.205942,8956.491898
530.558577,1149.143247,-1110.308913,9178.553681
530.558893,842.705048,-1036.288319,9030.512492
530.559209,1225.752797,-1036.288319,9326.594869
530.559524,995.924147,-1110.308913,9400.615463
530.559840,1072.533697,-1036.288319,9400.615463
530.560156,1225.752797,-1036.288319,9474.636058
530.560471,1302.362347,-1036.288319,9474.636058
530.560787,1225.752797,-1110.308913,9326.594869
530.561103,1302.362347,-1110.308913,9104.533087
530.561419,1608.800546,-888.247130,8956.491898
530.561734,1685.410096,-1184.329507,9326.594869
530.562050,1762.019645,-444.123565,8660.409521
530.562366,2145.067394,-296.082377,8586.388927
530.562682,2374.896044,-296.082377,8734.430116
530.562997,1915.238745,-74.020594,8586.388927
530.563313,2757.943793,-0.000000,8882.471304
530.563629,2298.286494,74.020594,8586.388927
530.563945,2221.676944,-0.000000,8882.471304
530.564260,1838.629195,-74.020594,9104.533087
530.564576,1685.410096,-296.082377,9400.615463
530.564892,1072.533697,-444.123565,9696.697840
530.565207,766.095498,-518.144159,9622.677246
530.565523,536.266849,-444.123565,10140.821405
530.565839,459.657299,-222.061783,9918.759623
530.566155,612.876398,-74.020594,9770.718434
530.566470,306.438199,-0.000000,9770.718434
530.566786,0.000000,222.061783,9252.574275
530.567102,-153.219100,666.185348,9548.656652
530.567418,0.000000,592.164754,9252.574275
530.567733,229.828649,518.144159,9252.574275
530.568049,0.000000,-0.000000,9474.636058
530.568365,0.000000,370.102971,9474.636058
530.568681,0.000000,370.102971,9548.656652
530.568996,0.000000,222.061783,9844.739029
530.569312,0.000000,444.123565,9992.780217
530.569628,76.609550,222.061783,9548.656652
530.569943,-229.828649,-0.000000,10214.842000
530.570259,-229.828649,666.185348,10066.800811
530.570575,-306.438199,444.123565,10066.800811
530.570891,-459.657299,518.144159,10066.800811
530.571206,-306.438199,518.144159,10214.842000
530.571522,-536.266849,518.144159,9918.759623
530.571838,-229.828649,370.102971,9622.677246
530.572154,-153.219100,518.144159,9474.636058
530.572469,0.000000,296.082377,9474.636058
530.572785,229.828649,370.102971,9844.739029
530.573101,153.219100,740.205942,9474.636058
530.573416,-153.219100,518.144159,9326.594869
530.573732,0.000000,518.144159,9548.656652
530.574048,-306.438199,296.082377,9474.636058
530.574364,-229.828649,-444.123565,9474.636058
530.574679,-689.485948,-148.041188,9770.718434
530.574995,-842.705048,-666.185348,10066.800811
530.575311,-919.314598,-740.205942,10214.842000
530.575627,-1302.362347,-1036.288319,10214.842000
530.575942,-995.924147,-518.144159,10362.883188
530.576258,-1072.533697,-444.123565,10436.903782
530.576574,-612.876398,-444.123565,9770.718434
530.576890,-306.438199,-222.061783,9474.636058
530.577205,0.000000,-222.061783,9178.553681
530.577521,229.828649,-444.123565,9104.533087
530.577837,229.828649,-518.144159,8956.491898
530.578152,536.266849,-518.144159,8956.491898
530.578468,842.705048,-1036.288319,8956.491898
530.578784,842.705048,-1258.350101,9104.533087
530.579100,766.095498,-1258.350101,8882.471304
530.579415,1072.533697,-888.247130,9326.594869
530.579731,1378.971896,-1036.288319,9326.594869
530.580047,1225.752797,-962.267725,9400.615463
530.580363,1455.581446,-962.267725,9326.594869
530.580678,1532.190996,-1332.370696,9400.615463
530.580994,1378.971896,-1036.288319,9252.574275
530.581310,1455.581446,-1036.288319,9178.553681
530.581626,1685.410096,-814.226536,9030.512492
530.581941,1838.629195,-740.205942,8956.491898
530.582257,1762.019645,-666.185348,8586.388927
530.582573,2068.457845,-592.164754,8808.450710
530.582888,2298.286494,-444.123565,8808.450710
530.583204,1991.848295,-370.102971,8660.409521
530.583520,1991.848295,-370.102971,8734.430116
530.583836,1838.629195,-222.061783,8882.471304
530.584151,1915.238745,-222.061783,8882.471304
530.584467,1838.629195,-296.082377,9326.594869
530.584783,1378.971896,-444.123565,9548.656652
530.585099,919.314598,-814.226536,9548.656652
530.585414,995.924147,-888.247130,9770.718434
530.585730,612.876398,-814.226536,9992.780217
530.586046,612.876398,-222.061783,9844.739029
530.586362,229.828649,-222.061783,9622.677246
530.586677,229.828649,222.061783,9918.759623
530.586993,306.438199,222.061783,9548.656652
530.587309,153.219100,444.123565,9326.594869
530.587624,153.219100,370.102971,9326.594869
530.587940,76.609550,370.102971,9548.656652
530.588256,0.000000,148.041188,9548.656652
530.588572,229.828649,-0.000000,9474.636058
530.588887,-229.828649,-74.020594,9696.697840
530.589203,-229.828649,-0.000000,9918.759623
530.589519,-306.438199,-0.000000,9992.780217
530.589835,-306.438199,222.061783,10214.842000
530.590150,-536.266849,296.082377,10140.821405
530.590466,-383.047749,370.102971,9918.759623
530.590782,-383.047749,222.061783,9992.780217
530.591098,-229.828649,444.123565,9992.780217
530.591413,0.000000,518.144159,10214.842000
530.591729,0.000000,666.185348,9844.739029
530.592045,-229.828649,666.185348,9844.739029
530.592360,0.000000,518.144159,9474.636058
530.592676,0.000000,740.205942,9548.656652
530.592992,306.438199,814.226536,9326.594869
530.593308,153.219100,444.123565,9252.574275
530.593623,76.609550,370.102971,9400.615463
530.593939,0.000000,592.164754,9400.615463
530.594255,0.000000,370.102971,9548.656652
530.594571,0.000000,-148.041188,9622.677246
530.594886,-306.438199,-370.102971,9918.759623
530.595202,-766.095498,-518.144159,9918.759623
530.595518,-1149.143247,-888.247130,10362.883188
530.595833,-995.924147,-962.267725,10362.883188
530.596149,-919.314598,-888.247130,9992.780217
530.596465,-689.485948,-296.082377,9844.739029
530.596781,-536.266849,-148.041188,9622.677246
530.597096,-306.438199,-74.020594,9474.636058
530.597412,229.828649,-370.102971,9104.533087
530.597728,76.609550,-0.000000,8882.471304
530.598044,536.266849,-148.041188,8734.430116
530.598359,842.705048,-148.041188,9104.533087
530.598675,842.705048,-444.123565,9252.574275
530.598991,1378.971896,-814.226536,8956.491898
530.599307,995.924147,-666.185348,9178.553681
530.599622,1149.143247,-740.205942,9400.615463
530.599938,1149.143247,-740.205942,9474.636058
530.600254,1072.533697,-740.205942,9326.594869
530.600569,1455.581446,-888.247130,9474.636058
530.600885,1225.752797,-1110.308913,9474.636058
530.601201,995.924147,-962.267725,9104.533087
530.601517,1378.971896,-740.205942,9400.615463
530.601832,1455.581446,-666.185348,9178.553681
530.602148,1762.019645,-888.247130,8956.491898
530.602464,1762.019645,-444.123565,8882.471304
530.602780,1991.848295,-222.061783,8882.471304
530.603095,2068.457845,-296.082377,8808.450710
530.603411,2221.676944,-222.061783,8660.409521
530.603727,2528.115143,-444.123565,8290.306550
530.604043,2145.067394,-0.000000,8734.430116
530.604358,1991.848295,-148.041188,8734.430116
530.604674,1762.019645,-148.041188,8956.491898
530.604990,1302.362347,-444.123565,9252.574275
530.605305,1378.971896,-444.123565,9548.656652
530.605621,995.924147,-814.226536,9770.718434
530.605937,383.047749,-518.144159,9918.759623
530.606253,76.609550,-296.082377,9696.697840
530.606568,459.657299,-0.000000,9696.697840
530.606884,76.609550,-0.000000,9696.697840
530.607200,0.000000,-0.000000,9474.636058
530.607516,229.828649,74.020594,9474.636058
530.607831,76.609550,370.102971,9474.636058
530.608147,536.266849,666.185348,9770.718434
530.608463,0.000000,296.082377,9400.615463
530.608779,0.000000,-0.000000,9548.656652
530.609094,229.828649,148.041188,9770.718434
530.609410,0.000000,-0.000000,9770.718434
530.609726,0.000000,-0.000000,9844.739029
530.610041,0.000000,-0.000000,9992.780217
530.610357,-229.828649,222.061783,9918.759623
530.610673,-153.219100,296.082377,9992.780217
530.610989,-306.438199,296.082377,9992.780217
530.611304,-153.219100,222.061783,10436.903782
530.611620,-229.828649,296.082377,9918.759623
530.611936,-229.828649,296.082377,9770.718434
530.612252,-306.438199,444.123565,9622.677246
530.612567,0.000000,-0.000000,9474.636058
530.612883,0.000000,-0.000000,9400.615463
530.613199,0.000000,592.164754,9326.594869
530.613515,383.047749,296.082377,9252.574275
530.613830,0.000000,370.102971,9326.594869
530.614146,0.000000,-0.000000,9400.615463
530.614462,-153.219100,370.102971,9622.677246
530.614777,-153.219100,-0.000000,9548.656652
530.615093,-383.047749,-296.082377,9844.739029
530.615409,-842.705048,-888.247130,10066.800811
530.615725,-1072.533697,-1332.370696,10140.821405
530.616040,-1072.533697,-1110.308913,9992.780217
530.616356,-1072.533697,-740.205942,9992.780217
530.616672,-612.876398,-518.144159,10140.821405
530.616988,-536.266849,-370.102971,9474.636058
530.617303,-153.219100,-74.020594,9400.615463
530.617619,0.000000,-0.000000,9178.553681
530.617935,76.609550,-222.061783,8882.471304
530.618250,459.657299,-444.123565,8956.491898
530.618566,1072.533697,-592.164754,8734.430116
530.618882,612.876398,-814.226536,8956.491898
530.619198,842.705048,-814.226536,9252.574275
530.619513,842.705048,-814.226536,9252.574275
530.619829,842.705048,-1110.308913,9252.574275
530.620145,1072.533697,-1036.288319,9622.677246
530.620461,1378.971896,-888.247130,9474.636058
530.620776,1225.752797,-888.247130,9252.574275
530.621092,1302.362347,-888.247130,9548.656652
530.621408,1302.362347,-962.267725,9178.553681
530.621724,1455.581446,-814.226536,9326.594869
530.622039,1532.190996,-666.185348,9252.574275
530.622355,1685.410096,-666.185348,9030.512492
530.622671,1762.019645,-444.123565,8882.471304
530.622986,2221.676944,-222.061783,9030.512492
530.623302,2451.505594,-296.082377,8438.347739
530.623618,2298.286494,-0.000000,8586.388927
530.623934,2145.067394,222.061783,8586.388927
530.624249,2221.676944,-0.000000,8808.450710
530.624565,2298.286494,222.061783,8882.471304
530.624881,1685.410096,-0.000000,9178.553681
530.625197,1455.581446,-148.041188,9326.594869
530.625512,1149.143247,-148.041188,9548.656652
530.625828,766.095498,-518.144159,9770.718434
530.626144,306.438199,-592.164754,10140.821405
530.626460,229.828649,-0.000000,10510.924376
530.626775,459.657299,148.041188,10066.800811
530.627091,229.828649,444.123565,9622.677246
530.627407,0.000000,518.144159,9622.677246
530.627722,459.657299,666.185348,9326.594869
530.628038,229.828649,444.123565,9400.615463
530.628354,76.609550,518.144159,9548.656652
530.628670,306.438199,370.102971,9622.677246
530.628985,153.219100,370.102971,9622.677246
530.629301,153.219100,-0.000000,9622.677246
530.629617,0.000000,518.144159,9770.718434
530.629933,153.219100,222.061783,9992.780217
530.630248,-306.438199,-0.000000,9992.780217
530.630564,-153.219100,148.041188,9992.780217
530.630880,-383.047749,222.061783,10066.800811
530.631196,-153.219100,-0.000000,10140.821405
530.631511,-383.047749,-0.000000,9844.739029
530.631827,-459.657299,148.041188,10066.800811
530.632143,0.000000,-0.000000,9918.759623
530.632458,-153.219100,296.082377,9622.677246
530.632774,-229.828649,148.041188,9548.656652
530.633090,0.000000,370.102971,9400.615463
530.633406,0.000000,-0.000000,9400.615463
530.633721,229.828649,296.082377,9178.553681
530.634037,0.000000,444.123565,9326.594869
530.634353,0.000000,-0.000000,9326.594869
530.634669,-153.219100,-0.000000,9252.574275
530.634984,-306.438199,-148.041188,9548.656652
530.635300,-766.095498,-444.123565,9770.718434
530.635616,-766.095498,-814.226536,10066.800811
530.635932,-919.314598,-1184.329507,10066.800811
530.636247,-1225.752797,-1332.370696,10288.862594
530.636563,-1149.143247,-888.247130,9992.780217
530.636879,-766.095498,-592.164754,9918.759623
530.637194,-995.924147,-666.185348,9696.697840
530.637510,-383.047749,-296.082377,9252.574275
530.637826,0.000000,-148.041188,8882.471304
530.638142,153.219100,-296.082377,8660.409521
530.638457,766.095498,-0.000000,9104.533087
530.638773,689.485948,-962.267725,8660.409521
530.639089,766.095498,-888.247130,8956.491898
530.639405,689.485948,-740.205942,9400.615463
530.639720,919.314598,-888.247130,9252.574275
530.640036,995.924147,-814.226536,9326.594869
530.640352,1072.533697,-962.267725,9252.574275
530.640668,1072.533697,-962.267725,9474.636058
530.640983,1225.752797,-814.226536,9548.656652
530.641299,1149.143247,-888.247130,9622.677246
530.641615,1455.581446,-740.205942,9474.636058
530.641930,1225.752797,-888.247130,9474.636058
530.642246,1455.581446,-518.144159,9400.615463
530.642562,1685.410096,-444.123565,9030.512492
530.642878,1762.019645,-222.061783,8882.471304
530.643193,2451.505594,-0.000000,8660.409521
530.643509,2221.676944,-0.000000,8734.430116
530.643825,2145.067394,148.041188,8882.471304
530.644141,2221.676944,370.102971,8808.450710
530.644456,2298.286494,370.102971,8882.471304
530.644772,1608.800546,296.082377,9030.512492
530.645088,1915.238745,222.061783,9252.574275
530.645403,1378.971896,-0.000000,9474.636058
530.645719,995.924147,-222.061783,9770.718434
530.646035,766.095498,-296.082377,9992.780217
530.646351,842.705048,-296.082377,10214.842000
530.646666,383.047749,-74.020594,9992.780217
530.646982,229.828649,222.061783,9992.780217
530.647298,153.219100,370.102971,9696.697840
530.647613,383.047749,-0.000000,9548.656652
530.647929,0.000000,740.205942,9548.656652
530.648245,76.609550,592.164754,9400.615463
530.648560,0.000000,444.123565,9400.615463
530.648876,153.219100,222.061783,9474.636058
530.649191,459.657299,74.020594,9548.656652
530.649507,0.000000,296.082377,9770.718434
530.649823,0.000000,370.102971,9844.739029
530.650138,0.000000,370.102971,9992.780217
530.650454,0.000000,-0.000000,10214.842000
530.650770,-383.047749,148.041188,10214.842000
530.651085,-229.828649,370.102971,9992.780217
530.651401,-229.828649,148.041188,9918.759623
530.651717,0.000000,148.041188,9918.759623
530.652032,0.000000,148.041188,9918.759623
530.652348,76.609550,148.041188,10066.800811
530.652663,-229.828649,222.061783,9696.697840
530.652979,-153.219100,222.061783,9474.636058
530.653295,76.609550,444.123565,9400.615463
530.653610,76.609550,148.041188,9400.615463
530.653926,0.000000,296.082377,9326.594869
530.654242,0.000000,-0.000000,9104.533087
530.654557,-306.438199,-0.000000,9400.615463
530.654873,0.000000,-0.000000,9252.574275
530.655189,-229.828649,-148.041188,9474.636058
530.655504,-536.266849,-666.185348,9770.718434
530.655820,-766.095498,-962.267725,9844.739029
530.656136,-842.705048,-1332.370696,9992.780217
530.656451,-919.314598,-1406.391290,9992.780217
530.656767,-919.314598,-1258.350101,9992.780217
530.657082,-766.095498,-888.247130,9474.636058
530.657398,-612.876398,-592.164754,9548.656652
530.657714,-153.219100,-444.123565,9104.533087
530.658029,0.000000,-444.123565,8734.430116
530.658345,153.219100,-444.123565,9030.512492
530.658661,306.438199,-740.205942,8882.471304
530.658976,536.266849,-962.267725,8586.388927
530.659292,689.485948,-962.267725,9030.512492
530.659608,536.266849,-962.267725,9400.615463
530.659923,689.485948,-962.267725,9178.553681
530.660239,766.095498,-740.205942,9326.594869
530.660554,919.314598,-1036.288319,9252.574275
530.660870,1225.752797,-962.267725,9474.636058
530.661186,1225.752797,-814.226536,9696.697840
530.661501,919.314598,-888.247130,9844.739029
530.661817,1225.752797,-888.247130,9400.615463
530.662133,1455.581446,-814.226536,9326.594869
530.662448,1608.800546,-518.144159,9104.533087
530.662764,1608.800546,-888.247130,9252.574275
530.663080,1762.019645,-444.123565,8956.491898
530.663395,2145.067394,-148.041188,8808.450710
530.663711,2221.676944,-222.061783,8808.450710
530.664027,2451.505594,-296.082377,8882.471304
530.664342,2374.896044,-0.000000,9030.512492
530.664658,2068.457845,222.061783,8956.491898
530.664973,1838.629195,148.041188,9252.574275
530.665289,1762.019645,-0.000000,9326.594869
530.665605,1225.752797,-222.061783,9622.677246
530.665920,1149.143247,-296.082377,9918.759623
530.666236,995.924147,-222.061783,10066.800811
530.666552,689.485948,-370.102971,10214.842000
530.666867,383.047749,-222.061783,10066.800811
530.667183,76.609550,-0.000000,9918.759623
530.667499,383.047749,370.102971,9918.759623
530.667814,229.828649,444.123565,9400.615463
530.668130,153.219100,740.205942,9400.615463
530.668445,153.219100,666.185348,9326.594869
530.668761,459.657299,592.164754,9474.636058
530.669077,229.828649,518.144159,9696.697840
530.669392,76.609550,370.102971,9696.697840
530.669708,229.828649,296.082377,9844.739029
530.670024,0.000000,148.041188,9696.697840
530.670339,-229.828649,370.102971,10066.800811
530.670655,-306.438199,148.041188,9918.759623
530.670971,0.000000,518.144159,10214.842000
530.671286,0.000000,370.102971,9918.759623
530.671602,-306.438199,222.061783,10066.800811
530.671918,-229.828649,148.041188,9844.739029
530.672233,-153.219100,-0.000000,9844.739029
530.672549,-153.219100,370.102971,9770.718434
530.672864,0.000000,370.102971,9622.677246
530.673180,-153.219100,444.123565,9474.636058
530.673496,153.219100,444.123565,9252.574275
530.673811,153.219100,296.082377,9326.594869
530.674127,76.609550,370.102971,9030.512492
530.674443,153.219100,370.102971,8956.491898
530.674758,-153.219100,-0.000000,9178.553681
530.675074,-229.828649,-0.000000,9252.574275
530.675390,-229.828649,-148.041188,9326.594869
530.675705,-459.657299,-592.164754,9770.718434
530.676021,-766.095498,-888.247130,9696.697840
530.676336,-842.705048,-1184.329507,10140.821405
530.676652,-766.095498,-1184.329507,9992.780217
530.676968,-612.876398,-962.267725,9918.759623
530.677283,-612.876398,-814.226536,9474.636058
530.677599,-689.485948,-592.164754,9548.656652
530.677915,-459.657299,-296.082377,9326.594869
530.678230,0.000000,-222.061783,9030.512492
530.678546,306.438199,-370.102971,8882.471304
530.678862,383.047749,-518.144159,8882.471304
530.679177,612.876398,-740.205942,8660.409521
530.679493,612.876398,-740.205942,8882.471304
530.679809,689.485948,-888.247130,9030.512492
530.680124,1378.971896,-370.102971,9326.594869
530.680440,1149.143247,-888.247130,9252.574275
530.680755,689.485948,-1036.288319,9548.656652
530.681071,1072.533697,-666.185348,9474.636058
530.681387,919.314598,-814.226536,9622.677246
530.681702,1225.752797,-888.247130,9474.636058
530.682018,1302.362347,-1036.288319,9326.594869
530.682334,1225.752797,-888.247130,9104.533087
530.682649,1532.190996,-888.247130,9178.553681
530.682965,1532.190996,-740.205942,9030.512492
530.683281,1532.190996,-740.205942,8956.491898
530.683596,2221.676944,-370.102971,9252.574275
530.683912,2221.676944,-222.061783,8882.471304
530.684227,2221.676944,-0.000000,9030.512492
530.684543,2374.896044,-0.000000,8808.450710
530.684859,2145.067394,222.061783,9104.533087
530.685174,2068.457845,296.082377,9104.533087
530.685490,1608.800546,-148.041188,9030.512492
530.685806,1378.971896,-74.020594,9474.636058
530.686121,1149.143247,-666.185348,9844.739029
530.686437,766.095498,-740.205942,9844.739029
530.686753,383.047749,-592.164754,10066.800811
530.687068,306.438199,-0.000000,9918.759623
530.687384,536.266849,-0.000000,9844.739029
530.687699,612.876398,370.102971,9696.697840
530.688015,383.047749,370.102971,9474.636058
530.688331,229.828649,444.123565,9474.636058
530.688646,229.828649,518.144159,9400.615463
530.688962,76.609550,444.123565,9326.594869
530.689278,306.438199,370.102971,9326.594869
530.689593,76.609550,-0.000000,9770.718434
530.689909,0.000000,222.061783,9622.677246
530.690225,0.000000,296.082377,9918.759623
530.690540,0.000000,148.041188,9844.739029
530.690856,0.000000,296.082377,10362.883188
530.691172,-76.609550,444.123565,10140.821405
530.691487,0.000000,296.082377,9770.718434
530.691803,0.000000,592.164754,9918.759623
530.692118,766.095498,222.061783,9992.780217
530.692434,76.609550,666.185348,9918.759623
530.692750,-76.609550,518.144159,9696.697840
530.693065,-306.438199,518.144159,9696.697840
530.693381,0.000000,592.164754,9326.594869
530.693697,0.000000,444.123565,9178.553681
530.694012,0.000000,296.082377,9104.533087
530.694328,76.609550,444.123565,9252.574275
530.694644,-153.219100,518.144159,9400.615463
530.694959,0.000000,296.082377,9326.594869
530.695275,-383.047749,148.041188,9252.574275
530.695590,-689.485948,-148.041188,9400.615463
530.695906,-612.876398,-370.102971,9918.759623
530.696222,-919.314598,-888.247130,9992.780217
530.696537,-1225.752797,-1110.308913,10288.862594
530.696853,-995.924147,-1554.432478,10140.821405
530.697169,-1225.752797,-740.205942,10066.800811
530.697484,-689.485948,-666.185348,9992.780217
530.697800,-689.485948,-370.102971,9548.656652
530.698116,-383.047749,-444.123565,9252.574275
530.698431,0.000000,-370.102971,9030.512492
530.698747,229.828649,-148.041188,8808.450710
530.699063,76.609550,-296.082377,8956.491898
530.699378,612.876398,-666.185348,8808.450710
530.699694,766.095498,-814.226536,9104.533087
530.700009,766.095498,-814.226536,9178.553681
530.700325,689.485948,-814.226536,9400.615463
530.700641,766.095498,-814.226536,9474.636058
530.700956,995.924147,-888.247130,9474.636058
530.701272,1149.143247,-1110.308913,9548.656652
530.701588,1455.581446,-1184.329507,9548.656652
530.701903,1378.971896,-592.164754,9474.636058
530.702219,995.924147,-962.267725,9400.615463
530.702535,1302.362347,-814.226536,9400.615463
530.702850,1685.410096,-740.205942,9326.594869
530.703166,1991.848295,-518.144159,9178.553681
530.703481,2068.457845,-370.102971,9178.553681
530.703797,2221.676944,-444.123565,8808.450710
530.704113,2298.286494,-296.082377,8882.471304
530.704428,2374.896044,-74.020594,8808.450710
530.704744,2451.505594,-0.000000,8882.471304
530.705060,2374.896044,-0.000000,8734.430116
530.705375,1991.848295,-0.000000,9030.512492
530.705691,1838.629195,-0.000000,9178.553681
530.706007,1072.533697,-518.144159,9548.656652
530.706322,1072.533697,-814.226536,9548.656652
530.706638,919.314598,-592.164754,9844.739029
530.706954,689.485948,-592.164754,10066.800811
530.707269,459.657299,-296.082377,9918.759623
530.707585,612.876398,-0.000000,9918.759623
530.707900,153.219100,-0.000000,9548.656652
530.708216,229.828649,444.123565,9622.677246
530.708532,153.219100,222.061783,9400.615463
530.708847,0.000000,444.123565,9474.636058
530.709163,0.000000,370.102971,9326.594869
530.709479,153.219100,222.061783,9474.636058
530.709794,0.000000,-0.000000,9474.636058
530.710110,0.000000,-0.000000,9474.636058
530.710426,-229.828649,-0.000000,9474.636058
530.710741,0.000000,-0.000000,9844.739029
530.711057,-383.047749,74.020594,9992.780217
530.711372,-306.438199,148.041188,9844.739029
530.711688,-153.219100,370.102971,9918.759623
530.712004,-229.828649,296.082377,9918.759623
530.712319,-306.438199,222.061783,9844.739029
530.712635,-383.047749,222.061783,9770.718434
530.712951,-383.047749,296.082377,9548.656652
530.713266,229.828649,592.164754,9770.718434
530.713582,0.000000,444.123565,9326.594869
530.713898,0.000000,444.123565,9252.574275
530.714213,0.000000,222.061783,9326.594869
530.714529,153.219100,370.102971,9326.594869
530.714845,229.828649,222.061783,9326.594869
530.715160,-306.438199,222.061783,9252.574275
530.715476,-459.657299,148.041188,9474.636058
530.715791,-689.485948,-148.041188,9474.636058
530.716107,-766.095498,-444.123565,9844.739029
530.716423,-612.876398,-296.082377,10436.903782
530.716738,-1072.533697,-962.267725,10214.842000
530.717054,-995.924147,-814.226536,10288.862594
530.717370,-1225.752797,-666.185348,10066.800811
530.717685,-842.705048,-592.164754,9844.739029
530.718001,-536.266849,-518.144159,9548.656652
530.718317,-612.876398,-148.041188,9548.656652
530.718632,0.000000,-74.020594,9178.553681
530.718948,0.000000,-148.041188,8882.471304
530.719263,536.266849,-148.041188,8882.471304
530.719579,766.095498,-518.144159,9104.533087
530.719895,689.485948,-592.164754,9030.512492
530.720210,995.924147,-814.226536,9252.574275
530.720526,919.314598,-740.205942,9178.553681
530.720842,919.314598,-740.205942,9400.615463
530.721157,995.924147,-740.205942,9696.697840
530.721473,1072.533697,-888.247130,9548.656652
530.721789,1149.143247,-814.226536,9696.697840
530.722104,1149.143247,-814.226536,9400.615463
530.722420,1149.143247,-888.247130,9474.636058
530.722736,1302.362347,-814.226536,9474.636058
530.723051,1455.581446,-740.205942,9326.594869
530.723367,1608.800546,-518.144159,9252.574275
530.723682,1915.238745,-444.123565,9104.533087
530.723998,2068.457845,-222.061783,8882.471304
530.724314,2374.896044,-444.123565,8586.388927
530.724629,2451.505594,-0.000000,8586.388927
530.724945,2451.505594,-0.000000,8956.491898
530.725261,2451.505594,296.082377,8660.409521
530.725576,2298.286494,-0.000000,9030.512492
530.725892,2145.067394,-148.041188,9104.533087
530.726208,1608.800546,-222.061783,9400.615463
530.726523,1149.143247,-296.082377,9622.677246
530.726839,842.705048,-592.164754,9770.718434
530.727154,689.485948,-666.185348,9992.780217
530.727470,306.438199,-592.164754,9918.759623
530.727786,459.657299,-148.041188,9844.739029
530.728101,383.047749,-0.000000,9474.636058
530.728417,306.438199,296.082377,9474.636058
530.728733,-76.609550,-0.000000,9178.553681
530.729048,383.047749,296.082377,9104.533087
530.729364,76.609550,370.102971,9326.594869
530.729680,229.828649,296.082377,9474.636058
530.729995,229.828649,-0.000000,9400.615463
530.730311,153.219100,148.041188,9474.636058
530.730627,0.000000,-0.000000,9622.677246
530.730942,76.609550,74.020594,9844.739029
530.731258,76.609550,222.061783,9770.718434
530.731573,-153.219100,222.061783,9918.759623
530.731889,-536.266849,148.041188,9844.739029
530.732205,-383.047749,370.102971,9770.718434
530.732520,-383.047749,222.061783,9696.697840
530.732836,-612.876398,-0.000000,9770.718434
530.733152,-459.657299,148.041188,9696.697840
530.733467,0.000000,296.082377,9326.594869
530.733783,-383.047749,148.041188,9696.697840
530.734099,-306.438199,666.185348,9474.636058
530.734414,0.000000,370.102971,9474.636058
530.734730,-306.438199,370.102971,9326.594869
530.735045,153.219100,370.102971,9622.677246
530.735361,-306.438199,222.061783,9326.594869
530.735677,-383.047749,-0.000000,9400.615463
530.735992,-689.485948,-0.000000,9622.677246
530.736308,-689.485948,-370.102971,9770.718434
530.736624,-1072.533697,-592.164754,10214.842000
530.736939,-995.924147,-1110.308913,10066.800811
530.737255,-919.314598,-962.267725,9918.759623
530.737571,-995.924147,-740.205942,10214.842000
530.737886,-995.924147,-814.226536,9918.759623
530.738202,-766.095498,-666.185348,9918.759623
530.738518,-459.657299,-74.020594,9622.677246
530.738833,-153.219100,-222.061783,9104.533087
530.739149,76.609550,-296.082377,8956.491898
530.739464,383.047749,-740.205942,9030.512492
530.739780,459.657299,-814.226536,9030.512492
530.740096,689.485948,-814.226536,8882.471304
530.740411,766.095498,-1036.288319,9030.512492
530.740727,919.314598,-888.247130,9178.553681
530.741043,919.314598,-1036.288319,9326.594869
530.741358,995.924147,-1184.329507,9326.594869
530.741674,995.924147,-1036.288319,9474.636058
530.741990,1378.971896,-962.267725,9474.636058
530.742305,1378.971896,-962.267725,9474.636058
530.742621,1149.143247,-814.226536,9178.553681
530.742936,1608.800546,-740.205942,9400.615463
530.743252,1762.019645,-814.226536,9030.512492
530.743568,1685.410096,-666.185348,9178.553681
530.743883,2145.067394,-444.123565,8882.471304
530.744199,2145.067394,-222.061783,8882.471304
530.744515,2374.896044,-0.000000,8660.409521
530.744830,2298.286494,-0.000000,8882.471304
530.745146,2298.286494,-0.000000,8586.388927
530.745462,2068.457845,-0.000000,8734.430116
530.745777,1991.848295,74.020594,8882.471304
530.746093,1991.848295,-74.020594,9104.533087
530.746408,1378.971896,-74.020594,9252.574275
530.746724,995.924147,-444.123565,9696.697840
530.747040,689.485948,-518.144159,9770.718434
530.747355,689.485948,-592.164754,10288.862594
530.747671,383.047749,-370.102971,9992.780217
530.747987,153.219100,-148.041188,9770.718434
530.748303,153.219100,148.041188,9622.677246
530.748618,0.000000,148.041188,9326.594869
530.748934,0.000000,-0.000000,9474.636058
530.749250,459.657299,592.164754,9178.553681
530.749566,76.609550,296.082377,9474.636058
530.749881,76.609550,222.061783,9474.636058
530.750197,76.609550,148.041188,9548.656652
530.750513,76.609550,-0.000000,9696.697840
530.750829,0.000000,222.061783,9844.739029
530.751144,-153.219100,-0.000000,9696.697840
530.751460,0.000000,296.082377,10140.821405
530.751776,-153.219100,-0.000000,9992.780217
530.752091,-229.828649,444.123565,10066.800811
530.752407,0.000000,444.123565,9918.759623
530.752723,0.000000,370.102971,10140.821405
530.753039,-306.438199,222.061783,9770.718434
530.753354,-306.438199,370.102971,9770.718434
530.753670,0.000000,444.123565,9696.697840
530.753986,0.000000,518.144159,9400.615463
530.754302,0.000000,444.123565,9400.615463
530.754617,76.609550,592.164754,9474.636058
530.754933,0.000000,444.123565,9622.677246
530.755249,0.000000,666.185348,9252.574275
530.755565,-229.828649,222.061783,9178.553681
530.755880,-383.047749,370.102971,9474.636058
530.756196,-766.095498,-0.000000,9696.697840
530.756512,-689.485948,-370.102971,9770.718434
530.756828,-995.924147,-666.185348,10140.821405
530.757143,-1149.143247,-1036.288319,10140.821405
530.757459,-1225.752797,-1110.308913,10288.862594
530.757775,-995.924147,-962.267725,9918.759623
530.758090,-842.705048,-370.102971,9992.780217
530.758406,-689.485948,-148.041188,9770.718434
530.758722,-383.047749,-222.061783,9474.636058
530.759038,0.000000,-148.041188,9178.553681
530.759353,229.828649,-370.102971,8734.430116
530.759669,459.657299,-296.082377,8734.430116
530.759985,536.266849,-518.144159,8956.491898
530.760301,842.705048,-518.144159,9104.533087
530.760616,919.314598,-666.185348,9400.615463
530.760932,1149.143247,-1184.329507,9252.574275
530.761248,842.705048,-592.164754,9326.594869
530.761564,1149.143247,-888.247130,9474.636058
530.761879,1149.143247,-888.247130,9474.636058
530.762195,919.314598,-1036.288319,9844.739029
530.762511,1225.752797,-888.247130,9548.656652
530.762827,1378.971896,-888.247130,9400.615463
530.763142,1455.581446,-814.226536,9326.594869
530.763458,1608.800546,-962.267725,9400.615463
530.763774,1685.410096,-666.185348,9104.533087
530.764090,2068.457845,-518.144159,8956.491898
530.764405,2451.505594,-370.102971,8882.471304
530.764721,2221.676944,-222.061783,8882.471304
530.765037,2374.896044,-0.000000,8808.450710
530.765352,2374.896044,-0.000000,8660.409521
530.765668,2374.896044,-0.000000,8512.368333
530.765984,2068.457845,74.020594,8734.430116
530.766300,1915.238745,-74.020594,9104.533087
530.766615,1608.800546,-296.082377,9474.636058
530.766931,1072.533697,-592.164754,9696.697840
530.767247,842.705048,-666.185348,9696.697840
530.767563,689.485948,-518.144159,9992.780217
530.767878,306.438199,-148.041188,9770.718434
530.768194,229.828649,-222.061783,9918.759623
530.768510,459.657299,-148.041188,9696.697840
530.768826,0.000000,222.061783,9474.636058
530.769141,459.657299,444.123565,9474.636058
530.769457,76.609550,740.205942,9326.594869
530.769773,306.438199,518.144159,9474.636058
530.770089,0.000000,222.061783,9474.636058
530.770404,0.000000,148.041188,9696.697840
530.770720,0.000000,-0.000000,9622.677246
530.771036,0.000000,222.061783,9770.718434
530.771351,-306.438199,-0.000000,9770.718434
530.771667,0.000000,222.061783,10288.862594
530.771983,-229.828649,222.061783,9992.780217
530.772299,-306.438199,296.082377,9992.780217
530.772614,-153.219100,296.082377,9844.739029
530.772930,0.000000,-0.000000,9992.780217
530.773246,-459.657299,222.061783,9844.739029
530.773562,-383.047749,296.082377,9696.697840
530.773877,-306.438199,296.082377,9770.718434
530.774193,0.000000,296.082377,9548.656652
530.774509,229.828649,370.102971,9400.615463
530.774825,229.828649,666.185348,9474.636058
530.775140,0.000000,222.061783,9400.615463
530.775456,-229.828649,592.164754,9400.615463
530.775772,-383.047749,370.102971,9326.594869
530.776088,-229.828649,296.082377,9696.697840
530.776403,-536.266849,-148.041188,9400.615463
530.776719,-689.485948,-666.185348,9548.656652
530.777035,-919.314598,-888.247130,9992.780217
530.777350,-1072.533697,-1036.288319,10288.862594
530.777666,-1225.752797,-962.267725,10214.842000
530.777982,-919.314598,-814.226536,10362.883188
530.778298,-536.266849,-370.102971,10140.821405
530.778613,-612.876398,-666.185348,9622.677246
530.778929,-229.828649,-148.041188,9400.615463
530.779245,0.000000,-296.082377,9326.594869
530.779561,76.609550,-296.082377,8882.471304
530.779876,383.047749,-296.082377,8956.491898
530.780192,536.266849,-814.226536,9030.512492
530.780508,612.876398,-814.226536,9030.512492
530.780824,995.924147,-592.164754,9474.636058
530.781139,766.095498,-962.267725,9252.574275
530.781455,842.705048,-1110.308913,9474.636058
530.781771,995.924147,-740.205942,9474.636058
530.782087,995.924147,-888.247130,9252.574275
530.782402,1072.533697,-1110.308913,9474.636058
530.782718,1225.752797,-1036.288319,9474.636058
530.783034,1455.581446,-1036.288319,9326.594869
530.783350,1302.362347,-962.267725,9400.615463
530.783665,1378.971896,-888.247130,9252.574275
530.783981,2145.067394,-740.205942,9178.553681
530.784297,1991.848295,-370.102971,8882.471304
530.784612,1915.238745,-222.061783,8734.430116
530.784928,2068.457845,-148.041188,8734.430116
530.785244,2298.286494,-370.102971,8512.368333
530.785560,2221.676944,-0.000000,8956.491898
530.785875,1991.848295,-0.000000,8734.430116
530.786191,1991.848295,-0.000000,9178.553681
530.786507,1915.238745,-0.000000,9104.533087
530.786823,1378.971896,-222.061783,9548.656652
530.787138,689.485948,-518.144159,9918.759623
530.787454,842.705048,-666.185348,9696.697840
530.787770,536.266849,-592.164754,9992.780217
530.788086,459.657299,-296.082377,10066.800811
530.788401,1072.533697,-0.000000,9844.739029
530.788717,306.438199,148.041188,9622.677246
530.789033,0.000000,222.061783,9474.636058
530.789349,153.219100,370.102971,9326.594869
530.789664,229.828649,666.185348,9252.574275
530.789980,153.219100,-0.000000,9548.656652
530.790296,153.219100,296.082377,9400.615463
530.790611,383.047749,-0.000000,9548.656652
530.790927,229.828649,-0.000000,9696.697840
530.791243,0.000000,296.082377,9918.759623
530.791559,-459.657299,-74.020594,10140.821405
530.791874,0.000000,-0.000000,9918.759623
530.792190,-306.438199,296.082377,10066.800811
530.792506,-229.828649,222.061783,9770.718434
530.792822,-536.266849,-0.000000,9918.759623
530.793137,-689.485948,-0.000000,10066.800811
530.793453,-153.219100,370.102971,9844.739029
530.793769,-383.047749,296.082377,9696.697840
530.794085,-153.219100,296.082377,9770.718434
530.794400,-153.219100,222.061783,9326.594869
530.794716,0.000000,370.102971,9474.636058
530.795032,0.000000,370.102971,9400.615463
530.795348,76.609550,592.164754,9252.574275
530.795663,0.000000,296.082377,9474.636058
530.795979,-383.047749,370.102971,9474.636058
530.796295,-383.047749,-0.000000,9400.615463
530.796610,-306.438199,-74.020594,9992.780217
530.796926,-766.095498,-518.144159,9770.718434
530.797242,-766.095498,-740.205942,9992.780217
530.797558,-383.047749,-962.267725,10362.883188
530.797873,-995.924147,-1036.288319,10140.821405
530.798189,-995.924147,-740.205942,10140.821405
530.798505,-689.485948,-666.185348,9770.718434
530.798821,-229.828649,-222.061783,9696.697840
530.799136,0.000000,-518.144159,9326.594869
530.799452,0.000000,-148.041188,9104.533087
530.799768,76.609550,-222.061783,8956.491898
530.800084,459.657299,-222.061783,8734.430116
530.800399,612.876398,-444.123565,8882.471304
530.800715,842.705048,-666.185348,8956.491898
530.801031,919.314598,-814.226536,9326.594869
530.801347,689.485948,-814.226536,9400.615463
530.801662,1149.143247,-962.267725,9400.615463
530.801978,1225.752797,-740.205942,9326.594869
530.802294,1149.143247,-592.164754,9474.636058
530.802609,1378.971896,-666.185348,9474.636058
530.802925,1149.143247,-444.123565,9474.636058
530.803241,1455.581446,-740.205942,9474.636058
530.803557,1532.190996,-740.205942,9252.574275
530.803872,1378.971896,-814.226536,9178.553681
530.804188,1685.410096,-444.123565,9252.574275
530.804504,1838.629195,-444.123565,9030.512492
530.804820,1838.629195,-370.102971,9178.553681
530.805135,2221.676944,-222.061783,8734.430116
530.805451,2374.896044,-148.041188,8734.430116
530.805767,2221.676944,-0.000000,8734.430116
530.806083,2374.896044,222.061783,8808.450710
530.806398,1532.190996,-0.000000,9030.512492
530.806714,1608.800546,-222.061783,9104.533087
530.807030,1378.971896,-370.102971,9400.615463
530.807346,1149.143247,-444.123565,9474.636058
530.807661,842.705048,-444.123565,9918.759623
530.807977,153.219100,-740.205942,9622.677246
530.808293,459.657299,-444.123565,9696.697840
530.808609,229.828649,-0.000000,9770.718434
530.808924,76.609550,-0.000000,9770.718434
530.809240,153.219100,296.082377,9400.615463
530.809556,919.314598,296.082377,9474.636058
530.809871,229.828649,444.123565,9400.615463
530.810187,229.828649,518.144159,9252.574275
530.810503,153.219100,222.061783,9400.615463
530.810819,0.000000,296.082377,9622.677246
530.811134,0.000000,-0.000000,9696.697840
530.811450,0.000000,222.061783,9622.677246
530.811766,-229.828649,296.082377,9844.739029
530.812082,0.000000,370.102971,9992.780217
530.812397,0.000000,222.061783,9992.780217
530.812713,153.219100,296.082377,9992.780217
530.813029,0.000000,666.185348,10140.821405
530.813345,0.000000,518.144159,9918.759623
530.813660,-153.219100,370.102971,10066.800811
530.813976,-383.047749,444.123565,9844.739029
530.814292,-383.047749,888.247130,9992.780217
530.814608,-306.438199,592.164754,9696.697840
530.814923,0.000000,518.144159,9400.615463
530.815239,0.000000,518.144159,9400.615463
530.815555,0.000000,296.082377,9548.656652
530.815870,0.000000,-0.000000,9326.594869
530.816186,0.000000,518.144159,9178.553681
530.816502,-306.438199,148.041188,9474.636058
530.816818,-229.828649,-0.000000,9474.636058
530.817133,-536.266849,-518.144159,9918.759623
530.817449,-995.924147,-888.247130,10436.903782
530.817765,-842.705048,-1110.308913,10214.842000
530.818081,-995.924147,-1036.288319,10140.821405
530.818396,-995.924147,-962.267725,10140.821405
530.818712,-1149.143247,-666.185348,9992.780217
530.819028,-229.828649,-666.185348,9992.780217
530.819344,-383.047749,-370.102971,9400.615463
530.819659,76.609550,-296.082377,9178.553681
530.819975,229.828649,-148.041188,9178.553681
530.820291,153.219100,-518.144159,9030.512492
530.820607,689.485948,-814.226536,8734.430116
530.820922,842.705048,-740.205942,9104.533087
530.821238,766.095498,-1110.308913,9178.553681
530.821554,842.705048,-888.247130,9252.574275
530.821869,1072.533697,-666.185348,9622.677246
530.822185,1072.533697,-1110.308913,9326.594869
530.822501,1149.143247,-814.226536,9474.636058
530.822817,1149.143247,-962.267725,9548.656652
530.823132,1225.752797,-888.247130,9474.636058
530.823448,1378.971896,-962.267725,9178.553681
530.823764,1455.581446,-888.247130,9400.615463
530.824080,1608.800546,-888.247130,9030.512492
530.824395,1762.019645,-518.144159,9104.533087
530.824711,1762.019645,-592.164754,8956.491898
530.825027,2068.457845,-370.102971,8660.409521
530.825343,2221.676944,-148.041188,8808.450710
530.825658,2451.505594,-0.000000,8512.368333
530.825974,2145.067394,-74.020594,8734.430116
530.826290,1991.848295,-0.000000,8808.450710
530.826606,1838.629195,-296.082377,9030.512492
530.826921,1838.629195,-74.020594,9104.533087
530.827237,1532.190996,-444.123565,9400.615463
530.827553,1072.533697,-592.164754,9548.656652
530.827869,766.095498,-370.102971,9844.739029
530.828184,536.266849,-592.164754,9992.780217
530.828500,459.657299,-74.020594,9992.780217
530.828816,383.047749,-148.041188,9696.697840
530.829131,383.047749,296.082377,9548.656652
530.829447,229.828649,444.123565,9400.615463
530.829763,459.657299,666.185348,9178.553681
530.830079,229.828649,518.144159,9474.636058
530.830394,0.000000,444.123565,9474.636058
530.830710,153.219100,444.123565,9474.636058
530.831026,76.609550,148.041188,9622.677246
530.831342,-153.219100,-0.000000,9622.677246
530.831657,-229.828649,148.041188,9918.759623
530.831973,0.000000,-0.000000,9918.759623
530.832289,-153.219100,222.061783,9992.780217
530.832605,0.000000,222.061783,9844.739029
530.832920,0.000000,222.061783,9992.780217
530.833236,-306.438199,148.041188,9844.739029
530.833552,-229.828649,370.102971,9992.780217
530.833868,-459.657299,296.082377,9844.739029
530.834183,0.000000,296.082377,9622.677246
530.834499,0.000000,296.082377,9918.759623
530.834815,-459.657299,222.061783,9548.656652
530.835130,0.000000,296.082377,9400.615463
530.835446,-153.219100,592.164754,9548.656652
530.835762,0.000000,666.185348,9474.636058
530.836078,0.000000,296.082377,9326.594869
530.836393,-383.047749,444.123565,9400.615463
530.836709,-383.047749,222.061783,9400.615463
530.837025,-612.876398,-222.061783,9474.636058
530.837341,-153.219100,-0.000000,9992.780217
530.837656,-306.438199,-666.185348,10436.903782
530.837972,-1072.533697,-1258.350101,10140.821405
530.838288,-995.924147,-962.267725,10288.862594
530.838604,-766.095498,-666.185348,10140.821405
530.838919,-612.876398,-296.082377,9844.739029
530.839235,-536.266849,-222.061783,9548.656652
530.839551,-153.219100,-74.020594,9548.656652
530.839867,-306.438199,-222.061783,8956.491898
530.840182,76.609550,-74.020594,8882.471304
530.840498,536.266849,-518.144159,8734.430116
530.840814,459.657299,-666.185348,8956.491898
530.841129,689.485948,-814.226536,8882.471304
530.841445,919.314598,-962.267725,9178.553681
530.841761,842.705048,-962.267725,9326.594869
530.842077,612.876398,-1332.370696,9474.636058
530.842392,919.314598,-814.226536,9474.636058
530.842708,1072.533697,-962.267725,9400.615463
530.843024,1225.752797,-1036.288319,9400.615463
530.843340,1225.752797,-962.267725,9474.636058
530.843655,1378.971896,-1036.288319,9400.615463
