#time,accel_x,accel_y,accel_z
713.313478,536.266849,-148.041188,9326.594869
713.313794,229.828649,-148.041188,9548.656652
713.314109,306.438199,-222.061783,9474.636058
713.314425,459.657299,-148.041188,9696.697840
713.314741,612.876398,-148.041188,9400.615463
713.315057,383.047749,-74.020594,9548.656652
713.315373,383.047749,-222.061783,9474.636058
713.315689,306.438199,-444.123565,9400.615463
713.316004,612.876398,-444.123565,9326.594869
713.316320,76.609550,-222.061783,9548.656652
713.316636,459.657299,-148.041188,9474.636058
713.316952,536.266849,-0.000000,9548.656652
713.317268,536.266849,-296.082377,9696.697840
713.317583,306.438199,-222.061783,9622.677246
713.317899,153.219100,-0.000000,9474.636058
713.318215,383.047749,-74.020594,9326.594869
713.318531,306.438199,296.082377,9400.615463
713.318847,536.266849,296.082377,9252.574275
713.319163,306.438199,148.041188,9030.512492
713.319478,76.609550,148.041188,9474.636058
713.319794,76.609550,-0.000000,9400.615463
713.320110,229.828649,-74.020594,9622.677246
713.320426,0.000000,296.082377,9622.677246
713.320742,76.609550,-444.123565,9844.739029
713.321058,0.000000,-74.020594,9770.718434
713.321373,229.828649,-0.000000,9696.697840
713.321689,536.266849,74.020594,9326.594869
713.322005,689.485948,666.185348,9326.594869
713.322321,766.095498,1036.288319,9178.553681
713.322637,1072.533697,1036.288319,9104.533087
713.322953,842.705048,740.205942,9252.574275
713.323268,766.095498,666.185348,9030.512492
713.323584,612.876398,592.164754,9104.533087
713.323900,689.485948,592.164754,9400.615463
713.324216,766.095498,444.123565,9622.677246
713.324532,612.876398,370.102971,9844.739029
713.324848,842.705048,296.082377,9992.780217
713.325163,612.876398,666.185348,9622.677246
713.325479,842.705048,740.205942,9622.677246
713.325795,1072.533697,1036.288319,9770.718434
713.326111,1532.190996,1258.350101,9474.636058
713.326427,1532.190996,1480.411884,9030.512492
713.326743,2068.457845,1554.432478,9252.574275
713.327058,1991.848295,1480.411884,9030.512492
713.327374,1991.848295,1480.411884,8956.491898
713.327690,2298.286494,1554.432478,9252.574275
713.328006,2374.896044,1628.453072,9474.636058
713.328322,2298.286494,1628.453072,9770.718434
713.328638,2451.505594,1924.535449,9400.615463
713.328953,2528.115143,1998.556043,9622.677246
713.329269,2681.334243,2072.576638,9622.677246
713.329585,3217.601092,1924.535449,9474.636058
713.329901,2987.772442,2146.597232,9548.656652
713.330217,3064.381992,2368.659014,9474.636058
713.330532,3217.601092,2442.679609,9474.636058
713.330848,3524.039291,2368.659014,9474.636058
713.331164,3217.601092,2590.720797,9252.574275
713.331480,3140.991542,2516.700203,9400.615463
713.331796,3370.820191,2368.659014,9474.636058
713.332112,3370.820191,2516.700203,9548.656652
713.332427,2987.772442,2442.679609,9548.656652
713.332743,3140.991542,2516.700203,9770.718434
713.333059,3140.991542,2368.659014,9992.780217
713.333375,2911.162892,2368.659014,9770.718434
713.333691,2681.334243,2368.659014,9770.718434
713.334007,2681.334243,2146.597232,9992.780217
713.334322,2451.505594,1850.514855,10140.821405
713.334638,2528.115143,1998.556043,10214.842000
713.334954,2528.115143,2072.576638,10066.800811
713.335270,2451.505594,2146.597232,10066.800811
713.335586,2604.724693,2368.659014,9622.677246
713.335902,2757.943793,2368.659014,9696.697840
713.336217,2987.772442,2146.597232,9548.656652
713.336533,3064.381992,2220.617826,9548.656652
713.336849,2834.553343,2146.597232,9474.636058
713.337165,2987.772442,1998.556043,9400.615463
713.337481,2604.724693,1998.556043,9252.574275
713.337797,2374.896044,1776.494261,9178.553681
713.338112,2221.676944,1554.432478,9326.594869
713.338428,1532.190996,1332.370696,9474.636058
713.338744,1455.581446,1036.288319,9844.739029
713.339060,689.485948,296.082377,9992.780217
713.339376,536.266849,-74.020594,10362.883188
713.339692,383.047749,-444.123565,10658.965565
713.340007,689.485948,-370.102971,10732.986159
713.340323,689.485948,-222.061783,10807.006753
713.340639,1378.971896,296.082377,10584.944971
713.340955,2068.457845,888.247130,9548.656652
713.341271,2604.724693,1924.535449,9178.553681
713.341587,3294.210641,2812.782580,8586.388927
713.341902,3983.696590,2960.823768,7920.203579
713.342218,4443.353888,3034.844362,7179.997637
713.342534,4519.963438,2812.782580,7105.977043
713.342850,4290.134789,1998.556043,7550.100608
713.343166,3677.258390,1924.535449,7846.182985
713.343481,2528.115143,1258.350101,8586.388927
713.343797,1532.190996,814.226536,9252.574275
713.344113,842.705048,296.082377,9844.739029
713.344429,-689.485948,-222.061783,10288.862594
713.344745,-766.095498,-296.082377,10288.862594
713.345061,-536.266849,-444.123565,10955.047942
713.345376,-766.095498,-962.267725,11103.089130
713.345692,-229.828649,-888.247130,10955.047942
713.346008,383.047749,-370.102971,11251.130318
713.346324,1149.143247,296.082377,10436.903782
713.346640,2068.457845,1332.370696,9474.636058
713.346956,3294.210641,2294.638420,8808.450710
713.347271,4673.182538,3330.926739,8216.285956
713.347587,6052.154434,3404.947333,7402.059420
713.347903,6435.202183,3849.070898,7179.997637
713.348219,6741.640382,4441.235652,7031.956449
713.348535,6358.592633,4441.235652,6735.874072
713.348851,6205.373534,4367.215058,6957.935855
713.349166,4826.401637,3330.926739,7920.203579
713.349482,3907.087040,2368.659014,9030.512492
713.349798,2528.115143,1036.288319,9918.759623
713.350114,919.314598,-0.000000,11103.089130
713.350430,0.000000,-740.205942,12731.542202
713.350746,-995.924147,-1184.329507,13175.665768
713.351061,-995.924147,-148.041188,13249.686362
713.351377,-995.924147,518.144159,12287.418637
713.351693,306.438199,1258.350101,11917.315666
713.352009,1072.533697,2442.679609,10510.924376
713.352325,2298.286494,3701.029710,8882.471304
713.352641,3907.087040,4441.235652,7772.162391
713.352956,5439.278036,4441.235652,7179.997637
713.353272,6205.373534,4515.256246,7031.956449
713.353588,6741.640382,3997.112087,7105.977043
713.353904,6358.592633,3108.864956,7920.203579
713.354220,5592.497135,2664.741391,8438.347739
713.354536,4443.353888,2368.659014,9474.636058
713.354851,3447.429741,2368.659014,10658.965565
713.355167,2298.286494,1850.514855,11399.171507
713.355483,1302.362347,1998.556043,11695.253884
713.355799,306.438199,2738.761985,11103.089130
713.356115,229.828649,3108.864956,10807.006753
713.356430,995.924147,2516.700203,10658.965565
713.356746,1302.362347,2368.659014,9696.697840
713.357062,1072.533697,1850.514855,9696.697840
713.357378,995.924147,1406.391290,9622.677246
713.357694,1378.971896,1184.329507,9474.636058
713.358010,1915.238745,1332.370696,9400.615463
713.358325,1608.800546,1998.556043,9548.656652
713.358641,1378.971896,2294.638420,9030.512492
713.358957,995.924147,2146.597232,9400.615463
713.359273,1302.362347,1702.473667,9400.615463
713.359589,2298.286494,1110.308913,9992.780217
713.359905,1991.848295,518.144159,10436.903782
713.360220,1915.238745,370.102971,10807.006753
713.360536,2145.067394,444.123565,10732.986159
713.360852,2451.505594,888.247130,10510.924376
713.361168,3447.429741,1332.370696,9992.780217
713.361484,3370.820191,2590.720797,8586.388927
713.361800,3524.039291,3330.926739,7179.997637
713.362115,4060.306139,2738.761985,7031.956449
713.362431,4596.572988,2146.597232,7179.997637
713.362747,4213.525239,1924.535449,7105.977043
713.363063,2987.772442,888.247130,7624.121203
713.363379,2298.286494,-666.185348,8808.450710
713.363695,1762.019645,-1702.473667,10140.821405
713.364010,689.485948,-1628.453072,11029.068536
713.364326,-306.438199,-888.247130,11325.150913
713.364642,-689.485948,296.082377,11029.068536
713.364958,76.609550,296.082377,10510.924376
713.365274,689.485948,296.082377,9548.656652
713.365590,1225.752797,1110.308913,9548.656652
713.365905,1608.800546,296.082377,9622.677246
713.366221,2221.676944,-296.082377,8882.471304
713.366537,2528.115143,-296.082377,8808.450710
713.366853,2834.553343,888.247130,7994.224174
713.367169,2834.553343,1628.453072,7846.182985
713.367485,3370.820191,1258.350101,8142.265362
713.367800,3294.210641,666.185348,8364.327145
713.368116,2757.943793,814.226536,8068.244768
713.368432,2145.067394,370.102971,8586.388927
713.368748,1685.410096,-148.041188,9622.677246
713.369064,919.314598,-0.000000,10066.800811
713.369379,-306.438199,1258.350101,9178.553681
713.369695,-536.266849,1110.308913,9474.636058
713.370011,-842.705048,-148.041188,10140.821405
713.370327,-1225.752797,-1554.432478,10732.986159
713.370643,-1838.629195,-2886.803174,11029.068536
713.370959,-1608.800546,-3330.926739,11325.150913
713.371275,-1072.533697,-3182.885551,11547.212695
713.371591,-459.657299,-1924.535449,11325.150913
713.371907,-229.828649,-74.020594,10066.800811
713.372223,995.924147,1036.288319,8734.430116
713.372539,1608.800546,1554.432478,7994.224174
713.372854,1991.848295,1554.432478,8068.244768
713.373170,1762.019645,666.185348,8364.327145
713.373486,2451.505594,222.061783,8216.285956
713.373802,1915.238745,370.102971,8586.388927
713.374117,1378.971896,592.164754,9326.594869
713.374433,1685.410096,518.144159,9252.574275
713.374749,842.705048,666.185348,9252.574275
713.375065,153.219100,370.102971,9622.677246
713.375380,-459.657299,-444.123565,9992.780217
713.375696,-536.266849,-1036.288319,10955.047942
713.376012,-1225.752797,-1776.494261,11473.192101
713.376328,-1915.238745,-1406.391290,11029.068536
713.376643,-1378.971896,-444.123565,10288.862594
713.376959,-995.924147,-148.041188,9844.739029
713.377275,-459.657299,222.061783,9474.636058
713.377591,-1149.143247,-0.000000,9178.553681
713.377906,-842.705048,296.082377,8512.368333
713.378222,0.000000,-0.000000,8660.409521
713.378538,76.609550,-0.000000,9326.594869
713.378854,306.438199,1036.288319,8586.388927
713.379169,536.266849,1554.432478,8364.327145
713.379485,1149.143247,592.164754,8956.491898
713.379801,1072.533697,-74.020594,8956.491898
713.380117,536.266849,-0.000000,9474.636058
713.380432,995.924147,-296.082377,9992.780217
713.380748,766.095498,-370.102971,10362.883188
713.381064,229.828649,518.144159,9622.677246
713.381380,229.828649,1036.288319,9844.739029
713.381695,612.876398,1554.432478,9178.553681
713.382011,383.047749,1628.453072,8660.409521
713.382327,0.000000,1258.350101,8512.368333
713.382643,-383.047749,148.041188,8808.450710
713.382959,-153.219100,-444.123565,9030.512492
713.383274,-383.047749,-370.102971,9474.636058
713.383590,-842.705048,-666.185348,10288.862594
713.383906,-153.219100,-962.267725,10140.821405
713.384222,-306.438199,-666.185348,10214.842000
713.384537,-306.438199,-962.267725,10362.883188
713.384853,-229.828649,-740.205942,10658.965565
713.385169,536.266849,-814.226536,10807.006753
713.385485,459.657299,-0.000000,10288.862594
713.385800,1225.752797,962.267725,9252.574275
713.386116,1991.848295,1258.350101,8808.450710
713.386432,2834.553343,1184.329507,8956.491898
713.386748,3294.210641,814.226536,8512.368333
713.387063,2528.115143,1184.329507,7920.203579
713.387379,2604.724693,888.247130,8142.265362
713.387695,2451.505594,222.061783,8660.409521
713.388011,1991.848295,518.144159,9326.594869
713.388326,1455.581446,666.185348,9104.533087
713.388642,1225.752797,-296.082377,9252.574275
713.388958,383.047749,-888.247130,10584.944971
713.389274,-383.047749,-814.226536,10658.965565
713.389589,-919.314598,-1036.288319,10807.006753
713.389905,-766.095498,-888.247130,10955.047942
713.390221,-995.924147,-888.247130,11029.068536
713.390537,-1378.971896,-370.102971,10288.862594
713.390852,-536.266849,-296.082377,10288.862594
713.391168,153.219100,-222.061783,9992.780217
713.391484,0.000000,222.061783,9326.594869
713.391800,612.876398,296.082377,8734.430116
713.392115,995.924147,222.061783,8438.347739
713.392431,1762.019645,666.185348,8438.347739
713.392747,1302.362347,1406.391290,7846.182985
713.393063,1455.581446,740.205942,8290.306550
713.393379,1378.971896,-296.082377,8512.368333
713.393694,459.657299,-888.247130,9622.677246
713.394010,-306.438199,-1110.308913,9844.739029
713.394326,-1455.581446,-1924.535449,10955.047942
713.394642,-1225.752797,-1850.514855,11325.150913
713.394957,-2068.457845,-1036.288319,11251.130318
713.395273,-1838.629195,-296.082377,10214.842000
713.395589,-766.095498,-740.205942,9992.780217
713.395905,-459.657299,-592.164754,9400.615463
713.396220,76.609550,-518.144159,8956.491898
713.396536,689.485948,-666.185348,8660.409521
713.396852,1378.971896,-814.226536,7920.203579
713.397168,1302.362347,-370.102971,8068.244768
713.397483,1225.752797,148.041188,7994.224174
713.397799,1225.752797,-222.061783,8438.347739
713.398115,842.705048,-1110.308913,8660.409521
713.398431,153.219100,-1480.411884,9400.615463
713.398746,-842.705048,-2146.597232,10436.903782
713.399062,0.000000,-2294.638420,10881.027347
713.399378,-306.438199,-1184.329507,10436.903782
713.399694,-459.657299,-0.000000,9992.780217
713.400009,-229.828649,444.123565,9770.718434
713.400325,689.485948,148.041188,9622.677246
713.400641,842.705048,222.061783,8956.491898
713.400957,995.924147,-0.000000,8438.347739
713.401272,1378.971896,-814.226536,8734.430116
713.401588,1378.971896,-444.123565,8660.409521
713.401904,1072.533697,-0.000000,8364.327145
713.402220,919.314598,444.123565,8364.327145
713.402535,995.924147,-444.123565,8956.491898
713.402851,536.266849,-1184.329507,9918.759623
713.403167,-383.047749,-1776.494261,10140.821405
713.403483,-919.314598,-1776.494261,10807.006753
713.403799,-842.705048,-1776.494261,11029.068536
713.404114,-995.924147,-740.205942,10955.047942
713.404430,-536.266849,444.123565,10362.883188
713.404746,153.219100,888.247130,9326.594869
713.405062,842.705048,1184.329507,9400.615463
713.405377,1225.752797,666.185348,8734.430116
713.405693,1455.581446,740.205942,8364.327145
713.406009,2221.676944,296.082377,7846.182985
713.406325,2298.286494,518.144159,8068.244768
713.406640,2145.067394,1036.288319,8068.244768
713.406956,1838.629195,1184.329507,8364.327145
713.407272,1532.190996,592.164754,8882.471304
713.407588,0.000000,-74.020594,9992.780217
713.407903,-766.095498,-814.226536,10955.047942
713.408219,-1455.581446,-1184.329507,11177.109724
713.408535,-1149.143247,-2294.638420,12361.439231
713.408851,-1072.533697,-518.144159,11843.295072
713.409166,-1149.143247,1258.350101,10881.027347
713.409482,536.266849,962.267725,10066.800811
713.409798,1762.019645,1776.494261,8956.491898
713.410114,1915.238745,2146.597232,8068.244768
713.410429,2451.505594,1850.514855,8290.306550
713.410745,3447.429741,962.267725,7994.224174
713.411061,2911.162892,1776.494261,7550.100608
713.411377,2834.553343,2368.659014,7772.162391
713.411692,2451.505594,1480.411884,8290.306550
713.412008,1762.019645,962.267725,9474.636058
713.412324,689.485948,-222.061783,10214.842000
713.412640,-689.485948,-1036.288319,11103.089130
713.412955,-1455.581446,-1406.391290,11695.253884
713.413271,-1915.238745,-1480.411884,12065.356855
713.413587,-1915.238745,-74.020594,11621.233289
713.413903,-1532.190996,740.205942,11251.130318
713.414219,-689.485948,-0.000000,9918.759623
713.414534,-76.609550,740.205942,9326.594869
713.414850,459.657299,-0.000000,9326.594869
713.415166,1608.800546,296.082377,8956.491898
713.415482,1838.629195,1184.329507,7772.162391
713.415797,2145.067394,1702.473667,7402.059420
713.416113,2068.457845,1850.514855,7402.059420
713.416429,1991.848295,888.247130,7994.224174
713.416745,1455.581446,-0.000000,8882.471304
713.417060,-459.657299,-1184.329507,9844.739029
713.417376,-1455.581446,-1702.473667,10955.047942
713.417692,-1685.410096,-1628.453072,11917.315666
713.418008,-2298.286494,-1554.432478,11621.233289
713.418323,-2374.896044,-592.164754,11621.233289
713.418639,-1685.410096,-740.205942,11177.109724
713.418955,-612.876398,-0.000000,9696.697840
713.419271,153.219100,-148.041188,9252.574275
713.419586,995.924147,-740.205942,8142.265362
713.419902,1915.238745,-518.144159,7698.141797
713.420218,2834.553343,-222.061783,7179.997637
713.420534,2374.896044,148.041188,7179.997637
713.420849,2374.896044,222.061783,7402.059420
713.421165,2221.676944,-666.185348,8068.244768
713.421481,1302.362347,-1406.391290,8364.327145
713.421797,0.000000,-2072.576638,9770.718434
713.422112,-689.485948,-2812.782580,11103.089130
713.422428,-766.095498,-2664.741391,11177.109724
713.422744,-1532.190996,-1628.453072,10955.047942
713.423060,-1608.800546,-370.102971,10881.027347
713.423376,-536.266849,-1036.288319,10807.006753
713.423691,0.000000,-1036.288319,9844.739029
713.424007,689.485948,-592.164754,8808.450710
713.424323,1378.971896,-518.144159,7920.203579
713.424639,2834.553343,-518.144159,7624.121203
713.424954,2681.334243,-0.000000,7328.038826
713.425270,2528.115143,296.082377,7105.977043
713.425586,2145.067394,-222.061783,7846.182985
713.425902,1685.410096,-1110.308913,8734.430116
713.426217,153.219100,-1702.473667,9696.697840
713.426533,-1149.143247,-2220.617826,10658.965565
713.426849,-1225.752797,-2516.700203,11621.233289
713.427165,-2068.457845,-1998.556043,11843.295072
713.427480,-2374.896044,-888.247130,11399.171507
713.427796,-1991.848295,-296.082377,10807.006753
713.428112,-536.266849,-0.000000,10288.862594
713.428428,0.000000,-0.000000,9474.636058
713.428743,766.095498,592.164754,8290.306550
713.429059,1762.019645,370.102971,8068.244768
713.429375,2374.896044,370.102971,7624.121203
713.429691,1991.848295,1184.329507,6883.915261
713.430006,2068.457845,1036.288319,7920.203579
713.430322,1838.629195,-0.000000,8216.285956
713.430638,1072.533697,-666.185348,8734.430116
713.430954,-153.219100,-1480.411884,10807.006753
713.431269,-1149.143247,-1998.556043,11399.171507
713.431585,-1915.238745,-2072.576638,11991.336260
713.431901,-2451.505594,-666.185348,12435.459826
713.432217,-2374.896044,-0.000000,11843.295072
713.432532,-1685.410096,1036.288319,11177.109724
713.432848,-536.266849,1554.432478,10066.800811
713.433164,612.876398,1554.432478,9548.656652
713.433480,1455.581446,1184.329507,7772.162391
713.433796,2528.115143,1110.308913,7920.203579
713.434111,3294.210641,1036.288319,7179.997637
713.434427,2987.772442,1332.370696,7179.997637
713.434743,2757.943793,1924.535449,7698.141797
713.435059,2298.286494,1036.288319,8512.368333
713.435374,1302.362347,-148.041188,9770.718434
713.435690,-383.047749,-666.185348,10732.986159
713.436006,-1072.533697,-1036.288319,11399.171507
713.436322,-1378.971896,-1184.329507,12435.459826
713.436637,-1608.800546,-148.041188,12213.398043
713.436953,-1378.971896,740.205942,11843.295072
713.437269,-995.924147,1110.308913,10807.006753
713.437585,383.047749,1036.288319,10288.862594
713.437900,1225.752797,1406.391290,8808.450710
713.438216,1838.629195,962.267725,7624.121203
713.438532,2911.162892,814.226536,7846.182985
713.438848,3830.477490,1702.473667,6883.915261
713.439163,3600.648841,2072.576638,6587.832884
713.439479,2911.162892,1554.432478,7105.977043
713.439795,1685.410096,-74.020594,8512.368333
713.440111,842.705048,-1036.288319,9400.615463
713.440426,-919.314598,-2294.638420,10214.842000
713.440742,-1762.019645,-2590.720797,12213.398043
713.441058,-2451.505594,-2072.576638,12065.356855
713.441374,-2911.162892,-666.185348,11769.274478
713.441689,-2681.334243,-0.000000,11325.150913
713.442005,-1455.581446,222.061783,11029.068536
713.442321,-459.657299,222.061783,9622.677246
713.442637,612.876398,666.185348,8734.430116
713.442952,1991.848295,-0.000000,7772.162391
713.443268,3064.381992,444.123565,6957.935855
713.443584,3447.429741,1184.329507,6217.729913
713.443900,3064.381992,1110.308913,6957.935855
713.444216,2757.943793,74.020594,7476.080014
713.444531,2221.676944,-370.102971,8290.306550
713.444847,229.828649,-1554.432478,9770.718434
713.445163,-919.314598,-2442.679609,11251.130318
713.445479,-1838.629195,-2368.659014,11917.315666
713.445794,-2604.724693,-1332.370696,12139.377449
713.446110,-2068.457845,-1406.391290,12213.398043
713.446426,-1762.019645,-444.123565,11547.212695
713.446742,-1072.533697,592.164754,10881.027347
713.447057,76.609550,-1258.350101,9474.636058
713.447373,1532.190996,-518.144159,8882.471304
713.447689,2068.457845,-296.082377,7402.059420
713.448005,2911.162892,-0.000000,7179.997637
713.448320,3447.429741,1036.288319,6883.915261
713.448636,2604.724693,370.102971,6513.812290
713.448952,3064.381992,-444.123565,7698.141797
713.449268,1378.971896,-1998.556043,8586.388927
713.449583,-153.219100,-2738.761985,10066.800811
713.449899,-1455.581446,-3108.864956,11621.233289
713.450215,-2757.943793,-3182.885551,11843.295072
713.450531,-2604.724693,-1998.556043,12435.459826
713.450846,-2911.162892,-666.185348,11621.233289
713.451162,-2145.067394,-74.020594,10658.965565
713.451478,-842.705048,-370.102971,10510.924376
713.451794,-229.828649,-148.041188,9030.512492
713.452109,612.876398,-444.123565,7994.224174
713.452425,1991.848295,-296.082377,7476.080014
713.452741,2681.334243,814.226536,6217.729913
713.453057,2757.943793,2220.617826,5921.647536
713.453372,2987.772442,1702.473667,6883.915261
713.453688,2528.115143,-74.020594,7920.203579
713.454004,306.438199,-1850.514855,9252.574275
713.454320,-1302.362347,-2960.823768,10955.047942
713.454636,-2451.505594,-2960.823768,12361.439231
713.454951,-2528.115143,-1850.514855,13175.665768
713.455267,-2834.553343,-370.102971,12509.480420
713.455583,-2681.334243,1258.350101,11177.109724
713.455899,-1302.362347,1332.370696,10881.027347
713.456214,0.000000,1480.411884,9622.677246
713.456530,919.314598,1480.411884,8660.409521
713.456846,2451.505594,444.123565,7846.182985
713.457162,3600.648841,740.205942,6957.935855
713.457477,4366.744339,1554.432478,6513.812290
713.457793,4366.744339,2368.659014,6439.791695
713.458109,3753.867940,1184.329507,7550.100608
713.458425,2528.115143,-0.000000,8216.285956
713.458740,306.438199,-1184.329507,9844.739029
713.459056,-1455.581446,-1998.556043,11029.068536
713.459372,-2068.457845,-1776.494261,12953.603985
713.459688,-2068.457845,-1554.432478,13323.706956
713.460003,-2374.896044,-0.000000,12287.418637
713.460319,-1838.629195,1110.308913,11251.130318
713.460635,-612.876398,1036.288319,10881.027347
713.460951,306.438199,962.267725,9474.636058
713.461266,1608.800546,222.061783,8956.491898
713.461582,2911.162892,592.164754,8142.265362
713.461898,4060.306139,1184.329507,6809.894666
713.462214,4213.525239,2368.659014,6143.709319
713.462529,3753.867940,2442.679609,6735.874072
713.462845,3753.867940,1480.411884,7920.203579
713.463161,2451.505594,-222.061783,8734.430116
713.463477,306.438199,-1110.308913,9770.718434
713.463792,-1149.143247,-2220.617826,11251.130318
713.464108,-2068.457845,-1850.514855,12287.418637
713.464424,-2681.334243,-1406.391290,12879.583391
713.464740,-2987.772442,-0.000000,12583.501014
713.465056,-2221.676944,962.267725,11547.212695
713.465371,-1302.362347,1480.411884,10288.862594
713.465687,-229.828649,888.247130,10288.862594
713.466003,1149.143247,370.102971,9326.594869
713.466319,2681.334243,-0.000000,7994.224174
713.466634,3753.867940,1036.288319,6291.750507
713.466950,4060.306139,2516.700203,5551.544565
713.467266,4060.306139,1850.514855,6661.853478
713.467582,3524.039291,592.164754,7179.997637
713.467897,1762.019645,-1258.350101,8734.430116
713.468213,-383.047749,-2294.638420,10658.965565
713.468529,-1608.800546,-2812.782580,11473.192101
713.468845,-2451.505594,-2590.720797,12805.562797
713.469160,-2298.286494,-1554.432478,12953.603985
713.469476,-2451.505594,148.041188,11695.253884
713.469792,-1838.629195,1110.308913,11177.109724
713.470108,-229.828649,666.185348,9548.656652
713.470423,0.000000,-0.000000,8660.409521
713.470739,1685.410096,-518.144159,8142.265362
713.471055,2604.724693,-1258.350101,7179.997637
713.471371,2987.772442,-0.000000,6587.832884
713.471686,2987.772442,814.226536,6069.688724
713.472002,2834.553343,296.082377,6957.935855
713.472318,2145.067394,-1184.329507,8068.244768
713.472633,153.219100,-2590.720797,9400.615463
713.472949,-1608.800546,-2960.823768,10436.903782
713.473264,-2451.505594,-3404.947333,11991.336260
713.473580,-2911.162892,-2960.823768,12805.562797
713.473896,-3217.601092,-1628.453072,12065.356855
713.474211,-2681.334243,-74.020594,11399.171507
713.474527,-1915.238745,296.082377,10510.924376
713.474842,-842.705048,-74.020594,9400.615463
713.475158,0.000000,-222.061783,8734.430116
713.475474,995.924147,-740.205942,8512.368333
713.475789,2298.286494,-222.061783,6439.791695
713.476105,3064.381992,962.267725,5551.544565
713.476420,2834.553343,1480.411884,5921.647536
713.476736,2681.334243,-0.000000,7550.100608
713.477051,1762.019645,-2072.576638,8956.491898
713.477367,-689.485948,-2960.823768,9918.759623
713.477683,-1915.238745,-3034.844362,11843.295072
713.477998,-2604.724693,-2886.803174,12287.418637
713.478314,-2987.772442,-1776.494261,12139.377449
713.478629,-2987.772442,148.041188,11917.315666
713.478945,-1915.238745,962.267725,11325.150913
713.479260,-766.095498,1184.329507,10140.821405
713.479576,0.000000,962.267725,9178.553681
713.479892,1532.190996,-0.000000,8364.327145
713.480207,2987.772442,-592.164754,7772.162391
713.480523,3983.696590,888.247130,6809.894666
713.480838,4136.915689,2738.761985,5847.626942
713.481154,4213.525239,2368.659014,6365.771101
713.481469,3907.087040,888.247130,7846.182985
713.481785,2145.067394,-888.247130,9474.636058
713.482101,153.219100,-2072.576638,10881.027347
713.482416,-1072.533697,-2294.638420,11843.295072
713.482732,-1762.019645,-1406.391290,12657.521608
713.483047,-1685.410096,-444.123565,12805.562797
713.483363,-1838.629195,1258.350101,12139.377449
713.483678,-995.924147,1998.556043,11251.130318
713.483994,-229.828649,1702.473667,9918.759623
713.484310,612.876398,1110.308913,9326.594869
713.484625,1991.848295,444.123565,8734.430116
713.484941,3217.601092,-0.000000,8068.244768
713.485256,3370.820191,1554.432478,6957.935855
713.485572,3370.820191,2664.741391,6513.812290
713.485888,3064.381992,1628.453072,7254.018232
713.486203,2604.724693,-0.000000,8734.430116
713.486519,1072.533697,-1406.391290,9474.636058
713.486834,-383.047749,-1776.494261,11103.089130
713.487150,-1302.362347,-2146.597232,11843.295072
713.487465,-1915.238745,-1332.370696,12657.521608
713.487781,-2145.067394,444.123565,12139.377449
713.488097,-1915.238745,1554.432478,11251.130318
713.488412,-1302.362347,1702.473667,10658.965565
713.488728,-459.657299,1480.411884,9474.636058
713.489043,383.047749,518.144159,8808.450710
713.489359,1532.190996,-222.061783,8364.327145
713.489674,2451.505594,-74.020594,7550.100608
713.489990,3294.210641,1184.329507,6069.688724
713.490306,3217.601092,2368.659014,5995.668130
713.490621,2834.553343,1110.308913,6883.915261
713.490937,2145.067394,-888.247130,8364.327145
713.491252,536.266849,-1924.535449,9992.780217
713.491568,-1762.019645,-2664.741391,11251.130318
713.491883,-2298.286494,-2442.679609,12435.459826
713.492199,-2757.943793,-1702.473667,12361.439231
713.492515,-3064.381992,-0.000000,11621.233289
713.492830,-1762.019645,1184.329507,11473.192101
713.493146,-1149.143247,1332.370696,10214.842000
713.493461,-536.266849,370.102971,9104.533087
713.493777,306.438199,-296.082377,8438.347739
713.494092,1838.629195,-1036.288319,7994.224174
713.494408,2681.334243,-148.041188,6957.935855
713.494724,2834.553343,1628.453072,6217.729913
713.495039,2911.162892,1702.473667,6513.812290
713.495355,2681.334243,-74.020594,7772.162391
713.495670,689.485948,-2368.659014,8882.471304
713.495986,-919.314598,-3034.844362,10140.821405
713.496301,-2145.067394,-3775.050304,11991.336260
713.496617,-2298.286494,-3108.864956,12953.603985
713.496933,-2604.724693,-1850.514855,11991.336260
713.497248,-2298.286494,-444.123565,11769.274478
713.497564,-2221.676944,518.144159,11103.089130
713.497879,-1149.143247,370.102971,9770.718434
713.498195,-153.219100,-0.000000,8660.409521
713.498511,995.924147,-518.144159,8512.368333
713.498826,2145.067394,-1258.350101,7624.121203
713.499142,2987.772442,-222.061783,6439.791695
713.499457,3217.601092,1036.288319,5921.647536
713.499773,3217.601092,666.185348,6809.894666
713.500088,2834.553343,-1110.308913,8068.244768
713.500404,1302.362347,-2738.761985,9696.697840
713.500720,-612.876398,-2812.782580,10584.944971
713.501035,-1532.190996,-3108.864956,11843.295072
713.501351,-1991.848295,-2664.741391,12435.459826
713.501666,-2374.896044,-1036.288319,12731.542202
713.501982,-1608.800546,-74.020594,11547.212695
713.502297,-612.876398,1406.391290,10955.047942
713.502613,76.609550,1628.453072,9844.739029
713.502929,919.314598,962.267725,8438.347739
713.503244,2528.115143,-296.082377,7994.224174
713.503560,3753.867940,-148.041188,7402.059420
713.503875,4213.525239,1702.473667,6439.791695
713.504191,3907.087040,2294.638420,6291.750507
713.504506,3677.258390,962.267725,7179.997637
713.504822,3064.381992,-962.267725,8734.430116
713.505138,1455.581446,-1776.494261,10214.842000
713.505453,-383.047749,-2368.659014,10732.986159
713.505769,-1608.800546,-1850.514855,12213.398043
713.506084,-1838.629195,-1110.308913,12583.501014
713.506400,-1072.533697,148.041188,11917.315666
713.506715,-1072.533697,1480.411884,11473.192101
713.507031,-689.485948,1554.432478,10140.821405
713.507347,229.828649,1332.370696,9548.656652
713.507662,1072.533697,592.164754,8512.368333
713.507978,2145.067394,-296.082377,7994.224174
713.508293,2911.162892,592.164754,7254.018232
713.508609,3217.601092,2516.700203,6143.709319
713.508925,3524.039291,1702.473667,6365.771101
713.509240,2834.553343,592.164754,7846.182985
713.509556,1455.581446,-814.226536,9474.636058
713.509871,0.000000,-2812.782580,11177.109724
713.510187,-1762.019645,-2146.597232,11843.295072
713.510502,-2221.676944,-1628.453072,11621.233289
713.510818,-2068.457845,-518.144159,12213.398043
713.511134,-2068.457845,1702.473667,11917.315666
713.511449,-2221.676944,2442.679609,10732.986159
713.511765,-536.266849,1924.535449,10214.842000
713.512080,0.000000,1406.391290,8808.450710
713.512396,1225.752797,740.205942,8290.306550
713.512711,2298.286494,-0.000000,7920.203579
713.513027,2911.162892,888.247130,6587.832884
713.513343,2987.772442,1850.514855,7105.977043
713.513658,2834.553343,2072.576638,6661.853478
713.513974,2298.286494,-444.123565,8586.388927
713.514289,229.828649,-1776.494261,10214.842000
713.514605,-1455.581446,-2368.659014,11177.109724
713.514920,-2374.896044,-2368.659014,11843.295072
713.515236,-2451.505594,-1554.432478,12435.459826
713.515552,-2757.943793,-592.164754,12731.542202
713.515867,-2911.162892,444.123565,11325.150913
713.516183,-1455.581446,1110.308913,11251.130318
713.516498,-689.485948,814.226536,9696.697840
713.516814,153.219100,148.041188,9326.594869
713.517129,1915.238745,-222.061783,8364.327145
713.517445,2987.772442,-296.082377,6957.935855
713.517761,3370.820191,1258.350101,5847.626942
713.518076,3524.039291,1776.494261,6217.729913
713.518392,3753.867940,148.041188,7105.977043
713.518707,2451.505594,-1258.350101,8956.491898
713.519023,229.828649,-2516.700203,9992.780217
713.519339,-1149.143247,-3478.967927,10955.047942
713.519654,-1608.800546,-2812.782580,11843.295072
713.519970,-2145.067394,-2368.659014,12435.459826
713.520285,-2451.505594,-518.144159,12139.377449
713.520601,-2145.067394,518.144159,11473.192101
713.520916,-1608.800546,962.267725,9844.739029
713.521232,-612.876398,518.144159,8734.430116
713.521548,612.876398,-666.185348,8808.450710
713.521863,1991.848295,-888.247130,7920.203579
713.522179,2911.162892,-740.205942,7031.956449
713.522494,3370.820191,444.123565,5773.606348
713.522810,2987.772442,888.247130,6217.729913
713.523125,3294.210641,-518.144159,7550.100608
713.523441,1991.848295,-2146.597232,8438.347739
713.523757,153.219100,-3034.844362,9992.780217
713.524072,-1225.752797,-3552.988522,11547.212695
713.524388,-2221.676944,-2812.782580,12361.439231
713.524703,-2145.067394,-1332.370696,12213.398043
713.525019,-1762.019645,518.144159,11251.130318
713.525334,-1149.143247,1406.391290,10436.903782
713.525650,-153.219100,1332.370696,9696.697840
713.525966,229.828649,1110.308913,9178.553681
713.526281,1608.800546,222.061783,7772.162391
713.526597,2834.553343,-518.144159,7698.141797
713.526912,3600.648841,-0.000000,6661.853478
713.527228,3447.429741,1110.308913,6439.791695
713.527543,3677.258390,1036.288319,7031.956449
713.527859,2757.943793,-296.082377,8364.327145
713.528175,1072.533697,-1776.494261,9770.718434
713.528490,-383.047749,-2146.597232,10584.944971
713.528806,-1762.019645,-2294.638420,11843.295072
713.529121,-2145.067394,-1924.535449,12435.459826
713.529437,-1991.848295,-518.144159,12435.459826
713.529753,-2068.457845,1184.329507,11843.295072
713.530068,-1225.752797,1998.556043,11177.109724
713.530384,-766.095498,1850.514855,9548.656652
713.530699,536.266849,1480.411884,8956.491898
713.531015,919.314598,148.041188,7994.224174
713.531330,2528.115143,-148.041188,7920.203579
713.531646,3064.381992,1480.411884,6809.894666
713.531962,2604.724693,2442.679609,6365.771101
713.532277,2451.505594,1480.411884,7476.080014
713.532593,1991.848295,-370.102971,9252.574275
713.532908,306.438199,-1258.350101,9992.780217
713.533224,-1762.019645,-2072.576638,10955.047942
713.533539,-2604.724693,-2072.576638,12287.418637
713.533855,-3294.210641,-1628.453072,13249.686362
713.534171,-3140.991542,-148.041188,12583.501014
713.534486,-2451.505594,1924.535449,11621.233289
713.534802,-1762.019645,1998.556043,10807.006753
713.535117,-842.705048,1554.432478,9844.739029
713.535433,229.828649,1110.308913,8586.388927
713.535748,1608.800546,296.082377,7994.224174
713.536064,2987.772442,-0.000000,7698.141797
713.536380,3140.991542,1850.514855,6217.729913
713.536695,3140.991542,2516.700203,6217.729913
713.537011,3140.991542,814.226536,7550.100608
713.537326,2221.676944,-814.226536,9030.512492
713.537642,383.047749,-1998.556043,10362.883188
713.537957,-1225.752797,-2590.720797,11621.233289
713.538273,-2145.067394,-2294.638420,12287.418637
713.538589,-2451.505594,-1332.370696,12583.501014
713.538904,-2221.676944,-0.000000,12213.398043
713.539220,-1455.581446,1258.350101,11103.089130
713.539535,-306.438199,1776.494261,10362.883188
713.539851,153.219100,1850.514855,9178.553681
713.540166,1685.410096,444.123565,7920.203579
713.540482,3294.210641,-592.164754,8068.244768
713.540798,3677.258390,444.123565,6513.812290
713.541113,4366.744339,1776.494261,5329.482782
713.541429,3677.258390,962.267725,6365.771101
713.541744,3294.210641,-1036.288319,7698.141797
713.542060,1762.019645,-2220.617826,9474.636058
713.542376,0.000000,-3478.967927,10510.924376
713.542691,-1915.238745,-4219.173869,11843.295072
713.543007,-1991.848295,-3552.988522,12435.459826
713.543322,-2604.724693,-1924.535449,12287.418637
713.543638,-2451.505594,222.061783,11177.109724
713.543953,-1838.629195,1258.350101,10807.006753
713.544269,-919.314598,1036.288319,9178.553681
713.544585,153.219100,518.144159,8364.327145
713.544900,1072.533697,-962.267725,7920.203579
713.545216,2221.676944,-1332.370696,7550.100608
713.545531,2757.943793,-518.144159,5995.668130
713.545847,2987.772442,740.205942,5847.626942
713.546162,2987.772442,592.164754,6513.812290
713.546478,2298.286494,-962.267725,8142.265362
713.546794,459.657299,-2442.679609,9400.615463
713.547109,-1149.143247,-3552.988522,10732.986159
713.547425,-2298.286494,-3701.029710,12361.439231
713.547740,-2528.115143,-2368.659014,12731.542202
713.548056,-2911.162892,-296.082377,12287.418637
713.548371,-2834.553343,814.226536,11695.253884
713.548687,-1532.190996,1258.350101,11103.089130
713.549003,-383.047749,1406.391290,9770.718434
713.549318,919.314598,888.247130,8512.368333
713.549634,1915.238745,-518.144159,7920.203579
713.549949,3907.087040,-740.205942,7105.977043
713.550265,4366.744339,1110.308913,6957.935855
713.550580,3830.477490,2516.700203,6069.688724
713.550896,3907.087040,1480.411884,7254.018232
713.551212,2604.724693,-444.123565,8660.409521
713.551527,612.876398,-1554.432478,10362.883188
713.551843,-919.314598,-2368.659014,11325.150913
713.552158,-1685.410096,-2664.741391,12065.356855
713.552474,-2298.286494,-1702.473667,13323.706956
713.552790,-2451.505594,-74.020594,13175.665768
713.553105,-1762.019645,1184.329507,11769.274478
713.553421,-995.924147,1998.556043,10362.883188
713.553736,-459.657299,1406.391290,10066.800811
713.554052,536.266849,666.185348,8956.491898
713.554367,1915.238745,222.061783,7846.182985
713.554683,2834.553343,1036.288319,6513.812290
713.554999,3370.820191,1924.535449,6439.791695
713.555314,3217.601092,1776.494261,6365.771101
713.555630,2911.162892,-0.000000,7179.997637
713.555945,1762.019645,-1702.473667,9326.594869
713.556261,-459.657299,-2516.700203,10955.047942
713.556576,-2145.067394,-2738.761985,11473.192101
713.556892,-2298.286494,-1850.514855,12139.377449
713.557208,-2604.724693,-666.185348,12731.542202
713.557523,-2681.334243,1332.370696,12583.501014
713.557839,-1608.800546,2294.638420,10881.027347
713.558154,-919.314598,2146.597232,9474.636058
713.558470,0.000000,1406.391290,9326.594869
713.558785,1225.752797,222.061783,8438.347739
713.559101,2834.553343,-148.041188,7179.997637
713.559417,3370.820191,740.205942,6809.894666
713.559732,3217.601092,2368.659014,5921.647536
713.560048,3600.648841,1628.453072,6069.688724
713.560363,2911.162892,-0.000000,8438.347739
713.560679,1378.971896,-2220.617826,9696.697840
713.560994,-995.924147,-2516.700203,10807.006753
713.561310,-1455.581446,-2516.700203,11917.315666
713.561626,-2374.896044,-1998.556043,12361.439231
713.561941,-2298.286494,-370.102971,12731.542202
713.562257,-1532.190996,814.226536,11769.274478
713.562572,-1225.752797,1480.411884,11177.109724
713.562888,-612.876398,1480.411884,10066.800811
713.563204,919.314598,222.061783,8956.491898
713.563519,2221.676944,-592.164754,7772.162391
713.563835,3370.820191,-666.185348,7328.038826
713.564150,3830.477490,888.247130,5995.668130
713.564466,3753.867940,2072.576638,5181.441594
713.564781,3677.258390,814.226536,6513.812290
713.565097,2911.162892,-1406.391290,8512.368333
713.565413,536.266849,-2812.782580,9770.718434
713.565728,-1225.752797,-3552.988522,10732.986159
713.566044,-2145.067394,-3775.050304,12287.418637
713.566359,-3064.381992,-2960.823768,13545.768739
713.566675,-2604.724693,-962.267725,12435.459826
713.566990,-2528.115143,814.226536,11251.130318
713.567306,-1608.800546,962.267725,10658.965565
713.567622,-919.314598,740.205942,9326.594869
713.567937,306.438199,370.102971,8586.388927
713.568253,1762.019645,-740.205942,7550.100608
713.568568,3140.991542,-666.185348,6661.853478
713.568884,3294.210641,1480.411884,5625.565159
713.569199,3524.039291,1702.473667,5477.523971
713.569515,2987.772442,148.041188,7105.977043
713.569831,2145.067394,-1924.535449,8808.450710
713.570146,-229.828649,-2960.823768,9844.739029
713.570462,-1915.238745,-3330.926739,11473.192101
713.570777,-2757.943793,-3034.844362,12509.480420
713.571093,-2987.772442,-1776.494261,12879.583391
713.571408,-2911.162892,518.144159,12065.356855
713.571724,-2298.286494,1554.432478,11251.130318
713.572040,-1378.971896,1850.514855,10140.821405
713.572355,0.000000,1332.370696,9104.533087
713.572671,1149.143247,518.144159,8216.285956
713.572986,3064.381992,-592.164754,7550.100608
713.573302,3524.039291,296.082377,7031.956449
713.573617,3753.867940,2072.576638,5625.565159
713.573933,3830.477490,1850.514855,6513.812290
713.574249,3217.601092,-0.000000,8512.368333
713.574564,1762.019645,-1480.411884,9770.718434
713.574880,0.000000,-2146.597232,10732.986159
713.575195,-1685.410096,-2516.700203,11843.295072
713.575511,-2145.067394,-2220.617826,13027.624579
713.575826,-2145.067394,-666.185348,12731.542202
713.576142,-2298.286494,1036.288319,12361.439231
713.576457,-1608.800546,2368.659014,10955.047942
713.576773,-536.266849,2072.576638,9696.697840
713.577089,536.266849,1036.288319,9326.594869
713.577404,1455.581446,148.041188,8734.430116
713.577720,3064.381992,-0.000000,7550.100608
713.578035,3677.258390,1480.411884,5773.606348
713.578351,3524.039291,2886.803174,5625.565159
713.578666,3524.039291,1110.308913,7105.977043
713.578982,2911.162892,-444.123565,9252.574275
713.579297,842.705048,-1776.494261,9474.636058
713.579613,-1149.143247,-3034.844362,10955.047942
713.579929,-1991.848295,-2812.782580,12139.377449
713.580244,-2604.724693,-1776.494261,12953.603985
713.580560,-3140.991542,-0.000000,12361.439231
713.580875,-2451.505594,1332.370696,11103.089130
713.581191,-1838.629195,2146.597232,11103.089130
713.581506,-766.095498,1850.514855,9844.739029
713.581822,0.000000,814.226536,8438.347739
713.582137,1685.410096,-962.267725,7772.162391
713.582453,2681.334243,-296.082377,7105.977043
713.582768,3217.601092,1554.432478,5699.585753
713.583084,3677.258390,2664.741391,5477.523971
713.583400,3217.601092,1332.370696,7179.997637
713.583715,2145.067394,-1184.329507,8586.388927
713.584031,306.438199,-2960.823768,10066.800811
713.584346,-1608.800546,-3256.906145,11325.150913
713.584662,-2451.505594,-3182.885551,12879.583391
713.584977,-1915.238745,-2294.638420,12361.439231
713.585293,-2374.896044,-0.000000,12065.356855
713.585608,-2298.286494,1406.391290,11695.253884
713.585924,-842.705048,1554.432478,10732.986159
713.586240,76.609550,1406.391290,8956.491898
713.586555,1072.533697,-0.000000,8142.265362
713.586871,2757.943793,-444.123565,7031.956449
713.587186,3600.648841,-0.000000,6143.709319
713.587502,3677.258390,1554.432478,6143.709319
713.587817,3907.087040,1332.370696,5921.647536
713.588133,3600.648841,-370.102971,7254.018232
713.588448,2068.457845,-1554.432478,9400.615463
713.588764,-229.828649,-3256.906145,10362.883188
713.589080,-1378.971896,-3478.967927,11473.192101
713.589395,-1838.629195,-3182.885551,11917.315666
713.589711,-2451.505594,-1406.391290,12731.542202
713.590026,-2911.162892,444.123565,11917.315666
713.590342,-2221.676944,1332.370696,11103.089130
713.590657,-1532.190996,1554.432478,9992.780217
713.590973,-459.657299,444.123565,9474.636058
713.591288,383.047749,-444.123565,8438.347739
713.591604,1915.238745,-1258.350101,7254.018232
713.591920,2604.724693,-74.020594,7105.977043
713.592235,2604.724693,1258.350101,6143.709319
713.592551,3677.258390,1036.288319,6587.832884
713.592866,2911.162892,-740.205942,7920.203579
713.593182,1072.533697,-1850.514855,9400.615463
713.593497,-459.657299,-2738.761985,10362.883188
713.593813,-1302.362347,-3034.844362,11695.253884
713.594128,-1991.848295,-1776.494261,12361.439231
713.594444,-2374.896044,-74.020594,12065.356855
713.594760,-1915.238745,1480.411884,11843.295072
713.595075,-1455.581446,1998.556043,10510.924376
713.595391,-383.047749,1850.514855,9696.697840
713.595706,306.438199,1036.288319,8956.491898
713.596022,1455.581446,-592.164754,8364.327145
713.596337,2757.943793,-814.226536,8216.285956
713.596653,2911.162892,1036.288319,6735.874072
713.596968,3370.820191,2368.659014,5995.668130
713.597284,3447.429741,1406.391290,7254.018232
713.597599,2604.724693,-444.123565,9178.553681
713.597915,919.314598,-1628.453072,10362.883188
713.598231,-536.266849,-2442.679609,11029.068536
713.598546,-689.485948,-2368.659014,11843.295072
713.598862,-1378.971896,-1036.288319,12361.439231
713.599177,-1532.190996,814.226536,12065.356855
713.599493,-1149.143247,2442.679609,11399.171507
713.599808,-612.876398,2590.720797,9918.759623
713.600124,383.047749,2146.597232,9252.574275
713.600439,766.095498,518.144159,9400.615463
713.600755,2068.457845,-518.144159,8586.388927
713.601071,2757.943793,-74.020594,7624.121203
713.601386,2911.162892,1480.411884,6587.832884
713.601702,3677.258390,1776.494261,6513.812290
713.602017,3677.258390,518.144159,7476.080014
713.602333,2068.457845,-888.247130,8808.450710
713.602648,0.000000,-2590.720797,10436.903782
713.602964,-1378.971896,-3552.988522,11621.233289
713.603279,-2068.457845,-2294.638420,12361.439231
713.603595,-2681.334243,-740.205942,12213.398043
713.603911,-1991.848295,1332.370696,11473.192101
713.604226,-1378.971896,1924.535449,10881.027347
713.604542,-689.485948,1776.494261,9770.718434
713.604857,0.000000,888.247130,9178.553681
713.605173,919.314598,-222.061783,8660.409521
713.605488,1685.410096,-1332.370696,7994.224174
713.605804,2451.505594,-74.020594,6957.935855
713.606119,2681.334243,1184.329507,5995.668130
713.606435,2987.772442,1258.350101,6365.771101
713.606751,2528.115143,-148.041188,7920.203579
713.607066,919.314598,-1776.494261,9474.636058
713.607382,-995.924147,-2960.823768,10584.944971
713.607697,-2221.676944,-3256.906145,11991.336260
713.608013,-2528.115143,-2368.659014,12953.603985
713.608328,-2451.505594,-888.247130,12435.459826
713.608644,-2374.896044,740.205942,11251.130318
713.608959,-1532.190996,1850.514855,10584.944971
713.609275,-383.047749,1258.350101,9918.759623
713.609590,536.266849,444.123565,9326.594869
713.609906,1302.362347,-592.164754,7846.182985
713.610222,2374.896044,-962.267725,7772.162391
713.610537,2757.943793,518.144159,6439.791695
713.610853,2987.772442,1110.308913,6217.729913
713.611168,3370.820191,962.267725,7476.080014
713.611484,2451.505594,-962.267725,7994.224174
713.611799,612.876398,-2590.720797,9696.697840
713.612115,-689.485948,-2960.823768,11177.109724
713.612430,-1915.238745,-3552.988522,11843.295072
713.612746,-1991.848295,-1998.556043,11843.295072
713.613062,-2068.457845,-148.041188,11547.212695
713.613377,-2068.457845,666.185348,11177.109724
713.613693,-842.705048,814.226536,10732.986159
713.614008,-536.266849,740.205942,9400.615463
713.614324,536.266849,-592.164754,8808.450710
713.614639,1608.800546,-1110.308913,7698.141797
713.614955,2451.505594,-518.144159,6587.832884
713.615270,3217.601092,1036.288319,6291.750507
713.615586,3294.210641,1258.350101,6365.771101
713.615902,3140.991542,-74.020594,7179.997637
713.616217,1685.410096,-1628.453072,8882.471304
713.616533,229.828649,-2812.782580,10140.821405
713.616848,-1072.533697,-3330.926739,11399.171507
713.617164,-2145.067394,-2442.679609,12139.377449
713.617479,-2374.896044,-1110.308913,12139.377449
713.617795,-2451.505594,740.205942,11843.295072
713.618110,-1225.752797,1924.535449,11103.089130
713.618426,-1532.190996,1702.473667,9548.656652
713.618742,-229.828649,962.267725,9178.553681
713.619057,1072.533697,-0.000000,8956.491898
713.619373,2451.505594,-518.144159,7772.162391
713.619688,2987.772442,888.247130,6957.935855
713.620004,2987.772442,2294.638420,6735.874072
713.620319,3370.820191,1998.556043,6883.915261
713.620635,2681.334243,296.082377,8438.347739
713.620950,1302.362347,-1406.391290,9696.697840
713.621266,-153.219100,-2220.617826,10955.047942
713.621582,-995.924147,-2220.617826,11991.336260
713.621897,-1608.800546,-1554.432478,12657.521608
713.622213,-1608.800546,444.123565,12435.459826
713.622528,-1685.410096,1998.556043,11473.192101
713.622844,-612.876398,2368.659014,10140.821405
713.623159,0.000000,1924.535449,9770.718434
713.623475,842.705048,1258.350101,9400.615463
713.623790,1991.848295,-0.000000,8364.327145
713.624106,2757.943793,-518.144159,7550.100608
713.624421,2987.772442,1110.308913,6883.915261
713.624737,3140.991542,1702.473667,6809.894666
713.625053,3370.820191,592.164754,7402.059420
713.625368,2221.676944,-814.226536,8882.471304
713.625684,689.485948,-1628.453072,10362.883188
713.625999,-995.924147,-2368.659014,11103.089130
713.626315,-2298.286494,-2294.638420,11325.150913
713.626630,-2528.115143,-1480.411884,12213.398043
713.626946,-2451.505594,-296.082377,11843.295072
713.627261,-2298.286494,1258.350101,11473.192101
713.627577,-1532.190996,1702.473667,10214.842000
713.627893,-306.438199,518.144159,9474.636058
713.628208,536.266849,-518.144159,9400.615463
713.628524,1762.019645,-814.226536,8438.347739
713.628839,2911.162892,-0.000000,6883.915261
713.629155,2834.553343,1554.432478,6587.832884
713.629470,3064.381992,2294.638420,6587.832884
713.629786,2911.162892,592.164754,7476.080014
713.630101,1532.190996,-814.226536,9030.512492
713.630417,-229.828649,-2220.617826,10066.800811
713.630733,-1225.752797,-2590.720797,11103.089130
713.631048,-1838.629195,-2442.679609,12213.398043
713.631364,-2528.115143,-1628.453072,12509.480420
713.631679,-2068.457845,222.061783,11917.315666
713.631995,-1532.190996,962.267725,11029.068536
713.632310,-766.095498,1332.370696,10140.821405
713.632626,76.609550,518.144159,9104.533087
713.632941,1302.362347,-148.041188,7920.203579
713.633257,2374.896044,-518.144159,7698.141797
713.633573,2911.162892,-0.000000,6735.874072
713.633888,2987.772442,1406.391290,6439.791695
713.634204,3370.820191,592.164754,6735.874072
713.634519,2374.896044,-1110.308913,7624.121203
713.634835,919.314598,-2738.761985,9992.780217
713.635150,-995.924147,-3627.009116,10955.047942
713.635466,-1608.800546,-3404.947333,11621.233289
713.635781,-2528.115143,-2738.761985,12583.501014
713.636097,-2528.115143,-1258.350101,12583.501014
713.636412,-1915.238745,222.061783,11325.150913
713.636728,-1608.800546,1184.329507,10658.965565
713.637044,-383.047749,814.226536,9400.615463
713.637359,842.705048,222.061783,7994.224174
713.637675,1991.848295,-444.123565,8068.244768
713.637990,3217.601092,-666.185348,7254.018232
713.638306,3064.381992,370.102971,6735.874072
713.638621,3370.820191,1036.288319,6735.874072
713.638937,3370.820191,-0.000000,7624.121203
713.639252,2374.896044,-1332.370696,8438.347739
713.639568,919.314598,-2368.659014,10140.821405
713.639884,-919.314598,-2738.761985,10955.047942
713.640199,-1378.971896,-2442.679609,11843.295072
713.640515,-1915.238745,-1850.514855,12065.356855
713.640830,-1838.629195,-0.000000,11621.233289
713.641146,-1455.581446,814.226536,11251.130318
713.641461,-1072.533697,666.185348,10436.903782
713.641777,-229.828649,444.123565,9474.636058
713.642092,459.657299,-0.000000,8438.347739
713.642408,2374.896044,-444.123565,7994.224174
713.642724,3064.381992,-0.000000,7550.100608
713.643039,3217.601092,1702.473667,6439.791695
713.643355,3217.601092,2368.659014,6365.771101
713.643670,3064.381992,518.144159,7624.121203
713.643986,2068.457845,-962.267725,9104.533087
713.644301,153.219100,-1998.556043,10436.903782
713.644617,-842.705048,-2368.659014,11251.130318
713.644932,-1608.800546,-1406.391290,12509.480420
713.645248,-2374.896044,-148.041188,12287.418637
713.645564,-1608.800546,888.247130,11843.295072
713.645879,-1378.971896,2146.597232,11325.150913
713.646195,-536.266849,2220.617826,10658.965565
713.646510,0.000000,2220.617826,9326.594869
713.646826,1072.533697,1480.411884,8290.306550
713.647141,2604.724693,444.123565,8068.244768
713.647457,2681.334243,1258.350101,7476.080014
713.647772,2604.724693,2590.720797,6883.915261
713.648088,3217.601092,2146.597232,7254.018232
713.648404,2374.896044,666.185348,8808.450710
713.648719,536.266849,-888.247130,9696.697840
713.649035,-536.266849,-1406.391290,10584.944971
713.649350,-1302.362347,-1776.494261,11695.253884
713.649666,-2145.067394,-1554.432478,12805.562797
713.649981,-2374.896044,-148.041188,12731.542202
713.650297,-2221.676944,1702.473667,11399.171507
713.650612,-995.924147,2146.597232,10510.924376
713.650928,-459.657299,1776.494261,9696.697840
713.651243,383.047749,666.185348,8734.430116
713.651559,1991.848295,296.082377,8290.306550
713.651875,2451.505594,-0.000000,7624.121203
713.652190,2834.553343,962.267725,6957.935855
713.652506,2911.162892,1924.535449,6365.771101
713.652821,2911.162892,444.123565,7105.977043
713.653137,2068.457845,-814.226536,9178.553681
713.653452,0.000000,-2368.659014,9918.759623
713.653768,-1762.019645,-3108.864956,11029.068536
713.654083,-2145.067394,-2590.720797,12213.398043
713.654399,-2451.505594,-2220.617826,12583.501014
713.654715,-2528.115143,-370.102971,11843.295072
713.655030,-1762.019645,1110.308913,11547.212695
713.655346,-1072.533697,740.205942,10732.986159
713.655661,0.000000,888.247130,9326.594869
713.655977,1149.143247,222.061783,8808.450710
713.656292,2681.334243,-666.185348,7698.141797
713.656608,2987.772442,222.061783,7031.956449
713.656923,3217.601092,1480.411884,5921.647536
713.657239,3677.258390,1258.350101,6365.771101
713.657555,3217.601092,-74.020594,7550.100608
713.657870,1838.629195,-1702.473667,8956.491898
713.658186,76.609550,-2812.782580,10066.800811
713.658501,-1302.362347,-3478.967927,11177.109724
713.658817,-1915.238745,-2886.803174,12139.377449
713.659132,-1991.848295,-1850.514855,12065.356855
713.659448,-2145.067394,-148.041188,11325.150913
713.659763,-1838.629195,518.144159,11177.109724
713.660079,-1149.143247,444.123565,9770.718434
713.660395,0.000000,-0.000000,9252.574275
713.660710,612.876398,-666.185348,8142.265362
713.661026,1991.848295,-1554.432478,7402.059420
713.661341,2681.334243,-222.061783,6735.874072
713.661657,3294.210641,962.267725,5995.668130
713.661972,3064.381992,666.185348,6143.709319
713.662288,2987.772442,-1332.370696,7624.121203
713.662603,1608.800546,-2886.803174,9474.636058
713.662919,-536.266849,-3404.947333,10510.924376
713.663235,-1455.581446,-2960.823768,11547.212695
713.663550,-2068.457845,-2516.700203,12139.377449
713.663866,-1915.238745,-1184.329507,11621.233289
713.664181,-2145.067394,592.164754,11251.130318
713.664497,-1532.190996,1184.329507,10214.842000
713.664812,-842.705048,962.267725,9622.677246
713.665128,536.266849,-74.020594,9030.512492
713.665443,1532.190996,-370.102971,8216.285956
713.665759,2374.896044,-0.000000,7179.997637
713.666074,2911.162892,1036.288319,6439.791695
713.666390,3140.991542,2146.597232,6217.729913
713.666706,2757.943793,1036.288319,7328.038826
713.667021,1991.848295,-592.164754,8956.491898
713.667337,383.047749,-1702.473667,9622.677246
713.667652,-1072.533697,-2368.659014,11399.171507
713.667968,-1149.143247,-2442.679609,12805.562797
713.668283,-1915.238745,-1110.308913,12435.459826
713.668599,-1991.848295,740.205942,12213.398043
713.668914,-1991.848295,2220.617826,11473.192101
713.669230,-995.924147,2220.617826,10955.047942
713.669546,-689.485948,1776.494261,9918.759623
713.669861,919.314598,1184.329507,8808.450710
713.670177,1991.848295,518.144159,8216.285956
713.670492,3140.991542,1184.329507,7402.059420
713.670808,2987.772442,2072.576638,6587.832884
713.671123,3830.477490,2072.576638,6957.935855
713.671439,3217.601092,1258.350101,7846.182985
713.671754,1838.629195,-74.020594,9030.512492
713.672070,153.219100,-1406.391290,10436.903782
713.672386,-995.924147,-2072.576638,11029.068536
713.672701,-2145.067394,-1850.514855,12509.480420
713.673017,-2451.505594,-962.267725,13027.624579
713.673332,-2528.115143,444.123565,12361.439231
713.673648,-1991.848295,1628.453072,11769.274478
713.673963,-1149.143247,1406.391290,10658.965565
713.674279,0.000000,962.267725,9474.636058
713.674595,1225.752797,962.267725,8734.430116
713.674910,2604.724693,148.041188,7920.203579
713.675226,3447.429741,666.185348,6735.874072
713.675541,3753.867940,1924.535449,6365.771101
713.675857,3524.039291,1776.494261,6439.791695
713.676173,2757.943793,148.041188,7920.203579
713.676488,1532.190996,-1776.494261,9326.594869
713.676804,-76.609550,-2368.659014,10140.821405
713.677119,-1225.752797,-2960.823768,11769.274478
713.677435,-1532.190996,-2664.741391,12731.542202
713.677751,-2298.286494,-1036.288319,12731.542202
713.678066,-2068.457845,296.082377,11917.315666
713.678382,-766.095498,1702.473667,11399.171507
713.678697,-229.828649,1776.494261,9548.656652
713.679013,229.828649,1406.391290,9252.574275
713.679329,1915.238745,592.164754,8068.244768
713.679644,2911.162892,-0.000000,6661.853478
713.679960,3447.429741,888.247130,5921.647536
713.680275,3447.429741,1702.473667,6291.750507
713.680591,3064.381992,296.082377,6809.894666
713.680907,2528.115143,-1258.350101,8586.388927
713.681222,383.047749,-2442.679609,9770.718434
713.681538,-1225.752797,-3404.947333,10807.006753
713.681853,-1991.848295,-3404.947333,12435.459826
713.682169,-2528.115143,-2738.761985,12805.562797
713.682485,-3217.601092,-1184.329507,12435.459826
713.682800,-2451.505594,148.041188,11843.295072
713.683116,-1685.410096,814.226536,10584.944971
713.683432,-1302.362347,518.144159,9770.718434
713.683747,459.657299,296.082377,8512.368333
713.684063,1762.019645,-222.061783,7031.956449
713.684378,2911.162892,-148.041188,6365.771101
713.684694,3447.429741,370.102971,5921.647536
713.685010,3600.648841,888.247130,6143.709319
713.685325,2987.772442,-222.061783,6957.935855
713.685641,1915.238745,-1924.535449,8512.368333
713.685956,229.828649,-2886.803174,9918.759623
713.686272,-1532.190996,-3552.988522,10955.047942
713.686588,-2681.334243,-3552.988522,12065.356855
713.686903,-3217.601092,-2590.720797,12805.562797
713.687219,-2987.772442,-962.267725,12213.398043
713.687534,-2604.724693,518.144159,11325.150913
713.687850,-1838.629195,1554.432478,10658.965565
713.688166,-612.876398,1258.350101,9178.553681
713.688481,995.924147,888.247130,7994.224174
713.688797,2068.457845,-0.000000,7328.038826
713.689112,2987.772442,-0.000000,7105.977043
713.689428,3524.039291,1554.432478,5995.668130
713.689744,3524.039291,1924.535449,5773.606348
713.690059,3217.601092,222.061783,7772.162391
713.690375,1838.629195,-1480.411884,9918.759623
713.690690,0.000000,-2368.659014,10732.986159
713.691006,-1455.581446,-2368.659014,11547.212695
713.691322,-2221.676944,-2368.659014,12657.521608
713.691637,-2451.505594,-962.267725,12953.603985
713.691953,-1838.629195,1110.308913,12361.439231
713.692268,-1302.362347,2146.597232,11103.089130
713.692584,-612.876398,2664.741391,10140.821405
713.692900,0.000000,1554.432478,9178.553681
713.693215,1685.410096,740.205942,8512.368333
713.693531,2604.724693,74.020594,7624.121203
713.693847,2987.772442,1184.329507,6883.915261
713.694162,2911.162892,1998.556043,6439.791695
713.694478,3294.210641,888.247130,7328.038826
713.694793,2987.772442,-296.082377,8808.450710
713.695109,1302.362347,-1850.514855,10288.862594
713.695425,-383.047749,-2368.659014,11251.130318
713.695740,-1302.362347,-2368.659014,11769.274478
713.696056,-1838.629195,-1702.473667,12065.356855
713.696371,-1838.629195,370.102971,11991.336260
713.696687,-1915.238745,1480.411884,11473.192101
713.697003,-766.095498,2368.659014,10955.047942
713.697318,-153.219100,2146.597232,9622.677246
713.697634,842.705048,1554.432478,8882.471304
713.697949,2298.286494,296.082377,8068.244768
713.698265,3294.210641,-444.123565,7105.977043
713.698581,3370.820191,1554.432478,6809.894666
713.698896,3294.210641,2220.617826,6217.729913
713.699212,3524.039291,814.226536,7031.956449
713.699527,2068.457845,-444.123565,8956.491898
713.699843,0.000000,-2220.617826,10732.986159
713.700159,-1455.581446,-2664.741391,11399.171507
713.700474,-2451.505594,-3108.864956,13027.624579
713.700790,-2528.115143,-1924.535449,12805.562797
713.701105,-2528.115143,-0.000000,12509.480420
713.701421,-2145.067394,2220.617826,11695.253884
713.701737,-689.485948,2516.700203,10510.924376
713.702052,229.828649,1850.514855,9104.533087
713.702368,1225.752797,740.205942,7994.224174
713.702684,2298.286494,-74.020594,7920.203579
713.702999,3370.820191,-296.082377,7031.956449
713.703315,3217.601092,1184.329507,5847.626942
713.703630,3600.648841,1776.494261,5847.626942
713.703946,3064.381992,-74.020594,7402.059420
713.704262,2068.457845,-2220.617826,9252.574275
713.704577,-306.438199,-3478.967927,10214.842000
713.704893,-1532.190996,-3627.009116,11399.171507
713.705208,-2374.896044,-3330.926739,12731.542202
713.705524,-2911.162892,-1998.556043,12509.480420
713.705840,-2757.943793,-74.020594,12065.356855
713.706155,-2298.286494,1184.329507,11473.192101
713.706471,-1685.410096,1184.329507,9696.697840
713.706786,-766.095498,740.205942,9474.636058
713.707102,995.924147,-296.082377,8290.306550
713.707418,2298.286494,-1184.329507,6439.791695
713.707733,3294.210641,222.061783,6069.688724
713.708049,3524.039291,1258.350101,5847.626942
713.708364,3753.867940,666.185348,6439.791695
713.708680,2681.334243,-888.247130,7698.141797
713.708996,842.705048,-2072.576638,9400.615463
713.709311,-842.705048,-3256.906145,10140.821405
713.709627,-1838.629195,-3404.947333,11695.253884
713.709942,-1991.848295,-2368.659014,12213.398043
713.710258,-2221.676944,-814.226536,11843.295072
713.710574,-1915.238745,962.267725,11251.130318
713.710889,-1225.752797,1554.432478,10881.027347
713.711205,-459.657299,1258.350101,9474.636058
713.711521,306.438199,370.102971,8660.409521
713.711836,1225.752797,-518.144159,8068.244768
713.712152,2604.724693,-592.164754,7402.059420
713.712467,3064.381992,740.205942,6809.894666
713.712783,3217.601092,1924.535449,6735.874072
713.713099,3524.039291,1258.350101,7105.977043
713.713414,2757.943793,-666.185348,8586.388927
713.713730,689.485948,-1850.514855,9622.677246
713.714045,-306.438199,-2294.638420,11103.089130
713.714361,-995.924147,-2738.761985,12435.459826
713.714677,-1762.019645,-1406.391290,12435.459826
713.714992,-1378.971896,740.205942,12139.377449
713.715308,-1378.971896,2220.617826,11473.192101
713.715623,-459.657299,2220.617826,10732.986159
713.715939,76.609550,1776.494261,9770.718434
713.716255,612.876398,814.226536,9252.574275
713.716570,2298.286494,-0.000000,8142.265362
713.716886,2834.553343,74.020594,7476.080014
713.717201,2987.772442,1628.453072,7031.956449
713.717517,2911.162892,2072.576638,6883.915261
713.717833,2681.334243,444.123565,8142.265362
713.718148,1532.190996,-1406.391290,9474.636058
713.718464,-153.219100,-2664.741391,10362.883188
713.718779,-1532.190996,-2960.823768,11547.212695
713.719095,-2068.457845,-2590.720797,12879.583391
713.719411,-2374.896044,-1184.329507,12657.521608
713.719726,-2451.505594,518.144159,11547.212695
713.720042,-1685.410096,1998.556043,11029.068536
713.720357,-766.095498,2294.638420,10140.821405
713.720673,153.219100,1554.432478,9178.553681
713.720989,1378.971896,370.102971,7920.203579
713.721304,2451.505594,-666.185348,7328.038826
713.721620,2987.772442,-0.000000,6957.935855
713.721936,2987.772442,1110.308913,6661.853478
713.722251,3600.648841,1036.288319,6809.894666
713.722567,2604.724693,-444.123565,7994.224174
713.722882,995.924147,-1702.473667,9548.656652
713.723198,-995.924147,-2664.741391,9992.780217
713.723514,-1838.629195,-2812.782580,11325.150913
713.723829,-2528.115143,-2294.638420,12879.583391
713.724145,-2528.115143,-888.247130,12731.542202
713.724460,-2145.067394,1184.329507,10955.047942
713.724776,-1532.190996,1702.473667,10584.944971
713.725092,-383.047749,1332.370696,9696.697840
713.725407,76.609550,370.102971,8660.409521
713.725723,1378.971896,-74.020594,7772.162391
713.726038,2374.896044,-518.144159,7179.997637
713.726354,2604.724693,518.144159,6587.832884
713.726670,2987.772442,1110.308913,6291.750507
713.726985,3524.039291,444.123565,7402.059420
713.727301,1915.238745,-1480.411884,9030.512492
713.727616,153.219100,-2516.700203,9474.636058
713.727932,-1685.410096,-3034.844362,10658.965565
713.728248,-2068.457845,-3552.988522,12065.356855
713.728563,-2834.553343,-2812.782580,12583.501014
713.728879,-2681.334243,-592.164754,11695.253884
713.729194,-2528.115143,666.185348,11325.150913
713.729510,-1532.190996,962.267725,10362.883188
713.729826,-766.095498,666.185348,9474.636058
713.730141,306.438199,-0.000000,8438.347739
713.730457,1915.238745,-444.123565,7772.162391
713.730773,2681.334243,-518.144159,7328.038826
713.731088,2987.772442,962.267725,6291.750507
713.731404,3370.820191,1258.350101,6143.709319
713.731719,3064.381992,-148.041188,7772.162391
713.732035,1762.019645,-2516.700203,9326.594869
713.732351,76.609550,-2664.741391,10066.800811
713.732666,-1302.362347,-3034.844362,11325.150913
713.732982,-2451.505594,-2812.782580,12287.418637
713.733297,-2145.067394,-1184.329507,12139.377449
713.733613,-1915.238745,592.164754,11547.212695
713.733929,-995.924147,1554.432478,11029.068536
713.734244,-153.219100,1850.514855,9918.759623
713.734560,1149.143247,1184.329507,8660.409521
713.734875,1915.238745,592.164754,8216.285956
713.735191,2757.943793,-296.082377,7846.182985
713.735507,3447.429741,444.123565,7031.956449
713.735822,3370.820191,2146.597232,6291.750507
713.736138,3370.820191,1850.514855,7476.080014
713.736453,2757.943793,148.041188,8216.285956
713.736769,1225.752797,-1110.308913,9696.697840
713.737085,-612.876398,-2146.597232,11103.089130
713.737400,-1532.190996,-3108.864956,12435.459826
713.737716,-1762.019645,-2072.576638,12731.542202
713.738031,-2068.457845,-0.000000,12287.418637
713.738347,-1838.629195,1480.411884,11769.274478
713.738663,-766.095498,1998.556043,11177.109724
713.738978,76.609550,2294.638420,9548.656652
713.739294,306.438199,1776.494261,8956.491898
713.739609,1838.629195,740.205942,8364.327145
713.739925,3140.991542,740.205942,7179.997637
713.740241,3294.210641,1702.473667,6809.894666
713.740556,3677.258390,2146.597232,6809.894666
713.740872,3294.210641,740.205942,7698.141797
713.741188,2298.286494,-962.267725,8734.430116
713.741503,306.438199,-2294.638420,9844.739029
713.741819,-1532.190996,-3478.967927,11103.089130
713.742134,-2604.724693,-3775.050304,12879.583391
713.742450,-2834.553343,-2146.597232,12879.583391
713.742766,-2911.162892,-148.041188,11991.336260
713.743081,-2451.505594,1480.411884,11325.150913
713.743397,-1455.581446,1702.473667,10288.862594
713.743712,-1149.143247,1036.288319,9326.594869
713.744028,612.876398,296.082377,8438.347739
713.744344,1685.410096,-888.247130,7920.203579
713.744659,2528.115143,-1110.308913,6957.935855
713.744975,2834.553343,-0.000000,6957.935855
713.745290,3217.601092,962.267725,6291.750507
713.745606,3064.381992,-0.000000,7179.997637
713.745922,1762.019645,-1184.329507,8142.265362
713.746237,0.000000,-2294.638420,10066.800811
713.746553,-1455.581446,-2738.761985,11473.192101
713.746868,-2221.676944,-2960.823768,12065.356855
713.747184,-2374.896044,-1850.514855,12435.459826
713.747500,-2451.505594,-0.000000,11473.192101
713.747815,-1685.410096,1110.308913,11103.089130
713.748131,-995.924147,1110.308913,10140.821405
713.748446,0.000000,592.164754,9252.574275
713.748762,1302.362347,222.061783,7994.224174
713.749078,2298.286494,-592.164754,7105.977043
713.749393,3140.991542,592.164754,6587.832884
713.749709,3294.210641,2294.638420,5847.626942
713.750025,3524.039291,1554.432478,5773.606348
713.750340,3217.601092,296.082377,7698.141797
713.750656,1302.362347,-1184.329507,9178.553681
713.750971,-612.876398,-2368.659014,10658.965565
713.751287,-1915.238745,-3034.844362,11621.233289
713.751603,-2145.067394,-2442.679609,12731.542202
713.751918,-2451.505594,-1110.308913,12509.480420
713.752234,-2374.896044,814.226536,11621.233289
713.752549,-1608.800546,1850.514855,11029.068536
713.752865,-766.095498,1406.391290,9844.739029
713.753181,0.000000,1184.329507,9252.574275
713.753496,1378.971896,888.247130,7994.224174
713.753812,2528.115143,444.123565,7402.059420
713.754127,2987.772442,1480.411884,6291.750507
713.754443,3140.991542,1998.556043,6217.729913
713.754759,3294.210641,1110.308913,7031.956449
713.755074,2604.724693,-296.082377,8586.388927
713.755390,689.485948,-1554.432478,9918.759623
713.755705,-1378.971896,-2590.720797,11325.150913
713.756021,-1838.629195,-2368.659014,11991.336260
713.756337,-2221.676944,-1258.350101,13323.706956
713.756652,-2068.457845,444.123565,12287.418637
713.756968,-1532.190996,2072.576638,11325.150913
713.757283,-612.876398,2442.679609,10955.047942
713.757599,76.609550,1628.453072,9400.615463
713.757915,842.705048,1258.350101,8882.471304
713.758230,2451.505594,814.226536,8216.285956
713.758546,3064.381992,740.205942,7328.038826
713.758862,3217.601092,1702.473667,6957.935855
713.759177,3524.039291,2220.617826,6735.874072
713.759493,3370.820191,666.185348,7550.100608
713.759808,2221.676944,-1036.288319,9400.615463
713.760124,459.657299,-2072.576638,10807.006753
713.760440,-1532.190996,-2368.659014,11695.253884
713.760755,-1608.800546,-1924.535449,12657.521608
713.761071,-2221.676944,-1110.308913,13101.645173
713.761386,-2298.286494,888.247130,12213.398043
713.761702,-1685.410096,1850.514855,11473.192101
713.762018,-1072.533697,1480.411884,10658.965565
713.762333,-153.219100,888.247130,9622.677246
713.762649,995.924147,296.082377,8956.491898
713.762964,2145.067394,-370.102971,7846.182985
713.763280,2911.162892,370.102971,6809.894666
713.763596,2604.724693,1110.308913,6143.709319
713.763911,3064.381992,666.185348,6735.874072
713.764227,2528.115143,-518.144159,7994.224174
713.764542,1072.533697,-2220.617826,9030.512492
713.764858,-689.485948,-3182.885551,10436.903782
713.765174,-1762.019645,-3627.009116,11251.130318
713.765489,-2374.896044,-3256.906145,12731.542202
713.765805,-2528.115143,-1776.494261,12361.439231
713.766120,-2604.724693,-370.102971,11473.192101
713.766436,-1762.019645,370.102971,10362.883188
713.766752,-1225.752797,296.082377,9104.533087
713.767067,-153.219100,-222.061783,8808.450710
713.767383,919.314598,-740.205942,7920.203579
713.767698,2451.505594,-1554.432478,6957.935855
713.768014,2911.162892,-296.082377,6143.709319
713.768330,2681.334243,962.267725,5329.482782
713.768645,2987.772442,-0.000000,5921.647536
713.768961,2298.286494,-1406.391290,7920.203579
713.769277,459.657299,-2960.823768,9770.718434
713.769592,-1149.143247,-4145.153275,10362.883188
713.769908,-1991.848295,-3701.029710,11843.295072
713.770223,-2451.505594,-2812.782580,12509.480420
713.770539,-2221.676944,-1480.411884,12583.501014
713.770855,-1838.629195,814.226536,11029.068536
713.771170,-919.314598,1776.494261,10510.924376
713.771486,459.657299,1554.432478,9474.636058
713.771801,1302.362347,1184.329507,7698.141797
713.772117,2528.115143,296.082377,6957.935855
713.772433,3140.991542,-0.000000,6587.832884
713.772748,3294.210641,1258.350101,6291.750507
713.773064,3064.381992,1480.411884,6217.729913
713.773379,3064.381992,148.041188,7179.997637
713.773695,1532.190996,-1702.473667,9104.533087
713.774011,0.000000,-2590.720797,10658.965565
713.774326,-1762.019645,-3182.885551,11769.274478
713.774642,-2451.505594,-2590.720797,12879.583391
713.774958,-3140.991542,-1480.411884,13175.665768
713.775273,-2757.943793,222.061783,12213.398043
713.775589,-2145.067394,1628.453072,11621.233289
713.775904,-1225.752797,1480.411884,10732.986159
713.776220,-153.219100,1258.350101,9104.533087
713.776536,459.657299,888.247130,8586.388927
713.776851,2221.676944,-0.000000,7846.182985
713.777167,2911.162892,518.144159,7105.977043
713.777483,3064.381992,2072.576638,5995.668130
713.777798,2987.772442,1776.494261,5921.647536
713.778114,2681.334243,-0.000000,8216.285956
713.778429,1378.971896,-1628.453072,9770.718434
713.778745,-766.095498,-2516.700203,10658.965565
713.779061,-2221.676944,-3404.947333,12213.398043
713.779376,-2451.505594,-2738.761985,13619.789333
713.779692,-2604.724693,-1036.288319,13027.624579
713.780007,-2451.505594,592.164754,11917.315666
713.780323,-1762.019645,1702.473667,11399.171507
713.780639,-689.485948,1998.556043,10288.862594
713.780954,383.047749,1776.494261,8882.471304
713.781270,2145.067394,888.247130,7920.203579
713.781586,3370.820191,148.041188,7550.100608
713.781901,3600.648841,1332.370696,6291.750507
713.782217,3753.867940,2368.659014,5625.565159
713.782532,3983.696590,1850.514855,6513.812290
713.782848,2834.553343,-0.000000,8586.388927
713.783164,1302.362347,-1628.453072,9844.739029
713.783479,-306.438199,-2368.659014,10955.047942
713.783795,-1455.581446,-2516.700203,12435.459826
713.784111,-1915.238745,-1850.514855,12953.603985
713.784426,-1685.410096,-296.082377,11843.295072
713.784742,-1762.019645,1924.535449,11769.274478
713.785057,-919.314598,2516.700203,11029.068536
713.785373,153.219100,2738.761985,9474.636058
713.785689,1072.533697,1554.432478,8512.368333
713.786004,2834.553343,-0.000000,8068.244768
713.786320,3753.867940,-0.000000,6439.791695
713.786635,3447.429741,962.267725,6217.729913
713.786951,3830.477490,1924.535449,6143.709319
713.787267,3600.648841,740.205942,6957.935855
713.787582,2451.505594,-888.247130,8956.491898
713.787898,383.047749,-2368.659014,9844.739029
713.788214,-1608.800546,-3256.906145,11251.130318
713.788529,-2298.286494,-3404.947333,12657.521608
713.788845,-2528.115143,-2368.659014,12731.542202
713.789160,-2757.943793,-444.123565,12583.501014
713.789476,-2221.676944,1110.308913,11473.192101
713.789792,-1455.581446,1554.432478,9696.697840
713.790107,-229.828649,888.247130,9178.553681
713.790423,919.314598,-518.144159,8586.388927
713.790739,1991.848295,-814.226536,7179.997637
713.791054,2681.334243,-518.144159,6513.812290
713.791370,3140.991542,962.267725,6069.688724
713.791685,3064.381992,1480.411884,5551.544565
713.792001,2911.162892,-296.082377,6957.935855
713.792317,1072.533697,-2590.720797,8882.471304
713.792632,-689.485948,-3552.988522,10214.842000
713.792948,-2145.067394,-3627.009116,11177.109724
713.793263,-2451.505594,-3330.926739,12435.459826
713.793579,-2451.505594,-1628.453072,13249.686362
713.793895,-2604.724693,666.185348,12361.439231
713.794210,-1991.848295,1850.514855,11029.068536
713.794526,-1072.533697,2146.597232,9918.759623
713.794842,76.609550,1110.308913,9696.697840
713.795157,1608.800546,222.061783,8438.347739
713.795473,2681.334243,148.041188,7105.977043
713.795788,3447.429741,1332.370696,6143.709319
713.796104,3600.648841,2442.679609,6217.729913
713.796420,3600.648841,2294.638420,5995.668130
713.796735,2374.896044,-222.061783,8142.265362
713.797051,689.485948,-1628.453072,10362.883188
713.797366,-1302.362347,-3034.844362,10955.047942
713.797682,-2451.505594,-3108.864956,12361.439231
713.797998,-3217.601092,-2516.700203,13397.727550
713.798313,-2834.553343,-814.226536,13471.748144
713.798629,-2604.724693,888.247130,12657.521608
713.798945,-1685.410096,1998.556043,11029.068536
713.799260,-459.657299,1924.535449,10066.800811
713.799576,766.095498,962.267725,8882.471304
713.799891,2221.676944,-0.000000,7920.203579
713.800207,3370.820191,-296.082377,6883.915261
713.800523,3677.258390,1110.308913,5921.647536
713.800838,3830.477490,2442.679609,5107.421000
713.801154,3753.867940,1332.370696,6439.791695
713.801470,2451.505594,-1184.329507,8512.368333
713.801785,306.438199,-2368.659014,9770.718434
713.802101,-1455.581446,-3330.926739,10658.965565
713.802416,-2145.067394,-3404.947333,12361.439231
713.802732,-2451.505594,-2516.700203,13471.748144
713.803048,-3140.991542,-666.185348,12731.542202
713.803363,-2681.334243,962.267725,12509.480420
713.803679,-1532.190996,2294.638420,10807.006753
713.803994,-383.047749,1998.556043,9326.594869
713.804310,919.314598,666.185348,9326.594869
713.804626,2604.724693,-518.144159,8216.285956
713.804941,3524.039291,666.185348,6661.853478
713.805257,4136.915689,2812.782580,5699.585753
713.805573,4596.572988,2738.761985,4959.379811
713.805888,4366.744339,2072.576638,7105.977043
713.806204,2681.334243,222.061783,8734.430116
713.806519,612.876398,-1628.453072,9918.759623
713.806835,-612.876398,-2442.679609,11843.295072
713.807151,-1455.581446,-1998.556043,12509.480420
713.807466,-1915.238745,-888.247130,12583.501014
713.807782,-1915.238745,1036.288319,12509.480420
713.808098,-1302.362347,2146.597232,11991.336260
713.808413,-459.657299,2368.659014,10436.903782
713.808729,0.000000,1924.535449,9326.594869
713.809044,842.705048,222.061783,8882.471304
713.809360,2221.676944,-370.102971,7328.038826
713.809676,3064.381992,-0.000000,7179.997637
713.809991,3600.648841,2072.576638,6143.709319
713.810307,3370.820191,2072.576638,5699.585753
713.810622,2911.162892,148.041188,7254.018232
713.810938,1685.410096,-2072.576638,9696.697840
713.811254,-766.095498,-3330.926739,10584.944971
713.811569,-1685.410096,-3997.112087,11769.274478
713.811885,-2528.115143,-3330.926739,13175.665768
713.812201,-2681.334243,-1554.432478,13175.665768
713.812516,-2221.676944,-0.000000,12213.398043
713.812832,-1915.238745,1480.411884,10732.986159
713.813147,-1302.362347,1554.432478,10214.842000
713.813463,-383.047749,-222.061783,8660.409521
713.813779,995.924147,-370.102971,7624.121203
713.814094,2298.286494,-1850.514855,7254.018232
713.814410,2757.943793,-518.144159,6883.915261
713.814726,2451.505594,1406.391290,5551.544565
713.815041,2757.943793,-296.082377,6365.771101
713.815357,2221.676944,-1554.432478,8956.491898
713.815672,-306.438199,-2590.720797,9548.656652
713.815988,-1915.238745,-3478.967927,10955.047942
713.816304,-2068.457845,-3923.091493,12139.377449
713.816619,-2987.772442,-2960.823768,12805.562797
713.816935,-2528.115143,-1036.288319,12879.583391
713.817250,-2451.505594,666.185348,11399.171507
713.817566,-1225.752797,1332.370696,11029.068536
713.817882,0.000000,666.185348,10288.862594
713.818197,995.924147,370.102971,7994.224174
713.818513,2298.286494,-222.061783,7328.038826
713.818829,3140.991542,-74.020594,6661.853478
713.819144,3524.039291,1036.288319,5625.565159
713.819460,4213.525239,1998.556043,5181.441594
713.819775,3830.477490,666.185348,6735.874072
713.820091,2451.505594,-1406.391290,8734.430116
713.820407,0.000000,-3034.844362,10066.800811
713.820722,-1149.143247,-4071.132681,11843.295072
713.821038,-2451.505594,-3552.988522,12731.542202
713.821354,-3064.381992,-2516.700203,13471.748144
713.821669,-2681.334243,-0.000000,12213.398043
713.821985,-2451.505594,1406.391290,11621.233289
713.822300,-995.924147,1628.453072,10658.965565
713.822616,-536.266849,1110.308913,9178.553681
713.822932,842.705048,444.123565,8438.347739
713.823247,2374.896044,-518.144159,7402.059420
713.823563,3064.381992,-0.000000,6291.750507
713.823878,3217.601092,1702.473667,5995.668130
713.824194,3907.087040,1406.391290,6513.812290
713.824510,3753.867940,-0.000000,7698.141797
713.824825,1838.629195,-1850.514855,9104.533087
713.825141,76.609550,-2590.720797,10658.965565
713.825457,-995.924147,-3034.844362,11473.192101
713.825772,-1915.238745,-2368.659014,12361.439231
713.826088,-1991.848295,-814.226536,13027.624579
713.826403,-1991.848295,1184.329507,11547.212695
713.826719,-1685.410096,1924.535449,10955.047942
713.827035,-919.314598,1776.494261,10881.027347
713.827350,229.828649,1184.329507,9474.636058
713.827666,1685.410096,-0.000000,8586.388927
713.827982,2451.505594,-0.000000,7920.203579
713.828297,2834.553343,962.267725,6957.935855
713.828613,3370.820191,2738.761985,6069.688724
713.828928,3600.648841,2146.597232,6143.709319
713.829244,2987.772442,370.102971,8290.306550
713.829560,1455.581446,-1036.288319,9844.739029
713.829875,76.609550,-2146.597232,10732.986159
713.830191,-1532.190996,-2368.659014,12139.377449
713.830506,-2068.457845,-1776.494261,13027.624579
713.830822,-1685.410096,-0.000000,12435.459826
713.831138,-1762.019645,2220.617826,11547.212695
713.831453,-1378.971896,2368.659014,11399.171507
713.831769,-229.828649,2220.617826,10214.842000
713.832085,459.657299,1628.453072,9178.553681
713.832400,1762.019645,740.205942,7994.224174
713.832716,2834.553343,444.123565,7254.018232
713.833031,3370.820191,1850.514855,6217.729913
713.833347,3370.820191,2368.659014,6143.709319
713.833663,3677.258390,1480.411884,7179.997637
713.833978,1991.848295,-888.247130,8512.368333
713.834294,-76.609550,-1924.535449,9844.739029
713.834610,-1915.238745,-3108.864956,11991.336260
713.834925,-2528.115143,-3552.988522,12287.418637
713.835241,-2987.772442,-2368.659014,13027.624579
713.835556,-3217.601092,-148.041188,12139.377449
713.835872,-2528.115143,1036.288319,11621.233289
713.836188,-1532.190996,1258.350101,10066.800811
713.836503,-153.219100,592.164754,9474.636058
713.836819,612.876398,148.041188,8512.368333
713.837134,2681.334243,-0.000000,7179.997637
713.837450,2757.943793,-222.061783,6587.832884
713.837766,3294.210641,1036.288319,6143.709319
713.838081,3217.601092,1406.391290,5699.585753
713.838397,2528.115143,-222.061783,7105.977043
713.838713,1685.410096,-1776.494261,9400.615463
713.839028,-536.266849,-2738.761985,10140.821405
713.839344,-2068.457845,-3256.906145,11473.192101
713.839659,-2374.896044,-2812.782580,12657.521608
713.839975,-2451.505594,-1850.514855,12287.418637
713.840291,-2145.067394,962.267725,12213.398043
713.840606,-1302.362347,1924.535449,11177.109724
713.840922,-383.047749,1480.411884,9992.780217
713.841237,766.095498,1258.350101,9252.574275
713.841553,1685.410096,740.205942,7846.182985
713.841869,3064.381992,222.061783,7476.080014
713.842184,3830.477490,1480.411884,6661.853478
713.842500,3677.258390,2442.679609,5625.565159
713.842816,3907.087040,1480.411884,6661.853478
713.843131,3294.210641,-370.102971,8142.265362
713.843447,1302.362347,-2072.576638,10214.842000
713.843762,-689.485948,-2442.679609,10955.047942
713.844078,-1762.019645,-3108.864956,11917.315666
713.844394,-2145.067394,-2294.638420,12879.583391
713.844709,-2374.896044,-444.123565,12435.459826
713.845025,-2145.067394,666.185348,11769.274478
713.845341,-1455.581446,1110.308913,11251.130318
713.845656,-459.657299,1258.350101,9992.780217
713.845972,306.438199,296.082377,9104.533087
713.846287,1838.629195,-1110.308913,7920.203579
713.846603,2987.772442,-518.144159,7179.997637
713.846919,3447.429741,962.267725,6143.709319
713.847234,3370.820191,2072.576638,5699.585753
713.847550,3370.820191,370.102971,7179.997637
713.847865,2451.505594,-1480.411884,8882.471304
713.848181,229.828649,-2516.700203,9770.718434
713.848497,-1378.971896,-3701.029710,11695.253884
713.848812,-1991.848295,-3478.967927,12287.418637
713.849128,-2528.115143,-2072.576638,12435.459826
713.849444,-2681.334243,-518.144159,12435.459826
713.849759,-1991.848295,888.247130,11843.295072
713.850075,-919.314598,1258.350101,10658.965565
713.850390,-229.828649,1110.308913,9178.553681
713.850706,536.266849,370.102971,8660.409521
713.851022,2221.676944,-222.061783,7698.141797
713.851337,3140.991542,-0.000000,7105.977043
713.851653,3370.820191,1998.556043,6291.750507
713.851969,3447.429741,2442.679609,6069.688724
713.852284,3370.820191,740.205942,7031.956449
713.852600,1838.629195,-592.164754,9400.615463
713.852915,0.000000,-2146.597232,10658.965565
713.853231,-1302.362347,-2516.700203,11621.233289
713.853547,-1991.848295,-1998.556043,12435.459826
713.853862,-2068.457845,-1036.288319,12139.377449
713.854178,-2374.896044,1258.350101,12065.356855
713.854493,-1685.410096,2294.638420,11843.295072
713.854809,-766.095498,2072.576638,10214.842000
713.855125,0.000000,1850.514855,9104.533087
713.855440,766.095498,666.185348,8290.306550
713.855756,2221.676944,518.144159,6883.915261
713.856072,2834.553343,888.247130,6809.894666
713.856387,2757.943793,1332.370696,6809.894666
713.856703,3064.381992,1110.308913,7105.977043
713.857018,2681.334243,-592.164754,8438.347739
713.857334,766.095498,-1850.514855,9326.594869
713.857650,-536.266849,-2738.761985,10510.924376
713.857965,-1608.800546,-3256.906145,11695.253884
713.858281,-1915.238745,-2442.679609,12139.377449
713.858597,-2298.286494,-518.144159,11547.212695
713.858912,-1762.019645,1184.329507,11473.192101
713.859228,-1302.362347,1480.411884,10510.924376
713.859543,-689.485948,1036.288319,9474.636058
713.859859,0.000000,296.082377,8512.368333
713.860175,995.924147,-444.123565,8290.306550
713.860490,1685.410096,-1184.329507,7772.162391
713.860806,2298.286494,-592.164754,7328.038826
713.861121,2451.505594,592.164754,6809.894666
713.861437,2374.896044,-0.000000,7402.059420
713.861753,2145.067394,-1258.350101,8956.491898
713.862068,612.876398,-2368.659014,9474.636058
713.862384,-919.314598,-2442.679609,10732.986159
713.862700,-1378.971896,-2590.720797,12139.377449
713.863015,-1608.800546,-1480.411884,12287.418637
713.863331,-1838.629195,370.102971,11251.130318
713.863646,-1302.362347,1110.308913,10807.006753
713.863962,-306.438199,1184.329507,10584.944971
713.864278,459.657299,888.247130,9474.636058
713.864593,1149.143247,-0.000000,8364.327145
713.864909,1991.848295,-666.185348,8364.327145
713.865225,2604.724693,-444.123565,7772.162391
713.865540,2451.505594,1332.370696,6735.874072
713.865856,3140.991542,1332.370696,6809.894666
713.866171,2987.772442,-74.020594,8364.327145
713.866487,1915.238745,-1406.391290,9400.615463
713.866803,-153.219100,-2590.720797,9844.739029
713.867118,-1072.533697,-3256.906145,11029.068536
713.867434,-1915.238745,-3108.864956,12879.583391
713.867749,-2374.896044,-1702.473667,12139.377449
713.868065,-2451.505594,370.102971,11325.150913
713.868381,-1685.410096,962.267725,11103.089130
713.868696,-612.876398,1480.411884,10140.821405
713.869012,76.609550,740.205942,8808.450710
713.869328,919.314598,-0.000000,7920.203579
713.869643,2068.457845,-370.102971,7698.141797
713.869959,2757.943793,222.061783,6809.894666
713.870274,2834.553343,1406.391290,6587.832884
713.870590,2834.553343,888.247130,6883.915261
713.870906,2528.115143,-814.226536,8142.265362
713.871221,1225.752797,-1850.514855,9474.636058
713.871537,-306.438199,-2738.761985,10732.986159
713.871853,-1991.848295,-3108.864956,11621.233289
713.872168,-2221.676944,-2072.576638,12435.459826
713.872484,-2068.457845,-74.020594,11917.315666
713.872799,-1685.410096,1332.370696,11177.109724
713.873115,-1072.533697,1702.473667,10510.924376
713.873431,-306.438199,1184.329507,9770.718434
713.873747,229.828649,592.164754,8956.491898
713.874063,1532.190996,148.041188,8068.244768
713.874378,2374.896044,-74.020594,7624.121203
713.874694,3140.991542,962.267725,6735.874072
713.875010,2528.115143,2072.576638,6217.729913
713.875326,3370.820191,962.267725,7105.977043
713.875641,2374.896044,-444.123565,8808.450710
713.875957,459.657299,-1184.329507,10288.862594
713.876273,-766.095498,-2664.741391,10807.006753
713.876589,-1149.143247,-2294.638420,12213.398043
713.876905,-2298.286494,-518.144159,12213.398043
713.877220,-1838.629195,518.144159,12065.356855
713.877536,-766.095498,1480.411884,11029.068536
713.877852,-842.705048,1924.535449,10584.944971
713.878168,-612.876398,1776.494261,9696.697840
713.878484,1072.533697,1036.288319,8808.450710
713.878799,1685.410096,666.185348,7994.224174
713.879115,2757.943793,1110.308913,7105.977043
713.879431,2681.334243,2368.659014,6661.853478
713.879747,3217.601092,2590.720797,5921.647536
713.880063,2911.162892,814.226536,7328.038826
713.880378,1532.190996,-1406.391290,9548.656652
713.880694,0.000000,-2664.741391,10584.944971
713.881010,-1225.752797,-3034.844362,11621.233289
713.881326,-1532.190996,-2294.638420,12657.521608
713.881642,-2374.896044,-888.247130,12509.480420
713.881957,-1455.581446,740.205942,11843.295072
713.882273,-1455.581446,2072.576638,10881.027347
713.882589,-1991.848295,1554.432478,9622.677246
713.882905,-229.828649,888.247130,9326.594869
713.883220,842.705048,-0.000000,8660.409521
713.883536,2068.457845,-518.144159,7476.080014
713.883852,2681.334243,-0.000000,7105.977043
713.884168,2604.724693,888.247130,6513.812290
713.884484,2987.772442,888.247130,6513.812290
713.884799,2604.724693,-1110.308913,7476.080014
713.885115,1532.190996,-2072.576638,9474.636058
713.885431,-383.047749,-2738.761985,10140.821405
713.885747,-1762.019645,-3404.947333,11843.295072
713.886063,-1915.238745,-2516.700203,13027.624579
713.886378,-2221.676944,-740.205942,11991.336260
713.886694,-1685.410096,666.185348,11251.130318
713.887010,-1378.971896,1258.350101,10658.965565
713.887326,-459.657299,1110.308913,10140.821405
713.887642,536.266849,666.185348,8734.430116
713.887957,1225.752797,-0.000000,7846.182985
713.888273,2451.505594,-0.000000,7920.203579
713.888589,2834.553343,-0.000000,7105.977043
713.888905,2987.772442,1850.514855,6513.812290
713.889220,2681.334243,1258.350101,6735.874072
713.889536,2298.286494,-1184.329507,8882.471304
713.889852,766.095498,-2368.659014,9918.759623
713.890168,-1378.971896,-2738.761985,10584.944971
713.890484,-1455.581446,-2960.823768,12213.398043
713.890799,-1838.629195,-1628.453072,12287.418637
713.891115,-1915.238745,-148.041188,11103.089130
713.891431,-1532.190996,1110.308913,11325.150913
713.891747,-459.657299,1184.329507,10214.842000
713.892063,0.000000,1258.350101,9622.677246
713.892378,383.047749,740.205942,8512.368333
713.892694,1685.410096,-740.205942,7328.038826
713.893010,2834.553343,-740.205942,7105.977043
713.893326,2911.162892,888.247130,6291.750507
713.893642,2987.772442,1184.329507,5921.647536
713.893957,3217.601092,-0.000000,7772.162391
713.894273,1762.019645,-1554.432478,8882.471304
713.894589,0.000000,-2368.659014,9400.615463
713.894905,-1455.581446,-2812.782580,11399.171507
713.895221,-2145.067394,-2886.803174,12361.439231
713.895536,-2681.334243,-1776.494261,12139.377449
713.895852,-2374.896044,-0.000000,11917.315666
713.896168,-1915.238745,962.267725,11547.212695
713.896484,-842.705048,1258.350101,10510.924376
713.896799,153.219100,1332.370696,9178.553681
713.897115,1072.533697,592.164754,8290.306550
713.897431,1991.848295,222.061783,7550.100608
713.897747,2681.334243,296.082377,6883.915261
713.898063,2681.334243,1628.453072,6291.750507
713.898378,3294.210641,1702.473667,7105.977043
713.898694,2911.162892,370.102971,7920.203579
713.899010,1762.019645,-666.185348,9252.574275
713.899326,-536.266849,-1924.535449,10807.006753
713.899642,-1455.581446,-2516.700203,12065.356855
713.899957,-1838.629195,-1998.556043,12509.480420
713.900273,-2221.676944,-370.102971,12213.398043
713.900589,-1991.848295,1184.329507,11917.315666
713.900905,-1149.143247,1480.411884,11769.274478
713.901221,-153.219100,1554.432478,10140.821405
713.901536,229.828649,1776.494261,9178.553681
713.901852,1685.410096,740.205942,8216.285956
713.902168,2681.334243,148.041188,7105.977043
713.902484,2834.553343,1332.370696,6735.874072
713.902799,2757.943793,1776.494261,6587.832884
713.903115,2987.772442,592.164754,7550.100608
713.903431,2374.896044,-592.164754,8512.368333
713.903747,612.876398,-1998.556043,9770.718434
713.904063,0.000000,-2886.803174,11103.089130
713.904378,-1149.143247,-2738.761985,11843.295072
713.904694,-1915.238745,-1702.473667,12139.377449
713.905010,-1915.238745,-0.000000,12139.377449
713.905326,-1455.581446,222.061783,11621.233289
713.905642,-995.924147,1258.350101,11251.130318
713.905957,-306.438199,1036.288319,9992.780217
713.906273,229.828649,370.102971,8734.430116
713.906589,1608.800546,-0.000000,7772.162391
713.906905,2528.115143,-296.082377,7031.956449
713.907221,2911.162892,1036.288319,6587.832884
713.907536,2834.553343,1702.473667,5921.647536
713.907852,2911.162892,666.185348,6513.812290
713.908168,2068.457845,-1258.350101,8586.388927
713.908484,153.219100,-2886.803174,9992.780217
713.908800,-1455.581446,-3627.009116,11843.295072
713.909115,-2221.676944,-3330.926739,12361.439231
713.909431,-2528.115143,-2220.617826,13323.706956
713.909747,-2528.115143,-296.082377,12287.418637
713.910063,-1915.238745,962.267725,11621.233289
713.910378,-612.876398,1628.453072,10436.903782
713.910694,153.219100,962.267725,9548.656652
713.911010,1149.143247,444.123565,8068.244768
713.911326,2374.896044,-0.000000,6439.791695
713.911642,3140.991542,222.061783,6661.853478
713.911957,3370.820191,1184.329507,6439.791695
713.912273,3064.381992,1184.329507,5847.626942
713.912589,2834.553343,-74.020594,7624.121203
713.912905,612.876398,-2220.617826,9178.553681
713.913221,-1225.752797,-3256.906145,10288.862594
713.913536,-2145.067394,-3923.091493,12361.439231
713.913852,-2757.943793,-3478.967927,13101.645173
713.914168,-3064.381992,-1628.453072,12805.562797
713.914484,-2604.724693,592.164754,11547.212695
713.914800,-1991.848295,888.247130,10881.027347
713.915115,-919.314598,1110.308913,9844.739029
713.915431,-153.219100,814.226536,8734.430116
713.915747,1225.752797,592.164754,7476.080014
713.916063,2451.505594,-592.164754,7550.100608
713.916378,2987.772442,148.041188,6661.853478
713.916694,2987.772442,1924.535449,5477.523971
713.917010,2911.162892,1406.391290,5995.668130
713.917326,2451.505594,-888.247130,7920.203579
713.917642,612.876398,-2072.576638,9548.656652
713.917957,-1149.143247,-3256.906145,10510.924376
713.918273,-1991.848295,-3923.091493,12287.418637
713.918589,-2604.724693,-2812.782580,13397.727550
713.918905,-2681.334243,-1036.288319,12435.459826
713.919221,-2068.457845,962.267725,11843.295072
713.919536,-919.314598,1924.535449,11029.068536
713.919852,-76.609550,2294.638420,9548.656652
713.920168,1378.971896,1628.453072,8290.306550
713.920484,2528.115143,666.185348,7328.038826
713.920800,3447.429741,-0.000000,7105.977043
713.921115,3907.087040,1258.350101,6587.832884
713.921431,3447.429741,1850.514855,5995.668130
713.921747,3830.477490,740.205942,7550.100608
713.922063,2987.772442,-222.061783,9474.636058
713.922379,766.095498,-1258.350101,9696.697840
713.922694,-1149.143247,-2294.638420,11325.150913
713.923010,-1378.971896,-2368.659014,12657.521608
713.923326,-1685.410096,-1258.350101,13175.665768
713.923642,-1991.848295,592.164754,13175.665768
713.923957,-1532.190996,2368.659014,11547.212695
713.924273,-612.876398,2442.679609,10658.965565
713.924589,153.219100,2072.576638,9918.759623
713.924905,1149.143247,1184.329507,9030.512492
713.925221,1838.629195,740.205942,7624.121203
713.925536,2834.553343,592.164754,7476.080014
713.925852,2911.162892,1776.494261,6587.832884
713.926168,3447.429741,1998.556043,6735.874072
713.926484,3524.039291,888.247130,7476.080014
713.926800,1608.800546,-814.226536,9474.636058
713.927115,0.000000,-1850.514855,10807.006753
713.927431,-1455.581446,-2812.782580,11473.192101
713.927747,-1991.848295,-2442.679609,12509.480420
713.928063,-2528.115143,-1332.370696,13175.665768
713.928379,-2374.896044,222.061783,11917.315666
713.928694,-1685.410096,1480.411884,11177.109724
713.929010,-689.485948,1924.535449,10140.821405
713.929326,0.000000,1036.288319,8660.409521
713.929642,1378.971896,-518.144159,8290.306550
713.929957,2451.505594,-1036.288319,7476.080014
713.930273,2681.334243,-0.000000,6365.771101
713.930589,3064.381992,1480.411884,6069.688724
713.930905,3447.429741,740.205942,5921.647536
713.931221,2298.286494,-962.267725,8068.244768
713.931536,1302.362347,-2738.761985,9548.656652
713.931852,-612.876398,-3923.091493,10066.800811
713.932168,-1762.019645,-3552.988522,11695.253884
713.932484,-2451.505594,-2516.700203,12435.459826
713.932800,-2528.115143,-1332.370696,12213.398043
713.933115,-1762.019645,592.164754,11399.171507
713.933431,-1072.533697,1406.391290,10362.883188
713.933747,-306.438199,1480.411884,9770.718434
713.934063,229.828649,370.102971,8956.491898
713.934379,2068.457845,-222.061783,7624.121203
713.934694,2604.724693,-74.020594,6957.935855
713.935010,2834.553343,592.164754,6513.812290
713.935326,2987.772442,2072.576638,5625.565159
713.935642,2911.162892,592.164754,6957.935855
713.935958,1991.848295,-888.247130,8438.347739
713.936273,-153.219100,-2516.700203,9844.739029
713.936589,-1608.800546,-3256.906145,11547.212695
713.936905,-2451.505594,-2960.823768,12435.459826
713.937221,-2987.772442,-1776.494261,13027.624579
713.937536,-2451.505594,-0.000000,11695.253884
713.937852,-2451.505594,962.267725,11473.192101
713.938168,-1532.190996,1110.308913,11325.150913
713.938484,-766.095498,888.247130,9548.656652
713.938800,612.876398,296.082377,8216.285956
713.939115,1532.190996,-296.082377,7550.100608
713.939431,2451.505594,-74.020594,6809.894666
713.939747,2757.943793,814.226536,6143.709319
713.940063,3294.210641,1110.308913,6217.729913
713.940379,3064.381992,370.102971,7328.038826
713.940694,1455.581446,-2368.659014,9178.553681
713.941010,-76.609550,-3256.906145,10362.883188
713.941326,-1072.533697,-3627.009116,11251.130318
713.941642,-1608.800546,-2812.782580,12287.418637
713.941958,-2145.067394,-1110.308913,12731.542202
713.942273,-2221.676944,518.144159,11991.336260
713.942589,-1608.800546,1258.350101,10881.027347
713.942905,-842.705048,1776.494261,10288.862594
713.943221,229.828649,666.185348,9400.615463
713.943537,1455.581446,444.123565,8660.409521
713.943852,2374.896044,-74.020594,7105.977043
713.944168,3294.210641,-0.000000,7105.977043
713.944484,3447.429741,1480.411884,6883.915261
713.944800,3600.648841,2072.576638,6217.729913
713.945115,2911.162892,-0.000000,7920.203579
713.945431,2068.457845,-1036.288319,9918.759623
713.945747,76.609550,-1702.473667,10140.821405
713.946063,-612.876398,-1776.494261,11547.212695
713.946379,-995.924147,-1406.391290,12805.562797
713.946694,-1455.581446,-0.000000,12213.398043
713.947010,-1532.190996,1850.514855,11843.295072
713.947326,-842.705048,1998.556043,11177.109724
713.947642,383.047749,2072.576638,10214.842000
713.947958,536.266849,1554.432478,9474.636058
713.948273,1378.971896,814.226536,8586.388927
713.948589,2681.334243,592.164754,7402.059420
713.948905,3217.601092,1184.329507,7624.121203
713.949221,2757.943793,2590.720797,5995.668130
713.949537,3370.820191,1554.432478,7105.977043
713.949852,2451.505594,-592.164754,8956.491898
713.950168,229.828649,-1554.432478,9770.718434
713.950484,-1072.533697,-2516.700203,11399.171507
713.950800,-2145.067394,-2516.700203,12509.480420
713.951115,-2221.676944,-1332.370696,12731.542202
713.951431,-2221.676944,444.123565,11547.212695
713.951747,-1532.190996,1554.432478,11695.253884
713.952063,-995.924147,1628.453072,10288.862594
713.952379,-229.828649,1702.473667,9474.636058
713.952694,689.485948,666.185348,8512.368333
713.953010,2068.457845,-222.061783,7994.224174
713.953326,2451.505594,-0.000000,6735.874072
713.953642,2528.115143,962.267725,6439.791695
713.953958,2834.553343,1406.391290,6291.750507
713.954273,2911.162892,-0.000000,7105.977043
713.954589,1378.971896,-1554.432478,8882.471304
713.954905,-536.266849,-2516.700203,10510.924376
713.955221,-1915.238745,-3182.885551,11621.233289
713.955537,-2221.676944,-3034.844362,12583.501014
713.955852,-2451.505594,-1924.535449,12583.501014
713.956168,-2451.505594,-296.082377,12361.439231
713.956484,-1685.410096,1036.288319,11251.130318
713.956800,-1225.752797,888.247130,10214.842000
713.957116,0.000000,518.144159,9400.615463
713.957431,1302.362347,-296.082377,8364.327145
713.957747,2374.896044,-0.000000,7105.977043
713.958063,3064.381992,-0.000000,6143.709319
713.958379,3064.381992,1406.391290,6513.812290
713.958694,3370.820191,1036.288319,6439.791695
713.959010,2604.724693,-518.144159,7402.059420
713.959326,995.924147,-1998.556043,9474.636058
713.959642,-1149.143247,-3478.967927,10881.027347
713.959958,-1685.410096,-4145.153275,11621.233289
713.960273,-2757.943793,-2960.823768,12731.542202
713.960589,-3140.991542,-1924.535449,12731.542202
713.960905,-2757.943793,-0.000000,12213.398043
713.961221,-1915.238745,1036.288319,11325.150913
713.961537,-1455.581446,740.205942,9622.677246
713.961852,0.000000,814.226536,8882.471304
713.962168,1302.362347,-74.020594,8216.285956
713.962484,2528.115143,-222.061783,7105.977043
713.962800,2681.334243,370.102971,6513.812290
713.963116,2681.334243,1258.350101,5995.668130
713.963431,3370.820191,296.082377,6957.935855
713.963747,2604.724693,-1554.432478,8364.327145
713.964063,766.095498,-2368.659014,9770.718434
713.964379,-1072.533697,-2516.700203,10510.924376
713.964694,-1685.410096,-2886.803174,11547.212695
713.965010,-1991.848295,-1850.514855,13027.624579
713.965326,-1991.848295,-222.061783,12509.480420
713.965642,-1608.800546,1184.329507,11325.150913
713.965958,-842.705048,1702.473667,10436.903782
713.966273,-459.657299,1258.350101,9326.594869
713.966589,995.924147,222.061783,8364.327145
713.966905,2451.505594,-74.020594,7994.224174
713.967221,3217.601092,-74.020594,7031.956449
713.967537,3524.039291,1110.308913,6957.935855
713.967852,3830.477490,1480.411884,6587.832884
713.968168,3677.258390,296.082377,7476.080014
713.968484,2298.286494,-1480.411884,9252.574275
713.968800,995.924147,-2220.617826,10584.944971
713.969116,-306.438199,-2368.659014,11177.109724
713.969431,-995.924147,-1850.514855,12139.377449
713.969747,-1149.143247,-222.061783,12065.356855
713.970063,-766.095498,1406.391290,11473.192101
713.970379,-536.266849,2368.659014,10881.027347
713.970695,-229.828649,2146.597232,9622.677246
713.971010,612.876398,1998.556043,9178.553681
713.971326,1225.752797,1036.288319,8808.450710
713.971642,2068.457845,370.102971,7624.121203
713.971958,2528.115143,-0.000000,7624.121203
713.972273,2298.286494,1332.370696,7402.059420
713.972589,2298.286494,1184.329507,6809.894666
713.972905,2221.676944,-148.041188,8660.409521
713.973221,459.657299,-1628.453072,10066.800811
713.973537,-766.095498,-1924.535449,10955.047942
713.973852,-1762.019645,-2146.597232,11843.295072
713.974168,-2528.115143,-1850.514855,12583.501014
713.974484,-2528.115143,-0.000000,12509.480420
713.974800,-1838.629195,1332.370696,11547.212695
713.975116,-1149.143247,1924.535449,10658.965565
713.975432,-76.609550,1554.432478,9918.759623
713.975747,766.095498,962.267725,8734.430116
713.976063,2145.067394,296.082377,7624.121203
713.976379,2834.553343,-0.000000,7105.977043
713.976695,2987.772442,1110.308913,6513.812290
713.977011,2757.943793,1776.494261,6513.812290
713.977327,3064.381992,1258.350101,7328.038826
713.977642,1608.800546,-814.226536,8808.450710
713.977958,-459.657299,-2590.720797,10140.821405
713.978274,-2068.457845,-3182.885551,11547.212695
713.978590,-2604.724693,-3627.009116,12657.521608
713.978906,-3064.381992,-2368.659014,13397.727550
713.979222,-2834.553343,-592.164754,12583.501014
713.979537,-1991.848295,666.185348,12065.356855
713.979853,-1532.190996,1184.329507,11029.068536
713.980169,0.000000,1406.391290,9474.636058
713.980485,1072.533697,666.185348,8142.265362
713.980801,2145.067394,370.102971,7328.038826
713.981116,3294.210641,-0.000000,6661.853478
713.981432,3753.867940,1110.308913,6143.709319
713.981748,3294.210641,2072.576638,5329.482782
713.982064,3140.991542,148.041188,7179.997637
713.982380,2068.457845,-1998.556043,8512.368333
713.982696,-306.438199,-2516.700203,9696.697840
713.983011,-1608.800546,-3330.926739,11547.212695
713.983327,-2374.896044,-3552.988522,12805.562797
713.983643,-3217.601092,-2368.659014,13397.727550
713.983959,-3217.601092,-888.247130,12657.521608
713.984275,-2374.896044,-74.020594,11473.192101
713.984591,-1455.581446,592.164754,10584.944971
713.984906,-536.266849,740.205942,8808.450710
713.985222,1072.533697,-0.000000,7920.203579
713.985538,2298.286494,-1110.308913,7254.018232
713.985854,2911.162892,370.102971,6143.709319
713.986170,3140.991542,814.226536,5773.606348
713.986486,3370.820191,666.185348,6439.791695
713.986801,3064.381992,-296.082377,7254.018232
713.987117,1608.800546,-1850.514855,8882.471304
713.987433,229.828649,-2664.741391,10288.862594
713.987749,-842.705048,-3034.844362,11621.233289
713.988065,-1378.971896,-2516.700203,12435.459826
713.988381,-1532.190996,-1554.432478,11769.274478
713.988696,-1302.362347,888.247130,12361.439231
713.989012,-766.095498,1480.411884,10732.986159
713.989328,0.000000,1702.473667,9696.697840
713.989644,995.924147,1258.350101,9030.512492
713.989960,2145.067394,814.226536,7846.182985
713.990276,3140.991542,444.123565,6735.874072
713.990591,3370.820191,1036.288319,6735.874072
713.990907,3447.429741,1406.391290,6143.709319
713.991223,3294.210641,1258.350101,6587.832884
713.991539,2681.334243,-370.102971,9030.512492
713.991855,1072.533697,-1850.514855,10288.862594
713.992170,-689.485948,-2146.597232,11103.089130
713.992486,-1762.019645,-1850.514855,11769.274478
713.992802,-2298.286494,-1554.432478,12805.562797
713.993118,-2068.457845,-74.020594,12509.480420
713.993434,-1685.410096,1110.308913,11991.336260
713.993750,-842.705048,1776.494261,10807.006753
713.994065,-153.219100,1406.391290,9992.780217
713.994381,536.266849,1628.453072,8734.430116
713.994697,2374.896044,1258.350101,7624.121203
713.995013,2681.334243,1406.391290,6809.894666
713.995329,2911.162892,2664.741391,6513.812290
713.995645,2681.334243,1998.556043,6143.709319
713.995960,2604.724693,1258.350101,7476.080014
713.996276,1225.752797,-888.247130,9474.636058
713.996592,-306.438199,-2072.576638,10510.924376
713.996908,-1838.629195,-2590.720797,11325.150913
713.997224,-2834.553343,-2294.638420,13027.624579
713.997540,-2911.162892,-2072.576638,13249.686362
713.997855,-3217.601092,-74.020594,12731.542202
713.998171,-2757.943793,1184.329507,11843.295072
713.998487,-1532.190996,1924.535449,10584.944971
713.998803,-229.828649,1332.370696,9548.656652
713.999119,1225.752797,666.185348,8364.327145
713.999435,2068.457845,444.123565,7179.997637
713.999750,2911.162892,370.102971,6735.874072
714.000066,3217.601092,1480.411884,6069.688724
714.000382,3294.210641,1776.494261,5625.565159
714.000698,3294.210641,-74.020594,7254.018232
714.001014,1762.019645,-2146.597232,9548.656652
714.001330,0.000000,-2590.720797,10658.965565
714.001645,-1762.019645,-3404.947333,11399.171507
714.001961,-2298.286494,-3108.864956,13249.686362
714.002277,-2451.505594,-1702.473667,13249.686362
714.002593,-2451.505594,148.041188,11547.212695
714.002909,-1685.410096,1332.370696,11029.068536
714.003225,-612.876398,1036.288319,9992.780217
714.003540,383.047749,1110.308913,8734.430116
714.003856,1455.581446,740.205942,7920.203579
714.004172,2834.553343,148.041188,6735.874072
714.004488,3370.820191,444.123565,6661.853478
714.004804,3140.991542,1406.391290,6069.688724
714.005119,3447.429741,962.267725,5995.668130
714.005435,2528.115143,-888.247130,8142.265362
714.005751,995.924147,-2590.720797,9770.718434
714.006067,-766.095498,-3478.967927,10584.944971
714.006383,-1685.410096,-3627.009116,12139.377449
714.006699,-2374.896044,-2812.782580,13471.748144
714.007014,-2911.162892,-1480.411884,12065.356855
714.007330,-2068.457845,-0.000000,11473.192101
714.007646,-1302.362347,296.082377,10510.924376
714.007962,-612.876398,518.144159,9474.636058
714.008278,459.657299,592.164754,8512.368333
714.008594,1608.800546,-222.061783,7476.080014
714.008909,2451.505594,-592.164754,6291.750507
714.009225,2528.115143,296.082377,5477.523971
714.009541,2528.115143,740.205942,6217.729913
714.009857,3064.381992,-222.061783,7031.956449
714.010173,1685.410096,-1776.494261,8660.409521
714.010489,-306.438199,-2886.803174,10066.800811
714.010804,-1685.410096,-3997.112087,11547.212695
714.011120,-1991.848295,-3849.070898,12435.459826
714.011436,-2911.162892,-2960.823768,12731.542202
714.011752,-2374.896044,-444.123565,12287.418637
714.012068,-1762.019645,1036.288319,11621.233289
714.012384,-459.657299,1924.535449,10214.842000
714.012699,306.438199,1924.535449,8808.450710
714.013015,1378.971896,1036.288319,7846.182985
714.013331,2757.943793,296.082377,6883.915261
714.013647,4060.306139,1036.288319,6439.791695
714.013963,4136.915689,1776.494261,6291.750507
714.014279,4366.744339,2294.638420,6513.812290
714.014594,3524.039291,888.247130,7031.956449
714.014910,1685.410096,-962.267725,9326.594869
714.015226,0.000000,-2146.597232,10881.027347
714.015542,-1608.800546,-2664.741391,12213.398043
714.015858,-2068.457845,-1998.556043,13545.768739
714.016174,-2451.505594,-444.123565,13471.748144
714.016489,-2451.505594,962.267725,12509.480420
714.016805,-1532.190996,2294.638420,11547.212695
714.017121,-229.828649,2368.659014,10436.903782
714.017437,229.828649,1776.494261,9474.636058
714.017753,1685.410096,1480.411884,8660.409521
714.018068,2834.553343,888.247130,6809.894666
714.018384,3524.039291,1776.494261,6661.853478
714.018700,3677.258390,2738.761985,6809.894666
714.019016,3677.258390,2368.659014,5921.647536
714.019332,2604.724693,296.082377,7920.203579
714.019648,919.314598,-1776.494261,10140.821405
714.019963,-1225.752797,-2516.700203,11695.253884
714.020279,-2374.896044,-2442.679609,11991.336260
714.020595,-2834.553343,-2294.638420,13323.706956
714.020911,-3064.381992,-444.123565,12879.583391
714.021227,-2834.553343,962.267725,12583.501014
714.021543,-2221.676944,1628.453072,11695.253884
714.021858,-1532.190996,1776.494261,10288.862594
714.022174,229.828649,1036.288319,9030.512492
714.022490,1991.848295,370.102971,7550.100608
714.022806,2604.724693,-0.000000,7031.956449
714.023122,2911.162892,740.205942,6513.812290
714.023438,3524.039291,2146.597232,5477.523971
714.023753,3370.820191,666.185348,6661.853478
714.024069,2451.505594,-1406.391290,8586.388927
714.024385,306.438199,-2220.617826,9992.780217
714.024701,-1072.533697,-3330.926739,11103.089130
714.025017,-2145.067394,-3627.009116,12213.398043
714.025333,-2528.115143,-3034.844362,13397.727550
714.025648,-2451.505594,-814.226536,13101.645173
714.025964,-1838.629195,1036.288319,11621.233289
714.026280,-766.095498,1924.535449,10436.903782
714.026596,536.266849,1702.473667,9326.594869
714.026912,1762.019645,1184.329507,7476.080014
714.027228,2911.162892,222.061783,6735.874072
714.027543,3830.477490,-0.000000,6291.750507
714.027859,4060.306139,962.267725,5625.565159
714.028175,3600.648841,1554.432478,5773.606348
714.028491,3064.381992,-0.000000,7105.977043
714.028807,1378.971896,-2146.597232,8586.388927
714.029122,-842.705048,-3627.009116,10362.883188
714.029438,-2528.115143,-4293.194464,12139.377449
714.029754,-2987.772442,-4293.194464,13249.686362
714.030070,-3140.991542,-2516.700203,13545.768739
714.030386,-2757.943793,-74.020594,11769.274478
714.030702,-1838.629195,962.267725,11325.150913
714.031017,-995.924147,1036.288319,10140.821405
714.031333,229.828649,592.164754,8438.347739
714.031649,1455.581446,-0.000000,7550.100608
714.031965,2757.943793,-296.082377,6587.832884
714.032281,3294.210641,296.082377,5847.626942
714.032597,3447.429741,1776.494261,4959.379811
714.032912,3447.429741,1480.411884,5107.421000
714.033228,2681.334243,-1036.288319,7550.100608
714.033544,689.485948,-2738.761985,10066.800811
714.033860,-1685.410096,-4145.153275,11029.068536
714.034176,-2451.505594,-4367.215058,12583.501014
714.034492,-3370.820191,-2886.803174,13323.706956
714.034807,-3524.039291,-888.247130,12583.501014
714.035123,-2834.553343,518.144159,12509.480420
714.035439,-1685.410096,1480.411884,11843.295072
714.035755,-689.485948,1998.556043,9474.636058
714.036071,766.095498,1776.494261,8808.450710
714.036387,2221.676944,296.082377,7772.162391
714.036702,3600.648841,444.123565,6661.853478
714.037018,4290.134789,2368.659014,5477.523971
714.037334,4213.525239,2516.700203,5551.544565
714.037650,4519.963438,1776.494261,7105.977043
714.037966,3294.210641,222.061783,8364.327145
714.038282,995.924147,-1184.329507,9770.718434
714.038597,-1072.533697,-2368.659014,11621.233289
714.038913,-1608.800546,-2886.803174,12731.542202
714.039229,-1915.238745,-1332.370696,13175.665768
714.039545,-2374.896044,222.061783,13101.645173
714.039861,-1915.238745,1480.411884,12287.418637
714.040177,-766.095498,2294.638420,11029.068536
714.040492,229.828649,2220.617826,9104.533087
714.040808,1149.143247,1258.350101,8808.450710
714.041124,2145.067394,740.205942,7772.162391
714.041440,3140.991542,222.061783,6883.915261
714.041756,3447.429741,1998.556043,6143.709319
714.042071,3217.601092,2590.720797,5847.626942
714.042387,3447.429741,1332.370696,6809.894666
714.042703,1838.629195,-1036.288319,8882.471304
714.043019,0.000000,-2516.700203,10732.986159
714.043335,-1838.629195,-3330.926739,11769.274478
714.043651,-2451.505594,-2960.823768,13027.624579
714.043966,-3140.991542,-1628.453072,13101.645173
714.044282,-2451.505594,222.061783,12805.562797
714.044598,-2221.676944,1332.370696,11917.315666
714.044914,-995.924147,2072.576638,10214.842000
714.045230,76.609550,1702.473667,9400.615463
714.045546,919.314598,666.185348,8364.327145
714.045861,2528.115143,-370.102971,7105.977043
714.046177,3064.381992,-148.041188,6883.915261
714.046493,3140.991542,1554.432478,5847.626942
714.046809,3370.820191,1480.411884,5847.626942
714.047125,3064.381992,-444.123565,7550.100608
714.047441,1149.143247,-2146.597232,9400.615463
714.047756,-1302.362347,-3775.050304,11177.109724
714.048072,-2068.457845,-3849.070898,11917.315666
714.048388,-2834.553343,-2960.823768,12953.603985
714.048704,-2681.334243,-814.226536,12583.501014
714.049020,-2145.067394,592.164754,12065.356855
714.049336,-995.924147,1332.370696,11547.212695
714.049651,-153.219100,1554.432478,10066.800811
714.049967,1072.533697,1480.411884,8068.244768
714.050283,2528.115143,592.164754,7031.956449
714.050599,3447.429741,222.061783,6513.812290
714.050915,3983.696590,592.164754,6143.709319
714.051231,3447.429741,1924.535449,5699.585753
714.051546,3524.039291,1184.329507,6143.709319
714.051862,2604.724693,-888.247130,8290.306550
714.052178,153.219100,-2516.700203,9844.739029
714.052494,-1532.190996,-3478.967927,11399.171507
714.052810,-2451.505594,-3775.050304,12139.377449
714.053125,-2911.162892,-2886.803174,13027.624579
714.053441,-2834.553343,-592.164754,12805.562797
714.053757,-2528.115143,592.164754,12287.418637
714.054073,-1608.800546,1258.350101,11177.109724
714.054389,-153.219100,1110.308913,9400.615463
714.054705,612.876398,888.247130,7994.224174
714.055020,1685.410096,-888.247130,7698.141797
714.055336,2834.553343,-592.164754,7031.956449
714.055652,3294.210641,962.267725,5847.626942
714.055968,3217.601092,1110.308913,5255.462188
714.056284,3140.991542,222.061783,7105.977043
714.056600,1762.019645,-2072.576638,8734.430116
714.056915,-229.828649,-2886.803174,9770.718434
714.057231,-1915.238745,-3701.029710,11399.171507
714.057547,-2911.162892,-3923.091493,12879.583391
714.057863,-3447.429741,-2368.659014,13619.789333
714.058179,-3217.601092,-74.020594,12213.398043
714.058495,-2451.505594,1184.329507,12065.356855
714.058810,-1455.581446,1554.432478,10807.006753
714.059126,-153.219100,1480.411884,9104.533087
714.059442,1685.410096,1184.329507,8068.244768
714.059758,2528.115143,-0.000000,7105.977043
714.060074,3447.429741,518.144159,6439.791695
714.060390,3753.867940,1998.556043,6143.709319
714.060705,3830.477490,2368.659014,5921.647536
714.061021,3217.601092,888.247130,7476.080014
714.061337,1762.019645,-666.185348,9178.553681
714.061653,-306.438199,-2072.576638,11251.130318
714.061969,-1685.410096,-2442.679609,11917.315666
714.062285,-2145.067394,-1776.494261,12657.521608
714.062600,-2221.676944,-444.123565,12805.562797
714.062916,-1991.848295,1332.370696,12509.480420
714.063232,-1225.752797,2146.597232,11917.315666
714.063548,0.000000,1998.556043,9992.780217
714.063864,766.095498,1406.391290,9252.574275
714.064180,1455.581446,666.185348,8660.409521
714.064495,3217.601092,592.164754,7402.059420
714.064811,3524.039291,814.226536,6809.894666
714.065127,3294.210641,2368.659014,5921.647536
714.065443,3677.258390,1924.535449,6439.791695
714.065759,2987.772442,-370.102971,8512.368333
714.066074,766.095498,-1998.556043,9548.656652
714.066390,-842.705048,-2812.782580,10732.986159
714.066706,-1532.190996,-2960.823768,11991.336260
714.067022,-2374.896044,-1850.514855,12657.521608
714.067338,-2604.724693,-148.041188,12657.521608
714.067654,-1915.238745,888.247130,11843.295072
714.067969,-1149.143247,814.226536,10732.986159
714.068285,-229.828649,888.247130,10214.842000
714.068601,459.657299,592.164754,8956.491898
714.068917,1915.238745,-296.082377,7550.100608
714.069233,2987.772442,-518.144159,6883.915261
714.069549,3140.991542,1110.308913,6365.771101
714.069864,3217.601092,1998.556043,5773.606348
714.070180,3524.039291,962.267725,6809.894666
714.070496,1608.800546,-1332.370696,8364.327145
714.070812,0.000000,-2368.659014,10066.800811
714.071128,-1455.581446,-3256.906145,10881.027347
714.071444,-2145.067394,-3478.967927,12361.439231
714.071759,-2757.943793,-1702.473667,13027.624579
714.072075,-2451.505594,-0.000000,12435.459826
714.072391,-1838.629195,1184.329507,11399.171507
714.072707,-1225.752797,1628.453072,10140.821405
714.073023,0.000000,1184.329507,9400.615463
714.073339,1532.190996,444.123565,8142.265362
714.073654,2145.067394,74.020594,7105.977043
714.073970,2987.772442,370.102971,6661.853478
714.074286,3294.210641,1702.473667,6291.750507
714.074602,3370.820191,1998.556043,6069.688724
714.074918,2451.505594,-0.000000,7179.997637
714.075233,995.924147,-1776.494261,9104.533087
714.075549,-842.705048,-2886.803174,11103.089130
714.075865,-2145.067394,-3552.988522,11621.233289
714.076181,-2681.334243,-2812.782580,12583.501014
714.076496,-2987.772442,-1480.411884,13101.645173
714.076812,-2528.115143,148.041188,12287.418637
714.077128,-2145.067394,962.267725,11029.068536
714.077443,-1302.362347,1110.308913,10140.821405
714.077759,0.000000,518.144159,9178.553681
714.078075,1455.581446,-518.144159,7994.224174
714.078391,2298.286494,-222.061783,6587.832884
714.078706,2834.553343,-148.041188,6513.812290
714.079022,2528.115143,370.102971,6809.894666
714.079338,2681.334243,222.061783,6883.915261
714.079653,1991.848295,-1480.411884,8068.244768
714.079969,153.219100,-2368.659014,9622.677246
714.080285,-1302.362347,-3108.864956,10955.047942
714.080601,-1838.629195,-3701.029710,11251.130318
714.080916,-2068.457845,-2738.761985,13249.686362
714.081232,-2834.553343,-1480.411884,12953.603985
714.081548,-1685.410096,296.082377,11695.253884
714.081864,-842.705048,1184.329507,10214.842000
714.082179,0.000000,888.247130,9252.574275
714.082495,919.314598,888.247130,8290.306550
714.082811,2528.115143,592.164754,7402.059420
714.083126,3600.648841,-0.000000,6365.771101
714.083442,3217.601092,1554.432478,6291.750507
714.083758,3294.210641,1924.535449,6069.688724
714.084074,3907.087040,814.226536,7254.018232
714.084389,2374.896044,-740.205942,8660.409521
714.084705,459.657299,-2072.576638,10214.842000
714.085021,-766.095498,-2294.638420,11325.150913
714.085336,-1378.971896,-2220.617826,12583.501014
714.085652,-1991.848295,-740.205942,13027.624579
714.085968,-1762.019645,1332.370696,11917.315666
714.086284,-1302.362347,2516.700203,11177.109724
714.086599,-229.828649,2368.659014,10510.924376
714.086915,1072.533697,1702.473667,9548.656652
714.087231,1608.800546,1628.453072,7920.203579
714.087546,2451.505594,1036.288319,7105.977043
714.087862,3447.429741,592.164754,7105.977043
714.088178,3370.820191,1554.432478,6883.915261
714.088494,3217.601092,1554.432478,6957.935855
714.088809,2911.162892,370.102971,8364.327145
714.089125,1072.533697,-1480.411884,9992.780217
714.089441,-689.485948,-2072.576638,10881.027347
714.089757,-1608.800546,-2368.659014,11695.253884
714.090072,-2145.067394,-2146.597232,12509.480420
714.090388,-2221.676944,-666.185348,12953.603985
714.090704,-1915.238745,444.123565,11991.336260
714.091019,-995.924147,888.247130,11547.212695
714.091335,-306.438199,1110.308913,10140.821405
714.091651,612.876398,814.226536,8882.471304
714.091967,1915.238745,-0.000000,7772.162391
714.092282,2681.334243,-0.000000,7105.977043
714.092598,3140.991542,814.226536,6735.874072
714.092914,2987.772442,1258.350101,6513.812290
714.093229,2681.334243,148.041188,7254.018232
714.093545,1991.848295,-1184.329507,8586.388927
714.093861,459.657299,-1998.556043,9474.636058
714.094177,-1149.143247,-2664.741391,10732.986159
714.094492,-1991.848295,-3108.864956,12361.439231
714.094808,-2451.505594,-2442.679609,12953.603985
714.095124,-2681.334243,-518.144159,12361.439231
714.095439,-2298.286494,592.164754,11695.253884
714.095755,-1455.581446,814.226536,10510.924376
714.096071,-229.828649,592.164754,9548.656652
714.096387,1072.533697,518.144159,8068.244768
714.096702,1838.629195,370.102971,7772.162391
714.097018,3064.381992,-0.000000,6661.853478
714.097334,3140.991542,1184.329507,6291.750507
714.097650,2757.943793,1406.391290,6069.688724
714.097965,3217.601092,666.185348,7031.956449
714.098281,1915.238745,-1110.308913,8512.368333
714.098597,229.828649,-2516.700203,10288.862594
714.098912,-1455.581446,-3034.844362,11177.109724
714.099228,-1685.410096,-2664.741391,12287.418637
714.099544,-2451.505594,-1480.411884,12213.398043
714.099860,-2451.505594,-0.000000,11843.295072
714.100175,-1762.019645,444.123565,11251.130318
714.100491,-1302.362347,518.144159,10214.842000
714.100807,-306.438199,444.123565,9252.574275
714.101122,919.314598,-74.020594,8068.244768
714.101438,2068.457845,-740.205942,7476.080014
714.101754,2451.505594,-222.061783,6957.935855
714.102070,2681.334243,444.123565,6365.771101
714.102385,2911.162892,962.267725,6217.729913
714.102701,2604.724693,-518.144159,7772.162391
714.103017,1302.362347,-2368.659014,9178.553681
714.103332,-229.828649,-2738.761985,10658.965565
714.103648,-1225.752797,-3404.947333,11769.274478
714.103964,-1991.848295,-2368.659014,12287.418637
714.104280,-2298.286494,-1110.308913,12287.418637
714.104595,-1762.019645,370.102971,11843.295072
714.104911,-842.705048,666.185348,11325.150913
714.105227,76.609550,1258.350101,10140.821405
714.105543,536.266849,888.247130,9400.615463
714.105858,1762.019645,222.061783,8290.306550
714.106174,2987.772442,296.082377,7254.018232
714.106490,3140.991542,1702.473667,6587.832884
714.106805,3064.381992,2146.597232,6439.791695
714.107121,3140.991542,1184.329507,7254.018232
714.107437,2604.724693,-148.041188,8586.388927
714.107753,766.095498,-1258.350101,9622.677246
714.108068,-612.876398,-2368.659014,10955.047942
714.108384,-1302.362347,-2368.659014,12213.398043
714.108700,-1532.190996,-1480.411884,12657.521608
714.109015,-2145.067394,222.061783,12509.480420
714.109331,-1608.800546,1480.411884,11621.233289
714.109647,-919.314598,1924.535449,10807.006753
714.109963,0.000000,1924.535449,9696.697840
714.110278,995.924147,1554.432478,8882.471304
714.110594,2145.067394,1184.329507,7328.038826
714.110910,2987.772442,888.247130,7031.956449
