#time,accel_x,accel_y,accel_z
660.606372,3907.087040,1924.535449,8068.244768
660.606688,4136.915689,2220.617826,7772.162391
660.607004,4136.915689,2146.597232,8438.347739
660.607320,3753.867940,2294.638420,8586.388927
660.607636,3140.991542,2072.576638,8956.491898
660.607951,2681.334243,1850.514855,9548.656652
660.608267,1838.629195,1776.494261,10066.800811
660.608583,995.924147,1702.473667,10288.862594
660.608899,689.485948,1554.432478,10658.965565
660.609215,76.609550,1258.350101,10807.006753
660.609531,0.000000,888.247130,10732.986159
660.609846,-306.438199,444.123565,10658.965565
660.610162,0.000000,-0.000000,10510.924376
660.610478,76.609550,-0.000000,10881.027347
660.610794,689.485948,370.102971,10658.965565
660.611110,1149.143247,962.267725,10140.821405
660.611426,1302.362347,1184.329507,9844.739029
660.611741,2221.676944,1480.411884,9474.636058
660.612057,2451.505594,1628.453072,9326.594869
660.612373,2911.162892,1998.556043,9178.553681
660.612689,3907.087040,1554.432478,9030.512492
660.613005,3753.867940,2442.679609,9030.512492
660.613320,3983.696590,2590.720797,8882.471304
660.613636,4136.915689,2738.761985,8882.471304
660.613952,3907.087040,3108.864956,8882.471304
660.614268,4290.134789,2664.741391,8512.368333
660.614584,3830.477490,2590.720797,8734.430116
660.614900,3907.087040,2368.659014,9326.594869
660.615215,3753.867940,2146.597232,9252.574275
660.615531,3140.991542,1998.556043,9474.636058
660.615847,3370.820191,1998.556043,9770.718434
660.616163,2911.162892,1850.514855,9770.718434
660.616479,2911.162892,2368.659014,9474.636058
660.616795,2604.724693,2812.782580,9548.656652
660.617110,2681.334243,3478.967927,9474.636058
660.617426,3370.820191,3404.947333,9548.656652
660.617742,3140.991542,3627.009116,9030.512492
660.618058,3830.477490,3701.029710,9104.533087
660.618374,4519.963438,3552.988522,8882.471304
660.618689,4519.963438,3701.029710,8808.450710
660.619005,4519.963438,3701.029710,8660.409521
660.619321,4596.572988,3775.050304,8734.430116
660.619637,4519.963438,3404.947333,9030.512492
660.619953,4213.525239,3552.988522,9104.533087
660.620269,3600.648841,3478.967927,9326.594869
660.620584,3524.039291,3627.009116,9252.574275
660.620900,3064.381992,3849.070898,9474.636058
660.621216,1991.848295,3775.050304,9326.594869
660.621532,1378.971896,3701.029710,9696.697840
660.621848,1915.238745,3256.906145,10140.821405
660.622164,229.828649,2368.659014,10140.821405
660.622479,0.000000,1628.453072,10658.965565
660.622795,0.000000,1184.329507,11325.150913
660.623111,153.219100,592.164754,11843.295072
660.623427,536.266849,1110.308913,11695.253884
660.623743,919.314598,1258.350101,11473.192101
660.624058,1532.190996,1702.473667,11177.109724
660.624374,2221.676944,2516.700203,10436.903782
660.624690,3140.991542,3108.864956,9474.636058
660.625006,3907.087040,3923.091493,8734.430116
660.625322,4826.401637,3923.091493,8364.327145
660.625638,5286.058936,3923.091493,7698.141797
660.625953,4903.011187,3404.947333,7624.121203
660.626269,4826.401637,2886.803174,7846.182985
660.626585,3830.477490,2442.679609,7920.203579
660.626901,2757.943793,1702.473667,8438.347739
660.627217,1532.190996,962.267725,9326.594869
660.627533,306.438199,-0.000000,10214.842000
660.627848,-995.924147,-888.247130,11029.068536
660.628164,-1685.410096,-2220.617826,11769.274478
660.628480,-2451.505594,-3182.885551,12731.542202
660.628796,-2451.505594,-3997.112087,13323.706956
660.629112,-2068.457845,-3775.050304,13175.665768
660.629428,-995.924147,-2368.659014,12287.418637
660.629743,0.000000,-1184.329507,11473.192101
660.630059,1915.238745,-74.020594,9992.780217
660.630375,3753.867940,1702.473667,8734.430116
660.630691,5439.278036,2738.761985,6883.915261
660.631007,7354.516781,3627.009116,5551.544565
660.631322,7584.345430,4219.173869,4367.215058
660.631638,8120.612279,4293.194464,3997.112087
660.631954,8044.002729,3627.009116,4663.297435
660.632270,6205.373534,2368.659014,5773.606348
660.632586,4519.963438,518.144159,7550.100608
660.632902,2145.067394,-1702.473667,9474.636058
660.633217,-306.438199,-3627.009116,12213.398043
660.633533,-2068.457845,-4811.338623,13841.851115
660.633849,-3447.429741,-5107.421000,14656.077652
660.634165,-3830.477490,-3775.050304,14434.015869
660.634481,-2834.553343,-2220.617826,13471.748144
660.634796,-1608.800546,-740.205942,11547.212695
660.635112,-229.828649,1036.288319,9326.594869
660.635427,1455.581446,2516.700203,8068.244768
660.635743,3753.867940,2220.617826,6291.750507
660.636059,5209.449386,2664.741391,4885.359217
660.636374,6665.030833,2294.638420,4737.318029
660.636690,6511.811733,2294.638420,4737.318029
660.637005,6511.811733,1628.453072,5255.462188
660.637321,5132.839837,666.185348,6957.935855
660.637637,3983.696590,-444.123565,8882.471304
660.637952,2451.505594,-1110.308913,10658.965565
660.638268,383.047749,-1332.370696,11547.212695
660.638583,-766.095498,-666.185348,12065.356855
660.638899,-1302.362347,-74.020594,11769.274478
660.639215,-1608.800546,1480.411884,11177.109724
660.639530,-1838.629195,2146.597232,10140.821405
660.639846,-919.314598,1554.432478,9992.780217
660.640161,-612.876398,444.123565,9918.759623
660.640477,-229.828649,-444.123565,9400.615463
660.640793,0.000000,-888.247130,9326.594869
660.641108,612.876398,148.041188,8586.388927
660.641424,1149.143247,814.226536,8734.430116
660.641739,1225.752797,1036.288319,9622.677246
660.642055,1149.143247,444.123565,10584.944971
660.642371,842.705048,888.247130,10584.944971
660.642686,459.657299,1554.432478,9844.739029
660.643002,459.657299,2368.659014,9326.594869
660.643317,1149.143247,2886.803174,10214.842000
660.643633,1455.581446,2960.823768,9844.739029
660.643949,1072.533697,2886.803174,10214.842000
660.644264,153.219100,2220.617826,9770.718434
660.644580,383.047749,888.247130,9844.739029
660.644895,842.705048,-0.000000,10288.862594
660.645211,689.485948,666.185348,9918.759623
660.645527,383.047749,1406.391290,9252.574275
660.645842,0.000000,1924.535449,9104.533087
660.646158,-536.266849,1554.432478,9252.574275
660.646473,-1149.143247,814.226536,9104.533087
660.646789,-1455.581446,-296.082377,9918.759623
660.647105,-1991.848295,-1184.329507,10362.883188
660.647420,-2911.162892,-1184.329507,11621.233289
660.647736,-2834.553343,-444.123565,11843.295072
660.648051,-2451.505594,370.102971,11769.274478
660.648367,-1302.362347,1036.288319,10732.986159
660.648683,-459.657299,1110.308913,10066.800811
660.648998,76.609550,1554.432478,9400.615463
660.649314,612.876398,2072.576638,8290.306550
660.649629,1915.238745,1702.473667,7402.059420
660.649945,2451.505594,1406.391290,7476.080014
660.650261,2681.334243,296.082377,7328.038826
660.650576,2145.067394,-370.102971,8142.265362
660.650892,1302.362347,-1110.308913,9252.574275
660.651207,383.047749,-1850.514855,10362.883188
660.651523,-383.047749,-1406.391290,10807.006753
660.651839,-842.705048,-962.267725,10807.006753
660.652154,-612.876398,-296.082377,10658.965565
660.652470,-1378.971896,444.123565,10140.821405
660.652785,-1072.533697,1110.308913,9992.780217
660.653101,-459.657299,222.061783,8956.491898
660.653417,766.095498,-814.226536,9030.512492
660.653732,1225.752797,-1480.411884,9252.574275
660.654048,1378.971896,-2220.617826,8660.409521
660.654363,1685.410096,-2590.720797,9252.574275
660.654679,2298.286494,-2368.659014,9178.553681
660.654995,2451.505594,-1702.473667,8882.471304
660.655310,3140.991542,-1036.288319,8808.450710
660.655626,2604.724693,-222.061783,8808.450710
660.655941,1991.848295,370.102971,7846.182985
660.656257,1149.143247,518.144159,7994.224174
660.656572,1302.362347,666.185348,8438.347739
660.656888,842.705048,-518.144159,8660.409521
660.657204,0.000000,-1776.494261,9548.656652
660.657519,-1072.533697,-3108.864956,10510.924376
660.657835,-1455.581446,-3775.050304,11325.150913
660.658150,-1072.533697,-3701.029710,11843.295072
660.658466,0.000000,-2960.823768,11473.192101
660.658782,459.657299,-1332.370696,10362.883188
660.659097,766.095498,666.185348,8586.388927
660.659413,1762.019645,1628.453072,7476.080014
660.659728,2528.115143,1480.411884,7328.038826
660.660044,2911.162892,888.247130,7179.997637
660.660360,2451.505594,-148.041188,7476.080014
660.660675,1455.581446,-1332.370696,8142.265362
660.660991,0.000000,-2146.597232,9548.656652
660.661306,-459.657299,-2220.617826,10807.006753
660.661622,-1149.143247,-1702.473667,11177.109724
660.661938,-1378.971896,-1036.288319,11251.130318
660.662253,-1838.629195,-0.000000,10807.006753
660.662569,-1455.581446,444.123565,10066.800811
660.662884,-1149.143247,222.061783,9252.574275
660.663200,0.000000,370.102971,9252.574275
660.663516,612.876398,-148.041188,9104.533087
660.663831,689.485948,-814.226536,9104.533087
660.664147,0.000000,-1554.432478,9400.615463
660.664462,229.828649,-1702.473667,10510.924376
660.664778,383.047749,-1258.350101,10214.842000
660.665094,306.438199,-74.020594,10066.800811
660.665409,306.438199,740.205942,9918.759623
660.665725,229.828649,1776.494261,9178.553681
660.666040,766.095498,2442.679609,8660.409521
660.666356,919.314598,2812.782580,8290.306550
660.666672,1455.581446,2146.597232,8512.368333
660.666987,1225.752797,962.267725,8882.471304
660.667303,459.657299,-444.123565,9622.677246
660.667618,-383.047749,-1036.288319,10881.027347
660.667934,-995.924147,-1406.391290,11029.068536
660.668250,0.000000,-296.082377,11325.150913
660.668565,0.000000,518.144159,10807.006753
660.668881,-383.047749,1554.432478,9844.739029
660.669196,-612.876398,2220.617826,9178.553681
660.669512,76.609550,2294.638420,8808.450710
660.669828,689.485948,1850.514855,8808.450710
660.670143,1378.971896,1110.308913,9400.615463
660.670459,0.000000,-0.000000,9474.636058
660.670774,-459.657299,-1036.288319,10140.821405
660.671090,-689.485948,-1480.411884,11177.109724
660.671406,0.000000,-518.144159,10881.027347
660.671721,536.266849,296.082377,10658.965565
660.672037,612.876398,1258.350101,9474.636058
660.672352,995.924147,1924.535449,8660.409521
660.672668,1608.800546,2072.576638,8068.244768
660.672984,2834.553343,2220.617826,7624.121203
660.673299,3217.601092,1332.370696,7698.141797
660.673615,2604.724693,592.164754,7920.203579
660.673930,842.705048,-518.144159,8734.430116
660.674246,0.000000,-1776.494261,10362.883188
660.674562,76.609550,-1628.453072,11251.130318
660.674877,-919.314598,-1258.350101,11251.130318
660.675193,-1302.362347,-518.144159,11103.089130
660.675508,-1455.581446,-74.020594,10362.883188
660.675824,-1072.533697,444.123565,9992.780217
660.676140,-153.219100,814.226536,9992.780217
660.676455,919.314598,592.164754,8882.471304
660.676771,1685.410096,-0.000000,8734.430116
660.677086,1685.410096,-592.164754,9030.512492
660.677402,1685.410096,-1480.411884,9252.574275
660.677718,1991.848295,-1332.370696,9918.759623
660.678033,1991.848295,-888.247130,9770.718434
660.678349,2681.334243,-74.020594,9252.574275
660.678664,1838.629195,666.185348,8512.368333
660.678980,1532.190996,1406.391290,7994.224174
660.679295,1838.629195,1554.432478,7994.224174
660.679611,1762.019645,1184.329507,7920.203579
660.679927,1378.971896,-74.020594,8586.388927
660.680242,459.657299,-1628.453072,9696.697840
660.680558,-919.314598,-2886.803174,10362.883188
660.680873,-1685.410096,-3701.029710,11547.212695
660.681189,-1302.362347,-3034.844362,11991.336260
660.681505,-1225.752797,-2368.659014,11547.212695
660.681820,-1455.581446,-1184.329507,10732.986159
660.682136,-1149.143247,296.082377,9400.615463
660.682451,-306.438199,1036.288319,8808.450710
660.682767,919.314598,1110.308913,8068.244768
660.683083,1608.800546,740.205942,7624.121203
660.683398,2145.067394,-296.082377,7846.182985
660.683714,1762.019645,-1332.370696,8586.388927
660.684029,1149.143247,-2220.617826,9622.677246
660.684345,459.657299,-1924.535449,10436.903782
660.684661,919.314598,-1332.370696,10140.821405
660.684976,459.657299,-444.123565,10140.821405
660.685292,0.000000,370.102971,10066.800811
660.685607,-919.314598,1184.329507,9178.553681
660.685923,-383.047749,1554.432478,8512.368333
660.686239,459.657299,1258.350101,8512.368333
660.686554,689.485948,-0.000000,8734.430116
660.686870,0.000000,-962.267725,9030.512492
660.687185,-995.924147,-2294.638420,9696.697840
660.687501,-1455.581446,-2664.741391,10881.027347
660.687817,-995.924147,-2442.679609,10881.027347
660.688132,-995.924147,-1480.411884,10881.027347
660.688448,-1455.581446,-740.205942,10214.842000
660.688763,-1302.362347,296.082377,9770.718434
660.689079,-766.095498,1036.288319,9104.533087
660.689395,306.438199,1406.391290,8586.388927
660.689710,1378.971896,592.164754,8438.347739
660.690026,1532.190996,-222.061783,8956.491898
660.690341,612.876398,-962.267725,8882.471304
660.690657,459.657299,-1406.391290,10140.821405
660.690973,612.876398,-1258.350101,10362.883188
660.691288,919.314598,-148.041188,9918.759623
660.691604,536.266849,592.164754,9770.718434
660.691919,306.438199,1332.370696,9104.533087
660.692235,536.266849,1628.453072,8512.368333
660.692551,1302.362347,1702.473667,8216.285956
660.692866,1455.581446,1036.288319,8216.285956
660.693182,2068.457845,-0.000000,8956.491898
660.693497,766.095498,-1258.350101,9400.615463
660.693813,-459.657299,-1702.473667,10362.883188
660.694129,-612.876398,-1998.556043,11177.109724
660.694444,-536.266849,-1258.350101,11251.130318
660.694760,-689.485948,-222.061783,11029.068536
660.695075,-842.705048,222.061783,10140.821405
660.695391,-612.876398,1184.329507,9474.636058
660.695707,229.828649,1406.391290,8734.430116
660.696022,1455.581446,1628.453072,8068.244768
660.696338,2298.286494,740.205942,8216.285956
660.696653,2298.286494,-0.000000,8290.306550
660.696969,1455.581446,-962.267725,8808.450710
660.697285,1072.533697,-1702.473667,10288.862594
660.697600,1225.752797,-1480.411884,10362.883188
660.697916,995.924147,-74.020594,10140.821405
660.698231,689.485948,888.247130,10140.821405
660.698547,229.828649,888.247130,9548.656652
660.698863,306.438199,1702.473667,8956.491898
660.699178,766.095498,1406.391290,8142.265362
660.699494,1225.752797,962.267725,8660.409521
660.699809,1685.410096,-0.000000,8882.471304
660.700125,612.876398,-444.123565,9030.512492
660.700441,-229.828649,-1628.453072,9992.780217
660.700756,-612.876398,-2146.597232,11103.089130
660.701072,-612.876398,-1480.411884,10807.006753
660.701387,-153.219100,-592.164754,10807.006753
660.701703,-689.485948,222.061783,10140.821405
660.702018,-1225.752797,666.185348,9474.636058
660.702334,0.000000,1554.432478,8956.491898
660.702650,689.485948,1036.288319,8808.450710
660.702965,1608.800546,444.123565,8660.409521
660.703281,1378.971896,-370.102971,8956.491898
660.703596,842.705048,-1554.432478,9696.697840
660.703912,153.219100,-1998.556043,10510.924376
660.704228,306.438199,-1406.391290,10436.903782
660.704543,459.657299,-444.123565,10362.883188
660.704859,536.266849,296.082377,9918.759623
660.705174,0.000000,1258.350101,9178.553681
660.705490,689.485948,1332.370696,8586.388927
660.705806,1302.362347,1554.432478,8216.285956
660.706121,1532.190996,666.185348,8512.368333
660.706437,1302.362347,-592.164754,8882.471304
660.706752,766.095498,-1776.494261,9326.594869
660.707068,-306.438199,-2516.700203,9992.780217
660.707384,-766.095498,-2590.720797,11251.130318
660.707699,-612.876398,-1924.535449,10955.047942
660.708015,-1378.971896,-962.267725,10584.944971
660.708330,-1762.019645,-0.000000,9918.759623
660.708646,-995.924147,962.267725,9326.594869
660.708962,153.219100,962.267725,8438.347739
660.709277,766.095498,888.247130,8068.244768
660.709593,1455.581446,-296.082377,8512.368333
660.709908,1149.143247,-1554.432478,8808.450710
660.710224,536.266849,-2072.576638,9252.574275
660.710540,229.828649,-2146.597232,10288.862594
660.710855,766.095498,-1406.391290,9918.759623
660.711171,766.095498,-74.020594,9992.780217
660.711486,0.000000,888.247130,9400.615463
660.711802,229.828649,1998.556043,8586.388927
660.712118,766.095498,1776.494261,8068.244768
660.712433,995.924147,1480.411884,8142.265362
660.712749,1608.800546,666.185348,8512.368333
660.713064,1302.362347,-518.144159,8586.388927
660.713380,536.266849,-1480.411884,9104.533087
660.713696,0.000000,-2072.576638,10510.924376
660.714011,-306.438199,-2146.597232,10955.047942
660.714327,-229.828649,-1036.288319,10584.944971
660.714642,-536.266849,-0.000000,10584.944971
660.714958,-689.485948,518.144159,10066.800811
660.715274,-229.828649,888.247130,9178.553681
660.715589,842.705048,1258.350101,8882.471304
660.715905,1685.410096,666.185348,8438.347739
660.716220,2298.286494,148.041188,8808.450710
660.716536,1302.362347,-518.144159,8808.450710
660.716852,842.705048,-1554.432478,9770.718434
660.717167,995.924147,-1702.473667,10881.027347
660.717483,1378.971896,-518.144159,10362.883188
660.717798,1225.752797,740.205942,10066.800811
660.718114,995.924147,1480.411884,9548.656652
660.718430,842.705048,2146.597232,8808.450710
660.718745,1378.971896,2294.638420,8438.347739
660.719061,2374.896044,2146.597232,8068.244768
660.719376,2374.896044,740.205942,8364.327145
660.719692,1915.238745,-296.082377,9030.512492
660.720008,919.314598,-1554.432478,9696.697840
660.720323,-306.438199,-2220.617826,11029.068536
660.720639,-689.485948,-1850.514855,11325.150913
660.720954,-842.705048,-814.226536,11473.192101
660.721270,-1149.143247,222.061783,11029.068536
660.721586,-1378.971896,740.205942,10436.903782
660.721901,-919.314598,1258.350101,9622.677246
660.722217,76.609550,1554.432478,8586.388927
660.722532,995.924147,740.205942,8660.409521
660.722848,1225.752797,-0.000000,8586.388927
660.723163,1302.362347,-1036.288319,9326.594869
660.723479,459.657299,-1702.473667,10066.800811
660.723795,689.485948,-1850.514855,10584.944971
660.724110,919.314598,-814.226536,10140.821405
660.724426,842.705048,296.082377,9992.780217
660.724741,842.705048,814.226536,9548.656652
660.725057,842.705048,1406.391290,8882.471304
660.725373,995.924147,1702.473667,8364.327145
660.725688,1532.190996,1554.432478,7846.182985
660.726004,1762.019645,666.185348,8142.265362
660.726319,1225.752797,-370.102971,8882.471304
660.726635,-229.828649,-1702.473667,9474.636058
660.726951,-689.485948,-2738.761985,10584.944971
660.727266,-995.924147,-2368.659014,11325.150913
660.727582,-1149.143247,-1554.432478,11029.068536
660.727897,-995.924147,-666.185348,10955.047942
660.728213,-1149.143247,370.102971,9474.636058
660.728529,-306.438199,1036.288319,9030.512492
660.728844,766.095498,1184.329507,8438.347739
660.729160,1608.800546,444.123565,8290.306550
660.729475,1838.629195,-518.144159,8512.368333
660.729791,1225.752797,-1258.350101,8512.368333
660.730107,612.876398,-1998.556043,9696.697840
660.730422,842.705048,-1998.556043,10288.862594
660.730738,995.924147,-666.185348,10066.800811
660.731053,1072.533697,-0.000000,9622.677246
660.731369,383.047749,1184.329507,9326.594869
660.731685,383.047749,1480.411884,8734.430116
660.732000,1149.143247,1332.370696,8216.285956
660.732316,1608.800546,1110.308913,7920.203579
660.732631,1838.629195,-74.020594,8512.368333
660.732947,1378.971896,-1480.411884,8882.471304
660.733263,0.000000,-2738.761985,9696.697840
660.733578,-612.876398,-3108.864956,10584.944971
660.733894,-612.876398,-2442.679609,11029.068536
660.734209,-919.314598,-1776.494261,10807.006753
660.734525,-1378.971896,-296.082377,10510.924376
660.734840,-1225.752797,296.082377,9548.656652
660.735156,-383.047749,370.102971,9030.512492
660.735472,76.609550,518.144159,9030.512492
660.735787,536.266849,-0.000000,8364.327145
660.736103,1302.362347,-962.267725,8586.388927
660.736418,536.266849,-2220.617826,9178.553681
660.736734,76.609550,-2220.617826,9918.759623
660.737050,383.047749,-1924.535449,10288.862594
660.737365,766.095498,-1036.288319,10436.903782
660.737681,459.657299,370.102971,9622.677246
660.737996,0.000000,888.247130,9474.636058
660.738312,459.657299,1184.329507,8586.388927
660.738627,842.705048,1110.308913,8142.265362
660.738943,1455.581446,1332.370696,8290.306550
660.739259,1915.238745,-0.000000,8290.306550
660.739574,612.876398,-740.205942,8956.491898
660.739890,-76.609550,-1850.514855,10362.883188
660.740205,-612.876398,-1998.556043,11029.068536
660.740521,-766.095498,-1406.391290,11177.109724
660.740836,-1225.752797,-666.185348,11473.192101
660.741152,-1225.752797,148.041188,10436.903782
660.741468,-995.924147,740.205942,9548.656652
660.741783,-229.828649,1184.329507,8660.409521
660.742099,689.485948,1258.350101,8512.368333
660.742414,1762.019645,740.205942,8586.388927
660.742730,1455.581446,-370.102971,8586.388927
660.743046,766.095498,-1258.350101,9104.533087
660.743361,459.657299,-1924.535449,10288.862594
660.743677,919.314598,-1258.350101,10584.944971
660.743992,919.314598,-518.144159,10362.883188
660.744308,536.266849,592.164754,9918.759623
660.744623,306.438199,1628.453072,8882.471304
660.744939,536.266849,1776.494261,8290.306550
660.745255,1455.581446,2294.638420,7846.182985
660.745570,1838.629195,1776.494261,7846.182985
660.745886,1762.019645,148.041188,8512.368333
660.746201,1072.533697,-1036.288319,8956.491898
660.746517,0.000000,-1554.432478,10140.821405
660.746832,-229.828649,-1924.535449,10732.986159
660.747148,-459.657299,-1184.329507,10881.027347
660.747464,-306.438199,-148.041188,10510.924376
660.747779,-919.314598,740.205942,9770.718434
660.748095,-842.705048,1332.370696,9030.512492
660.748410,76.609550,1850.514855,8660.409521
660.748726,919.314598,1332.370696,8512.368333
660.749042,1915.238745,518.144159,8512.368333
660.749357,1455.581446,-0.000000,8882.471304
660.749673,766.095498,-1406.391290,9474.636058
660.749988,536.266849,-1554.432478,10288.862594
660.750304,383.047749,-888.247130,10214.842000
660.750619,919.314598,-148.041188,10066.800811
660.750935,612.876398,814.226536,9770.718434
660.751251,76.609550,1776.494261,9030.512492
660.751566,612.876398,2146.597232,8290.306550
660.751882,1532.190996,2146.597232,8364.327145
660.752197,2068.457845,1036.288319,8364.327145
660.752513,1685.410096,-0.000000,8660.409521
660.752828,459.657299,-962.267725,9178.553681
660.753144,-536.266849,-1924.535449,10658.965565
660.753460,-383.047749,-2294.638420,11399.171507
660.753775,-612.876398,-1480.411884,10881.027347
660.754091,-919.314598,-962.267725,11399.171507
660.754406,-1072.533697,222.061783,10288.862594
660.754722,-919.314598,740.205942,9326.594869
660.755038,76.609550,962.267725,9030.512492
660.755353,766.095498,592.164754,8734.430116
660.755669,1455.581446,-222.061783,9030.512492
660.755984,1072.533697,-1036.288319,9030.512492
660.756300,842.705048,-1924.535449,9474.636058
660.756615,383.047749,-1776.494261,10436.903782
660.756931,919.314598,-1406.391290,10362.883188
660.757247,766.095498,-518.144159,9992.780217
660.757562,229.828649,370.102971,9548.656652
660.757878,153.219100,1036.288319,9030.512492
660.758193,919.314598,1110.308913,8438.347739
660.758509,1378.971896,1184.329507,8290.306550
660.758824,1685.410096,296.082377,8512.368333
660.759140,842.705048,-1036.288319,8808.450710
660.759456,0.000000,-2220.617826,9844.739029
660.759771,-689.485948,-3182.885551,10658.965565
660.760087,-612.876398,-2738.761985,11177.109724
660.760402,-689.485948,-1258.350101,10807.006753
660.760718,-1225.752797,-444.123565,10362.883188
660.761034,-1149.143247,-0.000000,9548.656652
660.761349,-536.266849,370.102971,9178.553681
660.761665,76.609550,814.226536,8808.450710
660.761980,1149.143247,222.061783,8068.244768
660.762296,1685.410096,-666.185348,8586.388927
660.762611,1378.971896,-1554.432478,8660.409521
660.762927,306.438199,-2146.597232,9548.656652
660.763243,766.095498,-2072.576638,10436.903782
660.763558,689.485948,-1258.350101,10288.862594
660.763874,919.314598,-370.102971,9992.780217
660.764189,995.924147,518.144159,9178.553681
660.764505,536.266849,1554.432478,8290.306550
660.764820,1149.143247,1702.473667,7846.182985
660.765136,1991.848295,1480.411884,7476.080014
660.765452,2374.896044,370.102971,7920.203579
660.765767,1685.410096,-1036.288319,8290.306550
660.766083,612.876398,-1850.514855,9400.615463
660.766398,0.000000,-2590.720797,10807.006753
660.766714,-689.485948,-2146.597232,10881.027347
660.767030,-459.657299,-1184.329507,11103.089130
660.767345,-689.485948,-296.082377,10658.965565
660.767661,-1225.752797,518.144159,9696.697840
660.767976,-536.266849,962.267725,9030.512492
660.768292,459.657299,1258.350101,8438.347739
660.768607,1072.533697,814.226536,8438.347739
660.768923,1762.019645,-0.000000,9030.512492
660.769239,689.485948,-444.123565,8882.471304
660.769554,536.266849,-1258.350101,9770.718434
660.769870,612.876398,-1406.391290,10658.965565
660.770185,1072.533697,-666.185348,10510.924376
660.770501,1378.971896,370.102971,9992.780217
660.770816,383.047749,1554.432478,9548.656652
660.771132,842.705048,1924.535449,8956.491898
660.771448,919.314598,2220.617826,8364.327145
660.771763,1685.410096,2368.659014,8142.265362
660.772079,1455.581446,1036.288319,8882.471304
660.772394,995.924147,-740.205942,9548.656652
660.772710,-383.047749,-1628.453072,10362.883188
660.773026,-842.705048,-2072.576638,11251.130318
660.773341,-766.095498,-1628.453072,11473.192101
660.773657,-995.924147,-1110.308913,11695.253884
660.773972,-1149.143247,296.082377,10955.047942
660.774288,-1455.581446,1110.308913,9918.759623
660.774603,-459.657299,1554.432478,9104.533087
660.774919,689.485948,1628.453072,8734.430116
660.775235,1838.629195,592.164754,8882.471304
660.775550,1608.800546,-0.000000,9178.553681
660.775866,842.705048,-1184.329507,9030.512492
660.776181,306.438199,-1554.432478,10140.821405
660.776497,995.924147,-1554.432478,10732.986159
660.776812,1378.971896,-666.185348,10288.862594
660.777128,995.924147,814.226536,9696.697840
660.777444,689.485948,1554.432478,8956.491898
660.777759,995.924147,2368.659014,8586.388927
660.778075,1838.629195,1924.535449,8142.265362
660.778390,2451.505594,1776.494261,8068.244768
660.778706,2451.505594,740.205942,8142.265362
660.779022,1225.752797,-962.267725,8734.430116
660.779337,76.609550,-2294.638420,9918.759623
660.779653,-383.047749,-2368.659014,10732.986159
660.779968,-153.219100,-1850.514855,10732.986159
660.780284,-153.219100,-1110.308913,10881.027347
660.780599,-766.095498,-0.000000,10362.883188
660.780915,-995.924147,518.144159,9474.636058
660.781231,-229.828649,1554.432478,8438.347739
660.781546,383.047749,1332.370696,8216.285956
660.781862,1378.971896,666.185348,8734.430116
660.782177,1608.800546,-518.144159,8364.327145
660.782493,995.924147,-1258.350101,9030.512492
660.782808,536.266849,-1628.453072,9918.759623
660.783124,1225.752797,-1776.494261,9992.780217
660.783440,1302.362347,-814.226536,9992.780217
660.783755,919.314598,296.082377,9548.656652
660.784071,306.438199,1406.391290,8734.430116
660.784386,689.485948,1406.391290,8734.430116
660.784702,1378.971896,1480.411884,8142.265362
660.785018,1455.581446,962.267725,8142.265362
660.785333,1455.581446,-370.102971,8586.388927
660.785649,306.438199,-1628.453072,9104.533087
660.785964,-612.876398,-2738.761985,10362.883188
660.786280,-842.705048,-3034.844362,11103.089130
660.786595,-689.485948,-2072.576638,10658.965565
660.786911,-1072.533697,-962.267725,10584.944971
660.787227,-1302.362347,-0.000000,10584.944971
660.787542,-1149.143247,222.061783,9474.636058
660.787858,-689.485948,1036.288319,8808.450710
660.788173,689.485948,740.205942,8512.368333
660.788489,1302.362347,-0.000000,8660.409521
660.788804,995.924147,-888.247130,9030.512492
660.789120,459.657299,-1702.473667,9548.656652
660.789436,153.219100,-2220.617826,10140.821405
660.789751,766.095498,-1998.556043,10658.965565
660.790067,536.266849,-740.205942,10362.883188
660.790382,76.609550,222.061783,9474.636058
660.790698,-306.438199,1480.411884,8956.491898
660.791014,229.828649,1776.494261,8586.388927
660.791329,1302.362347,1850.514855,8290.306550
660.791645,1378.971896,1332.370696,8216.285956
660.791960,1072.533697,-74.020594,8956.491898
660.792276,0.000000,-1702.473667,9400.615463
660.792591,-612.876398,-2738.761985,10658.965565
660.792907,-689.485948,-2812.782580,11621.233289
660.793223,-229.828649,-1628.453072,11399.171507
660.793538,-1455.581446,-740.205942,11103.089130
660.793854,-1378.971896,222.061783,10362.883188
660.794169,-1072.533697,1184.329507,9326.594869
660.794485,0.000000,1554.432478,8364.327145
660.794800,1072.533697,1628.453072,8364.327145
660.795116,1455.581446,296.082377,8438.347739
660.795432,1225.752797,-592.164754,8512.368333
660.795747,383.047749,-1850.514855,9400.615463
660.796063,612.876398,-2072.576638,10362.883188
660.796378,995.924147,-1406.391290,10584.944971
660.796694,766.095498,-148.041188,10066.800811
660.797010,459.657299,962.267725,9844.739029
660.797325,383.047749,962.267725,9400.615463
660.797641,689.485948,1480.411884,8660.409521
660.797956,1685.410096,1924.535449,8364.327145
660.798272,1991.848295,1036.288319,8216.285956
660.798587,1455.581446,-222.061783,8586.388927
660.798903,76.609550,-1110.308913,9030.512492
660.799219,0.000000,-2368.659014,10214.842000
660.799534,-229.828649,-1776.494261,10881.027347
660.799850,-153.219100,-1184.329507,10510.924376
660.800165,-536.266849,-296.082377,10732.986159
660.800481,-1225.752797,-0.000000,10214.842000
660.800797,-383.047749,666.185348,9326.594869
660.801112,76.609550,1406.391290,9030.512492
660.801428,1225.752797,1332.370696,8068.244768
660.801743,1608.800546,370.102971,8364.327145
660.802059,1072.533697,-592.164754,8734.430116
660.802374,612.876398,-1702.473667,9474.636058
660.802690,612.876398,-1776.494261,10288.862594
660.803006,1149.143247,-740.205942,10066.800811
660.803321,1072.533697,-0.000000,9770.718434
660.803637,612.876398,962.267725,9252.574275
660.803952,536.266849,1406.391290,8734.430116
660.804268,1149.143247,2072.576638,7846.182985
660.804583,1455.581446,1702.473667,7994.224174
660.804899,1685.410096,370.102971,8586.388927
660.805215,689.485948,-592.164754,9030.512492
660.805530,-229.828649,-2072.576638,9400.615463
660.805846,-536.266849,-2442.679609,10658.965565
660.806161,-612.876398,-1924.535449,11029.068536
660.806477,-536.266849,-1258.350101,11103.089130
660.806793,-919.314598,-296.082377,10955.047942
660.807108,-1608.800546,370.102971,9844.739029
660.807424,-919.314598,1110.308913,9178.553681
660.807739,306.438199,1480.411884,8586.388927
660.808055,995.924147,814.226536,8586.388927
660.808370,1915.238745,-0.000000,8734.430116
660.808686,1072.533697,-1184.329507,9030.512492
660.809002,306.438199,-1850.514855,9918.759623
660.809317,842.705048,-1480.411884,10732.986159
660.809633,1072.533697,-814.226536,10140.821405
660.809948,919.314598,296.082377,10140.821405
660.810264,689.485948,962.267725,9474.636058
660.810579,536.266849,1628.453072,8882.471304
660.810895,1302.362347,1924.535449,8290.306550
660.811211,1838.629195,1776.494261,7772.162391
660.811526,1991.848295,370.102971,8808.450710
660.811842,995.924147,-370.102971,8660.409521
660.812157,229.828649,-1850.514855,9474.636058
660.812473,-306.438199,-2516.700203,10955.047942
660.812789,-536.266849,-2442.679609,11399.171507
660.813104,0.000000,-1258.350101,11177.109724
660.813420,-1225.752797,-296.082377,10807.006753
660.813735,-1455.581446,592.164754,10066.800811
660.814051,-459.657299,1184.329507,9252.574275
660.814366,306.438199,1554.432478,8734.430116
660.814682,1685.410096,518.144159,7920.203579
660.814998,1378.971896,-222.061783,8660.409521
660.815313,1072.533697,-1110.308913,9252.574275
660.815629,766.095498,-1628.453072,9992.780217
660.815944,1378.971896,-1406.391290,10214.842000
660.816260,1302.362347,-296.082377,10066.800811
660.816575,919.314598,444.123565,9696.697840
660.816891,1149.143247,1702.473667,9326.594869
660.817207,842.705048,1776.494261,8438.347739
660.817522,1378.971896,1850.514855,8068.244768
660.817838,1838.629195,1332.370696,8364.327145
660.818153,1915.238745,370.102971,8660.409521
660.818469,766.095498,-740.205942,9104.533087
660.818785,-153.219100,-1776.494261,9992.780217
660.819100,-459.657299,-2146.597232,11103.089130
660.819416,-536.266849,-1702.473667,10807.006753
660.819731,-689.485948,-1258.350101,10881.027347
660.820047,-1225.752797,-518.144159,10955.047942
660.820362,-1302.362347,-0.000000,9992.780217
660.820678,0.000000,666.185348,9104.533087
660.820994,383.047749,1258.350101,8438.347739
660.821309,1378.971896,740.205942,8364.327145
660.821625,1378.971896,-444.123565,8660.409521
660.821940,689.485948,-1110.308913,8882.471304
660.822256,306.438199,-2442.679609,9696.697840
660.822571,919.314598,-1998.556043,10436.903782
660.822887,1302.362347,-962.267725,10362.883188
660.823203,689.485948,370.102971,9696.697840
660.823518,459.657299,1480.411884,9030.512492
660.823834,689.485948,1776.494261,8068.244768
660.824149,1302.362347,1998.556043,7994.224174
660.824465,1532.190996,1480.411884,7920.203579
660.824781,1378.971896,-0.000000,8512.368333
660.825096,153.219100,-1332.370696,8882.471304
660.825412,-536.266849,-2590.720797,10288.862594
660.825727,-1149.143247,-2960.823768,11177.109724
660.826043,-1072.533697,-1998.556043,11251.130318
660.826358,-1072.533697,-1406.391290,10955.047942
660.826674,-1608.800546,-814.226536,10510.924376
660.826990,-1608.800546,370.102971,9474.636058
660.827305,-459.657299,888.247130,8808.450710
660.827621,842.705048,1036.288319,8586.388927
660.827936,1455.581446,518.144159,8734.430116
660.828252,1302.362347,-962.267725,8660.409521
660.828567,1149.143247,-1480.411884,9326.594869
660.828883,1072.533697,-1702.473667,10066.800811
660.829199,1149.143247,-1258.350101,10066.800811
660.829514,1532.190996,-222.061783,10214.842000
660.829830,1149.143247,296.082377,9548.656652
660.830145,842.705048,1332.370696,9178.553681
660.830461,1072.533697,1924.535449,8660.409521
660.830777,1762.019645,1776.494261,8216.285956
660.831092,2374.896044,888.247130,8734.430116
660.831408,1532.190996,-444.123565,9326.594869
660.831723,383.047749,-1036.288319,9474.636058
660.832039,-153.219100,-2072.576638,10214.842000
660.832354,-459.657299,-2072.576638,11177.109724
660.832670,-842.705048,-1554.432478,11103.089130
660.832986,-842.705048,-888.247130,11029.068536
660.833301,-1225.752797,-222.061783,10214.842000
660.833617,-995.924147,296.082377,9474.636058
660.833933,153.219100,1036.288319,9030.512492
660.834248,1149.143247,1036.288319,8586.388927
660.834564,1302.362347,444.123565,8512.368333
660.834880,1302.362347,-518.144159,8660.409521
660.835195,1072.533697,-1480.411884,9178.553681
660.835511,459.657299,-2146.597232,10066.800811
660.835827,995.924147,-1036.288319,10288.862594
660.836143,1149.143247,-444.123565,9992.780217
660.836458,383.047749,740.205942,9622.677246
660.836774,153.219100,1628.453072,8734.430116
660.837090,919.314598,2294.638420,7994.224174
660.837406,1302.362347,2368.659014,7550.100608
660.837721,1532.190996,1110.308913,8512.368333
660.838037,842.705048,-518.144159,8956.491898
660.838353,-612.876398,-1480.411884,9474.636058
660.838668,-1915.238745,-2516.700203,10584.944971
660.838984,-919.314598,-2294.638420,10955.047942
660.839300,-1302.362347,-1406.391290,11177.109724
660.839616,-1378.971896,-444.123565,10658.965565
660.839931,-1455.581446,74.020594,9844.739029
660.840247,-1302.362347,888.247130,9548.656652
660.840563,-612.876398,1036.288319,8734.430116
660.840878,383.047749,740.205942,8734.430116
660.841194,1225.752797,-74.020594,8734.430116
660.841510,76.609550,-962.267725,9030.512492
660.841826,306.438199,-1998.556043,10214.842000
660.842141,383.047749,-1850.514855,10288.862594
660.842457,842.705048,-1110.308913,9918.759623
660.842773,919.314598,-0.000000,9844.739029
660.843088,612.876398,888.247130,9326.594869
660.843404,995.924147,1480.411884,9030.512492
660.843720,1455.581446,2146.597232,7994.224174
660.844036,1915.238745,1924.535449,7920.203579
660.844351,2374.896044,1110.308913,8290.306550
660.844667,1532.190996,-148.041188,8364.327145
660.844983,612.876398,-1628.453072,9030.512492
660.845299,0.000000,-2072.576638,10436.903782
660.845614,-153.219100,-1554.432478,10881.027347
660.845930,-383.047749,-1036.288319,10955.047942
660.846246,-766.095498,-444.123565,10881.027347
660.846561,-1225.752797,296.082377,10140.821405
660.846877,-536.266849,814.226536,9326.594869
660.847193,306.438199,1480.411884,8586.388927
660.847509,995.924147,814.226536,8586.388927
660.847824,1302.362347,-0.000000,8660.409521
660.848140,459.657299,-888.247130,8734.430116
660.848456,842.705048,-1628.453072,9622.677246
660.848771,995.924147,-1776.494261,10584.944971
660.849087,1302.362347,-666.185348,10288.862594
660.849403,1455.581446,148.041188,9992.780217
660.849719,1072.533697,1332.370696,9178.553681
660.850034,766.095498,2072.576638,8438.347739
660.850350,1991.848295,2516.700203,8142.265362
660.850666,2374.896044,1480.411884,7994.224174
660.850982,2298.286494,962.267725,8512.368333
660.851297,842.705048,-518.144159,9178.553681
660.851613,459.657299,-1924.535449,9770.718434
660.851929,-612.876398,-2368.659014,11177.109724
660.852244,-766.095498,-1924.535449,11029.068536
660.852560,153.219100,-1110.308913,10658.965565
660.852876,-1225.752797,-370.102971,10510.924376
660.853192,-1532.190996,370.102971,9696.697840
660.853507,-995.924147,296.082377,9104.533087
660.853823,-153.219100,518.144159,9104.533087
660.854139,383.047749,-0.000000,9252.574275
660.854454,229.828649,-1184.329507,8956.491898
660.854770,383.047749,-1924.535449,9474.636058
660.855086,0.000000,-2368.659014,10436.903782
660.855402,536.266849,-1850.514855,10362.883188
660.855717,919.314598,-1110.308913,10214.842000
660.856033,919.314598,-0.000000,9400.615463
660.856349,612.876398,1184.329507,8882.471304
660.856664,842.705048,1924.535449,8068.244768
660.856980,1149.143247,1998.556043,7698.141797
660.857296,2528.115143,1036.288319,7846.182985
660.857612,1762.019645,-0.000000,8512.368333
660.857927,612.876398,-1406.391290,8660.409521
660.858243,-383.047749,-2368.659014,9770.718434
660.858559,-842.705048,-2738.761985,10955.047942
660.858875,-1225.752797,-2368.659014,10955.047942
660.859190,-1302.362347,-1332.370696,10881.027347
660.859506,-1762.019645,-518.144159,10436.903782
660.859822,-1608.800546,370.102971,9548.656652
660.860137,-919.314598,740.205942,8882.471304
660.860453,76.609550,666.185348,8216.285956
660.860769,919.314598,370.102971,8660.409521
660.861085,536.266849,-1036.288319,8734.430116
660.861400,536.266849,-1850.514855,9030.512492
660.861716,536.266849,-2146.597232,10584.944971
660.862032,919.314598,-1554.432478,9844.739029
660.862347,1072.533697,-296.082377,9918.759623
660.862663,842.705048,740.205942,9622.677246
660.862979,689.485948,1702.473667,8882.471304
660.863295,842.705048,2368.659014,8216.285956
660.863610,1685.410096,2738.761985,7846.182985
660.863926,2374.896044,1702.473667,7994.224174
660.864242,1608.800546,-0.000000,8808.450710
660.864557,383.047749,-1110.308913,9326.594869
660.864873,0.000000,-2220.617826,10510.924376
660.865189,-306.438199,-2516.700203,11399.171507
660.865505,-459.657299,-1702.473667,11325.150913
660.865820,-995.924147,-814.226536,11177.109724
660.866136,-919.314598,-666.185348,10732.986159
660.866452,-766.095498,592.164754,9918.759623
660.866768,0.000000,1702.473667,9030.512492
660.867083,919.314598,1332.370696,8660.409521
660.867399,1685.410096,222.061783,8956.491898
660.867715,1225.752797,-888.247130,8882.471304
660.868030,1149.143247,-1776.494261,9474.636058
660.868346,995.924147,-2294.638420,10584.944971
660.868662,1608.800546,-1406.391290,10214.842000
660.868978,1991.848295,-0.000000,9992.780217
660.869293,1532.190996,1184.329507,9104.533087
660.869609,1225.752797,1776.494261,8660.409521
660.869925,1915.238745,2368.659014,8512.368333
660.870240,2298.286494,2294.638420,7476.080014
660.870556,2374.896044,1110.308913,8142.265362
660.870872,1608.800546,-592.164754,8808.450710
660.871188,612.876398,-1258.350101,9178.553681
660.871503,-306.438199,-2146.597232,10510.924376
660.871819,-536.266849,-2072.576638,11325.150913
660.872135,-536.266849,-1628.453072,11177.109724
660.872450,-919.314598,-888.247130,11251.130318
660.872766,-1608.800546,-0.000000,10140.821405
660.873082,-1532.190996,592.164754,9474.636058
660.873398,-612.876398,1406.391290,9030.512492
660.873713,0.000000,1258.350101,8660.409521
660.874029,689.485948,518.144159,8734.430116
660.874345,919.314598,-370.102971,8808.450710
660.874661,153.219100,-1110.308913,8956.491898
660.874976,459.657299,-1776.494261,10288.862594
660.875292,842.705048,-1776.494261,10362.883188
660.875608,995.924147,-222.061783,10140.821405
660.875923,459.657299,814.226536,9474.636058
660.876239,995.924147,2220.617826,8956.491898
660.876555,1455.581446,2368.659014,7846.182985
660.876871,1838.629195,2442.679609,7550.100608
660.877186,1915.238745,1406.391290,8142.265362
660.877502,1378.971896,-444.123565,8512.368333
660.877818,153.219100,-1702.473667,9178.553681
660.878133,-842.705048,-2294.638420,10807.006753
660.878449,-842.705048,-2442.679609,11251.130318
660.878765,-1072.533697,-1406.391290,11399.171507
660.879081,-1455.581446,-592.164754,10732.986159
660.879396,-1685.410096,222.061783,10288.862594
660.879712,-1149.143247,518.144159,9326.594869
660.880028,-306.438199,814.226536,8882.471304
660.880343,842.705048,148.041188,8808.450710
660.880659,1072.533697,-0.000000,8808.450710
660.880975,1378.971896,-962.267725,8808.450710
660.881291,919.314598,-1776.494261,9474.636058
660.881606,1225.752797,-1554.432478,10066.800811
660.881922,1302.362347,-592.164754,9992.780217
660.882238,1302.362347,-0.000000,9696.697840
660.882554,995.924147,888.247130,9474.636058
660.882869,383.047749,1332.370696,8734.430116
660.883185,1225.752797,1850.514855,8216.285956
660.883501,1608.800546,1332.370696,7994.224174
660.883816,1915.238745,518.144159,8660.409521
660.884132,1225.752797,-444.123565,8956.491898
660.884448,0.000000,-1554.432478,9770.718434
660.884764,-459.657299,-1998.556043,10436.903782
660.885079,-689.485948,-2146.597232,10955.047942
660.885395,-689.485948,-1628.453072,11251.130318
660.885711,-1302.362347,-1184.329507,11251.130318
660.886026,-1608.800546,-74.020594,10436.903782
660.886342,-1149.143247,592.164754,9104.533087
660.886658,0.000000,814.226536,8734.430116
660.886974,766.095498,370.102971,8956.491898
660.887289,1225.752797,-666.185348,9030.512492
660.887605,766.095498,-1406.391290,9178.553681
660.887921,536.266849,-2294.638420,9918.759623
660.888237,995.924147,-1924.535449,10510.924376
660.888552,1302.362347,-740.205942,10288.862594
660.888868,1072.533697,148.041188,9474.636058
660.889184,612.876398,740.205942,8808.450710
660.889499,689.485948,1628.453072,8364.327145
660.889815,1072.533697,1702.473667,8216.285956
660.890131,1762.019645,962.267725,8216.285956
660.890447,1225.752797,296.082377,8808.450710
660.890762,919.314598,-1184.329507,8956.491898
660.891078,76.609550,-2146.597232,9770.718434
660.891394,-536.266849,-2590.720797,10510.924376
660.891709,-689.485948,-2072.576638,10955.047942
660.892025,-1149.143247,-1628.453072,11103.089130
660.892341,-1072.533697,-888.247130,10881.027347
660.892657,-1762.019645,-444.123565,9770.718434
660.892972,-995.924147,518.144159,9178.553681
660.893288,76.609550,888.247130,8512.368333
660.893604,1149.143247,592.164754,8438.347739
660.893919,1302.362347,-222.061783,8586.388927
660.894235,842.705048,-1036.288319,8216.285956
660.894551,689.485948,-1628.453072,9474.636058
660.894867,1072.533697,-1036.288319,10140.821405
660.895182,1685.410096,-740.205942,9770.718434
660.895498,1225.752797,296.082377,9548.656652
660.895814,612.876398,1406.391290,9104.533087
660.896130,919.314598,2072.576638,8364.327145
660.896445,1302.362347,2294.638420,8142.265362
660.896761,1072.533697,1480.411884,8586.388927
660.897077,1302.362347,370.102971,8660.409521
660.897392,766.095498,-666.185348,9252.574275
660.897708,-229.828649,-1776.494261,10288.862594
660.898024,-612.876398,-1702.473667,11325.150913
660.898340,-229.828649,-1628.453072,11029.068536
660.898655,-919.314598,-888.247130,11177.109724
660.898971,-1532.190996,-148.041188,10881.027347
660.899287,-1455.581446,666.185348,9844.739029
660.899602,-536.266849,1332.370696,9030.512492
660.899918,536.266849,1332.370696,8660.409521
660.900234,1302.362347,888.247130,8660.409521
660.900550,1378.971896,222.061783,9030.512492
660.900865,919.314598,-592.164754,9252.574275
660.901181,919.314598,-1480.411884,10362.883188
660.901497,1149.143247,-1406.391290,10510.924376
660.901812,1302.362347,-222.061783,10362.883188
660.902128,919.314598,518.144159,10140.821405
660.902444,536.266849,1480.411884,9104.533087
660.902760,842.705048,1924.535449,8512.368333
660.903075,1455.581446,2146.597232,8068.244768
660.903391,1762.019645,1554.432478,8364.327145
660.903707,1455.581446,-74.020594,9030.512492
660.904023,536.266849,-1036.288319,9400.615463
660.904338,-459.657299,-2368.659014,10066.800811
660.904654,-536.266849,-2220.617826,11103.089130
660.904970,-383.047749,-2072.576638,11029.068536
660.905285,-1072.533697,-1184.329507,11029.068536
660.905601,-1608.800546,-444.123565,10584.944971
660.905917,-919.314598,518.144159,9474.636058
660.906233,0.000000,1184.329507,9104.533087
660.906548,689.485948,1332.370696,8438.347739
660.906864,1225.752797,518.144159,8438.347739
660.907180,1608.800546,-296.082377,8882.471304
660.907495,766.095498,-1554.432478,9326.594869
660.907811,459.657299,-1776.494261,9844.739029
660.908127,1378.971896,-1258.350101,10288.862594
660.908443,1225.752797,-296.082377,10214.842000
660.908758,536.266849,592.164754,9474.636058
660.909074,612.876398,1776.494261,9030.512492
660.909390,919.314598,2072.576638,8512.368333
660.909705,1302.362347,2072.576638,7994.224174
660.910021,1608.800546,1258.350101,8068.244768
660.910337,1149.143247,-222.061783,8438.347739
660.910653,536.266849,-1406.391290,8956.491898
660.910968,0.000000,-2516.700203,9844.739029
660.911284,-229.828649,-2664.741391,11103.089130
660.911600,-459.657299,-1702.473667,11103.089130
660.911916,-766.095498,-1184.329507,10658.965565
660.912231,-1225.752797,-0.000000,9770.718434
660.912547,-919.314598,444.123565,9326.594869
660.912863,383.047749,1036.288319,8734.430116
660.913178,1302.362347,888.247130,7920.203579
660.913494,1302.362347,-0.000000,8216.285956
660.913810,1455.581446,-592.164754,8660.409521
660.914126,919.314598,-1554.432478,9030.512492
660.914441,536.266849,-1998.556043,10362.883188
660.914757,995.924147,-1702.473667,10362.883188
660.915073,919.314598,-370.102971,10066.800811
660.915388,612.876398,444.123565,9622.677246
660.915704,306.438199,1332.370696,9104.533087
660.916020,1149.143247,1924.535449,8512.368333
660.916336,1838.629195,1554.432478,7476.080014
660.916651,1762.019645,1480.411884,8364.327145
660.916967,1378.971896,-74.020594,8808.450710
660.917283,153.219100,-1480.411884,9326.594869
660.917599,0.000000,-2368.659014,10584.944971
660.917914,-612.876398,-2516.700203,11325.150913
660.918230,-766.095498,-1628.453072,11251.130318
660.918546,-842.705048,-962.267725,10732.986159
660.918861,-995.924147,-0.000000,10066.800811
660.919177,-1149.143247,740.205942,9474.636058
660.919493,0.000000,1554.432478,8808.450710
660.919809,689.485948,1036.288319,8512.368333
660.920124,1378.971896,-0.000000,9104.533087
660.920440,1149.143247,-814.226536,9030.512492
660.920756,459.657299,-1628.453072,9622.677246
660.921071,459.657299,-2294.638420,10658.965565
660.921387,612.876398,-1554.432478,10732.986159
660.921703,612.876398,-296.082377,10214.842000
660.922019,306.438199,222.061783,9622.677246
660.922334,76.609550,1998.556043,9326.594869
660.922650,689.485948,1850.514855,8438.347739
660.922966,1455.581446,1702.473667,7994.224174
660.923281,1378.971896,1036.288319,8660.409521
660.923597,919.314598,-814.226536,9030.512492
660.923913,536.266849,-1628.453072,9326.594869
660.924229,-766.095498,-2368.659014,10658.965565
660.924544,-842.705048,-2368.659014,11177.109724
660.924860,-536.266849,-1628.453072,11029.068536
660.925176,-1225.752797,-888.247130,10732.986159
660.925492,-1455.581446,-0.000000,9918.759623
660.925807,-995.924147,740.205942,9030.512492
660.926123,153.219100,1406.391290,8660.409521
660.926439,842.705048,666.185348,8438.347739
660.926754,1302.362347,-444.123565,8512.368333
660.927070,1378.971896,-1258.350101,9030.512492
660.927386,766.095498,-2146.597232,9474.636058
660.927702,995.924147,-2072.576638,10362.883188
660.928017,1225.752797,-1258.350101,10066.800811
660.928333,1149.143247,-148.041188,9622.677246
660.928649,689.485948,962.267725,9030.512492
660.928964,842.705048,1850.514855,8068.244768
660.929280,1762.019645,2146.597232,7846.182985
660.929596,2221.676944,1776.494261,7624.121203
660.929912,2451.505594,814.226536,8068.244768
660.930227,1378.971896,-296.082377,8142.265362
660.930543,919.314598,-1110.308913,9104.533087
660.930859,0.000000,-2146.597232,10288.862594
660.931174,76.609550,-2146.597232,10881.027347
660.931490,-229.828649,-1110.308913,10807.006753
660.931806,-1072.533697,-592.164754,10510.924376
660.932122,-1225.752797,148.041188,9844.739029
660.932437,-689.485948,1110.308913,9104.533087
660.932753,0.000000,1406.391290,8882.471304
660.933069,1072.533697,888.247130,8882.471304
660.933385,1149.143247,-0.000000,8808.450710
660.933700,1149.143247,-962.267725,9104.533087
660.934016,689.485948,-1850.514855,10066.800811
660.934332,995.924147,-1258.350101,10362.883188
660.934647,1608.800546,-962.267725,10362.883188
660.934963,1072.533697,-0.000000,9918.759623
660.935279,766.095498,1184.329507,9474.636058
660.935595,766.095498,1850.514855,8660.409521
660.935910,1532.190996,2220.617826,8068.244768
660.936226,2451.505594,1702.473667,8216.285956
660.936542,2221.676944,814.226536,8364.327145
660.936858,919.314598,-666.185348,9326.594869
660.937173,76.609550,-2146.597232,9918.759623
660.937489,-459.657299,-2442.679609,11695.253884
660.937805,-919.314598,-2294.638420,11399.171507
660.938120,-1072.533697,-1332.370696,11251.130318
660.938436,-1608.800546,-222.061783,10658.965565
660.938752,-1915.238745,740.205942,9548.656652
660.939068,-766.095498,888.247130,9400.615463
660.939383,0.000000,1184.329507,8882.471304
660.939699,383.047749,74.020594,9104.533087
660.940015,689.485948,-740.205942,8956.491898
660.940331,383.047749,-1406.391290,9178.553681
660.940646,229.828649,-1924.535449,10214.842000
660.940962,459.657299,-1258.350101,10510.924376
660.941278,842.705048,-222.061783,10214.842000
660.941593,536.266849,592.164754,9844.739029
660.941909,0.000000,1776.494261,8808.450710
660.942225,766.095498,1776.494261,8216.285956
660.942541,1378.971896,1998.556043,7920.203579
660.942856,1532.190996,1258.350101,7994.224174
660.943172,1532.190996,296.082377,8660.409521
660.943488,766.095498,-814.226536,8956.491898
660.943804,-229.828649,-1924.535449,9918.759623
660.944119,-306.438199,-1998.556043,10807.006753
660.944435,-383.047749,-1554.432478,10658.965565
660.944751,-919.314598,-1184.329507,10658.965565
660.945066,-1072.533697,-296.082377,10658.965565
660.945382,-1762.019645,-222.061783,9474.636058
660.945698,-612.876398,740.205942,8956.491898
660.946014,689.485948,888.247130,8216.285956
660.946329,1302.362347,-0.000000,8068.244768
660.946645,1149.143247,-592.164754,8882.471304
660.946961,306.438199,-1628.453072,9030.512492
660.947277,766.095498,-1924.535449,9696.697840
660.947592,1225.752797,-1628.453072,9918.759623
660.947908,1225.752797,-962.267725,9992.780217
660.948224,536.266849,-74.020594,9474.636058
660.948539,689.485948,1036.288319,8956.491898
660.948855,919.314598,1554.432478,8216.285956
660.949171,1455.581446,1628.453072,7698.141797
660.949487,1991.848295,1036.288319,7994.224174
660.949802,1378.971896,-666.185348,8586.388927
660.950118,383.047749,-1554.432478,8882.471304
660.950434,153.219100,-2368.659014,10214.842000
660.950750,0.000000,-2442.679609,11103.089130
660.951065,-229.828649,-1406.391290,11029.068536
660.951381,-536.266849,-740.205942,10510.924376
660.951697,-919.314598,370.102971,10066.800811
660.952012,-612.876398,1036.288319,9178.553681
660.952328,0.000000,1554.432478,8808.450710
660.952644,1072.533697,814.226536,8808.450710
660.952960,1225.752797,296.082377,9178.553681
660.953275,1225.752797,-962.267725,9178.553681
660.953591,689.485948,-1850.514855,9696.697840
660.953907,612.876398,-1850.514855,10584.944971
660.954223,689.485948,-740.205942,10436.903782
660.954538,995.924147,148.041188,10510.924376
660.954854,383.047749,888.247130,9992.780217
660.955170,536.266849,1998.556043,9030.512492
660.955485,995.924147,1850.514855,8586.388927
660.955801,1532.190996,1776.494261,8068.244768
660.956117,1915.238745,740.205942,8660.409521
660.956433,1455.581446,-592.164754,9104.533087
660.956748,76.609550,-1332.370696,9252.574275
660.957064,-383.047749,-2072.576638,10658.965565
660.957380,-306.438199,-1924.535449,11621.233289
660.957696,-536.266849,-1332.370696,11177.109724
660.958011,-1072.533697,-740.205942,11029.068536
660.958327,-1149.143247,296.082377,9992.780217
660.958643,0.000000,888.247130,9400.615463
660.958959,76.609550,1406.391290,9030.512492
660.959274,689.485948,962.267725,8586.388927
660.959590,1072.533697,-0.000000,8882.471304
660.959906,536.266849,-1110.308913,8882.471304
660.960221,229.828649,-1850.514855,9770.718434
660.960537,229.828649,-2294.638420,10584.944971
660.960853,536.266849,-1628.453072,10362.883188
660.961169,459.657299,-592.164754,9992.780217
660.961484,153.219100,222.061783,9326.594869
660.961800,153.219100,1184.329507,8364.327145
660.962116,995.924147,1702.473667,7994.224174
660.962432,1378.971896,1480.411884,7698.141797
660.962747,1762.019645,370.102971,8068.244768
660.963063,995.924147,-888.247130,8364.327145
660.963379,0.000000,-1702.473667,9178.553681
660.963694,-229.828649,-2368.659014,10214.842000
660.964010,-229.828649,-2146.597232,10436.903782
660.964326,-612.876398,-1480.411884,10584.944971
660.964642,-766.095498,-962.267725,10214.842000
660.964957,-612.876398,-0.000000,9326.594869
660.965273,-383.047749,962.267725,8882.471304
660.965589,459.657299,1258.350101,8438.347739
660.965905,1225.752797,666.185348,8586.388927
660.966220,1608.800546,-370.102971,8882.471304
660.966536,995.924147,-1036.288319,8808.450710
660.966852,459.657299,-1258.350101,9474.636058
660.967167,766.095498,-1110.308913,10288.862594
660.967483,842.705048,-814.226536,10362.883188
660.967799,383.047749,-0.000000,9844.739029
660.968115,536.266849,1184.329507,9548.656652
660.968430,383.047749,1480.411884,9030.512492
660.968746,1302.362347,1924.535449,8586.388927
660.969062,1915.238745,1776.494261,8216.285956
660.969378,2145.067394,814.226536,8734.430116
660.969693,1378.971896,-592.164754,9178.553681
660.970009,612.876398,-1036.288319,9548.656652
660.970325,0.000000,-1332.370696,10510.924376
660.970640,-383.047749,-1036.288319,10955.047942
660.970956,-842.705048,-1184.329507,11399.171507
660.971272,-536.266849,-148.041188,10584.944971
660.971588,-612.876398,666.185348,9622.677246
660.971903,-536.266849,962.267725,8956.491898
660.972219,536.266849,1110.308913,8734.430116
660.972535,1455.581446,518.144159,9178.553681
660.972851,1072.533697,-444.123565,9400.615463
660.973166,536.266849,-1036.288319,9548.656652
660.973482,383.047749,-1554.432478,10140.821405
660.973798,536.266849,-1406.391290,10510.924376
660.974113,1685.410096,-888.247130,10658.965565
660.974429,766.095498,-0.000000,9844.739029
660.974745,383.047749,1036.288319,9178.553681
660.975061,612.876398,1850.514855,8438.347739
660.975376,1225.752797,2072.576638,8512.368333
660.975692,2068.457845,1480.411884,8364.327145
660.976008,1608.800546,370.102971,8660.409521
660.976324,995.924147,-518.144159,9104.533087
660.976639,229.828649,-1554.432478,10066.800811
660.976955,0.000000,-1924.535449,10881.027347
660.977271,-306.438199,-1554.432478,11177.109724
660.977586,-383.047749,-888.247130,10807.006753
660.977902,-459.657299,296.082377,10288.862594
660.978218,-919.314598,740.205942,9622.677246
660.978534,-153.219100,1184.329507,9326.594869
660.978849,612.876398,1332.370696,8882.471304
660.979165,1149.143247,666.185348,8586.388927
660.979481,1378.971896,-370.102971,8660.409521
660.979797,919.314598,-1184.329507,9104.533087
660.980112,919.314598,-2368.659014,9992.780217
660.980428,1072.533697,-1406.391290,10362.883188
660.980744,1072.533697,-592.164754,10066.800811
660.981060,1149.143247,592.164754,9548.656652
660.981375,689.485948,1480.411884,8734.430116
660.981691,1302.362347,1406.391290,7994.224174
660.982007,1378.971896,1776.494261,8290.306550
660.982322,1608.800546,1036.288319,8216.285956
660.982638,1302.362347,-74.020594,8512.368333
660.982954,383.047749,-1332.370696,9030.512492
660.983270,-383.047749,-2442.679609,10066.800811
660.983585,-689.485948,-2442.679609,11399.171507
660.983901,-536.266849,-1850.514855,10955.047942
660.984217,-1149.143247,-1332.370696,10807.006753
660.984533,-1455.581446,-518.144159,10140.821405
660.984848,-1072.533697,296.082377,9474.636058
660.985164,-536.266849,1036.288319,8660.409521
660.985480,383.047749,962.267725,8142.265362
660.985795,1072.533697,-0.000000,8364.327145
660.986111,919.314598,-1110.308913,8660.409521
660.986427,153.219100,-2146.597232,8882.471304
660.986743,306.438199,-1998.556043,10362.883188
660.987058,536.266849,-1628.453072,10140.821405
660.987374,919.314598,-740.205942,10362.883188
660.987690,459.657299,962.267725,9474.636058
660.988006,76.609550,1184.329507,8512.368333
660.988321,536.266849,1850.514855,8734.430116
660.988637,1072.533697,1480.411884,8586.388927
660.988953,1455.581446,592.164754,8364.327145
660.989268,995.924147,-740.205942,9178.553681
660.989584,0.000000,-1480.411884,9474.636058
660.989900,-459.657299,-2368.659014,10658.965565
660.990216,-689.485948,-2072.576638,11103.089130
660.990531,-612.876398,-1332.370696,11103.089130
660.990847,-766.095498,-518.144159,10955.047942
660.991163,-1302.362347,-0.000000,10362.883188
660.991479,-919.314598,518.144159,9548.656652
660.991794,229.828649,1110.308913,9104.533087
660.992110,1072.533697,962.267725,8364.327145
660.992426,1455.581446,-74.020594,8808.450710
660.992741,1532.190996,-814.226536,8808.450710
660.993057,1302.362347,-1406.391290,9178.553681
660.993373,995.924147,-1776.494261,10214.842000
660.993689,1149.143247,-1184.329507,10436.903782
660.994004,995.924147,-148.041188,10214.842000
660.994320,919.314598,962.267725,9622.677246
660.994636,919.314598,1776.494261,8808.450710
660.994952,1532.190996,2072.576638,7920.203579
660.995267,2221.676944,1628.453072,8290.306550
660.995583,2068.457845,814.226536,8438.347739
660.995899,1762.019645,-222.061783,8660.409521
660.996214,459.657299,-1406.391290,9474.636058
660.996530,-383.047749,-2220.617826,10584.944971
660.996846,-459.657299,-2146.597232,11029.068536
660.997162,-612.876398,-1332.370696,11177.109724
660.997477,-1072.533697,-666.185348,10732.986159
660.997793,-1302.362347,-0.000000,9844.739029
660.998109,-1225.752797,370.102971,9474.636058
660.998425,0.000000,1406.391290,8734.430116
660.998740,1072.533697,962.267725,8882.471304
660.999056,1378.971896,222.061783,8512.368333
660.999372,766.095498,-592.164754,8512.368333
660.999687,536.266849,-1702.473667,9252.574275
661.000003,766.095498,-1554.432478,10436.903782
661.000319,842.705048,-814.226536,9992.780217
661.000635,995.924147,-0.000000,9844.739029
661.000950,612.876398,1110.308913,9474.636058
661.001266,459.657299,2072.576638,8734.430116
661.001582,1072.533697,2294.638420,8142.265362
661.001898,1378.971896,1924.535449,8142.265362
661.002213,1838.629195,814.226536,8364.327145
661.002529,1149.143247,-814.226536,8734.430116
661.002845,76.609550,-1628.453072,9474.636058
661.003160,-612.876398,-2368.659014,10807.006753
661.003476,-919.314598,-2072.576638,11251.130318
661.003792,-842.705048,-1258.350101,11103.089130
661.004108,-995.924147,-296.082377,10732.986159
661.004423,-1685.410096,222.061783,9622.677246
661.004739,-766.095498,740.205942,9400.615463
661.005055,229.828649,962.267725,8586.388927
661.005371,1149.143247,296.082377,8956.491898
661.005686,919.314598,-518.144159,8734.430116
661.006002,995.924147,-1702.473667,9474.636058
661.006318,306.438199,-2294.638420,9992.780217
661.006634,842.705048,-2072.576638,10658.965565
661.006949,1225.752797,-888.247130,10140.821405
661.007265,919.314598,370.102971,10066.800811
661.007581,689.485948,1184.329507,9252.574275
661.007896,689.485948,1776.494261,8068.244768
661.008212,1762.019645,2072.576638,7846.182985
661.008528,2145.067394,1332.370696,8142.265362
661.008844,2145.067394,148.041188,8512.368333
661.009159,919.314598,-1332.370696,8956.491898
661.009475,383.047749,-2294.638420,9992.780217
661.009791,-383.047749,-2738.761985,10955.047942
661.010107,-306.438199,-2368.659014,11473.192101
661.010422,-612.876398,-1702.473667,11473.192101
661.010738,-1302.362347,-518.144159,10584.944971
661.011054,-1225.752797,370.102971,9696.697840
661.011369,-459.657299,740.205942,8956.491898
661.011685,689.485948,814.226536,8586.388927
661.012001,1378.971896,-0.000000,8660.409521
661.012317,1149.143247,-740.205942,8660.409521
661.012632,919.314598,-1554.432478,9104.533087
661.012948,689.485948,-1702.473667,9770.718434
661.013264,1149.143247,-1332.370696,9992.780217
661.013580,1455.581446,-370.102971,10214.842000
661.013895,995.924147,-0.000000,9770.718434
661.014211,612.876398,962.267725,9252.574275
661.014527,1455.581446,1924.535449,8734.430116
661.014842,1455.581446,1554.432478,8216.285956
661.015158,1762.019645,1258.350101,8142.265362
661.015474,1838.629195,296.082377,8660.409521
661.015790,1072.533697,-222.061783,8660.409521
661.016105,0.000000,-1110.308913,9400.615463
661.016421,-153.219100,-1702.473667,10436.903782
661.016737,-612.876398,-1702.473667,10732.986159
661.017053,-766.095498,-1110.308913,10881.027347
661.017368,-1072.533697,-666.185348,10214.842000
661.017684,-1608.800546,370.102971,9918.759623
661.018000,-383.047749,1036.288319,9104.533087
661.018315,306.438199,1480.411884,8660.409521
661.018631,995.924147,888.247130,8660.409521
661.018947,842.705048,-0.000000,8734.430116
661.019263,459.657299,-1184.329507,8660.409521
661.019578,306.438199,-1480.411884,9770.718434
661.019894,536.266849,-1554.432478,10881.027347
661.020210,689.485948,-740.205942,10807.006753
661.020526,1072.533697,592.164754,10066.800811
661.020841,0.000000,2146.597232,9474.636058
661.021157,536.266849,2368.659014,8512.368333
661.021473,1532.190996,2590.720797,7846.182985
661.021788,1608.800546,1924.535449,8142.265362
661.022104,1455.581446,74.020594,9178.553681
661.022420,689.485948,-1184.329507,9400.615463
661.022736,-229.828649,-1924.535449,10140.821405
661.023051,-536.266849,-2294.638420,11251.130318
661.023367,-612.876398,-1628.453072,11325.150913
661.023683,-842.705048,-814.226536,11769.274478
661.023999,-1455.581446,-0.000000,10362.883188
661.024314,-1455.581446,814.226536,9622.677246
661.024630,-536.266849,1036.288319,8882.471304
661.024946,536.266849,666.185348,8660.409521
661.025261,919.314598,-444.123565,9104.533087
661.025577,995.924147,-1480.411884,9178.553681
661.025893,612.876398,-1776.494261,9326.594869
661.026209,612.876398,-1850.514855,10214.842000
661.026524,1532.190996,-1776.494261,10288.862594
661.026840,1302.362347,-0.000000,10066.800811
661.027156,995.924147,962.267725,9178.553681
661.027472,995.924147,1998.556043,8438.347739
661.027787,1532.190996,2072.576638,8142.265362
661.028103,1915.238745,1850.514855,8068.244768
661.028419,2145.067394,1110.308913,7920.203579
661.028734,1838.629195,-444.123565,8512.368333
661.029050,612.876398,-1480.411884,9104.533087
661.029366,0.000000,-2072.576638,10214.842000
661.029682,0.000000,-2146.597232,11399.171507
661.029997,-459.657299,-1332.370696,11103.089130
661.030313,-995.924147,-370.102971,10807.006753
661.030629,-1225.752797,296.082377,10140.821405
661.030945,-919.314598,1036.288319,9252.574275
661.031260,-229.828649,1776.494261,8512.368333
661.031576,919.314598,1628.453072,8512.368333
661.031892,1455.581446,370.102971,8734.430116
661.032208,1302.362347,-592.164754,8586.388927
661.032523,919.314598,-1406.391290,9326.594869
661.032839,995.924147,-2368.659014,10288.862594
661.033155,919.314598,-1628.453072,10362.883188
661.033470,995.924147,-296.082377,10140.821405
661.033786,612.876398,888.247130,9400.615463
661.034102,76.609550,1924.535449,8512.368333
661.034418,842.705048,2072.576638,8068.244768
661.034733,1838.629195,2220.617826,7624.121203
661.035049,1762.019645,1036.288319,7994.224174
661.035365,1302.362347,-518.144159,8882.471304
661.035681,459.657299,-1924.535449,9178.553681
661.035996,-689.485948,-2738.761985,10584.944971
661.036312,-1072.533697,-2590.720797,11695.253884
661.036628,-1378.971896,-1628.453072,11621.233289
661.036943,-1608.800546,-740.205942,11177.109724
661.037259,-2068.457845,370.102971,10214.842000
661.037575,-1838.629195,1036.288319,9400.615463
661.037891,-229.828649,1332.370696,9178.553681
661.038206,612.876398,1036.288319,8882.471304
661.038522,1532.190996,74.020594,9030.512492
661.038838,1149.143247,-666.185348,8660.409521
661.039153,919.314598,-1332.370696,9252.574275
661.039469,842.705048,-1554.432478,10436.903782
661.039785,995.924147,-1036.288319,10362.883188
661.040101,842.705048,-0.000000,10288.862594
661.040416,459.657299,1258.350101,9474.636058
661.040732,383.047749,2146.597232,8512.368333
661.041048,1455.581446,2442.679609,7994.224174
661.041363,1608.800546,2368.659014,7772.162391
661.041679,1838.629195,962.267725,8364.327145
661.041995,1225.752797,-74.020594,8808.450710
661.042311,459.657299,-1554.432478,9474.636058
661.042626,0.000000,-2146.597232,10584.944971
661.042942,-306.438199,-1924.535449,11547.212695
661.043258,-689.485948,-1036.288319,11325.150913
661.043573,-995.924147,-444.123565,10584.944971
661.043889,-1225.752797,814.226536,9844.739029
661.044205,-536.266849,962.267725,9252.574275
661.044521,612.876398,1628.453072,8882.471304
661.044836,1685.410096,962.267725,8808.450710
661.045152,1915.238745,-296.082377,9030.512492
661.045468,1302.362347,-1036.288319,8882.471304
661.045783,1072.533697,-1332.370696,9474.636058
661.046099,1302.362347,-1480.411884,10436.903782
661.046415,1455.581446,-1184.329507,10214.842000
661.046731,919.314598,-0.000000,10140.821405
661.047046,383.047749,814.226536,9252.574275
661.047362,766.095498,1110.308913,8956.491898
661.047678,1072.533697,1332.370696,8290.306550
661.047993,2528.115143,962.267725,8216.285956
661.048309,1762.019645,-74.020594,8364.327145
661.048625,1072.533697,-1480.411884,9030.512492
661.048941,0.000000,-2516.700203,9548.656652
661.049256,-536.266849,-3034.844362,10732.986159
661.049572,-766.095498,-2738.761985,11103.089130
661.049888,-842.705048,-2294.638420,11251.130318
661.050203,-1225.752797,-1406.391290,10584.944971
661.050519,-1378.971896,-222.061783,9400.615463
661.050835,-689.485948,296.082377,8882.471304
661.051151,0.000000,370.102971,8438.347739
661.051466,995.924147,-296.082377,8512.368333
661.051782,1072.533697,-962.267725,8364.327145
661.052098,766.095498,-1480.411884,8512.368333
661.052413,842.705048,-1998.556043,9474.636058
661.052729,842.705048,-1998.556043,10288.862594
661.053045,995.924147,-1110.308913,10066.800811
661.053361,612.876398,-0.000000,9474.636058
661.053676,153.219100,1110.308913,8808.450710
661.053992,229.828649,1628.453072,8364.327145
661.054308,995.924147,1850.514855,8216.285956
661.054623,1378.971896,1554.432478,8216.285956
661.054939,1225.752797,444.123565,8660.409521
661.055255,536.266849,-888.247130,8808.450710
661.055571,0.000000,-2220.617826,9918.759623
661.055886,-459.657299,-2368.659014,10658.965565
661.056202,-689.485948,-1776.494261,10732.986159
661.056518,-995.924147,-1036.288319,10807.006753
661.056833,-1149.143247,-148.041188,10584.944971
661.057149,-842.705048,962.267725,9844.739029
661.057465,-459.657299,1184.329507,9030.512492
661.057781,536.266849,1258.350101,8734.430116
661.058096,1302.362347,444.123565,8586.388927
661.058412,1378.971896,-296.082377,8734.430116
661.058728,919.314598,-1110.308913,8808.450710
661.059043,766.095498,-1628.453072,9696.697840
661.059359,1072.533697,-1406.391290,10214.842000
661.059675,995.924147,-740.205942,10288.862594
661.059991,536.266849,296.082377,9992.780217
661.060306,459.657299,962.267725,9474.636058
661.060622,766.095498,1628.453072,9030.512492
661.060938,1302.362347,1850.514855,8364.327145
661.061253,1685.410096,1480.411884,8586.388927
661.061569,1991.848295,-222.061783,8660.409521
661.061885,536.266849,-814.226536,8882.471304
661.062201,76.609550,-1554.432478,9844.739029
661.062516,0.000000,-1850.514855,10881.027347
661.062832,-229.828649,-1406.391290,10881.027347
661.063148,0.000000,-888.247130,10807.006753
661.063463,-1225.752797,444.123565,10436.903782
661.063779,-1149.143247,1036.288319,9474.636058
661.064095,-383.047749,1406.391290,9178.553681
661.064411,383.047749,1406.391290,8882.471304
661.064726,1149.143247,296.082377,9474.636058
661.065042,1149.143247,-518.144159,9030.512492
661.065358,306.438199,-1258.350101,9104.533087
661.065673,383.047749,-1554.432478,10066.800811
661.065989,919.314598,-888.247130,10658.965565
661.066305,842.705048,-0.000000,10436.903782
661.066621,536.266849,962.267725,9992.780217
661.066936,459.657299,2072.576638,8882.471304
661.067252,1149.143247,2368.659014,8068.244768
661.067568,1915.238745,2368.659014,8216.285956
661.067883,2451.505594,1554.432478,8216.285956
661.068199,1991.848295,222.061783,8290.306550
661.068515,1072.533697,-814.226536,8956.491898
661.068831,153.219100,-1998.556043,9844.739029
661.069146,76.609550,-2294.638420,10881.027347
661.069462,-153.219100,-1554.432478,11251.130318
661.069778,-995.924147,-962.267725,10881.027347
661.070093,-1532.190996,-74.020594,10510.924376
661.070409,-1225.752797,518.144159,9696.697840
661.070725,-153.219100,814.226536,9104.533087
661.071041,612.876398,518.144159,8956.491898
661.071356,995.924147,-296.082377,8660.409521
661.071672,689.485948,-1406.391290,8882.471304
661.071988,689.485948,-2664.741391,9326.594869
661.072303,842.705048,-2442.679609,10214.842000
661.072619,995.924147,-1628.453072,10584.944971
661.072935,1072.533697,-592.164754,9770.718434
661.073251,612.876398,740.205942,9104.533087
661.073566,689.485948,1406.391290,8290.306550
661.073882,1532.190996,1628.453072,7846.182985
661.074198,1915.238745,1776.494261,7698.141797
661.074513,1838.629195,962.267725,8068.244768
661.074829,1378.971896,-1110.308913,8438.347739
661.075145,0.000000,-2072.576638,9252.574275
661.075461,-689.485948,-2664.741391,10288.862594
661.075776,-459.657299,-2516.700203,11325.150913
661.076092,-689.485948,-1776.494261,11103.089130
661.076408,-1225.752797,-814.226536,10732.986159
661.076723,-536.266849,296.082377,9844.739029
661.077039,-1149.143247,740.205942,9400.615463
661.077355,0.000000,1332.370696,8734.430116
661.077671,995.924147,1036.288319,8438.347739
661.077986,1225.752797,-0.000000,8586.388927
661.078302,1302.362347,-962.267725,8956.491898
661.078618,1072.533697,-1554.432478,9326.594869
661.078933,919.314598,-1702.473667,10140.821405
661.079249,1302.362347,-1110.308913,10362.883188
661.079565,995.924147,-222.061783,10214.842000
661.079881,1072.533697,1480.411884,9400.615463
661.080196,459.657299,1776.494261,8660.409521
661.080512,1072.533697,1998.556043,8216.285956
661.080828,1685.410096,1332.370696,8438.347739
661.081143,1532.190996,370.102971,9030.512492
661.081459,383.047749,-740.205942,9252.574275
661.081775,0.000000,-1554.432478,9178.553681
661.082091,-536.266849,-2738.761985,10807.006753
661.082406,-536.266849,-2368.659014,11325.150913
661.082722,-1072.533697,-1554.432478,11251.130318
661.083038,-995.924147,-1480.411884,11029.068536
661.083353,-1608.800546,-444.123565,10066.800811
661.083669,-1072.533697,370.102971,9474.636058
661.083985,0.000000,888.247130,8734.430116
661.084301,919.314598,296.082377,8660.409521
661.084616,689.485948,-888.247130,9252.574275
661.084932,1149.143247,-1406.391290,8734.430116
661.085248,229.828649,-1924.535449,9252.574275
661.085563,766.095498,-2146.597232,10584.944971
661.085879,842.705048,-1184.329507,9992.780217
661.086195,919.314598,-0.000000,9252.574275
661.086511,0.000000,1110.308913,9030.512492
661.086826,153.219100,2368.659014,8512.368333
661.087142,842.705048,2590.720797,7772.162391
661.087458,1302.362347,1998.556043,7624.121203
661.087773,1149.143247,518.144159,8290.306550
661.088089,459.657299,-1184.329507,9030.512492
661.088405,-383.047749,-1850.514855,9770.718434
661.088721,-689.485948,-1924.535449,11029.068536
661.089036,-766.095498,-1406.391290,11103.089130
661.089352,-919.314598,-296.082377,10881.027347
661.089668,-1378.971896,814.226536,10436.903782
661.089983,-1455.581446,1850.514855,9622.677246
661.090299,-383.047749,2294.638420,9030.512492
661.090615,842.705048,2442.679609,8586.388927
661.090931,1302.362347,1702.473667,8808.450710
661.091246,1532.190996,740.205942,8808.450710
661.091562,1455.581446,-0.000000,8882.471304
661.091878,1378.971896,-592.164754,9770.718434
661.092193,1455.581446,-222.061783,10362.883188
661.092509,1915.238745,370.102971,10436.903782
661.092825,1455.581446,1554.432478,9918.759623
661.093141,919.314598,2368.659014,9178.553681
661.093456,1378.971896,2664.741391,8290.306550
661.093772,1991.848295,2664.741391,8512.368333
661.094088,1915.238745,1480.411884,8364.327145
661.094403,1608.800546,148.041188,8808.450710
661.094719,995.924147,-1036.288319,9326.594869
661.095035,306.438199,-2294.638420,10288.862594
661.095351,-229.828649,-2664.741391,11251.130318
661.095666,-383.047749,-2072.576638,11399.171507
661.095982,-689.485948,-962.267725,11251.130318
661.096298,-689.485948,-518.144159,10584.944971
661.096613,-1991.848295,370.102971,10362.883188
661.096929,-536.266849,518.144159,9474.636058
661.097245,459.657299,740.205942,8808.450710
661.097561,1225.752797,148.041188,8512.368333
661.097876,1225.752797,-962.267725,8808.450710
661.098192,689.485948,-2072.576638,9326.594869
661.098508,536.266849,-2294.638420,9844.739029
661.098823,612.876398,-2294.638420,10658.965565
661.099139,459.657299,-1480.411884,10436.903782
661.099455,383.047749,-296.082377,10140.821405
661.099771,153.219100,962.267725,9104.533087
661.100086,383.047749,2072.576638,8364.327145
661.100402,689.485948,1850.514855,7994.224174
661.100718,1072.533697,814.226536,8142.265362
661.101033,842.705048,-444.123565,8956.491898
661.101349,0.000000,-1702.473667,9178.553681
661.101665,-842.705048,-2516.700203,9844.739029
661.101981,-1072.533697,-3108.864956,11251.130318
661.102296,-1225.752797,-2220.617826,11399.171507
661.102612,-1378.971896,-1258.350101,10881.027347
661.102928,-1302.362347,-0.000000,9918.759623
661.103243,-1378.971896,1110.308913,8956.491898
661.103559,0.000000,1110.308913,8438.347739
661.103875,612.876398,962.267725,8216.285956
661.104191,1455.581446,148.041188,8512.368333
661.104506,1302.362347,-814.226536,8438.347739
661.104822,1225.752797,-1480.411884,8734.430116
661.105138,842.705048,-1924.535449,9548.656652
661.105453,1378.971896,-1850.514855,9696.697840
661.105769,1072.533697,-592.164754,9992.780217
661.106085,689.485948,296.082377,9548.656652
661.106401,153.219100,1332.370696,8586.388927
661.106716,766.095498,1924.535449,7550.100608
661.107032,1685.410096,1406.391290,8068.244768
661.107348,1838.629195,444.123565,8068.244768
661.107663,1685.410096,-814.226536,8586.388927
661.107979,383.047749,-1554.432478,9178.553681
661.108295,0.000000,-2146.597232,10066.800811
661.108611,-306.438199,-2368.659014,10955.047942
661.108926,-383.047749,-1850.514855,11029.068536
661.109242,-689.485948,-888.247130,10807.006753
661.109558,-995.924147,-148.041188,10288.862594
661.109873,-459.657299,666.185348,9474.636058
661.110189,0.000000,1480.411884,8734.430116
661.110505,1225.752797,1702.473667,8142.265362
661.110821,1991.848295,666.185348,8364.327145
661.111136,1762.019645,-0.000000,8660.409521
661.111452,1149.143247,-370.102971,9400.615463
661.111768,1072.533697,-1554.432478,10732.986159
661.112083,1225.752797,-962.267725,10658.965565
661.112399,842.705048,-74.020594,10436.903782
661.112715,536.266849,962.267725,10066.800811
661.113031,383.047749,1628.453072,9178.553681
661.113346,919.314598,2442.679609,8882.471304
661.113662,1455.581446,2294.638420,8512.368333
661.113978,1608.800546,1406.391290,8660.409521
661.114293,1378.971896,148.041188,9252.574275
661.114609,612.876398,-888.247130,9696.697840
661.114925,0.000000,-1480.411884,10658.965565
661.115241,0.000000,-1554.432478,11547.212695
661.115556,0.000000,-666.185348,11103.089130
661.115872,-383.047749,-0.000000,11029.068536
661.116188,-1225.752797,888.247130,9992.780217
661.116503,-536.266849,1628.453072,9178.553681
661.116819,306.438199,1480.411884,8956.491898
661.117135,612.876398,740.205942,9178.553681
661.117451,995.924147,-592.164754,9400.615463
661.117766,842.705048,-1332.370696,9548.656652
661.118082,229.828649,-1850.514855,9474.636058
661.118398,459.657299,-2072.576638,10362.883188
661.118713,689.485948,-1332.370696,10436.903782
661.119029,766.095498,-444.123565,10436.903782
661.119345,153.219100,518.144159,9104.533087
661.119661,229.828649,1110.308913,8290.306550
661.119976,459.657299,1110.308913,7994.224174
661.120292,1225.752797,814.226536,7994.224174
661.120608,1225.752797,-888.247130,8660.409521
661.120923,689.485948,-1628.453072,9030.512492
661.121239,-229.828649,-2368.659014,9474.636058
661.121555,-919.314598,-3108.864956,10288.862594
661.121871,-766.095498,-2664.741391,10658.965565
661.122186,-842.705048,-1850.514855,10807.006753
661.122502,-1378.971896,-888.247130,10362.883188
661.122818,-1532.190996,-148.041188,9474.636058
661.123133,-919.314598,518.144159,8882.471304
661.123449,-76.609550,592.164754,8438.347739
661.123765,766.095498,-148.041188,8660.409521
661.124081,1225.752797,-814.226536,8438.347739
661.124396,766.095498,-1332.370696,8290.306550
661.124712,689.485948,-1998.556043,9104.533087
661.125028,1532.190996,-1850.514855,9918.759623
661.125343,1302.362347,-1554.432478,9622.677246
661.125659,995.924147,-148.041188,9770.718434
661.125975,612.876398,740.205942,9030.512492
661.126291,689.485948,1628.453072,8068.244768
661.126606,1302.362347,1998.556043,8068.244768
661.126922,1608.800546,1332.370696,7994.224174
661.127238,1685.410096,74.020594,8290.306550
661.127553,1072.533697,-740.205942,8586.388927
661.127869,0.000000,-1850.514855,9548.656652
661.128185,0.000000,-2590.720797,10214.842000
661.128501,-306.438199,-2590.720797,10881.027347
661.128816,-612.876398,-1406.391290,10881.027347
661.129132,-459.657299,-518.144159,10732.986159
661.129448,-766.095498,518.144159,9696.697840
661.129763,306.438199,1036.288319,8882.471304
661.130079,842.705048,1406.391290,8512.368333
661.130395,1685.410096,1036.288319,8438.347739
661.130711,1838.629195,148.041188,8808.450710
661.131026,1608.800546,-740.205942,9178.553681
661.131342,1225.752797,-1628.453072,9844.739029
661.131658,1072.533697,-1332.370696,10658.965565
661.131973,1302.362347,-444.123565,10584.944971
661.132289,995.924147,370.102971,10214.842000
661.132605,459.657299,1332.370696,9844.739029
661.132921,383.047749,2072.576638,9252.574275
661.133236,995.924147,2072.576638,8734.430116
661.133552,1378.971896,1924.535449,8586.388927
661.133868,1149.143247,740.205942,9178.553681
661.134183,766.095498,-666.185348,9622.677246
661.134499,-612.876398,-1702.473667,9992.780217
661.134815,-1149.143247,-2072.576638,11399.171507
661.135131,-842.705048,-1776.494261,11769.274478
661.135446,-995.924147,-740.205942,11695.253884
661.135762,-1378.971896,222.061783,11103.089130
661.136078,-1378.971896,1110.308913,10066.800811
661.136393,-459.657299,1924.535449,9326.594869
661.136709,536.266849,2072.576638,8808.450710
661.137025,1149.143247,1332.370696,8956.491898
661.137341,1455.581446,-0.000000,9104.533087
661.137657,1072.533697,-444.123565,9030.512492
661.137972,919.314598,-1184.329507,9696.697840
661.138288,919.314598,-962.267725,10362.883188
661.138604,1072.533697,-0.000000,10362.883188
661.138920,842.705048,222.061783,9400.615463
661.139236,306.438199,1480.411884,9178.553681
661.139551,153.219100,1850.514855,8512.368333
661.139867,995.924147,1628.453072,7994.224174
661.140183,1915.238745,1406.391290,8438.347739
661.140499,995.924147,-148.041188,8586.388927
661.140814,459.657299,-1406.391290,8882.471304
661.141130,-306.438199,-2294.638420,9696.697840
661.141446,-459.657299,-2738.761985,10658.965565
661.141762,-459.657299,-2368.659014,10362.883188
661.142078,-612.876398,-1480.411884,10436.903782
661.142393,-689.485948,-444.123565,9770.718434
661.142709,-766.095498,370.102971,9030.512492
661.143025,229.828649,740.205942,8512.368333
661.143341,1302.362347,666.185348,8142.265362
661.143657,1838.629195,-0.000000,8364.327145
661.143972,1685.410096,-1036.288319,8586.388927
661.144288,842.705048,-1702.473667,8956.491898
661.144604,689.485948,-1998.556043,9770.718434
661.144920,1072.533697,-1258.350101,10510.924376
661.145236,1072.533697,-1258.350101,9992.780217
661.145551,689.485948,-296.082377,9474.636058
661.145867,229.828649,592.164754,9326.594869
661.146183,229.828649,814.226536,8808.450710
661.146499,1149.143247,1480.411884,7994.224174
661.146814,1455.581446,370.102971,8364.327145
661.147130,766.095498,-962.267725,8882.471304
661.147446,153.219100,-1924.535449,9326.594869
661.147762,0.000000,-2812.782580,10214.842000
661.148078,-536.266849,-2590.720797,10584.944971
661.148393,-612.876398,-2220.617826,11473.192101
661.148709,-766.095498,-1480.411884,10881.027347
661.149025,-1378.971896,-0.000000,9992.780217
661.149341,-919.314598,592.164754,9326.594869
661.149657,0.000000,1406.391290,8512.368333
661.149972,919.314598,1258.350101,8216.285956
661.150288,1225.752797,-0.000000,8882.471304
661.150604,1225.752797,-518.144159,8956.491898
661.150920,689.485948,-1184.329507,9178.553681
661.151236,689.485948,-1628.453072,10510.924376
661.151551,995.924147,-1554.432478,10362.883188
661.151867,919.314598,-740.205942,10288.862594
661.152183,459.657299,518.144159,9918.759623
661.152499,153.219100,1924.535449,9178.553681
661.152814,689.485948,2442.679609,8438.347739
661.153130,1532.190996,2442.679609,7772.162391
661.153446,1685.410096,2294.638420,8512.368333
661.153762,1072.533697,740.205942,8660.409521
661.154078,153.219100,-740.205942,9252.574275
661.154393,-612.876398,-1776.494261,10510.924376
661.154709,-536.266849,-2294.638420,11547.212695
661.155025,-459.657299,-1480.411884,11103.089130
661.155341,-842.705048,-592.164754,11103.089130
661.155657,-1532.190996,444.123565,10436.903782
661.155972,-689.485948,1554.432478,9326.594869
661.156288,0.000000,2516.700203,8512.368333
661.156604,919.314598,2368.659014,8290.306550
661.156920,1378.971896,1110.308913,8660.409521
661.157236,1225.752797,-0.000000,9178.553681
661.157551,1378.971896,-592.164754,9252.574275
661.157867,995.924147,-1406.391290,9770.718434
661.158183,1532.190996,-1036.288319,10510.924376
661.158499,1378.971896,-74.020594,10584.944971
661.158815,1072.533697,1036.288319,9696.697840
661.159130,689.485948,2072.576638,9178.553681
661.159446,1072.533697,2590.720797,8586.388927
661.159762,1762.019645,2738.761985,7772.162391
661.160078,1685.410096,1702.473667,8586.388927
661.160393,1149.143247,370.102971,9474.636058
661.160709,612.876398,-888.247130,9252.574275
661.161025,-383.047749,-1702.473667,9918.759623
661.161341,-536.266849,-1998.556043,11029.068536
661.161657,-306.438199,-1998.556043,11399.171507
661.161972,-842.705048,-1110.308913,10362.883188
661.162288,-1072.533697,-0.000000,10066.800811
661.162604,-689.485948,962.267725,9326.594869
661.162920,0.000000,1184.329507,8734.430116
661.163236,1378.971896,888.247130,8438.347739
661.163551,1302.362347,-444.123565,8808.450710
661.163867,1149.143247,-1184.329507,8660.409521
661.164183,766.095498,-1628.453072,9104.533087
661.164499,1072.533697,-1924.535449,9918.759623
661.164815,1302.362347,-1480.411884,9918.759623
661.165130,919.314598,-444.123565,9992.780217
661.165446,153.219100,666.185348,9252.574275
661.165762,306.438199,1110.308913,8586.388927
661.166078,842.705048,962.267725,8290.306550
661.166393,1149.143247,962.267725,8216.285956
661.166709,1762.019645,-518.144159,8512.368333
661.167025,766.095498,-1036.288319,8882.471304
661.167341,0.000000,-1702.473667,9178.553681
661.167657,-995.924147,-2442.679609,9992.780217
661.167972,-612.876398,-2368.659014,10881.027347
661.168288,-1302.362347,-2146.597232,11029.068536
661.168604,-1915.238745,-1406.391290,10732.986159
661.168920,-2145.067394,-518.144159,9844.739029
661.169236,-1608.800546,-74.020594,9326.594869
661.169551,-383.047749,444.123565,9400.615463
661.169867,459.657299,-0.000000,9104.533087
661.170183,612.876398,-592.164754,8882.471304
661.170499,766.095498,-1036.288319,8734.430116
661.170815,536.266849,-1480.411884,9030.512492
661.171130,1302.362347,-2072.576638,10584.944971
661.171446,1302.362347,-1036.288319,10066.800811
661.171762,1149.143247,-0.000000,9696.697840
661.172078,612.876398,888.247130,9030.512492
661.172394,689.485948,1628.453072,8142.265362
661.172709,1225.752797,1480.411884,8142.265362
661.173025,1378.971896,1258.350101,8216.285956
661.173341,1455.581446,296.082377,8808.450710
661.173657,842.705048,-888.247130,8956.491898
661.173972,0.000000,-1776.494261,9918.759623
661.174288,-306.438199,-2516.700203,11029.068536
661.174604,-306.438199,-2368.659014,11473.192101
661.174920,-689.485948,-1184.329507,11325.150913
661.175236,-1225.752797,-0.000000,10436.903782
661.175551,-689.485948,518.144159,9474.636058
661.175867,76.609550,1554.432478,8882.471304
661.176183,1072.533697,1924.535449,8438.347739
661.176499,1455.581446,814.226536,8438.347739
661.176815,1838.629195,-148.041188,8882.471304
661.177130,842.705048,-592.164754,9178.553681
661.177446,1532.190996,-1110.308913,9696.697840
661.177762,1455.581446,-962.267725,10140.821405
661.178078,1685.410096,-148.041188,10214.842000
661.178394,1685.410096,962.267725,9696.697840
661.178709,1072.533697,1998.556043,8882.471304
661.179025,1149.143247,2368.659014,8956.491898
661.179341,1838.629195,2664.741391,8142.265362
661.179657,2068.457845,1998.556043,8216.285956
661.179972,1915.238745,666.185348,8512.368333
661.180288,1072.533697,-814.226536,9474.636058
661.180604,76.609550,-1702.473667,10140.821405
661.180920,0.000000,-2146.597232,11103.089130
661.181236,-229.828649,-1628.453072,11103.089130
661.181551,-689.485948,-1184.329507,10955.047942
661.181867,-1532.190996,-74.020594,10362.883188
661.182183,-1072.533697,814.226536,9474.636058
661.182499,-383.047749,1776.494261,9030.512492
661.182815,459.657299,1554.432478,8808.450710
661.183130,1225.752797,-0.000000,9104.533087
661.183446,689.485948,-666.185348,9030.512492
661.183762,612.876398,-1332.370696,9178.553681
661.184078,612.876398,-1998.556043,10140.821405
661.184394,612.876398,-1554.432478,10584.944971
661.184709,1072.533697,-444.123565,10140.821405
661.185025,612.876398,592.164754,9548.656652
661.185341,0.000000,1406.391290,8734.430116
661.185657,536.266849,2146.597232,8364.327145
661.185973,1455.581446,1702.473667,8068.244768
661.186288,1302.362347,740.205942,8438.347739
661.186604,919.314598,-592.164754,8882.471304
661.186920,0.000000,-1776.494261,9400.615463
661.187236,-919.314598,-2294.638420,10288.862594
661.187551,-919.314598,-2590.720797,11029.068536
661.187867,-1302.362347,-1702.473667,10732.986159
661.188183,-1685.410096,-814.226536,10658.965565
661.188499,-1762.019645,-0.000000,9844.739029
661.188815,-1608.800546,296.082377,9030.512492
661.189130,-536.266849,666.185348,9178.553681
661.189446,229.828649,-0.000000,8734.430116
661.189762,766.095498,-888.247130,9104.533087
661.190078,766.095498,-1406.391290,8808.450710
661.190394,536.266849,-2072.576638,9030.512492
661.190709,766.095498,-2220.617826,9992.780217
661.191025,919.314598,-1406.391290,10066.800811
661.191341,919.314598,-814.226536,9474.636058
661.191657,766.095498,-0.000000,9326.594869
661.191973,919.314598,592.164754,8734.430116
661.192288,1072.533697,1702.473667,8364.327145
661.192604,1915.238745,1258.350101,7846.182985
661.192920,2298.286494,370.102971,8438.347739
661.193236,1455.581446,-888.247130,8660.409521
661.193551,306.438199,-2072.576638,9030.512492
661.193867,0.000000,-2812.782580,10436.903782
661.194183,-229.828649,-2664.741391,11103.089130
661.194499,-306.438199,-2146.597232,11251.130318
661.194815,-612.876398,-1258.350101,10732.986159
661.195130,-1302.362347,-296.082377,10140.821405
661.195446,-383.047749,518.144159,9178.553681
661.195762,153.219100,1036.288319,8290.306550
661.196078,1072.533697,666.185348,8438.347739
661.196394,1455.581446,-370.102971,8956.491898
661.196709,1915.238745,-1184.329507,9030.512492
661.197025,919.314598,-1998.556043,9400.615463
661.197341,995.924147,-2146.597232,10584.944971
661.197657,1302.362347,-1258.350101,10436.903782
661.197973,1302.362347,-296.082377,9918.759623
661.198288,919.314598,592.164754,9252.574275
661.198604,919.314598,1924.535449,8364.327145
661.198920,1302.362347,2294.638420,7920.203579
661.199236,1915.238745,1850.514855,7846.182985
661.199551,1915.238745,592.164754,8438.347739
661.199867,1608.800546,-518.144159,9178.553681
661.200183,306.438199,-1184.329507,9326.594869
661.200499,-306.438199,-1776.494261,10362.883188
661.200815,-536.266849,-1554.432478,11177.109724
661.201130,-383.047749,-888.247130,10881.027347
661.201446,-1378.971896,-148.041188,11251.130318
661.201762,-1302.362347,740.205942,9992.780217
661.202078,-766.095498,1258.350101,9474.636058
661.202394,0.000000,1850.514855,9178.553681
661.202709,536.266849,1332.370696,9030.512492
661.203025,919.314598,370.102971,9252.574275
661.203341,536.266849,-148.041188,9252.574275
661.203657,536.266849,-740.205942,9696.697840
661.203973,689.485948,-666.185348,10658.965565
661.204288,1378.971896,-148.041188,10140.821405
661.204604,1072.533697,370.102971,9548.656652
661.204920,766.095498,1998.556043,8882.471304
661.205236,766.095498,2220.617826,8586.388927
661.205552,1302.362347,2886.803174,8512.368333
661.205867,2068.457845,2220.617826,7920.203579
661.206183,1762.019645,1406.391290,8364.327145
661.206499,1225.752797,-0.000000,8882.471304
661.206815,229.828649,-1184.329507,9548.656652
661.207130,0.000000,-1924.535449,11029.068536
661.207446,-612.876398,-1702.473667,11399.171507
661.207762,-842.705048,-962.267725,11399.171507
661.208078,-1532.190996,-222.061783,10732.986159
661.208394,-1532.190996,666.185348,9992.780217
661.208709,-612.876398,1480.411884,9104.533087
661.209025,229.828649,1110.308913,8808.450710
661.209341,919.314598,740.205942,8882.471304
661.209657,995.924147,-370.102971,8882.471304
661.209973,842.705048,-1184.329507,8734.430116
661.210288,842.705048,-1628.453072,9770.718434
661.210604,995.924147,-1628.453072,10436.903782
661.210920,1149.143247,-518.144159,9992.780217
661.211236,1225.752797,296.082377,9844.739029
661.211552,919.314598,1480.411884,8882.471304
661.211867,842.705048,1554.432478,8364.327145
661.212183,1532.190996,1850.514855,8364.327145
661.212499,1915.238745,962.267725,8142.265362
661.212815,1685.410096,-148.041188,8660.409521
661.213130,1072.533697,-1480.411884,8956.491898
661.213446,0.000000,-2442.679609,9696.697840
661.213762,0.000000,-3034.844362,10732.986159
661.214078,-612.876398,-2590.720797,11399.171507
661.214394,-995.924147,-2146.597232,10881.027347
661.214709,-1149.143247,-1554.432478,10881.027347
661.215025,-1685.410096,-814.226536,9474.636058
661.215341,-766.095498,-0.000000,9252.574275
661.215657,229.828649,222.061783,8586.388927
661.215973,919.314598,-444.123565,8438.347739
661.216288,1225.752797,-1406.391290,9030.512492
661.216604,919.314598,-2220.617826,8808.450710
661.216920,766.095498,-3108.864956,9548.656652
661.217236,995.924147,-2590.720797,10807.006753
661.217552,1225.752797,-1924.535449,9992.780217
661.217867,766.095498,-592.164754,9622.677246
661.218183,766.095498,592.164754,8882.471304
661.218499,919.314598,1480.411884,7550.100608
661.218815,1455.581446,1406.391290,7402.059420
661.219131,1685.410096,518.144159,7624.121203
661.219446,1532.190996,-962.267725,8438.347739
661.219762,306.438199,-2220.617826,8882.471304
661.220078,-459.657299,-2812.782580,9622.677246
661.220394,-612.876398,-2738.761985,10658.965565
661.220709,-612.876398,-2442.679609,11029.068536
661.221025,-1072.533697,-1480.411884,10955.047942
661.221341,-1915.238745,-296.082377,10584.944971
661.221657,-1608.800546,296.082377,9548.656652
661.221973,-689.485948,1332.370696,8734.430116
661.222288,383.047749,1036.288319,8364.327145
661.222604,1302.362347,666.185348,8290.306550
661.222920,1149.143247,-0.000000,8586.388927
661.223236,1378.971896,-370.102971,8586.388927
661.223552,995.924147,-740.205942,9548.656652
661.223867,1225.752797,-444.123565,9770.718434
661.224183,1302.362347,296.082377,9844.739029
661.224499,995.924147,1258.350101,9622.677246
661.224815,689.485948,2146.597232,9104.533087
661.225131,919.314598,2590.720797,8734.430116
661.225446,1685.410096,2516.700203,8512.368333
661.225762,1838.629195,2294.638420,8438.347739
661.226078,1455.581446,1628.453072,8956.491898
661.226394,919.314598,-0.000000,9326.594869
661.226709,0.000000,-0.000000,10362.883188
661.227025,-229.828649,-740.205942,11621.233289
661.227341,-76.609550,-592.164754,11325.150913
661.227657,-383.047749,-296.082377,10881.027347
661.227973,-1302.362347,444.123565,10584.944971
661.228288,-919.314598,1258.350101,10066.800811
661.228604,0.000000,2146.597232,9178.553681
661.228920,919.314598,2368.659014,8734.430116
661.229236,1225.752797,1332.370696,9252.574275
661.229552,1072.533697,296.082377,9104.533087
661.229867,612.876398,-1628.453072,9770.718434
661.230183,689.485948,-1480.411884,10807.006753
661.230499,459.657299,-666.185348,10732.986159
661.230815,919.314598,-518.144159,11103.089130
661.231131,536.266849,1184.329507,10140.821405
661.231446,229.828649,1998.556043,8734.430116
661.231762,919.314598,2368.659014,8512.368333
661.232078,1685.410096,2220.617826,8364.327145
661.232394,1455.581446,814.226536,8364.327145
661.232710,1915.238745,-444.123565,9178.553681
661.233025,229.828649,-1332.370696,9104.533087
661.233341,76.609550,-1998.556043,10436.903782
661.233657,-459.657299,-2146.597232,11251.130318
661.233973,-459.657299,-1554.432478,10881.027347
661.234288,-995.924147,-666.185348,10881.027347
661.234604,-1149.143247,-0.000000,9918.759623
661.234920,-1149.143247,592.164754,9252.574275
661.235236,-153.219100,592.164754,9252.574275
661.235552,459.657299,444.123565,8808.450710
661.235867,995.924147,-444.123565,8808.450710
661.236183,1225.752797,-1406.391290,9252.574275
661.236499,842.705048,-1702.473667,9104.533087
661.236815,229.828649,-1924.535449,10140.821405
661.237131,1072.533697,-1110.308913,10140.821405
661.237446,1072.533697,-222.061783,9696.697840
661.237762,689.485948,740.205942,9178.553681
661.238078,689.485948,1036.288319,8290.306550
661.238393,1302.362347,1776.494261,7698.141797
661.238709,2145.067394,1258.350101,7698.141797
661.239025,1762.019645,740.205942,7772.162391
661.239341,1302.362347,-592.164754,8438.347739
661.239656,919.314598,-1850.514855,8956.491898
661.239972,0.000000,-2368.659014,9696.697840
661.240288,0.000000,-2220.617826,10584.944971
661.240603,-153.219100,-1998.556043,10510.924376
661.240919,-919.314598,-1332.370696,10658.965565
661.241235,-1302.362347,-74.020594,9696.697840
661.241550,-536.266849,444.123565,8734.430116
661.241866,383.047749,962.267725,8734.430116
661.242182,766.095498,444.123565,8290.306550
661.242498,1455.581446,-962.267725,8216.285956
661.242813,383.047749,-2220.617826,9326.594869
661.243129,229.828649,-2072.576638,9696.697840
661.243445,842.705048,-1850.514855,10807.006753
661.243760,689.485948,-1480.411884,10658.965565
661.244076,1072.533697,-222.061783,9992.780217
661.244392,383.047749,962.267725,9326.594869
661.244707,536.266849,1776.494261,8586.388927
661.245023,1302.362347,2146.597232,8068.244768
661.245339,1915.238745,1776.494261,8586.388927
661.245654,1455.581446,370.102971,9178.553681
661.245970,1072.533697,-888.247130,9326.594869
661.246286,76.609550,-1702.473667,9696.697840
661.246602,-229.828649,-2072.576638,10510.924376
661.246917,0.000000,-2368.659014,10955.047942
661.247233,-612.876398,-1628.453072,11399.171507
661.247549,-1455.581446,-444.123565,11103.089130
661.247864,-1378.971896,444.123565,10288.862594
661.248180,-1225.752797,666.185348,9326.594869
661.248496,383.047749,1110.308913,9252.574275
661.248811,383.047749,370.102971,9178.553681
661.249127,536.266849,-444.123565,9104.533087
661.249443,229.828649,-1332.370696,9474.636058
661.249759,0.000000,-2146.597232,10140.821405
661.250074,306.438199,-1998.556043,10807.006753
661.250390,306.438199,-1110.308913,10510.924376
661.250706,459.657299,-74.020594,10436.903782
661.251021,459.657299,1110.308913,9548.656652
661.251337,689.485948,1702.473667,8512.368333
661.251653,1072.533697,2220.617826,7994.224174
661.251968,2145.067394,1850.514855,8068.244768
661.252284,1455.581446,370.102971,8438.347739
661.252600,1149.143247,-740.205942,8586.388927
661.252916,612.876398,-1628.453072,9400.615463
661.253231,0.000000,-2146.597232,10881.027347
661.253547,-153.219100,-1924.535449,11103.089130
661.253863,-612.876398,-1258.350101,10955.047942
661.254178,-1378.971896,-74.020594,10362.883188
661.254494,-1149.143247,518.144159,9622.677246
661.254810,-919.314598,888.247130,9104.533087
661.255125,0.000000,1332.370696,8734.430116
661.255441,919.314598,148.041188,8660.409521
661.255757,689.485948,-666.185348,8586.388927
661.256073,229.828649,-2146.597232,9030.512492
661.256388,766.095498,-2294.638420,9400.615463
661.256704,1072.533697,-1776.494261,10214.842000
661.257020,1455.581446,-666.185348,9770.718434
661.257335,1149.143247,296.082377,9474.636058
661.257651,689.485948,1628.453072,8956.491898
661.257967,1302.362347,2442.679609,7920.203579
661.258282,2068.457845,2220.617826,7254.018232
661.258598,2451.505594,1554.432478,7402.059420
661.258914,2374.896044,-0.000000,8290.306550
661.259229,1915.238745,-814.226536,8512.368333
661.259545,536.266849,-2146.597232,9474.636058
661.259861,306.438199,-2072.576638,10584.944971
661.260177,-229.828649,-1554.432478,10584.944971
661.260492,-383.047749,-592.164754,10510.924376
661.260808,-1072.533697,370.102971,10362.883188
661.261124,-1455.581446,1110.308913,9548.656652
661.261439,-459.657299,1406.391290,8808.450710
661.261755,153.219100,888.247130,8586.388927
661.262071,842.705048,-0.000000,8956.491898
661.262386,842.705048,-962.267725,9178.553681
661.262702,612.876398,-1554.432478,9474.636058
661.263018,306.438199,-1628.453072,10214.842000
661.263334,459.657299,-1184.329507,11251.130318
661.263649,689.485948,-222.061783,10881.027347
661.263965,536.266849,814.226536,10066.800811
661.264281,229.828649,1776.494261,9252.574275
661.264596,995.924147,2220.617826,8660.409521
661.264912,1608.800546,2220.617826,8216.285956
661.265228,2221.676944,1554.432478,8068.244768
661.265543,1838.629195,-0.000000,8882.471304
661.265859,1072.533697,-1110.308913,9474.636058
661.266175,0.000000,-1776.494261,9992.780217
661.266491,-459.657299,-2220.617826,11695.253884
661.266806,-689.485948,-1628.453072,11473.192101
661.267122,-1455.581446,-888.247130,11399.171507
661.267438,-1991.848295,-0.000000,10658.965565
661.267753,-2145.067394,-0.000000,9696.697840
661.268069,-1149.143247,444.123565,9622.677246
661.268385,-153.219100,148.041188,9548.656652
661.268700,153.219100,-444.123565,9326.594869
661.269016,76.609550,-1480.411884,9474.636058
661.269332,0.000000,-1776.494261,9696.697840
661.269647,76.609550,-2146.597232,10510.924376
661.269963,689.485948,-1406.391290,10807.006753
661.270279,689.485948,-518.144159,10214.842000
661.270595,766.095498,592.164754,9326.594869
661.270910,612.876398,1554.432478,9030.512492
661.271226,1608.800546,2072.576638,7994.224174
661.271542,2221.676944,2220.617826,7550.100608
661.271857,2374.896044,1332.370696,7698.141797
661.272173,1991.848295,-148.041188,8290.306550
661.272489,995.924147,-1702.473667,8956.491898
661.272804,0.000000,-2294.638420,9918.759623
661.273120,-306.438199,-2812.782580,10881.027347
661.273436,-612.876398,-2072.576638,11177.109724
661.273752,-1225.752797,-1036.288319,10807.006753
661.274067,-1072.533697,-148.041188,9844.739029
661.274383,-1072.533697,444.123565,8882.471304
661.274699,0.000000,814.226536,8438.347739
661.275014,689.485948,222.061783,8290.306550
661.275330,919.314598,-444.123565,8734.430116
661.275646,766.095498,-1332.370696,8586.388927
661.275961,995.924147,-1776.494261,8808.450710
661.276277,1225.752797,-2146.597232,9844.739029
661.276593,1378.971896,-1184.329507,9844.739029
661.276909,1455.581446,-74.020594,9622.677246
661.277224,1225.752797,666.185348,9252.574275
661.277540,1149.143247,1628.453072,8512.368333
661.277856,1532.190996,1998.556043,8068.244768
661.278171,1991.848295,2072.576638,7476.080014
661.278487,2145.067394,518.144159,8142.265362
661.278803,1378.971896,-814.226536,8364.327145
661.279118,306.438199,-1850.514855,9326.594869
661.279434,-383.047749,-2368.659014,10584.944971
661.279750,-919.314598,-2146.597232,10955.047942
661.280066,-1149.143247,-1702.473667,11325.150913
661.280381,-1685.410096,-1036.288319,11251.130318
661.280697,-1915.238745,-222.061783,10140.821405
661.281013,-1225.752797,592.164754,9622.677246
661.281328,76.609550,1110.308913,8808.450710
661.281644,689.485948,296.082377,8808.450710
661.281960,1225.752797,-222.061783,9474.636058
661.282275,919.314598,-962.267725,8956.491898
661.282591,766.095498,-1258.350101,9252.574275
661.282907,689.485948,-1332.370696,10288.862594
661.283222,459.657299,-1036.288319,10362.883188
661.283538,1149.143247,-444.123565,10955.047942
661.283854,459.657299,814.226536,9622.677246
661.284170,383.047749,1628.453072,9400.615463
661.284485,766.095498,1924.535449,8734.430116
661.284801,1455.581446,1998.556043,7994.224174
661.285117,1149.143247,1036.288319,8808.450710
661.285432,536.266849,-74.020594,9178.553681
661.285748,-306.438199,-1258.350101,9918.759623
661.286064,-842.705048,-2072.576638,10732.986159
661.286379,-995.924147,-2072.576638,11547.212695
661.286695,-1149.143247,-1554.432478,11473.192101
661.287011,-1302.362347,-222.061783,11251.130318
661.287327,-1532.190996,814.226536,9696.697840
661.287642,-536.266849,1702.473667,9104.533087
661.287958,612.876398,2146.597232,8660.409521
661.288274,1149.143247,1332.370696,8290.306550
661.288589,1378.971896,148.041188,8882.471304
661.288905,1455.581446,-444.123565,8734.430116
661.289221,1302.362347,-962.267725,9474.636058
661.289536,1149.143247,-1110.308913,10658.965565
661.289852,1838.629195,-370.102971,9918.759623
661.290168,1225.752797,740.205942,9178.553681
661.290484,612.876398,1554.432478,9104.533087
661.290799,689.485948,1924.535449,8142.265362
661.291115,1225.752797,2146.597232,8290.306550
661.291431,1838.629195,1406.391290,8364.327145
661.291746,1455.581446,444.123565,8660.409521
661.292062,1072.533697,-666.185348,8808.450710
661.292378,229.828649,-1258.350101,9400.615463
661.292693,76.609550,-1924.535449,10436.903782
661.293009,0.000000,-1480.411884,10362.883188
661.293325,-383.047749,-740.205942,10732.986159
661.293640,-536.266849,-0.000000,10214.842000
661.293956,-612.876398,-0.000000,9696.697840
661.294272,0.000000,666.185348,9326.594869
661.294588,612.876398,1110.308913,8438.347739
661.294903,1378.971896,666.185348,8734.430116
661.295219,1225.752797,-370.102971,8956.491898
661.295535,1072.533697,-666.185348,8808.450710
661.295850,766.095498,-1332.370696,9474.636058
661.296166,536.266849,-1850.514855,10288.862594
661.296482,383.047749,-1110.308913,10510.924376
661.296797,383.047749,-222.061783,10066.800811
661.297113,0.000000,666.185348,9104.533087
661.297429,383.047749,1184.329507,8586.388927
661.297745,919.314598,1406.391290,8216.285956
661.298060,1608.800546,814.226536,8438.347739
661.298376,1225.752797,-518.144159,8808.450710
661.298692,612.876398,-1702.473667,9252.574275
661.299007,76.609550,-2220.617826,9622.677246
661.299323,-306.438199,-2368.659014,10658.965565
661.299639,0.000000,-1998.556043,11103.089130
661.299954,-459.657299,-1406.391290,10807.006753
661.300270,-1225.752797,-370.102971,10214.842000
661.300586,-1378.971896,-0.000000,9548.656652
661.300902,-536.266849,740.205942,9474.636058
661.301217,306.438199,518.144159,8882.471304
661.301533,612.876398,-444.123565,9104.533087
661.301849,689.485948,-592.164754,9474.636058
661.302164,612.876398,-1480.411884,9178.553681
661.302480,612.876398,-1332.370696,9918.759623
661.302796,459.657299,-1036.288319,10362.883188
661.303111,919.314598,-444.123565,9992.780217
661.303427,842.705048,814.226536,9696.697840
661.303743,612.876398,1480.411884,8882.471304
661.304059,919.314598,1776.494261,8364.327145
661.304374,1915.238745,1776.494261,7920.203579
661.304690,2145.067394,1628.453072,7772.162391
661.305006,1608.800546,296.082377,8290.306550
661.305321,689.485948,-592.164754,8660.409521
661.305637,459.657299,-1258.350101,9474.636058
661.305953,-306.438199,-1258.350101,11029.068536
661.306268,-536.266849,-1628.453072,10807.006753
661.306584,-766.095498,-888.247130,10881.027347
661.306900,-1149.143247,222.061783,10140.821405
661.307215,-919.314598,1110.308913,9178.553681
661.307531,-536.266849,1184.329507,8586.388927
661.307847,612.876398,1258.350101,8734.430116
661.308163,1149.143247,222.061783,8734.430116
661.308478,995.924147,-370.102971,8956.491898
661.308794,689.485948,-962.267725,9252.574275
661.309110,995.924147,-1184.329507,9918.759623
661.309425,1149.143247,-444.123565,10140.821405
661.309741,1302.362347,444.123565,10510.924376
661.310057,995.924147,1554.432478,9474.636058
661.310372,1072.533697,2072.576638,9178.553681
661.310688,1225.752797,2294.638420,8364.327145
661.311004,1685.410096,2220.617826,8290.306550
661.311320,1991.848295,1110.308913,8512.368333
661.311635,1915.238745,-148.041188,9104.533087
661.311951,995.924147,-740.205942,9474.636058
661.312267,536.266849,-1924.535449,10510.924376
661.312582,76.609550,-1628.453072,11177.109724
661.312898,-383.047749,-1924.535449,10955.047942
661.313214,-766.095498,-1258.350101,11029.068536
661.313529,-1225.752797,-592.164754,10436.903782
661.313845,-1225.752797,-0.000000,9622.677246
661.314161,-306.438199,-0.000000,9326.594869
661.314477,306.438199,-222.061783,9178.553681
661.314792,459.657299,-888.247130,9252.574275
661.315108,306.438199,-1924.535449,9400.615463
661.315424,0.000000,-2220.617826,9770.718434
661.315739,536.266849,-2590.720797,10510.924376
661.316055,459.657299,-2220.617826,10510.924376
661.316371,459.657299,-1628.453072,10140.821405
661.316686,612.876398,-222.061783,9474.636058
661.317002,383.047749,666.185348,8364.327145
661.317318,919.314598,1184.329507,7624.121203
661.317633,1762.019645,1258.350101,7846.182985
661.317949,1838.629195,222.061783,7994.224174
661.318265,995.924147,-740.205942,8512.368333
661.318581,383.047749,-2368.659014,8882.471304
661.318896,-153.219100,-2738.761985,10214.842000
661.319212,-459.657299,-2590.720797,10584.944971
661.319528,-612.876398,-1776.494261,10436.903782
661.319843,-1072.533697,-814.226536,10140.821405
661.320159,-1991.848295,-370.102971,9622.677246
661.320475,-1455.581446,222.061783,9622.677246
661.320790,-306.438199,888.247130,8882.471304
661.321106,306.438199,592.164754,8438.347739
661.321422,689.485948,-222.061783,8660.409521
661.321738,842.705048,-962.267725,8364.327145
661.322053,459.657299,-1258.350101,8808.450710
661.322369,919.314598,-1036.288319,9844.739029
661.322685,842.705048,-296.082377,9844.739029
661.323000,1455.581446,518.144159,9548.656652
661.323316,1225.752797,1554.432478,8660.409521
661.323632,919.314598,2072.576638,8438.347739
661.323947,1762.019645,2368.659014,8142.265362
661.324263,2221.676944,2220.617826,7994.224174
661.324579,2681.334243,1406.391290,8142.265362
661.324895,1225.752797,148.041188,8808.450710
661.325210,383.047749,-592.164754,9474.636058
661.325526,0.000000,-1480.411884,10732.986159
661.325842,-153.219100,-1776.494261,11251.130318
661.326157,0.000000,-1110.308913,10881.027347
661.326473,-842.705048,-444.123565,10955.047942
661.326789,-1072.533697,222.061783,10510.924376
661.327104,-536.266849,1110.308913,9474.636058
661.327420,383.047749,1628.453072,8808.450710
661.327736,1072.533697,1554.432478,9252.574275
661.328052,1072.533697,-0.000000,9400.615463
661.328367,766.095498,-1036.288319,9548.656652
661.328683,919.314598,-1628.453072,10140.821405
661.328999,1225.752797,-1628.453072,10807.006753
661.329314,1378.971896,-1036.288319,10510.924376
661.329630,1149.143247,296.082377,10140.821405
661.329946,995.924147,1480.411884,9326.594869
661.330261,1149.143247,2294.638420,8586.388927
661.330577,1532.190996,2664.741391,7920.203579
661.330893,1915.238745,2146.597232,8142.265362
661.331208,1762.019645,740.205942,8882.471304
661.331524,766.095498,-740.205942,9326.594869
661.331840,-306.438199,-1628.453072,9770.718434
661.332156,0.000000,-2294.638420,10807.006753
661.332471,-995.924147,-1850.514855,11399.171507
661.332787,-1685.410096,-1036.288319,11399.171507
661.333103,-2068.457845,-592.164754,10881.027347
661.333418,-2298.286494,222.061783,10288.862594
661.333734,-1149.143247,740.205942,9548.656652
661.334050,-306.438199,1258.350101,9178.553681
661.334365,766.095498,740.205942,9030.512492
661.334681,459.657299,-74.020594,8882.471304
661.334997,536.266849,-592.164754,8882.471304
661.335313,536.266849,-888.247130,9326.594869
661.335628,1302.362347,-1036.288319,10140.821405
661.335943,1225.752797,-0.000000,9770.718434
661.336259,1302.362347,814.226536,9400.615463
661.336575,1302.362347,1036.288319,8808.450710
661.336890,995.924147,2294.638420,8512.368333
661.337206,1532.190996,2738.761985,7550.100608
661.337522,1915.238745,1776.494261,8216.285956
661.337837,1455.581446,444.123565,8586.388927
661.338153,383.047749,-666.185348,8882.471304
661.338469,-76.609550,-1850.514855,9474.636058
661.338784,-766.095498,-2442.679609,10807.006753
661.339100,-842.705048,-2590.720797,11325.150913
661.339416,-1302.362347,-2220.617826,11325.150913
661.339731,-995.924147,-1480.411884,10658.965565
661.340047,-1149.143247,-370.102971,9696.697840
661.340363,-459.657299,-0.000000,8956.491898
661.340678,919.314598,518.144159,8290.306550
661.340994,1225.752797,-370.102971,8216.285956
661.341309,1378.971896,-1628.453072,8734.430116
661.341625,1302.362347,-2220.617826,8808.450710
661.341941,1608.800546,-2590.720797,9770.718434
661.342256,1608.800546,-2072.576638,9844.739029
661.342572,1762.019645,-1554.432478,9622.677246
661.342888,1762.019645,-74.020594,9178.553681
661.343203,1072.533697,888.247130,8364.327145
661.343519,1455.581446,1110.308913,7994.224174
661.343835,1915.238745,1184.329507,8216.285956
661.344150,1685.410096,-0.000000,8438.347739
661.344466,1302.362347,-962.267725,8660.409521
661.344782,459.657299,-1924.535449,9252.574275
661.345097,-383.047749,-2664.741391,10066.800811
661.345413,-612.876398,-2886.803174,11325.150913
661.345729,-536.266849,-2146.597232,11251.130318
661.346044,-919.314598,-1184.329507,11029.068536
661.346360,-1455.581446,-74.020594,10288.862594
661.346675,-1225.752797,370.102971,9696.697840
661.346991,-612.876398,740.205942,9104.533087
661.347307,459.657299,-0.000000,8882.471304
661.347622,919.314598,-0.000000,8956.491898
661.347938,689.485948,-1110.308913,9474.636058
661.348254,766.095498,-1110.308913,9548.656652
661.348569,842.705048,-1036.288319,10140.821405
661.348885,995.924147,-666.185348,10362.883188
661.349201,1378.971896,296.082377,9992.780217
661.349516,1225.752797,1184.329507,9252.574275
661.349832,842.705048,2146.597232,8734.430116
661.350148,1378.971896,2590.720797,8068.244768
661.350463,1608.800546,2442.679609,7698.141797
661.350779,1608.800546,1554.432478,8216.285956
661.351095,1149.143247,-0.000000,8364.327145
661.351410,0.000000,-1036.288319,9400.615463
661.351726,-919.314598,-2072.576638,10658.965565
661.352042,-919.314598,-2368.659014,11325.150913
661.352357,-919.314598,-1480.411884,11473.192101
661.352673,-1532.190996,-740.205942,10807.006753
661.352988,-1608.800546,518.144159,10288.862594
661.353304,-689.485948,1554.432478,9548.656652
661.353620,-383.047749,2442.679609,8734.430116
661.353935,612.876398,2220.617826,8512.368333
661.354251,1072.533697,592.164754,8808.450710
661.354567,919.314598,-444.123565,8882.471304
661.354882,842.705048,-740.205942,9400.615463
661.355198,1072.533697,-888.247130,10214.842000
661.355514,1455.581446,-444.123565,10510.924376
661.355829,1302.362347,814.226536,10214.842000
661.356145,1302.362347,1776.494261,9474.636058
661.356461,766.095498,2738.761985,8808.450710
661.356776,1532.190996,2812.782580,7994.224174
661.357092,1915.238745,2368.659014,8290.306550
661.357408,1685.410096,1036.288319,8660.409521
661.357723,1302.362347,-444.123565,8956.491898
661.358039,842.705048,-1480.411884,9474.636058
661.358355,76.609550,-1998.556043,10881.027347
661.358670,0.000000,-1702.473667,10807.006753
661.358986,-306.438199,-740.205942,10881.027347
661.359301,-1302.362347,-0.000000,10955.047942
661.359617,-919.314598,1110.308913,10066.800811
661.359933,-306.438199,1258.350101,9178.553681
661.360248,306.438199,962.267725,8956.491898
661.360564,995.924147,296.082377,8808.450710
661.360880,1072.533697,-1036.288319,8956.491898
661.361195,995.924147,-1406.391290,9326.594869
661.361511,612.876398,-1998.556043,9844.739029
661.361827,766.095498,-1776.494261,10510.924376
661.362142,995.924147,-888.247130,10214.842000
661.362458,1608.800546,-0.000000,9992.780217
661.362774,459.657299,888.247130,9548.656652
661.363089,919.314598,1480.411884,8512.368333
661.363405,1302.362347,1258.350101,8216.285956
661.363721,1915.238745,962.267725,7624.121203
661.364036,2221.676944,-0.000000,8438.347739
661.364352,1532.190996,-962.267725,8660.409521
661.364668,76.609550,-2146.597232,9178.553681
661.364983,-459.657299,-2516.700203,10658.965565
661.365299,-306.438199,-2442.679609,11251.130318
661.365614,-1302.362347,-1480.411884,11251.130318
661.365930,-1455.581446,-1036.288319,10732.986159
661.366246,-1685.410096,-370.102971,9696.697840
661.366561,-1225.752797,-0.000000,9030.512492
661.366877,-383.047749,-0.000000,8734.430116
661.367193,306.438199,-518.144159,8882.471304
661.367508,229.828649,-1480.411884,9178.553681
661.367824,229.828649,-2146.597232,9474.636058
661.368140,0.000000,-2590.720797,9918.759623
661.368455,536.266849,-2368.659014,10362.883188
661.368771,689.485948,-1554.432478,10436.903782
661.369087,612.876398,-74.020594,9474.636058
661.369402,536.266849,814.226536,8734.430116
661.369718,995.924147,1258.350101,7994.224174
661.370034,1685.410096,1332.370696,7179.997637
661.370349,1685.410096,1184.329507,7920.203579
661.370665,1838.629195,518.144159,8068.244768
661.370980,919.314598,-518.144159,8290.306550
661.371296,153.219100,-1406.391290,9030.512492
661.371612,0.000000,-1998.556043,10658.965565
661.371927,-306.438199,-1998.556043,10881.027347
661.372243,-842.705048,-1406.391290,10732.986159
661.372559,-1072.533697,-592.164754,10214.842000
661.372874,-1149.143247,296.082377,9622.677246
661.373190,-229.828649,444.123565,8956.491898
661.373506,306.438199,1184.329507,8660.409521
661.373821,766.095498,518.144159,8512.368333
661.374137,689.485948,-518.144159,8956.491898
661.374453,766.095498,-1332.370696,9252.574275
661.374768,383.047749,-1332.370696,9548.656652
661.375084,842.705048,-1036.288319,10510.924376
661.375400,1455.581446,-296.082377,10140.821405
661.375715,1455.581446,1258.350101,9622.677246
661.376031,1455.581446,2220.617826,8956.491898
661.376347,1149.143247,2442.679609,8438.347739
661.376662,2068.457845,2738.761985,8290.306550
661.376978,2528.115143,2368.659014,8364.327145
661.377293,2298.286494,962.267725,8956.491898
661.377609,1838.629195,-222.061783,9622.677246
661.377925,766.095498,-1110.308913,9918.759623
661.378240,459.657299,-1184.329507,11325.150913
661.378556,0.000000,-962.267725,11325.150913
661.378872,-306.438199,148.041188,11029.068536
661.379187,-306.438199,370.102971,10955.047942
661.379503,-689.485948,888.247130,10510.924376
661.379819,-459.657299,1110.308913,9770.718434
661.380134,536.266849,1036.288319,9252.574275
661.380450,612.876398,-296.082377,9474.636058
661.380766,842.705048,-1406.391290,9770.718434
661.381081,306.438199,-1776.494261,9696.697840
661.381397,306.438199,-1406.391290,10288.862594
661.381713,766.095498,-888.247130,10584.944971
661.382028,689.485948,-0.000000,10066.800811
661.382344,842.705048,592.164754,9548.656652
661.382660,536.266849,1332.370696,8734.430116
661.382975,842.705048,1628.453072,8142.265362
661.383291,1302.362347,1406.391290,7994.224174
661.383606,1455.581446,-0.000000,8364.327145
661.383922,995.924147,-222.061783,8660.409521
661.384238,153.219100,-1406.391290,8586.388927
661.384553,-612.876398,-2368.659014,9918.759623
661.384869,-1072.533697,-2590.720797,11029.068536
661.385185,-1455.581446,-1998.556043,11029.068536
661.385500,-1532.190996,-1036.288319,10658.965565
661.385816,-2145.067394,-592.164754,10288.862594
661.386132,-1838.629195,296.082377,9474.636058
661.386447,-919.314598,444.123565,9178.553681
661.386763,383.047749,666.185348,8216.285956
661.387079,689.485948,-74.020594,8216.285956
661.387394,689.485948,-814.226536,8290.306550
661.387710,766.095498,-1036.288319,8512.368333
661.388026,842.705048,-1554.432478,9696.697840
661.388341,919.314598,-1184.329507,10214.842000
661.388657,1378.971896,-148.041188,9844.739029
661.388973,1072.533697,962.267725,9474.636058
661.389288,1149.143247,1406.391290,8808.450710
661.389604,1302.362347,1702.473667,7772.162391
661.389919,1838.629195,1850.514855,7624.121203
661.390235,2145.067394,1036.288319,7772.162391
661.390551,1915.238745,-148.041188,8808.450710
661.390866,689.485948,-1332.370696,9548.656652
661.391182,-459.657299,-2220.617826,9992.780217
661.391498,-383.047749,-2368.659014,10732.986159
661.391813,-766.095498,-1924.535449,11029.068536
661.392129,-766.095498,-1184.329507,11029.068536
661.392445,-1072.533697,-222.061783,10288.862594
661.392760,-689.485948,222.061783,9770.718434
661.393076,0.000000,740.205942,9030.512492
661.393392,1149.143247,148.041188,8660.409521
661.393707,1225.752797,-370.102971,9030.512492
661.394023,842.705048,-1332.370696,8956.491898
661.394339,919.314598,-1628.453072,9400.615463
661.394654,612.876398,-2146.597232,10436.903782
661.394970,536.266849,-1406.391290,10584.944971
661.395286,689.485948,-518.144159,10288.862594
661.395601,383.047749,518.144159,9918.759623
661.395917,766.095498,1036.288319,9252.574275
661.396232,919.314598,1332.370696,8438.347739
661.396548,1762.019645,1628.453072,8142.265362
661.396864,1685.410096,666.185348,8364.327145
661.397179,842.705048,-740.205942,8734.430116
661.397495,153.219100,-1850.514855,9474.636058
661.397811,-459.657299,-2220.617826,10658.965565
661.398126,-689.485948,-1924.535449,11177.109724
661.398442,-689.485948,-1258.350101,11177.109724
661.398758,-1302.362347,-666.185348,10881.027347
661.399073,-1302.362347,-0.000000,10362.883188
661.399389,-919.314598,814.226536,9474.636058
661.399705,153.219100,1184.329507,9400.615463
661.400020,1072.533697,666.185348,8734.430116
661.400336,1149.143247,-296.082377,8734.430116
661.400652,1072.533697,-592.164754,9178.553681
661.400967,612.876398,-1036.288319,9178.553681
661.401283,1072.533697,-814.226536,10288.862594
661.401598,1302.362347,-222.061783,9770.718434
661.401914,1378.971896,592.164754,9770.718434
661.402230,842.705048,1554.432478,9326.594869
661.402545,766.095498,1924.535449,8290.306550
661.402861,1455.581446,1850.514855,8216.285956
661.403177,2145.067394,1702.473667,8216.285956
661.403492,1838.629195,740.205942,8512.368333
661.403808,1072.533697,-296.082377,9030.512492
661.404124,0.000000,-1184.329507,9474.636058
661.404439,-153.219100,-1554.432478,10288.862594
661.404755,-536.266849,-1628.453072,10732.986159
661.405071,-689.485948,-1628.453072,10658.965565
661.405386,-995.924147,-296.082377,10732.986159
661.405702,-1378.971896,222.061783,9844.739029
661.406018,-842.705048,962.267725,9178.553681
661.406333,-229.828649,1406.391290,8586.388927
661.406649,995.924147,592.164754,8512.368333
661.406965,919.314598,-370.102971,8660.409521
661.407280,306.438199,-1480.411884,9104.533087
661.407596,536.266849,-1480.411884,9474.636058
661.407911,536.266849,-1702.473667,10362.883188
661.408227,995.924147,-518.144159,10288.862594
661.408543,919.314598,592.164754,9400.615463
661.408858,689.485948,1332.370696,8956.491898
661.409174,1225.752797,1998.556043,8068.244768
661.409490,1532.190996,1924.535449,7772.162391
661.409805,1991.848295,1184.329507,8068.244768
661.410121,1838.629195,-0.000000,8586.388927
661.410437,612.876398,-814.226536,8734.430116
661.410752,306.438199,-1554.432478,9844.739029
661.411068,0.000000,-1628.453072,10807.006753
661.411384,-459.657299,-1406.391290,11251.130318
661.411699,-689.485948,-962.267725,10881.027347
661.412015,-919.314598,-222.061783,10288.862594
661.412331,-995.924147,518.144159,9992.780217
661.412646,-153.219100,888.247130,9474.636058
661.412962,995.924147,1406.391290,8734.430116
